timestamp_acc,device_acc_x,device_acc_y,device_acc_z,earth_acc_x,earth_acc_y,earth_acc_z
180086295738926, 7.9860454, -0.68195444, 6.0430737, 0.020585477, -0.0019011497, 10.037944
180086305378406, 7.966903, -0.6987042, 6.0191455, 0.039117455, 0.009241581, 10.009408
180086315017885, 7.969296, -0.6628119, 6.02752, 0.0061887503, -0.003549099, 10.013988
180086324657364, 7.9884386, -0.6472585, 6.0490556, -0.009698391, -0.012592316, 10.041161
180086334296947, 7.9944205, -0.6329016, 6.058627, -0.021683991, -0.019535065, 10.050743
180086343936426, 8.018349, -0.6376872, 6.04427, -0.019447625, 0.007680416, 10.061479
180086353575906, 8.023134, -0.62931234, 6.013163, -0.030817151, 0.032944202, 10.046035
180086363215385, 8.032705, -0.613759, 6.013163, -0.04724288, 0.036101818, 10.052643
180086372854864, 8.055437, -0.61854464, 5.994021, -0.047114015, 0.06346369, 10.059557
180086382494447, 8.043473, -0.63529444, 5.959325, -0.031430423, 0.08483839, 10.030277
180086392133926, 8.032705, -0.634098, 5.9617176, -0.027615726, 0.071545124, 10.023105
180086401773406, 8.013563, -0.6161518, 5.98086, -0.040380836, 0.041911602, 10.01819
180086411412885, 8.023134, -0.6161518, 6.000003, -0.037631214, 0.030239105, 10.037333
180086421052364, 8.024331, -0.5982057, 6.003592, -0.055221796, 0.024383545, 10.039284
180086430691947, 8.017152, -0.60777694, 5.99761, -0.044494033, 0.02841425, 10.030586
180086440331426, 8.014759, -0.6113662, 6.0119667, -0.038256705, 0.01890564, 10.037533
180086449970906, 8.038688, -0.5922236, 6.0526447, -0.056021273, -4.7683716E-7, 10.079811
180086459610385, 8.066205, -0.60777694, 6.0825553, -0.041906476, -0.004675865, 10.120709
180086469249864, 8.059027, -0.61016977, 6.0921264, -0.036265194, -0.0153265, 10.120903
180086478889343, 8.062616, -0.6233303, 6.067002, -0.025790393, 0.009823322, 10.109504
180086488528926, 8.043473, -0.64008003, 6.050252, -0.0071575046, 0.015850544, 10.085257
180086498168406, 8.033902, -0.6580262, 6.033502, 0.010455668, 0.02651453, 10.06871
180086507807885, 8.01117, -0.6723832, 6.013163, 0.023989916, 0.028125763, 10.0393095
180086517447364, 7.9980097, -0.67118675, 6.013163, 0.0229249, 0.017199993, 10.028757
180086527086843, 7.958528, -0.67477596, 6.0023956, 0.030003667, 8.625984E-4, 9.991063
180086536726426, 7.962117, -0.6867401, 5.979664, 0.03844887, 0.023264885, 9.981047
180086546365906, 7.946564, -0.6855437, 5.979664, 0.037966967, 0.009789467, 9.968586
180086556005385, 7.9429746, -0.6735796, 6.003592, 0.029733181, -0.014980793, 9.979306
180086565644864, 7.9346, -0.66759753, 5.9964137, 0.02448231, -0.015220642, 9.967934
180086575284343, 7.9537425, -0.64845496, 6.0323057, 0.0074692965, -0.03552866, 10.003496
180086584923926, 7.98126, -0.6687939, 6.0550375, 0.027034879, -0.028369904, 10.040405
180086594563406, 8.026724, -0.6759724, 6.06102, 0.02706027, -0.0054597855, 10.080696
180086604202885, 8.014759, -0.6795616, 6.0753765, 0.035203815, -0.019652843, 10.080017
180086613842364, 8.026724, -0.6520442, 6.081359, 0.007221222, -0.022224426, 10.091374
180086623481843, 8.021938, -0.6305088, 6.081359, -0.013478816, -0.028728962, 10.086178
180086633121426, 8.013563, -0.61734825, 6.064609, -0.02636975, -0.023125172, 10.068593
180086642760906, 8.031509, -0.6029913, 6.0514483, -0.043778658, -0.005563259, 10.074066
180086652400385, 8.047063, -0.62931234, 6.0370917, -0.021016002, 0.018519402, 10.079533
180086662039864, 8.048259, -0.65324056, 6.0251274, 0.002022624, 0.030896664, 10.07484
180086671679343, 8.019546, -0.6472585, 5.994021, -0.0024054348, 0.037882805, 10.032891
180086681318926, 7.995617, -0.61854464, 5.9760747, -0.029031873, 0.032936096, 10.001202
180086690958406, 7.9920278, -0.6269195, 5.9700923, -0.020791829, 0.035415173, 9.995291
180086700597885, 7.972885, -0.6687939, 5.979664, 0.024546623, 0.021717548, 9.988468
180086710237364, 7.978867, -0.6664011, 5.989235, 0.02245915, 0.015787601, 9.998829
180086719876843, 7.9908314, -0.62931234, 6.0215383, -0.01320374, -0.0098724365, 10.025372
180086729516426, 7.9908314, -0.6329016, 6.023931, -0.010347545, -0.008453369, 10.0270405
180086739155906, 8.003992, -0.6305088, 6.0346985, -0.013578892, -0.009856224, 10.043842
180086748795385, 8.021938, -0.64247286, 6.0634127, -5.2422285E-4, -0.016370773, 10.076159
180086758434864, 8.017152, -0.62811595, 6.0574307, -0.014305115, -0.01731205, 10.067831
180086768074343, 8.021938, -0.62093747, 6.0550375, -0.020931423, -0.012773037, 10.069754
180086777713822, 8.039884, -0.6376872, 6.0514483, -0.0074197054, 0.0032224655, 10.0829735
180086787353406, 8.039884, -0.6376872, 6.033502, -0.0095734, 0.017410278, 10.072196
180086796992885, 8.024331, -0.6580262, 6.0490556, 0.015031159, -0.0011973381, 10.070438
180086806632364, 8.026724, -0.65084773, 6.020342, 0.004348755, 0.02029562, 10.05465
180086816271843, 8.006385, -0.6652047, 5.9724855, 0.015065014, 0.04708147, 10.010637
180086825911322, 7.975278, -0.6329016, 5.9748783, -0.011544168, 0.02103281, 9.9852
180086835550906, 7.978867, -0.6125626, 5.99761, -0.030220807, -0.001388073, 10.000399
180086845190385, 7.9860454, -0.65084773, 5.9904313, 0.006169796, 0.012712479, 10.004279
180086854829864, 7.9968133, -0.66400826, 5.9916277, 0.017291129, 0.02062273, 10.014431
180086864469343, 8.005188, -0.6520442, 6.0119667, 0.0066951513, 0.0073070526, 10.032538
180086874108822, 8.01117, -0.66759753, 6.0167527, 0.021187544, 0.011573315, 10.041178
180086883748301, 8.033902, -0.6556334, 6.056234, 0.010363281, -0.0067853928, 10.082224
180086893387885, 8.033902, -0.65084773, 6.0622163, 0.0058724284, -0.008913517, 10.08551
180086903027364, 8.012366, -0.6376872, 6.040681, -0.005946219, -0.0063614845, 10.054571
180086912666843, 8.018349, -0.62452674, 6.056234, -0.017632067, -0.018223286, 10.067835
180086922306322, 8.019546, -0.6305088, 6.0454664, -0.013232172, -0.007906914, 10.062708
180086931945801, 8.023134, -0.613759, 6.026324, -0.031467438, 0.002453804, 10.053007
180086941585385, 8.024331, -0.6089734, 6.0287166, -0.036040902, 4.7779083E-4, 10.055092
180086951224864, 8.018349, -0.62811595, 5.9784675, -0.021749139, 0.03859234, 10.021405
180086960864343, 7.989635, -0.66161543, 5.9545393, 0.013551056, 0.04586315, 9.986302
180086970503822, 7.993224, -0.6687939, 5.930611, 0.01754725, 0.066170216, 9.975288
180086980143301, 7.9776707, -0.6795616, 5.916254, 0.027715385, 0.06897879, 9.954977
180086989782781, 7.9968133, -0.66759753, 5.9581285, 0.016335428, 0.043101788, 9.994592
180086999422364, 7.995617, -0.6580262, 5.9880385, 0.010048628, 0.015710354, 10.010951
180087009061843, 8.005188, -0.6664011, 6.005985, 0.018620372, 0.008901596, 10.029882
180087018701322, 8.015956, -0.66041905, 6.068198, 0.019414246, -0.034404755, 10.075374
180087028340801, 8.008778, -0.6233303, 6.0837517, -0.010828316, -0.054985523, 10.076605
180087037980281, 8.006385, -0.61734825, 6.056234, -0.01951319, -0.03588009, 10.057816
180087047619760, 8.000402, -0.61734825, 6.0550375, -0.015865922, -0.036157608, 10.052338
180087057259343, 8.012366, -0.64247286, 6.0658054, 0.007924616, -0.032688618, 10.069939
180087066898822, 8.053044, -0.65084773, 6.1028943, 0.013868213, -0.037422657, 10.125159
180087076538301, 8.055437, -0.67836523, 6.096912, 0.039049923, -0.026335716, 10.125234
180087086177781, 8.039884, -0.6687939, 6.0454664, 0.02448076, 0.004447937, 10.081373
180087095817260, 8.002795, -0.6305088, 5.9545393, -0.017448127, 0.04737234, 9.994812
180087105456739, 7.932207, -0.6436693, 5.855237, -0.004309714, 0.08224249, 9.879841
180087115096322, 7.921439, -0.6520442, 5.8564334, 0.00580287, 0.07664013, 9.872501
180087124735801, 7.958528, -0.63529444, 5.9150577, -0.010496497, 0.041657925, 9.936189
180087134375281, 7.993224, -0.65324056, 5.979664, 0.007407069, 0.008471966, 10.00373
180087144014760, 8.002795, -0.6687939, 6.017949, 0.025388777, -0.014104843, 10.035282
180087153654239, 8.026724, -0.6891329, 6.000003, 0.039744437, 0.021966457, 10.044958
180087163293718, 8.030313, -0.66999036, 6.0023956, 0.022475362, 0.024576664, 10.048008
180087172933301, 8.015956, -0.61734825, 6.0107703, -0.023156226, 0.0039691925, 10.0382
180087182572781, 8.036295, -0.5814559, 6.0418773, -0.053352714, -0.014228821, 10.070818
180087192212260, 8.045866, -0.5946164, 6.076573, -0.036876142, -0.03455162, 10.100085
180087201851739, 8.051848, -0.5922236, 6.096912, -0.038039804, -0.048204422, 10.116896
180087211491218, 8.042277, -0.6197411, 6.0777693, -0.01309514, -0.032393932, 10.099523
180087221130697, 8.059027, -0.6221339, 6.0251274, -0.019772887, 0.020107746, 10.081484
180087230770176, 8.047063, -0.6376872, 5.9676995, -0.008522034, 0.06001997, 10.038509
180087240409760, 8.017152, -0.6448657, 5.918647, -0.0015822053, 0.08283949, 9.985696
180087250049239, 7.982456, -0.6436693, 5.8887367, 5.133152E-4, 0.07781553, 9.940075
180087259688718, 7.978867, -0.62811595, 5.9294147, -0.0097049475, 0.040620804, 9.960577
180087269328197, 7.978867, -0.64845496, 5.9617176, 0.014557242, 0.01455307, 9.981206
180087278967676, 8.001599, -0.62452674, 5.9844494, -0.009508789, 0.0047888756, 10.011451
180087288607156, 7.9968133, -0.6113662, 6.007181, -0.01917696, -0.01581335, 10.0204
180087298246635, 8.008778, -0.6113662, 6.0287166, -0.018087566, -0.01687479, 10.042864
180087307886218, 8.037491, -0.60777694, 6.058627, -0.02220887, -0.021391869, 10.083485
180087317525697, 8.04108, -0.6041877, 6.114858, -0.018379807, -0.06324196, 10.119841
180087327165176, 8.050652, -0.5802595, 6.1064835, -0.044543862, -0.055665016, 10.120955
180087336804656, 8.051848, -0.5515456, 6.029913, -0.079454124, 0.0011024475, 10.074225
180087346444135, 7.9740815, -0.90807617, 6.0837517, 0.2901404, -0.022090435, 10.066675
180087356083614, 8.069795, -0.47018966, 5.942575, -0.17619741, 0.056743145, 10.031083
180087365723093, 8.021938, -0.6053841, 6.033502, -0.023323, -0.020207882, 10.055853
180087375362572, 7.958528, -0.9487542, 5.8337016, 0.2997784, 0.16464615, 9.90724
180087385002156, 8.099705, -0.11964113, 5.9353967, -0.5240449, 0.011602402, 10.028645
180087394641635, 7.844869, -1.3483555, 5.919843, 0.71364045, 0.093755245, 9.893761
180087404281114, 8.163115, 0.12921242, 5.9545393, -0.77525824, -0.013039589, 10.075142
180087413920593, 7.818548, -1.4057833, 6.003592, 0.77847284, 0.027235508, 9.926847
180087423560072, 8.135597, 0.029910283, 5.881558, -0.69256824, 0.043362617, 10.014991
180087433199551, 7.8604226, -1.1330016, 6.053841, 0.51122546, -0.0391016, 9.972765
180087442839031, 8.048259, -0.37208393, 5.983253, -0.26821876, -0.005279541, 10.031962
180087452478510, 7.9968133, -0.61854464, 6.1495543, 6.1416626E-4, -0.12134361, 10.106132
180087462117989, 7.945368, -0.8925229, 5.9784675, 0.26297218, 0.04248905, 9.979809
180087471757572, 8.114061, -0.12921242, 6.0753765, -0.5062115, -0.080798626, 10.124332
180087481397051, 7.873583, -1.3052847, 6.056234, 0.69313335, 0.017104149, 9.994716
180087491036531, 8.188239, 0.12562318, 6.108876, -0.76670974, -0.10562849, 10.187366
180087500676010, 7.856833, -1.4273187, 6.1304116, 0.8267557, -0.038911343, 10.033144
180087510315489, 8.216953, 0.07776674, 5.9712887, -0.72464323, 0.020733356, 10.131887
180087519954968, 7.9298143, -1.1210374, 6.117251, 0.5005104, -0.039274216, 10.065158
180087529594447, 8.118847, -0.26799613, 5.9653068, -0.36994946, 0.03815317, 10.071447
180087539233926, 8.029117, -0.6329016, 6.0729837, 0.013419747, -0.03817177, 10.086962
180087548873406, 7.9908314, -0.8003992, 5.8803616, 0.16119534, 0.12430239, 9.951445
180087558512989, 8.122437, -0.12921242, 5.956932, -0.5081268, 0.003247261, 10.060692
180087568152468, 7.8759756, -1.2466606, 5.918647, 0.6169582, 0.114908695, 9.910685
180087577791947, 8.196614, 0.16271193, 6.0011992, -0.8080769, -0.06507158, 10.127594
180087587431426, 7.8460655, -1.3950156, 6.020342, 0.7881598, 0.045574665, 9.956306
180087597070906, 8.160722, 0.09451649, 5.851648, -0.7418992, 0.054287434, 10.014727
180087606710385, 7.874779, -1.2346965, 6.0119667, 0.61226356, 0.026439667, 9.965179
180087616349864, 8.099705, -0.24526432, 5.9150577, -0.4027542, 0.034885406, 10.024462
180087625989343, 7.982456, -0.7178468, 6.0957155, 0.10809511, -0.083387375, 10.068466
180087635628822, 7.9944205, -0.77407813, 5.9174504, 0.13800895, 0.07733297, 9.975027
180087645268301, 8.116454, -0.21655045, 6.0370917, -0.4128189, -0.059063435, 10.109219
180087654907781, 7.908279, -1.2646067, 6.0311093, 0.650127, 0.041599274, 10.004498
180087664547260, 8.2049885, 0.08973085, 6.09093, -0.72644204, -0.12435627, 10.192454
180087674186843, 7.85444, -1.4787644, 6.088537, 0.8640321, 0.018135548, 10.010113
180087683826322, 8.182257, 0.06580263, 5.9557357, -0.705711, -0.025091171, 10.09583
180087693465801, 7.816155, -1.3004991, 6.0370917, 0.69832844, -5.9223175E-4, 9.93692
180087703105281, 8.026724, -0.22971097, 5.8827543, -0.41525495, -0.004842758, 9.945622
180087712744760, 7.8687973, -0.8111669, 6.0550375, 0.21118039, -0.097070694, 9.959188
180087722384239, 7.8927255, -0.76570326, 5.885147, 0.13604659, 0.03999996, 9.87402
180087732023718, 8.026724, -0.33260235, 5.9676995, -0.29949963, -0.051855087, 10.002998
180087741663197, 7.8520474, -1.2705889, 5.898308, 0.6321547, 0.11333084, 9.88163
180087751302676, 8.147561, 0.034695927, 5.983253, -0.6734705, -0.06939268, 10.085878
180087760942156, 7.8221374, -1.4656038, 6.003592, 0.8405705, 0.03424549, 9.933237
180087770581635, 8.189436, 0.106480606, 5.871987, -0.7612407, 0.05447197, 10.04868
180087780221114, 7.8687973, -1.2969099, 6.0167527, 0.6850323, 0.00993824, 9.966539
180087789860593, 8.13799, -0.13399807, 5.928218, -0.51745176, 0.03022623, 10.055842
180087799500072, 7.987242, -0.7932207, 6.131608, 0.18419081, -0.1028595, 10.098383
180087809139551, 8.048259, -0.5886344, 5.9676995, -0.042628467, 0.028268337, 10.036522
180087818779031, 8.120044, -0.25722843, 6.046663, -0.36782813, -0.0550189, 10.120529
180087828418614, 7.960921, -1.105484, 5.9353967, 0.475132, 0.10879326, 9.979465
180087838058093, 8.2456665, 0.14596218, 6.0107703, -0.7785687, -0.046700954, 10.175134
180087847697572, 7.9130645, -1.3567305, 6.0514483, 0.74240464, 0.052529335, 10.026136
180087857337051, 8.2660055, 0.20219351, 5.953343, -0.83929354, 0.0038928986, 10.154094
180087866976531, 7.9597244, -1.2646067, 6.050252, 0.6457705, 0.041811943, 10.056998
180087876616010, 8.226524, -0.058624156, 5.877969, -0.58725584, 0.09196854, 10.093381
180087886255489, 8.000402, -0.8422736, 6.0897336, 0.24205029, -0.045885086, 10.086627
180087895894968, 8.054241, -0.55393845, 5.898308, -0.07143122, 0.079422474, 9.997814
180087905534447, 8.067402, -0.317049, 5.933004, -0.30638403, 0.016749859, 10.014484
180087915173926, 7.897511, -1.0624132, 5.852844, 0.4481256, 0.11081362, 9.87634
180087924813406, 8.155936, 0.0741775, 5.9880385, -0.6944972, -0.043317795, 10.094415
180087934452885, 7.8664045, -1.396212, 6.064609, 0.7924281, -0.0202322, 9.9990425
180087944092364, 8.224132, 0.17587246, 6.029913, -0.81598556, -0.0620389, 10.166487
180087953731843, 7.873583, -1.3615161, 6.0801625, 0.7535188, -0.018754005, 10.012356
180087963371322, 8.141579, -0.09332009, 5.936593, -0.5362011, 0.027708054, 10.06225
180087973010801, 7.9238324, -0.99302137, 6.1292152, 0.3895167, -0.089120865, 10.058868
180087982650281, 8.038688, -0.55513483, 5.9964137, -0.064596236, 0.0029921532, 10.043977
180087992289760, 8.02792, -0.46061835, 6.0981083, -0.15034401, -0.10124159, 10.090279
180088001929239, 7.9011, -1.1330016, 5.959325, 0.51152676, 0.06572008, 9.947798
180088011568718, 8.118847, -0.069391854, 6.0526447, -0.56298697, -0.10096216, 10.110778
180088021208197, 7.8089767, -1.4739788, 6.0658054, 0.8729298, -0.010543346, 9.9591465
180088030847676, 8.118847, 0.09092726, 5.992824, -0.73388916, -0.07735157, 10.064459
180088040487156, 7.783852, -1.451247, 6.038288, 0.837409, -0.006131649, 9.922405
180088050126635, 8.100901, -0.096909314, 5.8875403, -0.5456245, 0.02325201, 9.999945
180088059766114, 7.877172, -1.026521, 6.0729837, 0.41199, -0.07132673, 9.99049
180088069405593, 8.009974, -0.5096712, 5.930611, -0.12153554, 0.015478134, 9.9788065
180088079045072, 8.033902, -0.5192425, 6.046663, -0.10144913, -0.065905094, 10.067805
180088088684551, 7.9573317, -1.0253245, 5.9066825, 0.39224273, 0.09064913, 9.954761
180088098324031, 8.157132, -0.014356935, 5.989235, -0.61701155, -0.045300484, 10.100851
180088107963510, 7.8628154, -1.3387842, 5.9820566, 0.72405475, 0.034371853, 9.94363
180088117602989, 8.210971, 0.18305093, 5.9497533, -0.81370324, -0.034046173, 10.108899
180088127242468, 7.881958, -1.3627125, 5.9916277, 0.7483169, 0.03652048, 9.965969
180088136881947, 8.213364, 0.047856454, 5.8396835, -0.6904146, 0.08071661, 10.053873
180088146521426, 7.9704924, -1.0085747, 6.0119667, 0.40425086, 0.0056886673, 10.0262785
180088156160906, 8.123632, -0.36011982, 5.8767724, -0.2775072, 0.06806898, 10.028853
180088165800385, 8.090134, -0.46899325, 5.9820566, -0.1521548, -0.012813091, 10.071341
180088175439864, 8.035098, -0.86979103, 5.8468623, 0.23421729, 0.14655924, 9.971398
180088185079343, 8.216953, -0.0023928226, 5.940182, -0.6297384, -0.0066337585, 10.119659
180088194718822, 7.938189, -1.3076776, 5.940182, 0.7047044, 0.098174095, 9.975189
180088204358301, 8.256434, 0.22492532, 5.928218, -0.8488383, -0.013374805, 10.131258
180088213997781, 7.893922, -1.3483555, 5.953343, 0.74073446, 0.073424816, 9.950894
180088223637260, 8.202596, 0.069391854, 5.8337016, -0.69878477, 0.04951954, 10.041351
180088233276739, 7.944171, -1.0827522, 6.0107703, 0.48040617, -0.01012373, 10.009029
180088242916218, 8.124829, -0.35653058, 5.905486, -0.26233786, 0.038479805, 10.0471115
180088252555697, 8.032705, -0.6041877, 6.047859, 0.004853189, -0.07963371, 10.072719
180088262195176, 7.9704924, -0.9415757, 5.8875403, 0.32945788, 0.06839228, 9.948128
180088271834656, 8.126026, -0.12921242, 5.98086, -0.4832397, -0.05587864, 10.078841
180088281474135, 7.8496547, -1.3220345, 5.994021, 0.7251102, 0.0039367676, 9.938176
180088291113614, 8.142776, 0.14117654, 6.005985, -0.7459516, -0.123016834, 10.0908375
180088300753093, 7.8089767, -1.4356936, 6.0658054, 0.8460657, -0.06543207, 9.955664
180088310392572, 8.161918, 0.058624156, 5.942575, -0.67644393, -0.042010784, 10.073489
180088320032051, 7.8867435, -1.1772687, 6.105287, 0.5950158, -0.100589275, 10.024821
180088329671531, 8.093722, -0.34337005, 5.9557357, -0.27196348, -0.012251854, 10.051018
180088339311010, 8.036295, -0.67118675, 6.094519, 0.06642175, -0.09222269, 10.10756
180088348950489, 8.019546, -0.8350951, 5.8767724, 0.21108073, 0.10282898, 9.97456
180088358589968, 8.163115, -0.15194423, 5.940182, -0.47745156, 0.016173363, 10.085488
180088368229447, 7.9106717, -1.2753744, 5.922236, 0.6629278, 0.076441765, 9.941473
180088377868926, 8.216953, 0.1794617, 5.977271, -0.807996, -0.06758165, 10.130196
180088387508406, 7.867601, -1.3878372, 5.994021, 0.7861347, 0.018345833, 9.956665
180088397147885, 8.199007, 0.101694964, 5.828916, -0.7455927, 0.052077293, 10.032534
180088406787364, 7.9106717, -1.180858, 5.946164, 0.57156706, 0.042220592, 9.949954
180088416426843, 8.097312, -0.20697916, 5.834898, -0.42201525, 0.05119419, 9.973698
180088426066322, 7.9968133, -0.63529444, 6.0215383, 0.03535056, -0.07536459, 10.030186
180088435705801, 8.025527, -0.7322037, 5.8600225, 0.11616343, 0.08815098, 9.963123
180088445345281, 8.165507, -0.15792629, 5.9653068, -0.45654488, -0.025140285, 10.103281
180088454984760, 7.969296, -1.2191432, 5.95095, 0.6141042, 0.059871674, 10.001455
180088464624239, 8.280363, 0.17228323, 6.046663, -0.79174894, -0.0660429, 10.223746
180088474263718, 7.9597244, -1.3866407, 6.096912, 0.7950746, -0.0176301, 10.090583
180088483903197, 8.287541, 0.14955142, 5.9270215, -0.76909155, 0.018987656, 10.160877
180088493542676, 7.9357963, -1.2215359, 6.0346985, 0.64187026, -0.0021028519, 10.023703
180088503182156, 8.130812, -0.20458634, 5.8767724, -0.40449834, 0.04394102, 10.02611
180088512821635, 7.98126, -0.7501499, 6.058627, 0.16810024, -0.08479452, 10.046629
180088522461114, 7.972885, -0.72382885, 5.895915, 0.12314087, 0.034828663, 9.941643
180088532100593, 8.048259, -0.25962126, 5.95095, -0.3406734, -0.05882883, 10.006805
180088541740072, 7.87119, -1.2346965, 5.9090757, 0.6322464, 0.06977892, 9.899126
180088551379551, 8.161918, 0.07058827, 5.9988065, -0.6755226, -0.099047184, 10.1065035
180088561019031, 7.820941, -1.4584254, 6.0311093, 0.8697499, -0.017844677, 9.945433
180088570658510, 8.19781, 0.09930214, 5.9090757, -0.7191335, -0.007757187, 10.080373
180088580297989, 7.8759756, -1.3064811, 6.026324, 0.72366893, 0.005238056, 9.976509
180088589937468, 8.133204, -0.1794617, 5.912665, -0.43553716, 0.013318062, 10.047436
180088599576843, 7.958528, -0.81236327, 6.134001, 0.2281841, -0.14231491, 10.07729
180088609216322, 8.025527, -0.62931234, 5.9700923, 0.025709808, -0.0076594353, 10.022295
180088618855801, 8.099705, -0.28594232, 6.0574307, -0.31508398, -0.10143328, 10.112858
180088628495281, 7.9238324, -1.174876, 5.968896, 0.57197285, 0.04742527, 9.973253
180088638134760, 8.207381, 0.1052842, 6.023931, -0.72273386, -0.095611095, 10.155217
180088647774239, 7.873583, -1.4045869, 6.023931, 0.82198685, 0.027009964, 9.978853
180088657413718, 8.213364, 0.16031912, 5.9030933, -0.7933028, -0.004310131, 10.084752
180088667053197, 7.9190464, -1.3124632, 5.9653068, 0.71610576, 0.080322266, 9.974943
180088676692676, 8.199007, -0.07178468, 5.828916, -0.5718003, 0.07996321, 10.043495
180088686332156, 7.993224, -0.82672024, 6.0047884, 0.23354948, -0.02296114, 10.028834
180088695971635, 8.05783, -0.55513483, 5.838487, -0.06291169, 0.09240484, 9.965553
180088705611114, 8.10808, -0.29671, 5.9497533, -0.3130179, -0.015992641, 10.056358
180088715250593, 7.960921, -1.0492527, 5.871987, 0.436998, 0.11638689, 9.93745
180088724890072, 8.209774, 0.09212367, 5.9820566, -0.7056018, -0.07131529, 10.133654
180088734529551, 7.895118, -1.3770695, 6.0394845, 0.7897805, 0.017359734, 10.004026
180088744169031, 8.262417, 0.19501504, 5.9784675, -0.81869906, -0.058004856, 10.167299
180088753808510, 7.9369926, -1.294517, 6.068198, 0.70260847, 4.7397614E-4, 10.049925
180088763447989, 8.212168, -0.03589234, 5.942575, -0.5770022, 0.006096363, 10.120386
180088773087468, 7.978867, -0.90807617, 6.0897336, 0.32085776, -0.072907925, 10.07291
180088782726947, 8.067402, -0.5096712, 5.9377894, -0.09295559, 0.020551682, 10.029507
180088792366426, 8.060223, -0.39960137, 6.053841, -0.19205189, -0.09442091, 10.086132
180088802005906, 7.9357963, -1.0911272, 5.8839507, 0.4895119, 0.077893734, 9.926864
180088811645385, 8.141579, -0.0035892338, 5.956932, -0.6138159, -0.034830093, 10.069378
180088821284760, 7.834101, -1.3890336, 5.994021, 0.8073788, -0.025343895, 9.928663
180088830924239, 8.165507, 0.13040884, 5.9174504, -0.74396944, -0.019980907, 10.057577
180088840563718, 7.8281193, -1.402194, 5.9700923, 0.8043116, 0.010427952, 9.911638
180088850203197, 8.141579, -0.05742774, 5.8468623, -0.5796625, 0.040334225, 10.006837
180088859842676, 7.962117, -0.9798609, 6.068198, 0.38965148, -0.0632391, 10.051001
180088869482156, 8.090134, -0.49651068, 5.925825, -0.12581086, 0.034005642, 10.039681
180088879121635, 8.078169, -0.47018966, 6.0574307, -0.1324138, -0.08460808, 10.106714
180088888761114, 7.952546, -1.0205388, 5.916254, 0.41368842, 0.07043791, 9.955423
180088898400593, 8.161918, -0.01794617, 5.99761, -0.59969115, -0.07691097, 10.110539
180088908040072, 7.8699937, -1.3674982, 6.029913, 0.78163534, 0.010462761, 9.977757
180088917679551, 8.2145605, 0.1591227, 6.0215383, -0.7836666, -0.10427475, 10.155701
180088927319031, 7.850851, -1.3878372, 6.04427, 0.80522895, -0.016793728, 9.972286
180088936958510, 8.1738825, 0.020338992, 5.8731833, -0.6473307, 0.02151537, 10.04428
180088946597989, 7.9334035, -1.0205388, 6.0287166, 0.42994648, -0.02906704, 10.007004
180088956237468, 8.07458, -0.3792624, 5.9042897, -0.24166888, 0.018238068, 10.007227
180088965876947, 8.072187, -0.47258246, 6.0023956, -0.13212037, -0.044228554, 10.069403
180088975516426, 8.030313, -0.90807617, 5.849255, 0.28145647, 0.15056276, 9.97108
180088985155906, 8.236095, 0.010767702, 5.936593, -0.6429093, 0.0064325333, 10.132282
180088994795385, 7.958528, -1.3244274, 5.925825, 0.7183818, 0.123244286, 9.983807
180089004434864, 8.286345, 0.19621146, 5.925825, -0.8377432, 0.009562969, 10.154581
180089014074343, 7.9226356, -1.3698909, 5.968896, 0.771456, 0.08058643, 9.983529
180089023713822, 8.2253275, 0.051445685, 5.837291, -0.68390834, 0.07988548, 10.062729
180089033353301, 7.925029, -1.0600204, 6.0155563, 0.45980722, -0.028888226, 9.995219
180089042992676, 8.068598, -0.35294133, 5.8803616, -0.26197296, 0.024097443, 9.986805
180089052632260, 8.019546, -0.56470615, 6.046663, -0.03034252, -0.091620445, 10.059066
180089062271635, 7.96451, -0.92482597, 5.907879, 0.31737834, 0.057395935, 9.954283
180089071911114, 8.129615, -0.12083755, 6.0251274, -0.4840433, -0.089568615, 10.107676
180089081550593, 7.879565, -1.3411771, 6.0490556, 0.74910146, -0.022232533, 9.995787
180089091190072, 8.196614, 0.11246266, 6.0693946, -0.7304102, -0.12276983, 10.1728115
180089100829551, 7.84128, -1.4584254, 6.1244297, 0.88466996, -0.07477617, 10.016641
180089110469031, 8.200203, 0.039481573, 5.9916277, -0.6567929, -0.03861475, 10.134674
180089120108510, 7.9154572, -1.1330016, 6.1495543, 0.5393258, -0.1230073, 10.072199
180089129747989, 8.0817585, -0.30508488, 6.013163, -0.3020385, -0.060442448, 10.073289
180089139387468, 8.012366, -0.65922266, 6.09093, 0.056580484, -0.099322796, 10.08558
180089149026947, 7.984849, -0.86979103, 5.8947186, 0.25109023, 0.07954264, 9.959554
180089158666426, 8.1344, -0.17587246, 5.9760747, -0.45047498, -0.02269888, 10.085112
180089168305906, 7.893922, -1.3184453, 5.9581285, 0.71433705, 0.05922222, 9.951775
180089177945385, 8.210971, 0.13040884, 5.9820566, -0.75386834, -0.05156946, 10.131687
180089187584864, 7.8628154, -1.4201403, 5.968896, 0.8075041, 0.05820036, 9.94047
180089197224343, 8.181061, 0.07776674, 5.8229337, -0.7145477, 0.06523752, 10.016364
180089206863822, 7.908279, -1.1629118, 5.986842, 0.55197716, 0.0036520958, 9.9715
180089216503301, 8.12124, -0.2213361, 5.8935223, -0.41078442, 0.030513287, 10.028332
180089226142781, 8.018349, -0.64965135, 6.038288, 0.04767561, -0.06683016, 10.058338
180089235782260, 8.030313, -0.75254273, 5.8911295, 0.13304365, 0.07866001, 9.986679
180089245421739, 8.175078, -0.15792629, 5.99761, -0.4653641, -0.03026104, 10.129695
180089255061218, 7.948957, -1.1964114, 5.989235, 0.59729, 0.023161411, 10.006546
180089264700697, 8.268398, 0.16869399, 6.0598235, -0.79866695, -0.05676031, 10.221314
180089274340176, 7.9298143, -1.3782659, 6.0921264, 0.77789766, -0.03267765, 10.064263
180089283979656, 8.288737, 0.14117654, 5.938986, -0.7733582, 0.033494473, 10.168355
180089293619135, 7.9633136, -1.2000005, 6.0418773, 0.602975, 0.0012850761, 10.04963
180089303258614, 8.158329, -0.19980069, 5.8839507, -0.42677593, 0.0619545, 10.051524
180089312898093, 8.001599, -0.7369894, 6.020342, 0.1354177, -0.041217327, 10.039583
180089322537572, 7.995617, -0.73100734, 5.85763, 0.111471474, 0.08190489, 9.9376545
180089332177051, 8.106883, -0.23449662, 5.9497533, -0.38619405, -0.022079468, 10.051194
180089341816531, 7.9070826, -1.2071791, 5.8935223, 0.586224, 0.09888792, 9.917631
180089351456010, 8.161918, 0.10767702, 5.9844494, -0.7264961, -0.08620596, 10.094894
180089361095489, 7.8484583, -1.4476577, 6.038288, 0.84157264, -0.016516685, 9.972284
180089370734864, 8.19781, 0.09092726, 5.925825, -0.7238573, -0.015910625, 10.089774
180089380374343, 7.881958, -1.2993027, 6.033502, 0.6878087, -0.011225224, 9.987161
180089390013822, 8.114061, -0.20697916, 5.9270215, -0.43104202, 0.004295826, 10.041145
180089399653301, 7.9477606, -0.8578269, 6.113662, 0.26360357, -0.111133575, 10.059711
180089409292781, 8.003992, -0.7046863, 5.959325, 0.08427495, 0.013151169, 10.003337
180089418932260, 8.085348, -0.317049, 6.058627, -0.29858196, -0.099574566, 10.103527
180089428571739, 7.8927255, -1.2179468, 5.977271, 0.6054474, 0.05042219, 9.956766
180089438211218, 8.175078, 0.058624156, 6.0777693, -0.67321324, -0.15027523, 10.163603
180089447850697, 7.8580294, -1.4093726, 6.0981083, 0.8045514, -0.015172958, 10.013708
180089457490176, 8.1942215, 0.13998012, 5.9617176, -0.77048814, -0.06659269, 10.104894
180089467129656, 7.8891363, -1.3172488, 6.0083776, 0.69641966, 0.051294327, 9.979308
180089476769135, 8.157132, -0.11485548, 5.869594, -0.5285364, 0.044665813, 10.036076
180089486408614, 7.978867, -0.8470592, 6.0622163, 0.23154628, -0.052484512, 10.053555
180089496048093, 8.030313, -0.6221339, 5.9066825, -0.011151493, 0.052397728, 9.987943
180089505687572, 8.110473, -0.35413775, 5.960521, -0.28062212, -0.00366354, 10.067483
180089515327051, 7.946564, -1.105484, 5.845666, 0.47101724, 0.15355778, 9.914451
180089524966531, 8.181061, 0.07776674, 5.9521465, -0.71785235, -0.046358585, 10.091897
180089534606010, 7.853244, -1.4033905, 6.017949, 0.79363024, 0.01687622, 9.961351
180089544245489, 8.220542, 0.18305093, 5.9521465, -0.81440526, -0.047389507, 10.117973
180089553884968, 7.891529, -1.3136597, 6.02752, 0.70021, 0.01206255, 9.992123
180089563524447, 8.172686, -0.07058827, 5.930611, -0.5605145, -1.5306473E-4, 10.082447
180089573163926, 7.9740815, -0.9451649, 6.1064835, 0.3480507, -0.07424545, 10.081755
180089582803406, 8.055437, -0.5599205, 5.9676995, -0.059535325, 0.0062232018, 10.04059
180089592442885, 8.080562, -0.3804588, 6.064609, -0.23367804, -0.08589125, 10.10731
180089602082364, 7.9310107, -1.0743774, 5.9342003, 0.45694858, 0.055178165, 9.952795
180089611721843, 8.183454, -0.0047856453, 6.0251274, -0.6278875, -0.062838554, 10.142629
180089621361322, 7.8664045, -1.4392828, 6.0598235, 0.8442417, -0.0109272, 9.998023
180089631000801, 8.203793, 0.13878371, 5.9880385, -0.7803831, -0.050067425, 10.127516
180089640640281, 7.8257265, -1.3770695, 6.0011992, 0.76848894, 0.008529663, 9.927843
180089650279760, 8.126026, -0.05623133, 5.8229337, -0.58319885, 0.05786228, 9.979908
180089659919239, 7.9238324, -1.0001999, 6.029913, 0.3872298, -0.03526354, 9.999809
180089669558718, 8.059027, -0.5168497, 5.901897, -0.11893219, 0.04620695, 10.001556
180089679198197, 8.073383, -0.4749753, 5.9964137, -0.14838928, -0.02806139, 10.066742
180089688837676, 7.954939, -1.0348958, 5.8624153, 0.4039148, 0.11667395, 9.926894
180089698477156, 8.1738825, 0.0071784677, 5.992824, -0.6330518, -0.056492805, 10.115455
180089708116635, 7.8783684, -1.3722838, 6.046663, 0.7786924, -0.0037899017, 9.995379
180089717756114, 8.212168, 0.16271193, 6.02752, -0.7944142, -0.08839655, 10.156685
180089727395593, 7.8831544, -1.3591232, 6.088537, 0.77109814, -0.03434801, 10.023266
180089737035176, 8.179864, 0.02632105, 5.95095, -0.6502635, -0.027558327, 10.094606
180089746674656, 7.9393854, -1.0504491, 6.122037, 0.4534539, -0.075264454, 10.070022
180089756314135, 8.088937, -0.43429732, 5.9964137, -0.17992616, -0.024253368, 10.07688
180089765953614, 8.067402, -0.48454657, 6.0897336, -0.12357628, -0.095365524, 10.118215
180089775593093, 7.9740815, -0.95353985, 5.8971114, 0.33422047, 0.0943923, 9.957436
180089785232572, 8.182257, -0.05383851, 5.977271, -0.5709778, -0.025549889, 10.1169815
180089794872051, 7.9334035, -1.3603196, 5.9844494, 0.7447259, 0.07390547, 10.002145
180089804511531, 8.246863, 0.17228323, 5.960521, -0.7994006, -0.015451431, 10.145391
180089814151010, 7.9034934, -1.3734802, 5.9377894, 0.7692404, 0.09215546, 9.950315
180089823790489, 8.2014, 0.047856454, 5.7858453, -0.6876599, 0.11994696, 10.0126915
180089833429968, 7.946564, -1.0396814, 5.977271, 0.42764473, 0.0032353401, 9.988677
180089843069447, 8.129615, -0.34576288, 5.8683977, -0.2905637, 0.07307911, 10.027888
180089852708926, 8.054241, -0.5599205, 6.009574, -0.051620364, -0.044834614, 10.064525
180089862348406, 7.9860454, -0.91166544, 5.8624153, 0.29048812, 0.10501194, 9.943871
180089871987885, 8.183454, -0.09092726, 5.9952173, -0.53445095, -0.050866127, 10.130726
180089881627364, 7.914261, -1.2933207, 6.050252, 0.6933071, 0.0069441795, 10.021628
180089891266843, 8.2145605, 0.17108682, 6.078966, -0.77383506, -0.15766096, 10.190114
180089900906322, 7.874779, -1.4081762, 6.108876, 0.8310679, -0.037751675, 10.031021
180089910545801, 8.200203, 0.07776674, 5.966503, -0.69378185, -0.054743767, 10.11752
180089920185281, 7.932207, -1.134198, 6.111269, 0.5397707, -0.06479502, 10.062723
180089929824760, 8.128419, -0.32422748, 6.0083776, -0.29720783, -0.031598568, 10.108788
180089939464239, 8.035098, -0.64606214, 6.099305, 0.044743896, -0.097084045, 10.107932
180089949103718, 7.982456, -0.86979103, 5.8875403, 0.25011832, 0.08183813, 9.953393
180089958743197, 8.136793, -0.14356937, 5.956932, -0.47856778, -0.01863861, 10.073912
180089968382781, 7.8891363, -1.3447664, 5.922236, 0.7376119, 0.0862236, 9.928154
180089978022156, 8.193025, 0.11485548, 5.9449677, -0.7514435, -0.045289993, 10.095284
180089987661739, 7.844869, -1.43689, 5.9748783, 0.84144986, 0.03421402, 9.929582
180089997301218, 8.159525, 0.08015956, 5.8241305, -0.72668207, 0.041804314, 9.998747
180090006940697, 7.8699937, -1.2059826, 5.956932, 0.6083757, 0.020903587, 9.925003
180090016580176, 8.079366, -0.27038896, 5.8827543, -0.35094196, 0.010714531, 9.991635
180090026219656, 7.993224, -0.6735796, 6.068198, 0.079431474, -0.10018873, 10.057437
180090035859135, 8.005188, -0.7728817, 5.907879, 0.15525138, 0.05871153, 9.977768
180090045498614, 8.1738825, -0.16869399, 6.020342, -0.44903082, -0.05945015, 10.142986
180090055138093, 7.958528, -1.2562319, 6.0047884, 0.6458889, 0.05989313, 10.027613
180090064777572, 8.267202, 0.15553348, 6.0634127, -0.76659036, -0.10779047, 10.224311
180090074417051, 7.9238324, -1.3794622, 6.1028943, 0.7998324, -0.0063347816, 10.06457
180090084056531, 8.26122, 0.17706887, 5.9545393, -0.7970923, -0.028665066, 10.15379
180090093696010, 7.954939, -1.1473584, 6.058627, 0.56274486, -0.01137495, 10.049261
180090103335489, 8.172686, -0.17587246, 5.899504, -0.44430596, 0.034919262, 10.07121
180090112974968, 8.036295, -0.7298109, 6.06102, 0.13980371, -0.058396816, 10.09097
180090122614551, 8.035098, -0.73459655, 5.861219, 0.118041515, 0.09870958, 9.971592
180090132254031, 8.143971, -0.21894327, 5.9114685, -0.39951444, 0.022510052, 10.057711
180090141893510, 7.911868, -1.2287145, 5.832505, 0.6141558, 0.14187479, 9.8857565
180090151532989, 8.184649, 0.11006984, 5.918647, -0.7363971, -0.02224207, 10.074135
180090161172468, 7.838887, -1.4261223, 5.9844494, 0.8449142, 0.0038237572, 9.928833
180090170811947, 8.2014, 0.12921242, 5.8863435, -0.76302576, 0.012114525, 10.067093
180090180451426, 7.88794, -1.262214, 6.033502, 0.6681346, -0.029400349, 9.988426
180090190090906, 8.130812, -0.1794617, 5.9557357, -0.43795735, -0.027932644, 10.070774
180090199730385, 7.9908314, -0.79441714, 6.145965, 0.20878923, -0.14237833, 10.10908
180090209369864, 8.036295, -0.67118675, 5.977271, 0.06835717, 0.0030884743, 10.03771
180090219009343, 8.124829, -0.30149564, 6.068198, -0.29625374, -0.09451914, 10.140516
180090228648822, 7.954939, -1.1796615, 5.99761, 0.58165836, 0.039188385, 10.015195
180090238288301, 8.2253275, 0.10289137, 6.04427, -0.7147952, -0.09820795, 10.182301
180090247927885, 7.893922, -1.402194, 6.0598235, 0.8270143, 0.0016937256, 10.01587
180090257567364, 8.23131, 0.1471586, 5.928218, -0.77543753, -0.011962414, 10.115258
180090267206843, 7.895118, -1.2897314, 5.989235, 0.69374985, 0.026537418, 9.969214
180090276846322, 8.151151, -0.09212367, 5.834898, -0.5273536, 0.05815983, 10.01071
180090286485801, 7.969296, -0.8315059, 6.005985, 0.24596542, -0.034814358, 10.010556
180090296125281, 8.04467, -0.6053841, 5.8396835, -0.0115968585, 0.09049368, 9.958754
180090305764760, 8.088937, -0.317049, 5.9042897, -0.29222423, 0.0032339096, 10.015321
180090315404239, 7.9334035, -1.0743774, 5.8265233, 0.47219747, 0.12987947, 9.889477
180090325043718, 8.105687, -0.37567315, 5.966503, -0.22151315, -0.02457714, 10.0694
180090334683301, 8.072187, -0.6364908, 5.983253, 0.0369367, -4.067421E-4, 10.067934
180090344322781, 8.094919, -0.57547385, 5.956932, -0.030655086, 0.024429798, 10.066895
180090353962260, 8.098508, -0.5886344, 5.9760747, -0.014903605, 0.01556015, 10.081931
180090363601739, 8.1020975, -0.5623133, 6.026324, -0.035048544, -0.027490616, 10.1131
180090373241218, 8.109276, -0.53240305, 6.007181, -0.06631249, -0.01472187, 10.105712
180090382880697, 8.084151, -0.5694918, 5.9760747, -0.027852714, 0.0035090446, 10.069286
180090392520176, 8.0817585, -0.56829536, 5.977271, -0.02550751, -0.0017967224, 10.068012
180090402159656, 8.075776, -0.58624154, 5.9916277, -0.0052554607, -0.013185501, 10.072797
180090411799135, 8.069795, -0.58624154, 5.9988065, -0.004534185, -0.023688316, 10.072258
180090421438718, 8.047063, -0.5886344, 5.979664, -9.0283155E-4, -0.021032333, 10.042792
180090431078197, 8.053044, -0.59940207, 5.9724855, 0.006884098, -0.009264469, 10.043967
180090440717676, 8.0614195, -0.6257231, 5.989235, 0.03319472, -0.012578487, 10.062192
180090450357156, 8.048259, -0.62811595, 5.959325, 0.034729123, 0.0034365654, 10.03401
180090459996635, 8.019546, -0.57547385, 5.9641104, -0.01030308, -0.028015137, 10.0106945
180090469636114, 8.035098, -0.587438, 5.960521, -0.0015113354, -0.013951302, 10.021751
180090479275593, 8.053044, -0.58265233, 5.985646, -0.0039582253, -0.02575779, 10.050785
180090488915072, 8.048259, -0.60777694, 5.9724855, 0.019829035, -0.0133013725, 10.040611
180090498554656, 8.068598, -0.58624154, 5.9760747, -0.005345285, -0.0072431564, 10.0578
180090508194135, 8.0614195, -0.57906306, 5.9760747, -0.012277663, -0.011451244, 10.051618
180090517833614, 8.097312, -0.60059845, 5.98086, 0.003535688, 0.009590626, 10.084532
180090527473093, 8.085348, -0.62093747, 5.977271, 0.02424115, 0.011023998, 10.074
180090537112572, 8.059027, -0.6017949, 5.9676995, 0.008654177, 2.965927E-4, 10.046066
180090546752051, 8.053044, -0.57906306, 5.966503, -0.012770236, -0.0066275597, 10.039213
180090556391635, 8.032705, -0.56829536, 5.9712887, -0.018614113, -0.024400234, 10.025101
180090566031114, 8.04467, -0.5982057, 5.959325, 0.0075985193, -0.0015759468, 10.02936
180090575670593, 8.04108, -0.6053841, 5.9676995, 0.016325533, -0.0080657005, 10.0318775
180090585310072, 8.051848, -0.5922236, 5.9784675, 0.001103878, -0.012770653, 10.046139
180090594949551, 8.066205, -0.60059845, 6.0011992, 0.009955466, -0.020766735, 10.071655
180090604589031, 8.080562, -0.5946164, 5.992824, 5.9366226E-5, -0.006863594, 10.077844
180090614228510, 8.086544, -0.58504516, 5.9676995, -0.013448536, 0.015347958, 10.067148
180090623868093, 8.051848, -0.6017949, 5.9437714, 0.007058561, 0.01828003, 10.026089
180090633507572, 8.066205, -0.59581286, 5.9294147, -6.853342E-4, 0.03557825, 10.028726
180090643147051, 8.065009, -0.59342, 5.922236, -0.0038972497, 0.038614273, 10.023367
180090652786531, 8.068598, -0.5802595, 5.9210396, -0.017951608, 0.037511826, 10.024768
180090662426010, 8.073383, -0.6041877, 5.916254, 0.0047531724, 0.04740143, 10.027181
180090672065489, 8.062616, -0.6149554, 5.922236, 0.017286003, 0.037557602, 10.02273
180090681705072, 8.0614195, -0.6089734, 5.9318075, 0.012543261, 0.027846813, 10.027101
180090691344551, 8.060223, -0.6125626, 5.9521465, 0.018686593, 0.012091637, 10.0384245
180090700984031, 8.069795, -0.5946164, 5.977271, 0.002701819, -0.005853653, 10.059964
180090710623510, 8.068598, -0.57188463, 6.013163, -0.014496386, -0.038793087, 10.078974
180090720262989, 8.066205, -0.58504516, 6.020342, 9.917021E-4, -0.040683746, 10.082102
180090729902468, 8.076973, -0.5838487, 6.0323057, -8.223653E-4, -0.0442605, 10.097777
180090739542051, 8.072187, -0.5814559, 6.0215383, -0.0030018687, -0.03836012, 10.087404
180090749181531, 8.053044, -0.5946164, 6.0215383, 0.012776613, -0.04683733, 10.072818
180090758821010, 8.059027, -0.60658056, 6.000003, 0.020472288, -0.024917603, 10.065528
180090768460489, 8.0614195, -0.59342, 5.994021, 0.005647123, -0.02222538, 10.06312
180090778099968, 8.054241, -0.6041877, 5.985646, 0.015474796, -0.019723892, 10.053019
180090787739447, 8.056634, -0.6125626, 5.948557, 0.01904589, 0.012557507, 10.033414
180090797379031, 8.056634, -0.6089734, 5.9270215, 0.012841344, 0.029229164, 10.020418
180090807018510, 8.036295, -0.6017949, 5.9318075, 0.008677602, 0.013381958, 10.006512
180090816657989, 8.04467, -0.58624154, 5.9353967, -0.00744009, 0.0125489235, 10.014446
180090826297468, 8.032705, -0.57547385, 5.946164, -0.016079605, -0.0025110245, 10.010601
180090835936947, 8.043473, -0.59940207, 5.956932, 0.006248653, 0.002213478, 10.02705
180090845576531, 8.05783, -0.6125626, 5.9712887, 0.017177224, 0.008714676, 10.0478735
180090855216010, 8.049456, -0.5778667, 5.9712887, -0.015987754, -2.5606155E-4, 10.039108
180090864855489, 8.053044, -0.59700924, 5.992824, 0.005192578, -0.009625435, 10.055931
180090874494968, 8.049456, -0.57188463, 6.005985, -0.017168999, -0.027095795, 10.059403
180090884134447, 8.050652, -0.5694918, 5.99761, -0.019584954, -0.018070698, 10.055244
180090893774031, 8.072187, -0.5910272, 5.9760747, -0.0036643147, 0.015192509, 10.060952
180090903413510, 8.062616, -0.5922236, 5.983253, -1.2528896E-4, 0.0041913986, 10.057626
180090913052989, 8.086544, -0.58624154, 5.99761, -0.0075814724, 0.0033626556, 10.084995
180090922692468, 8.084151, -0.5706882, 5.9653068, -0.025841951, 0.022746086, 10.062946
180090932331947, 8.080562, -0.5587241, 5.956932, -0.03608936, 0.021894932, 10.054398
180090941971531, 8.086544, -0.5587241, 5.959325, -0.035230577, 0.021787643, 10.060627
180090951611010, 8.075776, -0.5623133, 5.942575, -0.03199768, 0.02949047, 10.042244
180090961250489, 8.075776, -0.5814559, 5.9521465, -0.010545909, 0.024439812, 10.04906
180090970889968, 8.073383, -0.5922236, 5.968896, 0.002790451, 0.010658741, 10.057726
180090980529447, 8.075776, -0.60059845, 5.9700923, 0.009618521, 0.012209892, 10.060846
180090990169031, 8.069795, -0.59700924, 5.979664, 0.008127093, 5.569458E-4, 10.061527
180090999808510, 8.060223, -0.6041877, 5.9964137, 0.017338157, -0.01700735, 10.064226
180091009447989, 8.047063, -0.6053841, 5.983253, 0.018694878, -0.013217926, 10.04592
180091019087468, 8.062616, -0.6113662, 5.9844494, 0.021873415, -0.003528595, 10.059458
180091028726947, 8.047063, -0.58983076, 5.985646, 0.003474474, -0.01775074, 10.046431
180091038366531, 8.050652, -0.58504516, 5.9748783, -0.003512919, -0.008407116, 10.042627
180091048006010, 8.049456, -0.5910272, 5.98086, 0.0030406713, -0.013255596, 10.045574
180091057645489, 8.0614195, -0.59940207, 5.9724855, 0.008264184, 0.0019102097, 10.050686
180091067284968, 8.075776, -0.60777694, 5.977271, 0.01433748, 0.007404804, 10.065539
180091076924447, 8.072187, -0.60059845, 5.960521, 0.005602777, 0.016362667, 10.052286
180091086564031, 8.059027, -0.6029913, 5.959325, 0.009848237, 0.008748531, 10.04116
180091096203510, 8.038688, -0.5778667, 5.9473605, -0.012879252, 0.001639843, 10.016255
180091105842989, 8.043473, -0.60777694, 5.956932, 0.017635524, 0.0016374588, 10.02754
180091115482468, 8.029117, -0.61016977, 5.9521465, 0.021279335, -0.0020356178, 10.013321
180091125122051, 8.032705, -0.59342, 5.966503, 0.004990101, -0.013819218, 10.023744
180091134761531, 8.043473, -0.56350976, 5.9700923, -0.026431203, -0.01464653, 10.032753
180091144401010, 8.066205, -0.573081, 5.9617176, -0.021687925, 0.0086193085, 10.046574
180091154040489, 8.10808, -0.6017949, 5.9581285, -8.171797E-4, 0.04122162, 10.079719
180091163679968, 8.105687, -0.6041877, 5.953343, 0.002127707, 0.044659138, 10.075093
180091173319551, 8.099705, -0.57427746, 5.9521465, -0.025371194, 0.035754204, 10.067828
180091182959031, 8.094919, -0.5599205, 5.960521, -0.036628306, 0.022269249, 10.068129
180091192598510, 8.082955, -0.5814559, 5.9437714, -0.012962818, 0.029801846, 10.049856
180091202237989, 8.056634, -0.5802595, 5.933004, -0.011318266, 0.02294445, 10.022272
180091211877572, 8.066205, -0.5587241, 5.9449677, -0.031993926, 0.012602806, 10.035802
180091221517051, 8.060223, -0.5455636, 5.9545393, -0.04248327, -0.004477024, 10.0359125
180091231156531, 8.066205, -0.55513483, 5.948557, -0.03444779, 0.004524708, 10.037726
180091240796010, 8.0817585, -0.57188463, 5.9377894, -0.022062063, 0.025426865, 10.044804
180091250435489, 8.069795, -0.5838487, 5.9449677, -0.007123828, 0.014685631, 10.040162
180091260075072, 8.059027, -0.56590253, 5.956932, -0.021445751, -0.004468918, 10.037566
180091269714551, 8.07458, -0.5778667, 5.968896, -0.010893047, -0.0017962456, 10.057852
180091279354031, 8.066205, -0.59581286, 5.9880385, 0.010253251, -0.018456459, 10.063539
180091288993510, 8.09133, -0.5910272, 6.005985, 0.0032414794, -0.018032074, 10.09408
