timestamp_acc,device_acc_x,device_acc_y,device_acc_z,earth_acc_x,earth_acc_y,earth_acc_z
179820864755164, 6.323034, -0.33738798, 7.8352976, 0.016134024, 0.01431036, 10.074027
179820874394539, 6.3110695, -0.31585258, 7.8436728, -0.00931406, 0.0057206154, 10.072361
179820884033810, 6.300302, -0.31345975, 7.836494, -0.0134859085, 0.0012450218, 10.059946
179820893673185, 6.300302, -0.32183465, 7.8317084, -0.0045000315, 0.0018119812, 10.056492
179820903312560, 6.2811594, -0.30867413, 7.816155, -0.017792702, -4.1246414E-4, 10.03196
179820912951831, 6.2847486, -0.30987054, 7.8077803, -0.014221787, 0.0067720413, 10.027725
179820922591206, 6.2883377, -0.30269206, 7.8317084, -0.024705768, -0.0026769638, 10.048376
179820932230476, 6.306284, -0.30867413, 7.8113694, -0.010215759, 0.022129059, 10.043974
179820941869851, 6.2991056, -0.33140594, 7.804191, 0.011800051, 0.015049934, 10.034621
179820951509226, 6.3014984, -0.33020952, 7.7790666, 0.015860796, 0.032230377, 10.016512
179820961148497, 6.3134627, -0.35413775, 7.7742805, 0.041852713, 0.037967682, 10.021052
179820970787872, 6.306284, -0.34097722, 7.7994056, 0.021981597, 0.0214777, 10.035698
179820980427143, 6.283552, -0.36370903, 7.8293157, 0.03078401, -0.0186944, 10.045507
179820990066518, 6.285945, -0.37806597, 7.844869, 0.04087746, -0.028714657, 10.059598
179820999705893, 6.2931237, -0.38165522, 7.8664045, 0.04153025, -0.03702116, 10.080987
179821009345164, 6.283552, -0.3493521, 7.867601, 0.007168293, -0.034790516, 10.074868
179821018984539, 6.290731, -0.317049, 7.8556366, -0.021136045, -0.011909485, 10.0689745
179821028623810, 6.3134627, -0.27876383, 7.8484583, -0.052663684, 0.02141285, 10.07634
179821038263185, 6.3122663, -0.25962126, 7.873583, -0.07699013, 0.011271477, 10.094522
179821047902560, 6.3541408, -0.25842485, 7.865208, -0.06815255, 0.048294067, 10.114169
179821057541831, 6.3314085, -0.2739782, 7.8424764, -0.053133607, 0.0404253, 10.082746
179821067181206, 6.303891, -0.27038896, 7.8352976, -0.059701443, 0.023569584, 10.059817
179821076820581, 6.300302, -0.2835495, 7.8029947, -0.04070604, 0.035714626, 10.032846
179821086459851, 6.2751775, -0.31585258, 7.8089767, -0.012262106, 0.003909588, 10.022854
179821096099226, 6.279963, -0.3182454, 7.826923, -0.01172626, -0.0035972595, 10.03991
179821105738497, 6.276374, -0.317049, 7.8376904, -0.01538837, -0.012518406, 10.046014
179821115377872, 6.285945, -0.33020952, 7.8484583, -0.0028176308, -0.014276981, 10.060827
179821125017247, 6.2811594, -0.33140594, 7.865208, -0.005478263, -0.027858734, 10.070923
179821134656518, 6.2979093, -0.32422748, 7.864012, -0.0092071295, -0.012204647, 10.08024
179821144295893, 6.337391, -0.30987054, 7.836494, -0.0116990805, 0.037876606, 10.083037
179821153935164, 6.343373, -0.30867413, 7.813762, -0.0056757927, 0.055065632, 10.0690365
179821163574539, 6.3326054, -0.29312077, 7.8089767, -0.02073288, 0.051872253, 10.058071
179821173213914, 6.320641, -0.30987054, 7.780263, 6.651878E-5, 0.05472946, 10.02876
179821182853185, 6.3158555, -0.31106696, 7.789834, -4.9602985E-4, 0.044309616, 10.033262
179821192492560, 6.289534, -0.32183465, 7.8077803, 0.002014041, 0.010859013, 10.031108
179821202131935, 6.285945, -0.31585258, 7.838887, -0.009279847, -0.009413719, 10.052904
179821211771206, 6.263213, -0.3493521, 7.844869, 0.018328309, -0.038300037, 10.044405
179821221410581, 6.276374, -0.35533416, 7.8484583, 0.026100159, -0.03127384, 10.055635
179821231049851, 6.2883377, -0.36131623, 7.850851, 0.03325212, -0.024355888, 10.065184
179821240689226, 6.2715883, -0.34337005, 7.8496547, 0.0126315355, -0.031595707, 10.053191
179821250328601, 6.29432, -0.33260235, 7.84128, 0.007119417, -0.0059509277, 10.060551
179821259967872, 6.303891, -0.32303107, 7.853244, -0.002639532, -0.003469944, 10.075556
179821269607247, 6.314659, -0.30867413, 7.856833, -0.015143037, 0.0063667297, 10.084629
179821279246518, 6.3110695, -0.29671, 7.832905, -0.022751331, 0.020951271, 10.0633545
179821288885893, 6.2931237, -0.2883351, 7.836494, -0.034790993, 0.0060009956, 10.054648
179821298525268, 6.3050876, -0.29790643, 7.800602, -0.01714909, 0.030723572, 10.0344925
179821308164539, 6.306284, -0.3062813, 7.7910304, -0.0071259737, 0.035262108, 10.028055
179821317803914, 6.306284, -0.30987054, 7.7754774, -0.0011233091, 0.041737556, 10.016066
179821327443185, 6.296713, -0.32183465, 7.783852, 0.007150054, 0.024980068, 10.016978
179821337082560, 6.3014984, -0.3397808, 7.7874413, 0.024661303, 0.021149635, 10.023349
179821346721935, 6.289534, -0.34456646, 7.804191, 0.023938417, 8.4257126E-4, 10.029047
179821356361206, 6.3158555, -0.35413775, 7.8293157, 0.031588078, 0.003636837, 10.065418
179821366000581, 6.3314085, -0.35174492, 7.8221374, 0.03233826, 0.020015717, 10.069503
179821375639851, 6.3122663, -0.33020952, 7.8257265, 0.0073331594, 0.00924015, 10.059605
179821385279226, 6.2919273, -0.33738798, 7.8376904, 0.005867362, -0.015969276, 10.056406
179821394918601, 6.2847486, -0.3182454, 7.8376904, -0.015342712, -0.016625881, 10.051279
179821404557872, 6.283552, -0.31226337, 7.844869, -0.023716807, -0.020514011, 10.05592
179821414197247, 6.2991056, -0.28953153, 7.82453, -0.03831482, 0.009502888, 10.049093
179821423836622, 6.3086767, -0.27517462, 7.8017983, -0.045456767, 0.034624577, 10.036927
179821433475893, 6.3158555, -0.28713873, 7.8053875, -0.03273666, 0.034039974, 10.044617
179821443115268, 6.3218374, -0.2943172, 7.773084, -0.01837802, 0.05444002, 10.023462
179821452754539, 6.3338017, -0.30269206, 7.7910304, -0.012690425, 0.049027443, 10.045211
179821462393914, 6.3218374, -0.30388847, 7.7946196, -0.014682174, 0.03567648, 10.040546
179821472033289, 6.3218374, -0.32063824, 7.795816, 7.944107E-4, 0.028021812, 10.042032
179821481672560, 6.3122663, -0.34097722, 7.7874413, 0.020082235, 0.019759178, 10.030176
179821491311935, 6.3110695, -0.3493521, 7.773084, 0.030179858, 0.024152279, 10.018532
179821500951206, 6.306284, -0.37567315, 7.792227, 0.051148057, 0.0019726753, 10.031277
179821510590581, 6.2883377, -0.35294133, 7.8029947, 0.022931218, -0.013250351, 10.027651
179821520229956, 6.285945, -0.35653058, 7.813762, 0.02167666, -0.021616936, 10.034647
179821529869226, 6.3134627, -0.34576288, 7.832905, 0.012735724, -0.009425163, 10.066454
179821539508601, 6.314659, -0.317049, 7.85444, -0.020097733, -0.01346302, 10.08301
179821549147872, 6.3385873, -0.31465617, 7.8484583, -0.017888188, 0.008760452, 10.093294
179821558787247, 6.337391, -0.3062813, 7.826923, -0.02228415, 0.022789001, 10.075518
179821568426622, 6.330212, -0.2943172, 7.8053875, -0.030629873, 0.031791687, 10.053871
179821578065893, 6.320641, -0.28115666, 7.793423, -0.042919755, 0.03508997, 10.038124
179821587705268, 6.3014984, -0.30149564, 7.771888, -0.02103126, 0.025820732, 10.01004
179821597344539, 6.3182483, -0.30508488, 7.773084, -0.014343977, 0.03694725, 10.021607
179821606983914, 6.3134627, -0.3182454, 7.756335, 0.0014078617, 0.038802147, 10.006015
179821616623185, 6.3014984, -0.32662028, 7.7742805, 0.0037095547, 0.016015053, 10.012728
179821626262560, 6.283552, -0.33499518, 7.792227, 0.0047792196, -0.010965824, 10.015682
179821635901935, 6.3050876, -0.3278167, 7.810173, -0.0018873215, -0.0022091866, 10.042929
179821645541206, 6.306284, -0.33499518, 7.830512, 0.0012278557, -0.0147743225, 10.059729
179821655180581, 6.3014984, -0.33738798, 7.850851, -0.0014287233, -0.030669212, 10.0726185
179821664819851, 6.330212, -0.34337005, 7.8352976, 0.012965202, -0.0013728142, 10.07875
179821674459226, 6.337391, -0.3278167, 7.8197446, 0.0022132397, 0.017389774, 10.070656
179821684098601, 6.3254266, -0.32662028, 7.7874413, 0.0050657988, 0.028001308, 10.037985
179821693737872, 6.314659, -0.30987054, 7.7850485, -0.012984276, 0.023827076, 10.028816
179821703377247, 6.303891, -0.30508488, 7.771888, -0.01698339, 0.024951458, 10.011666
179821713016518, 6.3110695, -0.3062813, 7.769495, -0.014278889, 0.030770779, 10.014355
179821722655893, 6.314659, -0.31226337, 7.7910304, -0.013651133, 0.01767397, 10.033549
179821732295268, 6.3134627, -0.31345975, 7.789834, -0.01264739, 0.017045021, 10.031906
179821741934539, 6.3182483, -0.33020952, 7.797013, 0.00251472, 0.0119662285, 10.041044
179821751573914, 6.3122663, -0.3278167, 7.838887, -0.0093125105, -0.016501904, 10.069756
179821761213185, 6.302695, -0.3278167, 7.8520474, -0.013204336, -0.029891014, 10.0739765
179821770852560, 6.3122663, -0.34097722, 7.850851, 0.0016036034, -0.025426865, 10.079493
179821780491831, 6.3361945, -0.33140594, 7.826923, 0.0018649101, 0.010184288, 10.075605
179821790131206, 6.3338017, -0.33260235, 7.8089767, 0.0066502094, 0.017579079, 10.06019
179821799770476, 6.3278193, -0.33379877, 7.8017983, 0.008093834, 0.015653133, 10.050895
179821809409851, 6.3361945, -0.3290131, 7.7682986, 0.011469126, 0.04331112, 10.02996
179821819049226, 6.309873, -0.30508488, 7.7623167, -0.015840054, 0.03183317, 10.00799
179821828688497, 6.3182483, -0.30149564, 7.7479596, -0.015679479, 0.045766354, 10.001984
179821838327872, 6.309873, -0.29072794, 7.737192, -0.02602148, 0.0470953, 9.988007
179821847967143, 6.3254266, -0.27517462, 7.7419777, -0.04111576, 0.056992054, 10.001001
179821857606518, 6.326623, -0.29072794, 7.771888, -0.032103658, 0.034679413, 10.025501
179821867245789, 6.3122663, -0.3182454, 7.797013, -0.012939692, 0.0016584396, 10.036894
179821876885164, 6.3122663, -0.3385844, 7.8197446, 0.0025070906, -0.017474651, 10.055221
179821886524539, 6.326623, -0.34097722, 7.8197446, 0.008181334, -0.0065641403, 10.064329
179821896163810, 6.309873, -0.20219351, 7.8628154, -0.1355604, -0.0017752647, 10.082702
179821905803185, 6.3314085, -0.4989035, 7.789834, 0.17077911, -0.028786182, 10.049237
179821915442456, 6.317052, 0.0047856453, 7.9238324, -0.3413546, 0.029449463, 10.127927
179821925081831, 6.2727847, -0.88414794, 7.7383885, 0.5341027, -0.15395594, 9.985151
179821934721101, 6.40439, 0.27876383, 7.941778, -0.5934957, 0.17679214, 10.187357
179821944360476, 6.1627145, -0.98943216, 7.7036924, 0.61128247, -0.25348902, 9.892773
179821953999747, 6.4666033, 0.32542387, 7.877172, -0.60377824, 0.2646861, 10.175366
179821963639122, 6.1028943, -0.8350951, 7.783852, 0.451311, -0.29111576, 9.911742
179821973278393, 6.5635123, 0.11006984, 7.6917286, -0.3408879, 0.37952757, 10.09922
179821982917768, 6.235696, -0.44626144, 7.759924, 0.10347307, -0.061895847, 9.964183
179821992557143, 6.361319, -0.41635114, 7.665407, 0.1225692, 0.09237099, 9.968683
179822002196414, 6.3134627, -0.0035892338, 7.8759756, -0.32471633, 0.04585743, 10.088769
179822011835789, 6.279963, -0.8542377, 7.7419777, 0.50757635, -0.14373493, 9.991375
179822021475060, 6.4067826, 0.2656033, 7.940582, -0.57435036, 0.15165615, 10.189082
179822031114435, 6.172286, -1.0540384, 7.696514, 0.69206595, -0.25622988, 9.894435
179822040753706, 6.4343, 0.30029923, 7.8891363, -0.6038096, 0.2146473, 10.1645565
179822050393081, 6.125626, -0.8805587, 7.773084, 0.49938178, -0.28497267, 9.919119
179822060032351, 6.454639, 0.05623133, 7.865208, -0.35055852, 0.17343473, 10.167303
179822069671726, 6.2081785, -0.5024927, 7.818548, 0.13684428, -0.13695812, 9.9943075
179822079310997, 6.38764, -0.40917268, 7.722835, 0.10904169, 0.08161783, 10.029608
179822088950372, 6.3397837, -0.029910283, 7.8424764, -0.28911698, 0.08339882, 10.080061
179822098589643, 6.283552, -0.7860422, 7.716853, 0.44628048, -0.10414791, 9.971996
179822108229018, 6.4211397, 0.30269206, 7.9130645, -0.61345136, 0.19063854, 10.174801
179822117868289, 6.218946, -0.9954142, 7.655836, 0.64006305, -0.18471336, 9.891114
179822127507664, 6.4737816, 0.35653058, 7.847262, -0.62806237, 0.28917646, 10.155708
179822137147039, 6.172286, -0.89371926, 7.739585, 0.5134324, -0.2387166, 9.92353
179822146786310, 6.4414787, 0.09451649, 7.850851, -0.39423978, 0.19208479, 10.14619
179822156425685, 6.202196, -0.5240282, 7.786245, 0.15648925, -0.13692904, 9.966153
179822166064956, 6.381658, -0.3505485, 7.7216387, 0.048642278, 0.086153984, 10.02309
179822175704331, 6.2931237, -0.1052842, 7.834101, -0.2288692, 0.030700207, 10.046606
179822185343601, 6.2919273, -0.81834537, 7.706085, 0.47340786, -0.12391329, 9.97007
179822194982976, 6.3960147, 0.24646074, 7.9154572, -0.5665976, 0.16029072, 10.162554
179822204622247, 6.2201424, -1.0157533, 7.6666036, 0.6619569, -0.2031579, 9.900469
179822214261622, 6.4594245, 0.32542387, 7.893922, -0.6305784, 0.23472595, 10.182896
179822223900893, 6.1435723, -0.92602235, 7.735996, 0.53877664, -0.26101112, 9.903952
179822233540268, 6.501299, 0.16510476, 7.836494, -0.4479035, 0.24990177, 10.170631
179822243179539, 6.259624, -0.5587241, 7.7587276, 0.2130121, -0.08600426, 9.981992
179822252818914, 6.445068, -0.3074777, 7.676175, 0.019129395, 0.171072, 10.02634
179822262458185, 6.2931237, -0.13160525, 7.7874413, -0.20143807, 0.032011032, 10.011163
179822272097560, 6.320641, -0.7106683, 7.6594253, 0.38677573, -0.018345833, 9.948489
179822281736831, 6.442675, 0.18185452, 7.9011, -0.49021113, 0.16879654, 10.183306
179822291376206, 6.1160545, -1.018146, 7.7874413, 0.6159811, -0.3378663, 9.929421
179822301015476, 6.485746, 0.37328035, 7.8197446, -0.653028, 0.3141551, 10.14039
179822310654851, 6.1232333, -0.9499506, 7.765906, 0.5669644, -0.30073166, 9.914322
179822320294122, 6.4642105, 0.16271193, 7.885547, -0.4571699, 0.1960187, 10.185623
179822329933497, 6.181857, -0.63888365, 7.834101, 0.2644136, -0.20792961, 9.994174
179822339572768, 6.4211397, -0.24765715, 7.757531, -0.05487907, 0.1277771, 10.072355
179822349212143, 6.3086767, -0.148355, 7.8293157, -0.18712366, 0.028375149, 10.054043
179822358851414, 6.334998, -0.6771688, 7.696514, 0.35160232, -0.019248009, 9.985146
179822368490789, 6.3924255, 0.23330021, 7.88794, -0.54787207, 0.15496445, 10.139673
179822378130060, 6.2177496, -0.9774681, 7.6570325, 0.62078154, -0.16960001, 9.890999
179822387769331, 6.4570317, 0.36729828, 7.804191, -0.6443039, 0.2910409, 10.11107
179822397408706, 6.1902323, -0.997807, 7.664211, 0.63982487, -0.2103529, 9.879327
179822407047976, 6.4642105, 0.18783657, 7.8281193, -0.48495722, 0.23795843, 10.139473
179822416687351, 6.175875, -0.66759753, 7.7587276, 0.29062247, -0.18113327, 9.933163
179822426326622, 6.413961, -0.2105684, 7.7383885, -0.09256804, 0.1391244, 10.0517645
179822435965997, 6.257231, -0.23688944, 7.8149586, -0.11291361, -0.03140688, 10.013436
179822445605268, 6.323034, -0.68195444, 7.7240314, 0.3464812, -0.054553032, 9.999173
179822455244643, 6.350551, 0.15792629, 7.9597244, -0.4991969, 0.057109833, 10.171489
179822464883914, 6.222535, -0.96430755, 7.737192, 0.5972533, -0.22312498, 9.955273
179822474523289, 6.4666033, 0.35653058, 7.9022965, -0.6526931, 0.23762608, 10.193523
179822484162560, 6.195018, -0.9451649, 7.7216387, 0.57791996, -0.22588253, 9.925234
179822493801935, 6.4594245, 0.27038896, 7.8664045, -0.5741, 0.23295307, 10.163352
179822503441206, 6.196214, -0.6735796, 7.793423, 0.30449355, -0.18673468, 9.9727955
179822513080581, 6.4402823, -0.11485548, 7.752745, -0.17770755, 0.1825304, 10.076239
179822522719851, 6.263213, -0.23928227, 7.789834, -0.1039294, -0.008132935, 9.997787
179822532359122, 6.3314085, -0.6053841, 7.698907, 0.2813363, -0.016302109, 9.982332
179822541998497, 6.3601227, 0.12921242, 7.9226356, -0.46483004, 0.08580828, 10.149512
179822551637768, 6.2237315, -0.9810573, 7.716853, 0.60851, -0.22323799, 9.941177
179822561277143, 6.4354963, 0.32662028, 7.880761, -0.6270019, 0.23851538, 10.15769
179822570916414, 6.166304, -1.038485, 7.6893353, 0.6723448, -0.2538767, 9.884895
179822580555789, 6.4558353, 0.22731815, 7.8496547, -0.5243381, 0.23529053, 10.1496935
179822590195060, 6.172286, -0.7692925, 7.7682986, 0.3988465, -0.21574497, 9.941318
179822599834435, 6.4343, -0.104087785, 7.783852, -0.19145048, 0.15744305, 10.096434
179822609473706, 6.250053, -0.32422748, 7.8221374, -0.026939034, -0.06281757, 10.017458
179822619112976, 6.3684974, -0.5706882, 7.713264, 0.25591397, 0.020209312, 10.015589
179822628752351, 6.35773, 0.1052842, 7.948957, -0.4428364, 0.061584473, 10.169456
179822638391622, 6.262017, -0.910469, 7.737192, 0.54945326, -0.16979885, 9.97874
179822648030997, 6.4414787, 0.35294133, 7.880761, -0.6547538, 0.24462938, 10.160467
179822657670268, 6.1770716, -0.971486, 7.658229, 0.60340273, -0.20720005, 9.866178
179822667309643, 6.4677997, 0.3278167, 7.804191, -0.609382, 0.30040503, 10.1184845
179822676948914, 6.15434, -0.7262217, 7.735996, 0.34555435, -0.20464659, 9.90392
179822686588289, 6.4163537, -0.033499517, 7.765906, -0.25514925, 0.17750692, 10.0689335
179822696227560, 6.2177496, -0.38883367, 7.7671022, 0.043265104, -0.07274294, 9.956522
179822705866831, 6.363712, -0.56350976, 7.6977105, 0.25384653, 0.028924942, 10.000193
179822715506206, 6.32423, 0.013160525, 7.9226356, -0.35668886, 0.033698082, 10.130936
179822725145476, 6.2344995, -0.9403793, 7.793423, 0.56154454, -0.23759508, 10.005946
179822734784851, 6.418747, 0.2739782, 7.972885, -0.58954215, 0.15719175, 10.221056
179822744424122, 6.1806607, -1.0588241, 7.722835, 0.6795293, -0.27708578, 9.920955
179822754063497, 6.468996, 0.29790643, 7.908279, -0.5854329, 0.25148058, 10.201549
179822763702768, 6.1435723, -0.81834537, 7.7850485, 0.42774236, -0.26460218, 9.938168
179822773342039, 6.4331036, 0.025124637, 7.792227, -0.3180672, 0.21236134, 10.097424
179822782981414, 6.2404814, -0.38763726, 7.733603, 0.047667623, -0.03058958, 9.944812
179822792620685, 6.381658, -0.44027936, 7.623533, 0.1524775, 0.12418318, 9.949823
179822802260060, 6.343373, 0.04426722, 7.8257265, -0.36083996, 0.124736786, 10.0666065
179822811899331, 6.273981, -0.83748794, 7.682157, 0.4990878, -0.10827255, 9.940773
179822821538706, 6.422336, 0.3278167, 7.9034934, -0.6379365, 0.21731138, 10.166852
179822831177976, 6.1639113, -1.0253245, 7.685746, 0.6467422, -0.24446964, 9.881182
179822840817247, 6.4331036, 0.31226337, 7.88794, -0.60976565, 0.218647, 10.162792
179822850456622, 6.1495543, -0.84825563, 7.812566, 0.44673634, -0.27810717, 9.964729
179822860095893, 6.4295144, 0.029910283, 7.8963146, -0.34006977, 0.13785267, 10.176281
179822869735268, 6.1938214, -0.49172506, 7.8664045, 0.108505964, -0.16755629, 10.022259
179822879374539, 6.3696938, -0.46301118, 7.752745, 0.14576828, 0.042550564, 10.043375
179822889013810, 6.3074803, -0.051445685, 7.899904, -0.29034984, 0.034958363, 10.104946
179822898653185, 6.2787666, -0.8458628, 7.735996, 0.49193513, -0.13185501, 9.986222
179822908292456, 6.4175506, 0.25124636, 7.9346, -0.56149995, 0.18526745, 10.190994
179822917931831, 6.186643, -1.0301101, 7.6546397, 0.6695379, -0.20913076, 9.871027
179822927571101, 6.4701924, 0.3469593, 7.8496547, -0.63916504, 0.29671288, 10.154028
179822937210372, 6.1471615, -0.88414794, 7.739585, 0.505304, -0.24179459, 9.907406
179822946849747, 6.4402823, 0.07058827, 7.850851, -0.3707918, 0.18853807, 10.146184
179822956489018, 6.189036, -0.48933223, 7.8053875, 0.11309731, -0.13302755, 9.97182
179822966128393, 6.3589263, -0.3385844, 7.7144604, 0.027825356, 0.09110737, 10.00272
179822975767664, 6.285945, -0.04426722, 7.873583, -0.30181932, 0.023990631, 10.070585
179822985406935, 6.282356, -0.81595254, 7.749156, 0.46162307, -0.12093115, 9.997774
179822995046310, 6.3948183, 0.276371, 7.96451, -0.6006988, 0.14661121, 10.199077
179823004685581, 6.1974106, -1.0133604, 7.698907, 0.641646, -0.20669222, 9.912291
179823014324956, 6.4666033, 0.35174492, 7.8783684, -0.6483127, 0.2816434, 10.173975
179823023964226, 6.15434, -0.9164511, 7.7312098, 0.546715, -0.2256012, 9.906443
179823033603497, 6.4343, 0.13040884, 7.867601, -0.4435042, 0.18917465, 10.153023
179823043242872, 6.1698933, -0.56111693, 7.780263, 0.1941737, -0.15069962, 9.942562
179823052882143, 6.3924255, -0.3361916, 7.702496, 0.037779808, 0.12459707, 10.014372
179823062521518, 6.2668023, -0.13998012, 7.84128, -0.20671535, 0.0038247108, 10.0367
179823072160789, 6.282356, -0.7752745, 7.737192, 0.43079162, -0.094083786, 9.986929
179823081800060, 6.363712, 0.23330021, 7.982456, -0.5710076, 0.100110054, 10.194841
179823091439435, 6.1914287, -1.026521, 7.728817, 0.64500034, -0.23601532, 9.932293
179823101078706, 6.4606214, 0.32542387, 7.9094753, -0.6231698, 0.24256325, 10.195988
179823110718081, 6.1603217, -0.95832545, 7.757531, 0.5755304, -0.259686, 9.9321995
179823120357351, 6.4558353, 0.13040884, 7.9130645, -0.43626904, 0.1877737, 10.202246
179823129996622, 6.161518, -0.62811595, 7.8089767, 0.24887037, -0.18964338, 9.96198
179823139635997, 6.384051, -0.27876383, 7.725228, -0.025902152, 0.1251216, 10.0248
179823149275268, 6.2608204, -0.16271193, 7.8317084, -0.18732667, 0.0052466393, 10.026211
179823158914643, 6.279963, -0.71306115, 7.7072816, 0.36736035, -0.07006025, 9.960358
179823168553914, 6.378069, 0.24047868, 7.9633136, -0.58322775, 0.12671423, 10.188021
179823178193185, 6.2201424, -0.9702896, 7.7012997, 0.59830964, -0.1816802, 9.927269
179823187832560, 6.454639, 0.3493521, 7.90469, -0.64848554, 0.25507116, 10.187391
179823197471831, 6.1507506, -0.95712906, 7.719246, 0.5680684, -0.2352705, 9.897299
179823207111206, 6.4474607, 0.19381863, 7.897511, -0.49970782, 0.20767975, 10.1825905
179823216750476, 6.1651077, -0.6364908, 7.8233337, 0.24931347, -0.20293522, 9.975716
179823226389747, 6.4031935, -0.2117648, 7.749156, -0.09438062, 0.14786434, 10.053078
179823236029122, 6.253642, -0.21894327, 7.8017983, -0.12956476, -0.0014328957, 10.000363
179823245668393, 6.3086767, -0.6999006, 7.6893353, 0.36418498, -0.041597366, 9.963976
179823255307664, 6.3601227, 0.16510476, 7.9346, -0.4995482, 0.115707874, 10.15743
179823264947039, 6.2141604, -1.0049855, 7.704889, 0.6263547, -0.20847273, 9.927504
179823274586310, 6.4331036, 0.30388847, 7.90469, -0.6082059, 0.23218393, 10.175337
179823284225685, 6.155536, -1.018146, 7.7120676, 0.6198412, -0.26188374, 9.896992
179823293864956, 6.4642105, 0.22492532, 7.8783684, -0.53140986, 0.2558694, 10.176317
179823303504226, 6.181857, -0.71665037, 7.7886376, 0.3320179, -0.19216871, 9.962161
179823313143601, 6.437889, -0.18424734, 7.759924, -0.12193239, 0.17711735, 10.08219
179823322782872, 6.2715883, -0.26081768, 7.795816, -0.09101033, 0.0035552979, 10.008362
179823332422247, 6.3397837, -0.6233303, 7.706085, 0.28991592, 0.0054593086, 9.994053
179823342061518, 6.3481584, 0.15314065, 7.9633136, -0.51040983, 0.08327627, 10.171993
179823351700789, 6.2213387, -0.9559326, 7.7551384, 0.56876147, -0.20694923, 9.96969
179823361340164, 6.439086, 0.35653058, 7.920243, -0.6784614, 0.23891878, 10.188316
179823370979435, 6.1591253, -1.0145568, 7.7001033, 0.6252868, -0.22820663, 9.890029
179823380618810, 6.4773707, 0.22851457, 7.865208, -0.53397954, 0.26548195, 10.174204
179823390258081, 6.168697, -0.74177504, 7.77787, 0.35457158, -0.20594645, 9.946364
179823399897351, 6.3972116, -0.11844472, 7.792227, -0.19434571, 0.14331818, 10.079625
179823409536726, 6.2416778, -0.3182454, 7.820941, -0.047931552, -0.04521513, 10.011125
179823419175997, 6.32423, -0.6125626, 7.726424, 0.27364016, -0.015177727, 9.999682
179823428815372, 6.3385873, 0.101694964, 7.982456, -0.46356463, 0.05702257, 10.182805
179823438454643, 6.242874, -0.9176475, 7.7587276, 0.54429805, -0.186759, 9.9841
179823448093914, 6.45105, 0.34097722, 7.9226356, -0.64629614, 0.24972725, 10.199039
179823457733289, 6.1675005, -1.0169497, 7.7120676, 0.634192, -0.24799633, 9.903765
179823467372560, 6.439086, 0.2536392, 7.879565, -0.56009555, 0.22529745, 10.161163
179823477011831, 6.141179, -0.7932207, 7.7587276, 0.39724445, -0.22069025, 9.916382
179823486651206, 6.393622, -0.0849452, 7.749156, -0.21613777, 0.17807484, 10.04274
179823496290476, 6.1938214, -0.37686956, 7.8281193, -4.0256977E-4, -0.100633144, 9.988733
179823505929851, 6.34098, -0.5599205, 7.7874413, 0.2135979, -0.020053387, 10.055833
179823515569122, 6.3601227, 0.03708875, 8.023134, -0.40843678, 0.037176132, 10.230104
179823525208393, 6.2404814, -0.94755775, 7.834101, 0.5454366, -0.23594475, 10.04298
179823534847768, 6.413961, 0.31106696, 7.984849, -0.6535028, 0.18309069, 10.224133
179823544487039, 6.168697, -1.0217353, 7.7096744, 0.62487054, -0.2358737, 9.904026
179823554126414, 6.474978, 0.2943172, 7.8723865, -0.5842705, 0.29551744, 10.176332
179823563765685, 6.166304, -0.8255238, 7.713264, 0.4371041, -0.18481493, 9.898184
179823573404956, 6.4354963, -0.029910283, 7.756335, -0.26817608, 0.22936201, 10.072374
179823583044331, 6.2416778, -0.39720857, 7.7551384, 0.041809916, -0.032447338, 9.962716
179823592683601, 6.350551, -0.49052864, 7.68455, 0.16966379, 0.06442118, 9.979454
179823602322976, 6.3110695, 0.025124637, 7.9011, -0.37622607, 0.0661087, 10.105034
179823611962247, 6.235696, -0.91405827, 7.737192, 0.5397079, -0.18473816, 9.962837
179823621601518, 6.4067826, 0.2847459, 7.9357963, -0.6070585, 0.19217014, 10.183289
179823631240893, 6.1651077, -1.0815558, 7.688139, 0.6999109, -0.24882698, 9.886051
179823640880164, 6.448657, 0.2440679, 7.905886, -0.55033505, 0.2313118, 10.187807
179823650519435, 6.145965, -0.8961121, 7.8077803, 0.48163772, -0.27539968, 9.961401
179823660158810, 6.431907, -0.011964113, 7.884351, -0.31830847, 0.15783834, 10.16889
179823669798081, 6.2105713, -0.48095736, 7.867601, 0.09310794, -0.13704777, 10.033653
179823679437456, 6.364908, -0.46181476, 7.7754774, 0.12222493, 0.03967333, 10.058174
179823689076726, 6.3110695, -0.022731815, 7.9346, -0.3457651, 0.030483246, 10.132499
179823698715997, 6.2584276, -0.8386843, 7.7671022, 0.45941758, -0.14350557, 9.998377
179823708355372, 6.398408, 0.28235307, 7.9393854, -0.6256902, 0.17622948, 10.179914
179823717994643, 6.181857, -1.0205388, 7.661818, 0.6362643, -0.19246292, 9.875143
179823727634018, 6.4642105, 0.3469593, 7.8496547, -0.64647794, 0.29275322, 10.14987
179823737273289, 6.1399827, -0.87338024, 7.728817, 0.47544372, -0.21523094, 9.895678
179823746912560, 6.4235325, 0.0741775, 7.830512, -0.39009893, 0.1942687, 10.119006
179823756551935, 6.204589, -0.49292147, 7.773084, 0.1216923, -0.09054804, 9.956792
179823766191206, 6.391229, -0.38883367, 7.737192, 0.061076283, 0.10193968, 10.042361
179823775830581, 6.2955165, -0.0741775, 7.9034934, -0.29428113, 0.0144786835, 10.100368
179823785469851, 6.2751775, -0.86261255, 7.756335, 0.49226117, -0.13340521, 10.001129
179823795109122, 6.3972116, 0.2428715, 7.984849, -0.5979612, 0.14145279, 10.215848
179823804748497, 6.1842504, -1.0516455, 7.722835, 0.66388965, -0.23211527, 9.924639
179823814387768, 6.4438715, 0.30508488, 7.911868, -0.6187887, 0.2466526, 10.18678
179823824027143, 6.1507506, -0.91884387, 7.746763, 0.5108229, -0.23740196, 9.918218
179823833666414, 6.437889, 0.11485548, 7.874779, -0.4408599, 0.20883131, 10.160404
179823843305789, 6.2057858, -0.54436713, 7.8029947, 0.16169608, -0.12202883, 9.982676
179823852945060, 6.4235325, -0.34456646, 7.7312098, 0.032786727, 0.14228392, 10.056381
179823862584331, 6.3086767, -0.09332009, 7.853244, -0.2598797, 0.063542366, 10.070251
179823872223706, 6.296713, -0.77407813, 7.719246, 0.4142419, -0.07001257, 9.982887
179823881862976, 6.4091754, 0.25004998, 7.9537425, -0.5941342, 0.1748519, 10.198947
179823891502351, 6.1842504, -1.0205388, 7.6809607, 0.6267352, -0.21725988, 9.891593
179823901141622, 6.452246, 0.32422748, 7.885547, -0.64159834, 0.27319622, 10.170162
179823910780893, 6.13759, -0.96789676, 7.745567, 0.55254817, -0.26937294, 9.910742
179823920420268, 6.4354963, 0.10049855, 7.90469, -0.42330408, 0.18285131, 10.183184
179823930059539, 6.1447687, -0.6436693, 7.8687973, 0.2177217, -0.23715639, 9.999341
179823939698914, 6.3684974, -0.3397808, 7.810173, -7.6532364E-5, 0.05904293, 10.083079
179823949338185, 6.2691956, -0.18903299, 7.908279, -0.18996549, -0.020047188, 10.091726
179823958977560, 6.3074803, -0.77407813, 7.776674, 0.40413582, -0.094089985, 10.034341
179823968616831, 6.393622, 0.21535404, 8.000402, -0.565891, 0.13280582, 10.227089
179823978256101, 6.2201424, -1.0253245, 7.7072816, 0.6354835, -0.19464445, 9.934885
179823987895476, 6.4701924, 0.33020952, 7.881958, -0.6393173, 0.3049655, 10.17821
179823997534747, 6.166304, -0.9762716, 7.716853, 0.58220494, -0.23452234, 9.906174
179824007174122, 6.4402823, 0.1698904, 7.895118, -0.4882189, 0.2153244, 10.176162
179824016813393, 6.1363935, -0.64247286, 7.836494, 0.22377992, -0.21696758, 9.969031
179824026452768, 6.373283, -0.27517462, 7.763513, -0.053530693, 0.11118269, 10.047457
179824036092039, 6.233303, -0.27038896, 7.861619, -0.11026633, -0.048459053, 10.035824
179824045731310, 6.29432, -0.7716853, 7.752745, 0.40511703, -0.08065796, 10.007418
179824055370685, 6.3493547, 0.11485548, 7.9740815, -0.48509932, 0.078568935, 10.181944
179824065009956, 6.189036, -1.0755738, 7.6953177, 0.6860057, -0.19546509, 9.908085
179824074649331, 6.437889, 0.2416751, 7.853244, -0.56143653, 0.24356508, 10.139217
179824084288601, 6.1567326, -1.0767702, 7.672586, 0.6831691, -0.19370031, 9.870619
179824093927976, 6.4570317, 0.13280165, 7.847262, -0.47400117, 0.23440647, 10.149424
179824103567247, 6.151947, -0.75613195, 7.776674, 0.34632337, -0.18767548, 9.936784
179824113206518, 6.3924255, -0.2727818, 7.7647095, -0.074183464, 0.12857723, 10.06013
179824122845893, 6.2261243, -0.31106696, 7.82453, -0.08736658, -0.038416862, 10.0037775
179824132485164, 6.3158555, -0.7286145, 7.7144604, 0.34935462, -0.015578747, 9.990573
179824142124539, 6.344569, 0.09930214, 7.9633136, -0.50242066, 0.089509964, 10.169432
179824151763810, 6.206982, -1.026521, 7.708478, 0.6074636, -0.18080664, 9.929718
179824161403185, 6.452246, 0.317049, 7.9070826, -0.668375, 0.27821636, 10.184784
179824171042456, 6.145965, -1.0025927, 7.7072816, 0.5665008, -0.2197175, 9.889948
179824180681726, 6.4606214, 0.22612174, 7.9238324, -0.5997275, 0.25795364, 10.205473
179824190321101, 6.166304, -0.6831509, 7.8376904, 0.23350227, -0.18525743, 9.991524
179824199960372, 6.4295144, -0.11964113, 7.8293157, -0.25048196, 0.18123579, 10.126973
179824209599747, 6.215357, -0.2536392, 7.861619, -0.17464733, -0.03412342, 10.023392
179824219239018, 6.3050876, -0.6556334, 7.725228, 0.2567134, 2.4986267E-4, 9.989857
179824228878393, 6.3338017, 0.07776674, 7.9884386, -0.49927807, 0.0801568, 10.182462
179824238517664, 6.198607, -1.0073783, 7.7994056, 0.5608268, -0.21554089, 9.995363
179824248157039, 6.4199433, 0.26799613, 7.995617, -0.6689309, 0.20914936, 10.233581
179824257796310, 6.145965, -1.0731809, 7.763513, 0.61770105, -0.24994564, 9.937441
179824267435685, 6.452246, 0.16031912, 7.9501534, -0.54291224, 0.22056198, 10.22344
179824277074956, 6.1304116, -0.84347, 7.832905, 0.3663143, -0.23611021, 9.972855
179824286714226, 6.4127645, -0.21296121, 7.853244, -0.18419147, 0.14949799, 10.138346
179824296353601, 6.2033925, -0.42592242, 7.8484583, -0.020481229, -0.06992483, 10.012817
179824305992872, 6.3050876, -0.64965135, 7.751549, 0.23364413, 0.0019068718, 10.010399
179824315632247, 6.296713, 0.0035892338, 7.9908314, -0.44432104, 0.037380695, 10.163818
179824325271518, 6.209375, -0.95712906, 7.8089767, 0.5041417, -0.17625809, 10.008363
179824334910893, 6.40439, 0.29192436, 8.021938, -0.70489156, 0.18088818, 10.243209
179824344550164, 6.1232333, -1.0229317, 7.7671022, 0.56232166, -0.2379427, 9.924487
179824354189539, 6.448657, 0.24526432, 7.9501534, -0.63314754, 0.24485683, 10.217116
179824363828810, 6.13759, -0.81834537, 7.8221374, 0.3498131, -0.19926167, 9.9681225
179824373468185, 6.463014, -0.08015956, 7.8580294, -0.29339075, 0.2237153, 10.168062
179824383107456, 6.2201424, -0.39720857, 7.834101, -0.03662145, -0.032667637, 10.010929
179824392746831, 6.3601227, -0.5491528, 7.7479596, 0.15969741, 0.07837486, 10.037529
179824402386101, 6.3050876, 0.009571291, 7.98126, -0.4336455, 0.052619457, 10.161885
179824412025476, 6.2344995, -0.9607183, 7.8053875, 0.5193249, -0.16813326, 10.020883
179824421664747, 6.3804617, 0.22612174, 8.017152, -0.62837887, 0.16338587, 10.2281275
179824431304018, 6.134001, -1.1294123, 7.726424, 0.6767453, -0.25365686, 9.903376
179824440943393, 6.4067826, 0.18424734, 7.928618, -0.55941486, 0.22291136, 10.177483
179824450582664, 6.088537, -0.9487542, 7.8173513, 0.4790107, -0.28873968, 9.938238
179824460222039, 6.40439, -0.13040884, 7.8628154, -0.23467171, 0.1603651, 10.137865
179824469861310, 6.1710896, -0.5599205, 7.830512, 0.12803888, -0.119261265, 9.984095
179824479500685, 6.3421764, -0.58504516, 7.7419777, 0.21217096, 0.051926136, 10.022773
179824489139956, 6.2931237, -0.09810573, 7.9573317, -0.31274533, 0.036417007, 10.140662
179824498779331, 6.245267, -0.94396853, 7.818548, 0.5140121, -0.17216253, 10.036448
179824508418601, 6.390033, 0.20937198, 8.023134, -0.5983679, 0.14060163, 10.240568
179824518057976, 6.1734824, -1.0839486, 7.746763, 0.65984035, -0.22193575, 9.940549
179824527697247, 6.4666033, 0.29312077, 7.9274216, -0.6388603, 0.28399467, 10.210686
179824537336622, 6.1196437, -0.9056834, 7.756335, 0.46838593, -0.21245384, 9.9079
179824546975893, 6.4199433, -0.0023928226, 7.8113694, -0.3355533, 0.23286915, 10.102789
179824556615268, 6.175875, -0.51565325, 7.7276206, 0.122903824, -0.05502987, 9.904814
179824566254539, 6.3601227, -0.4426722, 7.643872, 0.1095618, 0.15396881, 9.951892
179824575893914, 6.2919273, -0.1052842, 7.8281193, -0.2697816, 0.09182596, 10.039804
179824585533185, 6.2309103, -0.9056834, 7.7108707, 0.51214504, -0.12008476, 9.9410925
179824595172560, 6.3601227, 0.21415763, 8.003992, -0.5940956, 0.12872934, 10.207419
179824604811831, 6.148358, -1.1066805, 7.7671022, 0.67627394, -0.2748723, 9.940927
179824614451206, 6.4235325, 0.22612174, 7.987242, -0.58591664, 0.19565868, 10.233639
179824624090476, 6.10768, -0.9882358, 7.864012, 0.52226853, -0.32379532, 9.987264
179824633729851, 6.4175506, 0.0071784677, 7.969296, -0.37267172, 0.14308357, 10.224252
179824643369122, 6.1507506, -0.6017949, 7.87119, 0.16621673, -0.1752162, 10.004558
179824653008497, 6.363712, -0.4019942, 7.751549, 0.05297768, 0.111415386, 10.03642
179824662647768, 6.2883377, -0.1160519, 7.8556366, -0.26094055, 0.07950306, 10.059486
179824672287143, 6.2787666, -0.79441714, 7.7108707, 0.41423535, -0.0441494, 9.9668455
179824681926414, 6.391229, 0.22971097, 7.966903, -0.5893159, 0.19286633, 10.197432
179824691565789, 6.1698933, -1.0576276, 7.708478, 0.64995575, -0.2061553, 9.906656
179824701205060, 6.4295144, 0.2883351, 7.9190464, -0.6260674, 0.26208782, 10.181965
179824710844435, 6.09093, -0.97507524, 7.786245, 0.531834, -0.2752304, 9.9155035
179824720483706, 6.381658, 0.05623133, 7.9429746, -0.41977954, 0.14168882, 10.179551
179824730123081, 6.1160545, -0.6556334, 7.856833, 0.22224188, -0.20363903, 9.973713
179824739762456, 6.343373, -0.3804588, 7.7910304, 0.020105004, 0.07945204, 10.053684
179824749401726, 6.2548385, -0.19381863, 7.8987074, -0.20040643, 0.006143093, 10.075214
179824759041101, 6.289534, -0.80159557, 7.7874413, 0.41050863, -0.07838535, 10.0334635
179824768680372, 6.375676, 0.19621146, 8.031509, -0.58054054, 0.13758898, 10.23899
179824778319747, 6.1794643, -1.018146, 7.7623167, 0.605011, -0.21400642, 9.953097
179824787959018, 6.4594245, 0.34217364, 7.945368, -0.6777681, 0.3090334, 10.218378
179824797598393, 6.1304116, -0.9523434, 7.765906, 0.51783705, -0.23848295, 9.923366
179824807237664, 6.418747, 0.16510476, 7.932207, -0.50356686, 0.22571898, 10.190336
179824816877039, 6.135197, -0.6161518, 7.8352976, 0.19659734, -0.17809868, 9.967035
179824826516310, 6.361319, -0.30388847, 7.776674, -0.037464738, 0.12646723, 10.05077
179824836155685, 6.222535, -0.2428715, 7.864012, -0.14531839, -0.0100951195, 10.029974
179824845794956, 6.2679987, -0.76689965, 7.7443705, 0.39471674, -0.064446926, 9.984551
179824855434331, 6.361319, 0.13160525, 7.9836526, -0.49916244, 0.13827324, 10.19579
179824865073601, 6.1794643, -1.0432707, 7.7587276, 0.63114214, -0.2186737, 9.951176
179824874712976, 6.4343, 0.276371, 7.9393854, -0.60403717, 0.25583982, 10.201967
179824884352351, 6.2261243, -0.79920274, 7.7850485, 0.39950526, -0.13069487, 9.991678
179824893991622, 6.2979093, -0.2739782, 7.8891363, -0.097063065, 0.016636372, 10.097896
179824903630997, 6.2715883, -0.39960137, 7.8496547, 0.021830201, -0.015537262, 10.05529
179824913270268, 6.289534, -0.35294133, 7.85444, -0.020271063, 0.0085840225, 10.068495
179824922909643, 6.276374, -0.36610186, 7.832905, -0.0058192015, 0.00752306, 10.043964
179824932548914, 6.270392, -0.37447673, 7.818548, 0.004209757, 0.0078372955, 10.029342
179824942188289, 6.2608204, -0.37806597, 7.82453, 0.0044857264, -0.003944397, 10.028164
179824951827560, 6.282356, -0.37088752, 7.836494, -5.072355E-4, 0.0071196556, 10.050679
179824961466935, 6.273981, -0.35533416, 7.877172, -0.024849057, -0.018841267, 10.076606
179824971106310, 6.2847486, -0.35653058, 7.873583, -0.01982212, -0.008048534, 10.080577
179824980745581, 6.276374, -0.38165522, 7.879565, 0.0015901327, -0.024721622, 10.080945
179824990384956, 6.289534, -0.39960137, 7.8891363, 0.020562053, -0.024720669, 10.097295
179825000024226, 6.285945, -0.38285163, 7.881958, 0.0059951544, -0.01814127, 10.088834
179825009663601, 6.2775702, -0.37088752, 7.8604226, -0.0027638674, -0.008415699, 10.066361
179825019302872, 6.289534, -0.38763726, 7.84128, 0.019706488, 0.007405758, 10.05951
179825028942247, 6.279963, -0.38644084, 7.8424764, 0.016752005, -7.867813E-4, 10.054423
179825038581622, 6.2811594, -0.38165522, 7.8281193, 0.01447618, 0.009912491, 10.043793
179825048220893, 6.273981, -0.36490545, 7.820941, -0.0016845465, 0.012992382, 10.033091
179825057860268, 6.2871413, -0.32063824, 7.810173, -0.04127252, 0.039866924, 10.031274
179825067499539, 6.2871413, -0.33499518, 7.832905, -0.032437444, 0.021951675, 10.04954
179825077138914, 6.3050876, -0.33140594, 7.850851, -0.035960674, 0.025369644, 10.074617
179825086778185, 6.2775702, -0.35413775, 7.864012, -0.020758748, -0.008944035, 10.068539
179825096417560, 6.2691956, -0.3696911, 7.877172, -0.007417321, -0.025331497, 10.074155
179825106056935, 6.2847486, -0.3696911, 7.8723865, -0.0033663511, -0.010118008, 10.080133
179825115696206, 6.265606, -0.38524446, 7.8592257, 0.010848761, -0.020829678, 10.058485
179825125335581, 6.2715883, -0.4031906, 7.8496547, 0.030792356, -0.015520573, 10.05541
179825134974851, 6.3014984, -0.4127619, 7.8376904, 0.04741347, 0.011566162, 10.065101
179825144614226, 6.2811594, -0.39840496, 7.8484583, 0.02604711, -0.0061297417, 10.060282
179825154253601, 6.2751775, -0.3804588, 7.8556366, 0.0025974512, -0.010285854, 10.061486
179825163892872, 6.289534, -0.36011982, 7.834101, -0.0098000765, 0.018971443, 10.052891
179825173532247, 6.2787666, -0.357727, 7.826923, -0.013559818, 0.015865803, 10.040476
179825183171518, 6.285945, -0.34576288, 7.8257265, -0.02346754, 0.025109291, 10.043579
179825192810893, 6.2847486, -0.3361916, 7.8113694, -0.029624581, 0.035190582, 10.031275
179825202450268, 6.2931237, -0.32662028, 7.8293157, -0.04024172, 0.033064365, 10.050152
179825212089539, 6.282356, -0.3493521, 7.8376904, -0.02035129, 0.013628006, 10.050813
179825221728914, 6.285945, -0.34576288, 7.847262, -0.02502346, 0.011478901, 10.060388
179825231368185, 6.2979093, -0.37208393, 7.8604226, 5.893707E-4, 0.0066685677, 10.079103
179825241007560, 6.2991056, -0.38404804, 7.885547, 0.008176684, -0.009874344, 10.099896
179825250646935, 6.279963, -0.38763726, 7.865208, 0.011951804, -0.012883663, 10.072208
179825260286206, 6.2811594, -0.38165522, 7.874779, 0.0043826103, -0.01568222, 10.080204
179825269925581, 6.2679987, -0.36011982, 7.8556366, -0.015779853, -0.008296013, 10.056251
179825279564851, 6.2668023, -0.36251262, 7.867601, -0.015994906, -0.016899586, 10.06493
179825289204226, 6.263213, -0.37088752, 7.877172, -0.010252953, -0.027516365, 10.070471
179825298843601, 6.2691956, -0.357727, 7.8592257, -0.018229842, -0.008232594, 10.059712
179825308482872, 6.2715883, -0.36490545, 7.8496547, -0.009016395, -0.002670765, 10.054003
179825318122247, 6.2811594, -0.36131623, 7.850851, -0.010933518, 0.00512743, 10.060776
179825327761518, 6.2883377, -0.36131623, 7.865208, -0.0126081705, 0.0017318726, 10.07646
179825337400893, 6.290731, -0.36251262, 7.861619, -0.01040113, 0.0054135323, 10.075197
179825347040268, 6.2919273, -0.3589234, 7.8460655, -0.0107131, 0.016267776, 10.063674
179825356679539, 6.2883377, -0.36610186, 7.850851, -0.004912138, 0.008905411, 10.065435
179825366318914, 6.2883377, -0.3684947, 7.844869, -6.430149E-4, 0.011773109, 10.060856
179825375958289, 6.2811594, -0.34337005, 7.8317084, -0.0232054, 0.020361423, 10.0451765
179825385597560, 6.2727847, -0.36131623, 7.8436728, -0.008700728, 0.0016622543, 10.049952
179825395236935, 6.282356, -0.36610186, 7.838887, -0.0013756752, 0.01058054, 10.052366
179825404876206, 6.276374, -0.37447673, 7.853244, 0.0021198988, -0.004365444, 10.060145
179825414515581, 6.283552, -0.3696911, 7.864012, -0.0032225847, -0.0040555, 10.072852
179825424154956, 6.273981, -0.38285163, 7.87119, 0.0057177544, -0.01877594, 10.072968
179825433794226, 6.276374, -0.36610186, 7.877172, -0.011073589, -0.016244888, 10.078509
179825443433601, 6.2727847, -0.35294133, 7.885547, -0.025850773, -0.02027607, 10.08232
179825453072976, 6.2727847, -0.35294133, 7.865208, -0.020416856, -0.0073714256, 10.066452
179825462712247, 6.2871413, -0.35653058, 7.8436728, -0.0103286505, 0.015463829, 10.058735
179825472351622, 6.296713, -0.36370903, 7.8376904, 1.61767E-4, 0.024114609, 10.060303
179825481990893, 6.3050876, -0.3589234, 7.8197446, 2.1839142E-4, 0.04241419, 10.051347
179825491630268, 6.300302, -0.37567315, 7.8257265, 0.013948679, 0.030430317, 10.053646
179825501269643, 6.2811594, -0.37806597, 7.838887, 0.008577108, 0.006720066, 10.052062
179825510908914, 6.2919273, -0.38404804, 7.861619, 0.011078358, 4.506111E-4, 10.076744
179825520548289, 6.2871413, -0.38763726, 7.874779, 0.011064172, -0.012066841, 10.084162
179825530187664, 6.2787666, -0.3900301, 7.8604226, 0.013576865, -0.009279728, 10.06782
179825539826935, 6.273981, -0.40438703, 7.8376904, 0.030956984, -0.0029854774, 10.047625
179825549466310, 6.259624, -0.38644084, 7.830512, 0.010946512, -0.0055794716, 10.032397
179825559105685, 6.283552, -0.37806597, 7.820941, 0.009342194, 0.020484447, 10.03955
179825568744956, 6.2883377, -0.36131623, 7.8520474, -0.012901068, 0.010248661, 10.066187
179825578384331, 6.29432, -0.34217364, 7.8556366, -0.03270793, 0.018270493, 10.072
179825588023706, 6.3074803, -0.34217364, 7.87119, -0.033765554, 0.01911068, 10.092349
179825597662976, 6.279963, -0.33140594, 7.88794, -0.05231595, -0.009375095, 10.087841
179825607302351, 6.2751775, -0.35174492, 7.8783684, -0.031707883, -0.012413025, 10.078151
179825616941726, 6.265606, -0.37208393, 7.864012, -0.009662867, -0.016310692, 10.06174
179825626580997, 6.273981, -0.38285163, 7.8520474, 0.004546404, -0.005616665, 10.058033
179825636220372, 6.265606, -0.38763726, 7.8352976, 0.011636853, -0.003305912, 10.039912
179825645859747, 6.2883377, -0.37328035, 7.812566, 0.0063607693, 0.03113556, 10.035821
179825655499018, 6.2811594, -0.36251262, 7.8352976, -0.010054469, 0.0147714615, 10.048679
179825665138393, 6.285945, -0.38165522, 7.82453, 0.011192918, 0.019339561, 10.043981
179825674777768, 6.290731, -0.37088752, 7.813762, 0.0032815933, 0.031670094, 10.038163
179825684417039, 6.2775702, -0.36011982, 7.8317084, -0.013051748, 0.013907433, 10.04355
179825694056414, 6.2727847, -0.3493521, 7.8424764, -0.026807904, 0.006309986, 10.048561
179825703695789, 6.2883377, -0.33738798, 7.856833, -0.037636876, 0.013678074, 10.069024
179825713335060, 6.2931237, -0.3469593, 7.8687973, -0.029173255, 0.008059502, 10.081709
179825722974435, 6.279963, -0.3505485, 7.873583, -0.028395176, -0.0053339005, 10.077366
179825732613810, 6.29432, -0.3505485, 7.881958, -0.027390718, 5.912781E-4, 10.092862
179825742253081, 6.2919273, -0.36729828, 7.8783684, -0.010204196, -0.0028829575, 10.089194
179825751892456, 6.2931237, -0.38165522, 7.873583, 0.005715847, -0.0024785995, 10.086741
179825761531831, 6.289534, -0.4019942, 7.880761, 0.023177505, -0.015293598, 10.09086
179825771171101, 6.2715883, -0.39960137, 7.850851, 0.023304343, -0.010580063, 10.056227
179825780810476, 6.2715883, -0.4019942, 7.8460655, 0.025676847, -0.010110855, 10.052582
179825790449851, 6.2668023, -0.3696911, 7.8221374, -0.0015734434, 0.009197712, 10.029717
179825800089122, 6.2584276, -0.35294133, 7.8257265, -0.020287752, 0.0048003197, 10.026669
179825809728497, 6.2751775, -0.35413775, 7.8257265, -0.015542388, 0.016766548, 10.037168
179825819367872, 6.2715883, -0.36251262, 7.820941, -0.007042527, 0.014732838, 10.031505
179825829007143, 6.2919273, -0.37328035, 7.8352976, 0.004338026, 0.018603325, 10.055805
179825838646518, 6.296713, -0.3924229, 7.861619, 0.018419027, 0.0013003349, 10.080044
179825848285893, 6.283552, -0.37686956, 7.8556366, 0.002035141, -9.083748E-4, 10.066584
179825857925164, 6.282356, -0.37328035, 7.84128, 0.0014601946, 0.007916927, 10.0545