timestamp_acc,device_acc_x,device_acc_y,device_acc_z,earth_acc_x,earth_acc_y,earth_acc_z
180233829419586, 7.628319, -0.18065812, 6.4642105, -0.0015093088, 0.0072922707, 10.000491
180233839059222, 7.647461, -0.18305093, 6.452246, 0.0074585676, 0.026353836, 10.007393
180233848698909, 7.6510506, -0.19142582, 6.465407, 0.014310837, 0.017558575, 10.018792
180233858338597, 7.6331043, -0.19980069, 6.4737816, 0.018364072, -6.3467026E-4, 10.01068
180233867978284, 7.6917286, -0.2009971, 6.503692, 0.022486567, 0.015601635, 10.074738
180233877617972, 7.68455, -0.19501504, 6.518049, 0.012491345, 0.0022621155, 10.078448
180233887257607, 7.6797643, -0.1902294, 6.5407805, 0.0018092394, -0.015156746, 10.089428
180233896897243, 7.6941214, -0.16869399, 6.5455666, -0.019981146, -0.0033359528, 10.103067
180233906536930, 7.690532, -0.16390835, 6.546763, -0.025899887, -0.006175041, 10.101018
180233916176618, 7.7012997, -0.13160525, 6.524031, -0.0508765, 0.025758266, 10.093912
180233925816305, 7.682157, -0.14117654, 6.478567, -0.035353184, 0.043319225, 10.050083
180233935455941, 7.676175, -0.14237295, 6.4570317, -0.029400587, 0.053063393, 10.031626
180233945095576, 7.652247, -0.14117654, 6.4354963, -0.025951028, 0.049705982, 9.999465
180233954735263, 7.6594253, -0.15553348, 6.422336, -0.00783515, 0.060352325, 9.996685
180233964374951, 7.668997, -0.17826529, 6.410372, 0.021842003, 0.06760931, 9.9966545
180233974014638, 7.658229, -0.19980069, 6.4498534, 0.032988787, 0.026385784, 10.014351
180233983654326, 7.6666036, -0.22253251, 6.4881387, 0.047762632, -0.0015258789, 10.045896
180233993293961, 7.6713896, -0.21774685, 6.526424, 0.035650134, -0.025362015, 10.074223
180234002933597, 7.6797643, -0.2105684, 6.5742803, 0.017419219, -0.049723625, 10.111454
180234012573284, 7.7036924, -0.19860429, 6.579066, 0.008278847, -0.035108566, 10.132578
180234022212972, 7.7144604, -0.20219351, 6.567102, 0.0154829025, -0.019003391, 10.133116
180234031852659, 7.706085, -0.18424734, 6.533602, 0.0037572384, 0.005757332, 10.104733
180234041492347, 7.7012997, -0.1591227, 6.485746, -0.010975122, 0.042699337, 10.069674
180234051131982, 7.6749787, -0.15314065, 6.4558353, -0.014157414, 0.047520638, 10.030161
180234060771618, 7.6534433, -0.14955142, 6.431907, -0.01582694, 0.05251503, 9.9982
180234070411305, 7.6570325, -0.15314065, 6.4402823, -0.014123678, 0.045331955, 10.006427
180234080050993, 7.6630144, -0.14955142, 6.458228, -0.02074933, 0.035625935, 10.022533
180234089690680, 7.6594253, -0.16271193, 6.472585, -0.012147307, 0.019714832, 10.029312
180234099330368, 7.678568, -0.1698904, 6.4821568, -0.0045799017, 0.023304462, 10.050229
180234108970003, 7.6737823, -0.1794617, 6.502496, -4.3034554E-4, 0.0028738976, 10.059901
180234118609638, 7.6809607, -0.18783657, 6.5312095, 0.0024288893, -0.015846252, 10.084089
180234128249326, 7.678568, -0.18305093, 6.515656, 5.4740906E-4, -0.0045394897, 10.072123
180234137889013, 7.6809607, -0.18544376, 6.501299, 0.0065619946, 0.0076088905, 10.064709
180234147528701, 7.676175, -0.16869399, 6.506085, -0.010894299, 0.0063586235, 10.063852
180234157168336, 7.6797643, -0.18903299, 6.5084777, 0.008967757, 0.0015592575, 10.0685
180234166807972, 7.6833534, -0.18903299, 6.5048885, 0.01064527, 0.0067214966, 10.068915
180234176447659, 7.6773715, -0.18544376, 6.519245, 0.0014791489, -0.0059633255, 10.073576
180234186087347, 7.665407, -0.17826529, 6.503692, -0.0047893524, 2.7942657E-4, 10.054265
180234195727034, 7.690532, -0.16390835, 6.489335, -0.010622859, 0.030603409, 10.063875
180234205366722, 7.6869426, -0.17228323, 6.4594245, 0.0016963482, 0.045625687, 10.041956
180234215006357, 7.668997, -0.18185452, 6.448657, 0.009299874, 0.03751993, 10.02149
180234224645993, 7.6534433, -0.18544376, 6.4402823, 0.011785626, 0.03296566, 10.004278
180234234285680, 7.6594253, -0.17228323, 6.428318, 0.002050519, 0.04744625, 10.000875
180234243925368, 7.6606216, -0.16390835, 6.439086, -0.008602142, 0.041749477, 10.008596
180234253565055, 7.6606216, -0.17587246, 6.4606214, -0.0016143322, 0.022288322, 10.022734
180234263204743, 7.661818, -0.17347965, 6.4845495, -0.008539081, 0.006939411, 10.039065
180234272844378, 7.6737823, -0.18544376, 6.4905314, 0.004477024, 0.0079813, 10.052276
180234282484013, 7.690532, -0.17467605, 6.5252275, -0.009893894, -0.0031661987, 10.087283
180234292123701, 7.685746, -0.19740787, 6.5168524, 0.014163256, -0.0056791306, 10.078631
180234301763388, 7.6917286, -0.19381863, 6.503692, 0.014882565, 0.008494854, 10.074621
180234311403076, 7.706085, -0.19740787, 6.502496, 0.020970702, 0.01635027, 10.084862
180234321042763, 7.6833534, -0.2117648, 6.4977098, 0.03215933, 3.9958954E-4, 10.06469
180234330682399, 7.6666036, -0.20458634, 6.4821568, 0.025874734, 0.0033946037, 10.041729
180234340322034, 7.652247, -0.20817557, 6.4677997, 0.029757977, 0.0030727386, 10.021565
180234349961722, 7.6606216, -0.18903299, 6.4570317, 0.014636159, 0.020451069, 10.020653
180234359601409, 7.652247, -0.16749759, 6.4414787, -0.0046195984, 0.032194614, 10.003825
180234369241097, 7.6713896, -0.16151553, 6.4402823, -0.008269072, 0.045893192, 10.017553
180234378880784, 7.6713896, -0.17347965, 6.437889, 0.003720522, 0.044485092, 10.016224
180234388520420, 7.6606216, -0.16271193, 6.4402823, -0.009507537, 0.037962437, 10.00936
180234398160055, 7.665407, -0.16031912, 6.448657, -0.013603687, 0.03505087, 10.018379
180234407799743, 7.6678, -0.148355, 6.4666033, -0.02821505, 0.027990341, 10.031579
180234417439430, 7.676175, -0.16749759, 6.492924, -0.0139712095, 0.008930683, 10.055323
180234427079118, 7.6917286, -0.1794617, 6.5048885, -0.0024460554, 0.011131287, 10.075134
180234436718805, 7.670193, -0.19381863, 6.5455666, -4.6300888E-4, -0.03596449, 10.085266
180234446358441, 7.6678, -0.19980069, 6.541977, 0.00491333, -0.034953117, 10.081235
180234455998076, 7.682157, -0.1794617, 6.5371914, -0.0139968395, -0.015540123, 10.0887165
180234465637763, 7.6869426, -0.1591227, 6.5168524, -0.029036522, 0.006978512, 10.078833
180234475277451, 7.68455, -0.17108682, 6.512067, -0.016812086, 0.005915642, 10.074139
180234484917138, 7.668997, -0.17706887, 6.4821568, -0.0059945583, 0.013968468, 10.043057
180234494556774, 7.6773715, -0.17826529, 6.437889, 0.0062862635, 0.051211357, 10.020857
180234504196409, 7.6678, -0.17108682, 6.3948183, 0.008128047, 0.07781935, 9.98559
180234513836097, 7.6331043, -0.18185452, 6.3828545, 0.0170995, 0.06030464, 9.951595
180234523475784, 7.652247, -0.18544376, 6.4151573, 0.017782927, 0.045330524, 9.98715
180234533115472, 7.647461, -0.19262223, 6.4211397, 0.022711635, 0.036552906, 9.98749
180234542755107, 7.6402826, -0.17706887, 6.458228, -0.0013092756, 0.0089735985, 10.005693
180234552394743, 7.661818, -0.19381863, 6.492924, 0.011312842, -0.0039129257, 10.0448475
180234562034430, 7.6546397, -0.16630118, 6.5084777, -0.019620657, -0.012695789, 10.048925
180234571674118, 7.6606216, -0.17347965, 6.526424, -0.014874458, -0.022283554, 10.065224
180234581313805, 7.688139, -0.22492532, 6.5551376, 0.037066102, -0.034381866, 10.105709
180234590953441, 7.6941214, -0.19142582, 6.552745, 0.007266164, -0.016046524, 10.1081295
180234600593076, 7.6893353, -0.16390835, 6.503692, -0.008859158, 0.02630663, 10.072239
180234610232763, 7.6869426, -0.15074782, 6.5144596, -0.023881555, 0.019796371, 10.077156
180234619872451, 7.6749787, -0.13878371, 6.5312095, -0.04071498, 0.0030283928, 10.078671
180234629512138, 7.676175, -0.15074782, 6.5144596, -0.026488662, 0.010156155, 10.068951
180234639151774, 7.692925, -0.15672988, 6.519245, -0.019086003, 0.015580654, 10.084921
180234648791409, 7.685746, -0.13878371, 6.498906, -0.0336864, 0.029879093, 10.0659685
180234658431097, 7.658229, -0.1591227, 6.472585, -0.013374448, 0.025073528, 10.028326
180234668070784, 7.668997, -0.17706887, 6.454639, 0.01082921, 0.036110878, 10.025259
180234677710472, 7.6606216, -0.16869399, 6.4414787, 0.004033804, 0.042815685, 10.010214
180234687350107, 7.624729, -0.17228323, 6.4175506, 0.007976055, 0.03478241, 9.967441
180234696989743, 7.6307116, -0.19501504, 6.4031935, 0.036165595, 0.040450096, 9.963118
180234706629430, 7.6343007, -0.19621146, 6.4271216, 0.032345414, 0.025196552, 9.981344
180234716269118, 7.6462646, -0.23090738, 6.468996, 0.058585644, -0.0069856644, 10.018139
180234725908805, 7.672586, -0.2105684, 6.485746, 0.039025545, 0.0041127205, 10.048695
180234735548441, 7.68455, -0.19262223, 6.532406, 0.010987997, -0.013716221, 10.087686
180234745188076, 7.690532, -0.18664017, 6.559923, -3.9827824E-4, -0.026947021, 10.109945
180234754827763, 7.7036924, -0.17108682, 6.5694947, -0.015717268, -0.020699501, 10.125895
180234764467451, 7.692925, -0.15672988, 6.5479593, -0.026554108, -0.008036137, 10.1034975
180234774107086, 7.661818, -0.12921242, 6.521638, -0.051858068, -0.0017881393, 10.062268
180234783746722, 7.6713896, -0.124426775, 6.471389, -0.043281436, 0.041350365, 10.036982
180234793386409, 7.665407, -0.12562318, 6.4402823, -0.034548283, 0.05878496, 10.012334
180234803026097, 7.6570325, -0.13040884, 6.424729, -0.025316596, 0.05958414, 9.996004
180234812665784, 7.661818, -0.17108682, 6.4163537, 0.0167526, 0.05839491, 9.99493
180234822305420, 7.635497, -0.1794617, 6.439086, 0.016470432, 0.021327496, 9.989702
180234831945055, 7.665407, -0.17228323, 6.4642105, 0.007917047, 0.022546768, 10.028639
180234841584743, 7.6666036, -0.20219351, 6.478567, 0.033032417, 0.0046367645, 10.039344
180234851224430, 7.6510506, -0.22253251, 6.491728, 0.044718146, -0.020151138, 10.036345
180234860864066, 7.661818, -0.21774685, 6.518049, 0.035981297, -0.03163767, 10.061487
180234870503701, 7.649854, -0.42711884, 6.4821568, 0.24211323, -0.06947279, 10.032828
180234880143388, 7.6869426, 0.22013968, 6.5682983, -0.3961445, 0.074738026, 10.105324
180234889783076, 7.685746, -0.46301118, 6.4462643, 0.28641832, -0.030762672, 10.037749
180234899422711, 7.6331043, -0.04546363, 6.4701924, -0.12204182, 0.034727573, 10.00568
180234909062347, 7.722835, -0.038285162, 6.430711, -0.10630536, 0.1235733, 10.048439
180234918702034, 7.6019974, -0.47736812, 6.407979, 0.29935324, -0.057155132, 9.949249
180234928341722, 7.7347994, 0.37208393, 6.5611196, -0.5323869, 0.14975262, 10.134496
180234937981357, 7.5900335, -0.76331043, 6.3960147, 0.5788653, -0.13957214, 9.937087
180234947620993, 7.7240314, 0.53240305, 6.570691, -0.6920236, 0.18119287, 10.129481
180234957260680, 7.6139617, -0.81236327, 6.3457656, 0.62841856, -0.1136632, 9.924377
180234966900316, 7.6773715, 0.38524446, 6.5958157, -0.553687, 0.08596468, 10.113421
180234976539951, 7.6678, -0.5623133, 6.4331036, 0.3794371, -0.07020998, 10.017349
180234986179638, 7.645068, -0.034695927, 6.5539412, -0.1524291, -0.014249325, 10.068712
180234995819326, 7.756335, -0.12203395, 6.468996, -0.025086284, 0.092315674, 10.100216
180235005458961, 7.6139617, -0.50488555, 6.4438715, 0.32013786, -0.08990097, 9.981995
180235015098597, 7.745567, 0.29312077, 6.5754766, -0.44506037, 0.14025879, 10.153761
180235024738284, 7.584051, -0.849452, 6.407979, 0.64612484, -0.19257164, 9.942185
180235034377972, 7.7240314, 0.50129634, 6.5982084, -0.66444993, 0.16628408, 10.147865
180235044017607, 7.5936227, -0.86141616, 6.3278193, 0.68547165, -0.13957834, 9.897329
180235053657243, 7.6534433, 0.40917268, 6.5814586, -0.5852294, 0.1093235, 10.084829
180235063296930, 7.645068, -0.55752766, 6.3996043, 0.38744974, -0.059018135, 9.977939
180235072936566, 7.6163545, 0.096909314, 6.5347986, -0.28033805, 0.020313263, 10.032091
180235082576201, 7.7312098, -0.096909314, 6.4534426, -0.04976666, 0.0955286, 10.070568
180235092215888, 7.62114, -0.4223332, 6.4366927, 0.24602914, -0.05625105, 9.981356
180235101855576, 7.7706914, 0.31944183, 6.579066, -0.47426832, 0.15273571, 10.174554
180235111495211, 7.6199436, -0.7752745, 6.442675, 0.58435166, -0.17074871, 9.990097
180235121134847, 7.7419777, 0.49651068, 6.6257257, -0.65286684, 0.1428914, 10.180292
180235130774534, 7.63789, -0.87338024, 6.3361945, 0.70991576, -0.098201275, 9.936493
180235140414170, 7.68455, 0.4223332, 6.580262, -0.5930401, 0.11007261, 10.107756
180235150053805, 7.6462646, -0.6412765, 6.40439, 0.47085595, -0.08583164, 9.983171
180235159693493, 7.6127653, 0.061016977, 6.546763, -0.24024487, -0.008731365, 10.037939
180235169333128, 7.692925, -0.22492532, 6.4151573, 0.07480276, 0.056539536, 10.018838
180235178972763, 7.57448, -0.4223332, 6.407979, 0.2450645, -0.07004261, 9.927151
180235188612451, 7.7312098, 0.19860429, 6.521638, -0.3519857, 0.12705517, 10.109537
180235198252138, 7.5828547, -0.7920243, 6.4091754, 0.59739566, -0.16584826, 9.940831
180235207891774, 7.7312098, 0.50129634, 6.599405, -0.65519595, 0.14856958, 10.154985
180235217531409, 7.6199436, -0.8554341, 6.3194447, 0.6802727, -0.09581041, 9.912555
180235227171097, 7.7180495, 0.4881358, 6.556334, -0.63063824, 0.18328238, 10.117351
180235236810732, 7.6773715, -0.62093747, 6.3864436, 0.45973933, -0.04304123, 9.995051
180235246450368, 7.647461, 0.18305093, 6.580262, -0.36071837, 0.018986702, 10.083975
180235256090055, 7.7144604, -0.17587246, 6.430711, 0.026013017, 0.0726738, 10.044497
180235265729691, 7.6067834, -0.30388847, 6.428318, 0.13292682, -0.027048111, 9.96295
180235275369326, 7.728817, 0.20697916, 6.530013, -0.36296833, 0.11611509, 10.113027
180235285009013, 7.587641, -0.7477571, 6.4642105, 0.54750836, -0.20159101, 9.978831
180235294648649, 7.7611203, 0.47018966, 6.660422, -0.63963354, 0.13490725, 10.21714
180235304288284, 7.6199436, -0.90807617, 6.3804617, 0.7176058, -0.15894842, 9.952799
180235313927972, 7.704889, 0.46181476, 6.593423, -0.6268728, 0.14994574, 10.13096
180235323567607, 7.6510506, -0.69272214, 6.407979, 0.507566, -0.10165596, 9.990629
180235333207243, 7.6630144, 0.19381863, 6.579066, -0.37582254, 0.046314716, 10.094557
180235342846878, 7.6953177, -0.28713873, 6.4163537, 0.13268983, 0.03494835, 10.022531
180235352486513, 7.6139617, -0.2847459, 6.3864436, 0.12283504, 0.00688982, 9.941077
180235362126201, 7.722835, 0.15074782, 6.422336, -0.28102565, 0.17956686, 10.039926
180235371765836, 7.5756764, -0.7046863, 6.352944, 0.52052724, -0.123212814, 9.897536
180235381405472, 7.706085, 0.45822555, 6.558727, -0.6075816, 0.15505886, 10.110263
180235391045159, 7.5864444, -0.89013004, 6.3074803, 0.72053754, -0.14151478, 9.878846
180235400684795, 7.685746, 0.49052864, 6.535995, -0.6338568, 0.16502762, 10.07976
180235410324430, 7.631908, -0.73818576, 6.3661046, 0.56773365, -0.119078636, 9.948956
180235419964118, 7.652247, 0.22971097, 6.6089764, -0.4070921, 0.027288437, 10.105532
180235429603753, 7.7156568, -0.32422748, 6.4737816, 0.16162264, -0.0072832108, 10.075722
180235439243388, 7.647461, -0.20697916, 6.5168524, 0.027024627, -0.04536724, 10.049532
180235448883076, 7.7551384, 0.1268196, 6.5371914, -0.27583838, 0.11517429, 10.139219
180235458522711, 7.629515, -0.6556334, 6.4414787, 0.4651221, -0.1382513, 9.994825
180235468162347, 7.763513, 0.4642076, 6.629315, -0.62404215, 0.15709782, 10.199085
180235477801982, 7.60439, -0.85902333, 6.3661046, 0.6681483, -0.16497755, 9.930677
180235487441618, 7.708478, 0.50129634, 6.576673, -0.6593708, 0.16547966, 10.122372
180235497081305, 7.624729, -0.7298109, 6.35773, 0.5615467, -0.10512686, 9.937982
180235506720941, 7.6390862, 0.2955136, 6.5742803, -0.46598804, 0.05069542, 10.071962
180235516360576, 7.6678, -0.37806597, 6.4127645, 0.21965754, -0.013580799, 10.000661
180235526000211, 7.609176, -0.18065812, 6.45105, 0.011666656, -0.016506195, 9.977367
180235535639847, 7.739585, 0.06460621, 6.452246, -0.20187128, 0.13631105, 10.073605
180235545279534, 7.5900335, -0.61016977, 6.3888364, 0.42947018, -0.11335707, 9.929797
180235554919170, 7.7407813, 0.39481574, 6.586244, -0.5517031, 0.13722515, 10.155342
180235564558805, 7.6127653, -0.90089774, 6.364908, 0.72335684, -0.17295313, 9.936031
180235574198441, 7.7180495, 0.48095736, 6.5694947, -0.63677585, 0.16261864, 10.125511
180235583838076, 7.6163545, -0.80757767, 6.346962, 0.6335685, -0.14420462, 9.925861
180235593477763, 7.6606216, 0.30867413, 6.6077795, -0.49144006, 0.0589571, 10.109311
180235603117399, 7.6917286, -0.42831525, 6.448657, 0.2606306, -0.041092396, 10.042993
180235612757034, 7.618747, -0.09092726, 6.503692, -0.08749843, -0.018449783, 10.017166
180235622396670, 7.7240314, 0.05503492, 6.4701924, -0.19883037, 0.117526054, 10.073418
180235632036305, 7.6067834, -0.5599205, 6.4235325, 0.3701867, -0.124632835, 9.96423
180235641675993, 7.746763, 0.43788654, 6.570691, -0.58248377, 0.18385458, 10.149137
180235651315628, 7.5996046, -0.8063812, 6.3421764, 0.6221956, -0.15413189, 9.910427
180235660955263, 7.7419777, 0.552742, 6.541977, -0.68068916, 0.21208525, 10.125852
180235670594899, 7.6271224, -0.7920243, 6.3158555, 0.63934386, -0.08947945, 9.9133005
180235680234534, 7.6426754, 0.32303107, 6.570691, -0.49350512, 0.06740475, 10.071779
180235689874170, 7.6570325, -0.50009996, 6.4211397, 0.32961953, -0.06424284, 9.999926
180235699513805, 7.60439, -0.10289137, 6.502496, -0.07749367, -0.035156727, 10.005627
180235709153493, 7.7096744, -0.06580263, 6.4677997, -0.08573246, 0.065338135, 10.063012
180235718793128, 7.600801, -0.5802595, 6.45105, 0.3917153, -0.14167166, 9.977545
180235728432763, 7.7503524, 0.3385844, 6.634101, -0.510792, 0.08737707, 10.19438
180235738072399, 7.6067834, -0.8458628, 6.413961, 0.65031934, -0.17811155, 9.963078
180235747712034, 7.735996, 0.52163535, 6.580262, -0.6642067, 0.18148708, 10.146105
180235757351670, 7.6331043, -0.81236327, 6.3326054, 0.63771, -0.097436905, 9.930253
180235766991305, 7.676175, 0.42711884, 6.5814586, -0.5967059, 0.12095308, 10.102031
180235776630941, 7.678568, -0.5024927, 6.413961, 0.32966948, -0.039498806, 10.012072
180235786270576, 7.6103725, 0.0059820567, 6.5312095, -0.19349122, -0.011150837, 10.026812
180235795910263, 7.708478, -0.050249275, 6.4343, -0.0971272, 0.09944916, 10.040123
180235805549899, 7.5816584, -0.46779683, 6.431907, 0.27987802, -0.10627079, 9.948879
180235815189534, 7.726424, 0.3290131, 6.599405, -0.49032724, 0.11524916, 10.15403
180235824829170, 7.5924263, -0.8243274, 6.4235325, 0.62760055, -0.19686556, 9.95759
180235834468805, 7.7347994, 0.51565325, 6.617351, -0.6709739, 0.15279675, 10.169012
180235844108441, 7.62114, -0.86261255, 6.352944, 0.67537653, -0.13654661, 9.935341
180235853748076, 7.6869426, 0.38285163, 6.593423, -0.5589361, 0.10092735, 10.118612
180235863387711, 7.6833534, -0.5814559, 6.428318, 0.400908, -0.06438637, 10.026486
180235873027347, 7.635497, 0.03708875, 6.5431733, -0.21709764, 0.001522541, 10.053268
180235882666982, 7.716853, -0.13280165, 6.4414787, -0.018622518, 0.07707071, 10.052553
180235892306618, 7.600801, -0.45583272, 6.411568, 0.27758205, -0.06751871, 9.950203
180235901946305, 7.7443705, 0.30867413, 6.552745, -0.46593213, 0.14514017, 10.137596
180235911585941, 7.587641, -0.7812566, 6.4295144, 0.58582604, -0.18284559, 9.957143
180235921225576, 7.713264, 0.5168497, 6.613762, -0.67599404, 0.14411163, 10.150156
180235930865211, 7.6259255, -0.8566305, 6.3565335, 0.67057836, -0.12754297, 9.941233
180235940504847, 7.696514, 0.44985065, 6.5946193, -0.6221323, 0.12495899, 10.125464
180235950144482, 7.6749787, -0.5946164, 6.413961, 0.41495097, -0.06315136, 10.011072
180235959784118, 7.6510506, 0.09810573, 6.546763, -0.27855885, 0.027993679, 10.066277
180235969423753, 7.728817, -0.16390835, 6.4343, 0.0104061365, 0.078778744, 10.057604
180235979063388, 7.6019974, -0.37567315, 6.431907, 0.19999838, -0.061317444, 9.96279
180235988703024, 7.739585, 0.2536392, 6.5455666, -0.40549707, 0.12053299, 10.130695
180235998342659, 7.5864444, -0.76570326, 6.4271216, 0.56775546, -0.18506145, 9.954484
180236007982295, 7.725228, 0.50368917, 6.631708, -0.66826147, 0.12367535, 10.171062
180236017621930, 7.6067834, -0.8877372, 6.352944, 0.7044705, -0.1621623, 9.924141
180236027261566, 7.6917286, 0.4749753, 6.5958157, -0.6239692, 0.12820196, 10.1236
180236036901201, 7.6797643, -0.64845496, 6.4271216, 0.47400117, -0.094204426, 10.023653
180236046540836, 7.652247, 0.13160525, 6.597012, -0.30459452, 0.0022306442, 10.099604
180236056180472, 7.719246, -0.23688944, 6.4570317, 0.086251974, 0.030186653, 10.066172
180236065820107, 7.617551, -0.35533416, 6.442675, 0.18910646, -0.058270454, 9.981093
180236075459743, 7.7276206, 0.20219351, 6.512067, -0.341931, 0.12714386, 10.101036
180236085099378, 7.584051, -0.72741807, 6.3804617, 0.5578158, -0.14534235, 9.920937
180236094739013, 7.7156568, 0.52522457, 6.576673, -0.6738849, 0.1512928, 10.128319
180236104378649, 7.5936227, -0.8566305, 6.303891, 0.693609, -0.109900475, 9.881437
180236114018284, 7.6809607, 0.4869394, 6.5491557, -0.6247649, 0.13888645, 10.08544
180236123657920, 7.6630144, -0.65682983, 6.38764, 0.504676, -0.07395792, 9.984737
180236133297555, 7.6666036, 0.20817557, 6.600601, -0.37263846, 0.009453297, 10.111832
180236142937191, 7.7036924, -0.26679972, 6.4797635, 0.11455381, 0.0010299683, 10.069372
180236152576826, 7.6103725, -0.29790643, 6.474978, 0.12700033, -0.06942558, 9.995545
180236162216461, 7.7419777, 0.16271193, 6.539584, -0.30563295, 0.113596916, 10.130379
180236171856097, 7.5864444, -0.7118647, 6.478567, 0.506778, -0.22076464, 9.986349
180236181495732, 7.708478, 0.47976094, 6.6484575, -0.6336585, 0.12053347, 10.170385
180236191135368, 7.5996046, -0.86979103, 6.407979, 0.6825708, -0.2146225, 9.952927
180236200775003, 7.719246, 0.50129634, 6.6077795, -0.6531013, 0.16445208, 10.151217
180236210414638, 7.6307116, -0.7082755, 6.3744793, 0.54490125, -0.114774704, 9.952552
180236220054274, 7.647461, 0.26081768, 6.5850477, -0.4309566, 0.05829239, 10.085903
180236229693909, 7.706085, -0.3182454, 6.3948183, 0.17732167, 0.043342113, 10.017257
180236239333545, 7.60798, -0.20697916, 6.40439, 0.055833817, 0.010688782, 9.946716
180236248973180, 7.7108707, 0.12921242, 6.4343, -0.2535174, 0.15261793, 10.039268
180236258612816, 7.5816584, -0.69152576, 6.375676, 0.52063715, -0.12726784, 9.915733
180236268252451, 7.735996, 0.43908295, 6.6053867, -0.579793, 0.13259935, 10.16444
180236277892086, 7.570891, -0.89730847, 6.3948183, 0.71016204, -0.20266008, 9.923297
180236287531722, 7.698907, 0.48215377, 6.6161547, -0.6384726, 0.12923002, 10.141735
180236297171357, 7.643872, -0.7537391, 6.4067826, 0.59027326, -0.12582731, 9.983964
180236306810993, 7.665407, 0.2883351, 6.647261, -0.4683721, 0.013426781, 10.139436
180236316450628, 7.6737823, -0.35413775, 6.491728, 0.18410444, -0.049063206, 10.055773
180236326090263, 7.6139617, -0.14955142, 6.521638, -0.021829128, -0.049761772, 10.026145
180236335729899, 7.725228, 0.1363909, 6.498906, -0.27273512, 0.12066126, 10.091808
180236345369534, 7.588837, -0.54317075, 6.428318, 0.37701404, -0.10682535, 9.952649
180236355009170, 7.732406, 0.4881358, 6.6161547, -0.6346289, 0.14719963, 10.167471
180236364648753, 7.611569, -0.82672024, 6.390033, 0.65695155, -0.13348532, 9.950005
180236374288388, 7.752745, 0.53240305, 6.613762, -0.6751839, 0.16803074, 10.180681
180236383928024, 7.648658, -0.76570326, 6.3768725, 0.60428977, -0.09682608, 9.968863
180236393567659, 7.6833534, 0.31106696, 6.606583, -0.46158862, 0.07083988, 10.127169
180236403207295, 7.670193, -0.4331009, 6.4558353, 0.27167714, -0.05207491, 10.030987
180236412846930, 7.5816584, -0.12562318, 6.489335, -0.03800404, -0.03993988, 9.9802685
180236422486566, 7.6941214, 0.014356935, 6.4534426, -0.14070046, 0.10005522, 10.040758
180236432126201, 7.554141, -0.62093747, 6.3996043, 0.45196688, -0.15154457, 9.908497
180236441765836, 7.7012997, 0.40917268, 6.5982084, -0.5491569, 0.1430316, 10.133696
180236451405472, 7.5469627, -0.8530413, 6.3768725, 0.67411876, -0.22475672, 9.891605
180236461045107, 7.7036924, 0.55034924, 6.5850477, -0.6717895, 0.1881957, 10.125507
180236470684743, 7.6390862, -0.7848458, 6.3948183, 0.6161618, -0.13863325, 9.973288
180236480324378, 7.692925, 0.39481574, 6.6556363, -0.54751086, 0.07391548, 10.165099
180236489964013, 7.7012997, -0.39720857, 6.468996, 0.24252796, -0.028079987, 10.062609
180236499603649, 7.6606216, -0.008374879, 6.5479593, -0.14794278, 0.012757301, 10.076653
180236509243284, 7.7479596, 0.032303106, 6.48096, -0.15240133, 0.12653208, 10.099283
180236518882920, 7.609176, -0.50129634, 6.4570317, 0.33620703, -0.10388994, 9.986006
180236528522503, 7.7611203, 0.39481574, 6.600601, -0.52397215, 0.14232731, 10.181553
180236538162138, 7.5732837, -0.8530413, 6.4259253, 0.6741605, -0.19758081, 9.943907
180236547801774, 7.696514, 0.5024927, 6.606583, -0.6488412, 0.12567139, 10.13405
180236557441409, 7.59123, -0.863809, 6.367301, 0.70915234, -0.14687777, 9.919222
180236567081045, 7.6271224, 0.35653058, 6.6257257, -0.5253467, 0.032138348, 10.095709
180236576720680, 7.6223364, -0.54436713, 6.437889, 0.38098514, -0.08439398, 9.984512
180236586360316, 7.5924263, -0.011964113, 6.539584, -0.15074658, -0.029673576, 10.019363
180236595999951, 7.6773715, -0.058624156, 6.4606214, -0.07970643, 0.06861973, 10.033647
180236605639586, 7.587641, -0.45224348, 6.4402823, 0.2868886, -0.08773804, 9.958114
180236615279222, 7.732406, 0.36370903, 6.602994, -0.5077417, 0.13200998, 10.161037
180236624918857, 7.6163545, -0.7716853, 6.4474607, 0.5979295, -0.17501736, 9.989292
180236634558441, 7.7682986, 0.5599205, 6.640083, -0.6890789, 0.18283796, 10.209917
180236644198076, 7.6462646, -0.82672024, 6.378069, 0.67566, -0.111483574, 9.967932
180236653837711, 7.704889, 0.41994038, 6.6329045, -0.5755544, 0.11195326, 10.158411
180236663477347, 7.6510506, -0.55752766, 6.4618177, 0.3888594, -0.08573055, 10.022272
180236673116982, 7.5924263, 0.051445685, 6.5886374, -0.22484791, -0.038010597, 10.050161
180236682756618, 7.668997, -0.111266255, 6.4761744, -0.033179164, 0.043489456, 10.038115
180236692396253, 7.548159, -0.43908295, 6.4606214, 0.26392424, -0.11340761, 9.941057
180236702035888, 7.6953177, 0.30867413, 6.586244, -0.46088243, 0.09667683, 10.122749
180236711675524, 7.5637126, -0.76689965, 6.437889, 0.59182405, -0.17418051, 9.943024
180236721315159, 7.7072816, 0.53240305, 6.6053867, -0.67650115, 0.16982794, 10.140528
180236730954795, 7.6127653, -0.85902333, 6.3361945, 0.69854593, -0.10661411, 9.916661
180236740594430, 7.6941214, 0.47138608, 6.6161547, -0.6123636, 0.13061666, 10.13919
180236750234066, 7.6678, -0.5694918, 6.4666033, 0.41096044, -0.0834918, 10.037958
180236759873649, 7.63789, 0.1160519, 6.593423, -0.28468883, 0.014228344, 10.086763
180236769513284, 7.7240314, -0.15074782, 6.485746, 0.011256695, 0.0656867, 10.086816
180236779152920, 7.600801, -0.35533416, 6.4977098, 0.18480349, -0.08065796, 10.003899
180236788792555, 7.7276206, 0.2656033, 6.5982084, -0.4100306, 0.118368626, 10.15583
180236798432191, 7.5720873, -0.7573284, 6.489335, 0.562629, -0.20933199, 9.983042
180236808071826, 7.7012997, 0.50129634, 6.661618, -0.64992136, 0.11449766, 10.173641
180236817711461, 7.584051, -0.8578269, 6.37089, 0.6867827, -0.14140463, 9.9171715
180236827351097, 7.6833534, 0.4881358, 6.613762, -0.62821037, 0.13205624, 10.129262
180236836990732, 7.6462646, -0.6376872, 6.430711, 0.4738245, -0.082113266, 9.999739
180236846630368, 7.6271224, 0.16031912, 6.593423, -0.32668066, 0.018616676, 10.07794
180236856270003, 7.6869426, -0.19621146, 6.45105, 0.057546735, 0.05829239, 10.036779
180236865909586, 7.5900335, -0.32183465, 6.431907, 0.17100108, -0.022668362, 9.95248
180236875549222, 7.7144604, 0.22731815, 6.5431733, -0.36295354, 0.12506056, 10.110901
180236885188857, 7.5613194, -0.7573284, 6.4701924, 0.57786846, -0.20106459, 9.961735
180236894828493, 7.708478, 0.48095736, 6.664011, -0.6260513, 0.10812044, 10.181226
180236904468128, 7.5900335, -0.8769695, 6.401997, 0.71420777, -0.17191315, 9.941006
180236914107763, 7.688139, 0.44147578, 6.626922, -0.57977754, 0.116864204, 10.14242
180236923747399, 7.6366935, -0.6939186, 6.45105, 0.5337434, -0.12953424, 10.005749
180236933387034, 7.615158, 0.19860429, 6.6257257, -0.36966133, 0.008508682, 10.089281
180236943026670, 7.652247, -0.2656033, 6.4773707, 0.115149975, -0.003223896, 10.028484
180236952666305, 7.5625157, -0.25722843, 6.4773707, 0.09338045, -0.057164192, 9.960028
180236962305941, 7.728817, 0.21415763, 6.503692, -0.33083415, 0.17061758, 10.096531
180236971945576, 7.5924263, -0.66999036, 6.4534426, 0.49586344, -0.14494467, 9.9736595
180236981585211, 7.7276206, 0.49172506, 6.63769, -0.6241314, 0.15617561, 10.178551
180236991224795, 7.6019974, -0.849452, 6.4008007, 0.6781086, -0.15623426, 9.949771
180237000864430, 7.6809607, 0.526421, 6.6101727, -0.6588798, 0.15196562, 10.124792
180237010504066, 7.6067834, -0.6855437, 6.4067826, 0.52219236, -0.09980297, 9.954765
180237020143701, 7.615158, 0.2548356, 6.6628146, -0.42372262, 0.0035190582, 10.112821
180237029783336, 7.665407, -0.31465617, 6.524031, 0.1527822, -0.038781166, 10.06954
180237039422972, 7.5816584, -0.22013968, 6.5539412, 0.04516661, -0.08321428, 10.023731
180237049062607, 7.728817, 0.14237295, 6.5778694, -0.28298545, 0.10641718, 10.145533
180237058702243, 7.576873, -0.64606214, 6.502496, 0.45511925, -0.18068743, 9.993452
180237068341878, 7.726424, 0.48454657, 6.680761, -0.6310791, 0.1274414, 10.205414
180237077981513, 7.60798, -0.87218386, 6.437889, 0.7004558, -0.18041039, 9.978241
180237087621149, 7.725228, 0.49172506, 6.6017976, -0.6181525, 0.18247986, 10.15329
180237097260784, 7.6127653, -0.7692925, 6.346962, 0.62634563, -0.075904846, 9.921284
180237106900420, 7.60798, 0.29192436, 6.5647087, -0.43996918, 0.07138872, 10.043073
180237116540003, 7.623533, -0.3684947, 6.4091754, 0.22209048, 0.0012998581, 9.964047
180237126179638, 7.5457664, -0.19381863, 6.4534426, 0.03662634, -0.028272629, 9.930807
180237135819274, 7.6869426, 0.07537391, 6.472585, -0.20096898, 0.12295866, 10.046574
180237145458909, 7.5493555, -0.62093747, 6.471389, 0.44269907, -0.16525745, 9.951579
180237155098545, 7.7156568, 0.44027936, 6.6759753, -0.58982635, 0.09655714, 10.194931
180237164738180, 7.59123, -0.8327023, 6.48096, 0.65150476, -0.20258808, 9.992873
180237174377816, 7.7204423, 0.55752766, 6.7011, -0.7045294, 0.13048553, 10.213101
180237184017451, 7.643872, -0.74895346, 6.463014, 0.573637, -0.12857485, 10.020712
180237193657086, 7.6546397, 0.35653058, 6.6939216, -0.53150415, 0.040533543, 10.160957
180237203296722, 7.6869426, -0.39960137, 6.5228343, 0.24538267, -0.04006052, 10.086344
180237212936357, 7.60439, -0.0849452, 6.5718875, -0.085356236, -0.03191042, 10.05064
180237222575993, 7.7276206, 0.0526421, 6.5084777, -0.17600417, 0.13369656, 10.1010065
180237232215628, 7.584051, -0.56350976, 6.4666033, 0.39139426, -0.121875286, 9.974182
180237241855263, 7.7276206, 0.41754755, 6.640083, -0.556607, 0.15502834, 10.180732
180237251494899, 7.576873, -0.83748794, 6.4271216, 0.6677605, -0.18675232, 9.946733
180237261134534, 7.690532, 0.5395815, 6.5754766, -0.6647724, 0.21193314, 10.108685
180237270774170, 7.580462, -0.8003992, 6.323034, 0.6467525, -0.10727739, 9.882055
180237280413753, 7.6031938, 0.35653058, 6.5694947, -0.5031692, 0.11105728, 10.041336
180237290053388, 7.6103725, -0.47258246, 6.424729, 0.32597208, -0.058600903, 9.965368
180237299693024, 7.5900335, -0.07178468, 6.535995, -0.0848608, -0.01898241, 10.016258
180237309332659, 7.7240314, -0.01794617, 6.515656, -0.11141014, 0.09747124, 10.104101
180237318972295, 7.6019974, -0.51565325, 6.5491557, 0.33365524, -0.15041971, 10.0406065
180237328611930, 7.771888, 0.39601216, 6.735796, -0.5464351, 0.10419369, 10.277188
180237338251566, 7.617551, -0.8147561, 6.5479593, 0.624406, -0.22495079, 10.056152
180237347891201, 7.737192, 0.5455636, 6.695118, -0.68608403, 0.15024376, 10.222187
180237357530836, 7.6067834, -0.79441714, 6.411568, 0.62392867, -0.12719965, 9.959768
180237367170472, 7.6343007, 0.4235296, 6.6352973, -0.5760241, 0.07870817, 10.106981
180237376810107, 7.6127653, -0.4869394, 6.4462643, 0.33547223, -0.058091164, 9.981469
180237386449743, 7.578069, 0.0023928226, 6.5431733, -0.16121244, -0.009216785, 10.010702
180237396089378, 7.692925, -0.06580263, 6.463014, -0.059150934, 0.103606224, 10.046976
180237405729013, 7.580462, -0.526421, 6.471389, 0.36207187, -0.09832716, 9.973898
180237415368649, 7.7180495, 0.28594232, 6.634101, -0.43781304, 0.0956893, 10.171555
180237425008284, 7.570891, -0.8757731, 6.4845495, 0.6877433, -0.20643806, 9.980941
180237434647920, 7.68455, 0.47377887, 6.6855464, -0.6439543, 0.07853508, 10.176073
180237444287555, 7.584051, -0.8530413, 6.3960147, 0.67796874, -0.13809681, 9.93357
180237453927191, 7.6462646, 0.41874397, 6.63769, -0.5878222, 0.08069992, 10.116699
180237463566826, 7.6343007, -0.55513483, 6.4558353, 0.39522254, -0.065365314, 10.0054
180237473206461, 7.588837, 0.07058827, 6.5718875, -0.23900604, -0.0032234192, 10.036333
180237482846097, 7.702496, -0.08973085, 6.452246, -0.040068865, 0.112038136, 10.047578
180237492485732, 7.594819, -0.44865423, 6.4354963, 0.28689325, -0.049919605, 9.960591
180237502125368, 7.735996, 0.30508488, 6.5982084, -0.44571686, 0.13898563, 10.161549
180237511765003, 7.5720873, -0.7645068, 6.5048885, 0.5716138, -0.20695877, 9.993246
180237521404638, 7.713264, 0.52522457, 6.6855464, -0.6909513, 0.12162113, 10.1967945
180237531044274, 7.60798, -0.8386843, 6.4199433, 0.66192174, -0.12174988, 9.967319
180237540683909, 7.649854, 0.46301118, 6.6448684, -0.62345946, 0.08017826, 10.123922
180237550323545, 7.629515, -0.5766702, 6.4761744, 0.39956725, -0.08404875, 10.015795
180237559963180, 7.618747, 0.11485548, 6.6053867, -0.2920481, 0.0014429092, 10.079898
180237569602816, 7.702496, -0.14476576, 6.4677997, 0.004478097, 0.082931995, 10.058577
180237579242451, 7.59123, -0.35413775, 6.4498534, 0.19284797, -0.030314922, 9.965675
180237588882086, 7.7180495, 0.27517462, 6.5611196, -0.4196095, 0.1339078, 10.124144
180237598521722, 7.576873, -0.75972116, 6.4498534, 0.5784104, -0.15059757, 9.961403
180237608161357, 7.7156568, 0.51086766, 6.629315, -0.66162485, 0.15573263, 10.162586
180237617800993, 7.5996046, -0.83988076, 6.3924255, 0.6691679, -0.11702919, 9.942887
180237627440628, 7.6773715, 0.4749753, 6.6101727, -0.6290581, 0.13757324, 10.12163
180237637080263, 7.6462646, -0.6472585, 6.454639, 0.4787389, -0.075390816, 10.015578
180237646719899, 7.6223364, 0.15194423, 6.649654, -0.32761645, -0.022884369, 10.11104
180237656359534, 7.7012997, -0.20817557, 6.4977098, 0.06291258, 0.040487766, 10.078094
180237665999170, 7.6019974, -0.32183465, 6.4905314, 0.15665281, -0.048395634, 9.999702
180237675638805, 7.708478, 0.22612174, 6.579066, -0.37354434, 0.10872698, 10.129388
180237685278441, 7.5625157, -0.72741807, 6.4821568, 0.5359193, -0.18713331, 9.970804
180237694918076, 7.7312098, 0.4941179, 6.6711893, -0.6380191, 0.13974714, 10.202642
180237704557711, 7.578069, -0.8757731, 6.393622, 0.70047784, -0.15146351, 9.927683
180237714197347, 7.6869426, 0.49172506, 6.6041903, -0.63502884, 0.16565561, 10.124993
180237723836982, 7.6343007, -0.6855437, 6.4067826, 0.5371839, -0.07065821, 9.975262
180237733476618, 7.624729, 0.1902294, 6.6089764, -0.35835576, 0.021273613, 10.0857525
180237743116253, 7.685746, -0.27517462, 6.4737816, 0.12883735, 0.025890827, 10.051817
180237752755888, 7.5936227, -0.27756742, 6.4881387, 0.11670768, -0.045701504, 9.9910145
180237762395524, 7.7144604, 0.18664017, 6.552745, -0.32167017, 0.11932278, 10.117731
180237772035159, 7.5732837, -0.7082755, 6.4821568, 0.52528393, -0.18859959, 9.978134
180237781674795, 7.733603, 0.47856453, 6.6652074, -0.62049425, 0.13597727, 10.200938
180237791314430, 7.609176, -0.8650054, 6.407979, 0.6878754, -0.16522503, 9.960399
180237800954066, 7.6977105, 0.50368917, 6.623333, -0.64880204, 0.16234303, 10.145429
180237810593701, 7.635497, -0.7262217, 6.398408, 0.56127477, -0.109285355, 9.972004
180237820233336, 7.6307116, 0.2536392, 6.6125655, -0.41763747, 0.062397957, 10.091572
180237829872972, 7.6630144, -0.30149564, 6.452246, 0.15428555, 0.009077549, 10.020994
180237839512607, 7.588837, -0.20578274, 6.502496, 0.041936517, -0.040137768, 9.995594
180237849152243, 7.7204423, 0.09571291, 6.5371914, -0.22862363, 0.11482, 10.113546
180237858791878, 7.615158, -0.29312077, 6.5718875, 0.106894374, -0.10558891, 10.061992
180237868431513, 7.6737823, -0.14237295, 6.5898337, -0.027773142, -0.032256126, 10.115894
180237878071149, 7.6534433, -0.14596218, 6.5551376, -0.022542834, -0.018218994, 10.0779705
180237887710784, 7.655836, -0.14955142, 6.5347986, -0.013359427, -0.0035119057, 10.066657
180237897350420, 7.661818, -0.14237295, 6.533602, -0.018458247, 0.0020694733, 10.07032
180237906990055, 7.641479, -0.16031912, 6.509674, 0.0013501644, -6.9999695E-4, 10.03961
180237916629691, 7.648658, -0.14117654, 6.4821568, -0.008043766, 0.02777958, 10.026935
180237926269326, 7.635497, -0.15792629, 6.431907, 0.018024683, 0.04908943, 9.984611
180237935909013, 7.6343007, -0.14955142, 6.428318, 0.010516524, 0.051979065, 9.981251
180237945548649, 7.6366935, -0.17347965, 6.437889, 0.03205669, 0.039093494, 9.989647
180237955188284, 7.6366935, -0.18544376, 6.485746, 0.032665133, 0.0011277199, 10.020844
180237964827920, 7.6462646, -0.21296121, 6.519245, 0.05343139, -0.024528503, 10.050264
180237974467555, 7.652247, -0.19740787, 6.5611196, 0.029422164, -0.04529953, 10.081727
180237984107191, 7.658229, -0.19501504, 6.597012, 0.017023444, -0.06261349, 10.109543
180237993746826, 7.6630144, -0.1698904, 6.5886374, -0.0060025454, -0.04544115, 10.107359
180238003386461, 7.6534433, -0.15553348, 6.593423, -0.023474693, -0.051050186, 10.102942
180238013026097, 7.672586, -0.15433706, 6.5491557, -0.011615396, -0.00649786, 10.088787
180238022665732, 7.6606216, -0.1268196, 6.5168524, -0.033267975, 0.016914845, 10.058289
180238032305368, 7.6606216, -0.111266255, 6.501299, -0.04506588, 0.031908035, 10.047953
180238041945003, 7.6737823, -0.11485548, 6.501299, -0.039298296, 0.03831196, 10.058031
180238051584638, 7.6402826, -0.124426775, 6.503692, -0.035503507, 0.012372971, 10.034242
180238061224326, 7.655836, -0.12921242, 6.5001025, -0.027148962, 0.022618294, 10.043833
180238070863961, 7.6737823, -0.13758731, 6.509674, -0.017362356, 0.022916794, 10.06384
180238080503597, 7.641479, -0.1591227, 6.4965134, 0.0016207695, 0.005004883, 10.031061
180238090143232, 7.641479, -0.148355, 6.483353, -0.005178094, 0.016484737, 10.022365
180238099782868, 7.63789, -0.16630118, 6.4881387, 0.010558128, 0.0060067177, 10.023015
180238109422503, 7.6366935, -0.18065812, 6.4977098, 0.02391076, -0.0056943893, 10.028527
180238119062138, 7.658229, -0.20338993, 6.489335, 0.05064869, 0.009427547, 10.039854
180238128701774, 7.661818, -0.18903299, 6.5048885, 0.03254056, 0.005423546, 10.052446
180238138341409, 7.655836, -0.16390835, 6.5252275, 0.0014402866, -0.0064578056, 10.0606785
180238147981045, 7.658229, -0.15314065, 6.5407805, -0.0117583275, -0.013653278, 10.072409
180238157620680, 7.658229, -0.14476576, 6.5575304, -0.025617957, -0.023967266, 10.083124
180238167260368, 7.643872, -0.12801601, 6.538388, -0.040141225, -0.014436722, 10.059516
180238176900003, 7.6678, -0.10289137, 6.5228343, -0.055729747, 0.018237114, 10.067259
180238186539638, 7.658229, -0.10289137, 6.506085, -0.051316738, 0.024229527, 10.0491295
180238196179274, 7.655836, -0.11964113, 6.492924, -0.030375123, 0.027923107, 10.039048
180238205818909, 7.672586, -0.1471586, 6.4905314, 0.0013395548, 0.033627033, 10.050676
180238215458545, 7.676175, -0.14356937, 6.506085, -0.004908681, 0.025476933, 10.063438
180238225098180, 7.6809607, -0.16869399, 6.512067, 0.019755602, 0.018055439, 10.071342
180238234737816, 7.6606216, -0.19381863, 6.5168524, 0.039723396, -0.0048451424, 10.059345
180238244377451, 7.6366935, -0.21655045, 6.5204415, 0.056016088, -0.029577732, 10.043811
180238254017138, 7.6259255, -0.22372891, 6.5443697, 0.052764416, -0.058621407, 10.051235
180238263656774, 7.6223364, -0.19860429, 6.546763, 0.02635336, -0.05564785, 10.049665
180238273296409, 7.62114, -0.1794617, 6.5204415, 0.013624191, -0.030549526, 10.031402
180238282936045, 7.6259255, -0.1698904, 6.5144596, 0.0064867735, -0.020598888, 10.031017
180238292575680, 7.649854, -0.12921242, 6.492924, -0.023527384, 0.022724628, 10.034639
180238302215316, 7.668997, -0.12801601, 6.495317, -0.021073103, 0.034885883, 10.050742
180238311854951, 7.6809607, -0.12562318, 6.506085, -0.022835016, 0.035064697, 10.0667925
180238321494586, 7.68455, -0.12562318, 6.5084777, -0.023091793, 0.034734726, 10.071079
180238331134222, 7.685746, -0.12562318, 6.532406, -0.028474092, 0.016920567, 10.0875025
180238340773909, 7.6737823, -0.16031912, 6.513263, 0.007094741, 0.014005661, 10.066527
180238350413545, 7.655836, -0.14237295, 6.5204415, -0.0157367, 3.6525726E-4, 10.057237
180238360053180, 7.649854, -0.15314065, 6.513263, -0.004809499, -0.0010318756, 10.048198
180238369692816, 7.62114, -0.16031912, 6.503692, -7.749796E-4, -0.014936924, 10.020243
180238379332451, 7.6426754, -0.16390835, 6.4965134, 0.00791502, 0.002746582, 10.032047
180238388972086, 7.6331043, -0.17826529, 6.483353, 0.022652507, 0.0025644302, 10.016457
180238398611722, 7.6331043, -0.16869399, 6.501299, 0.009446621, -0.0078053474, 10.027935
180238408251409, 7.647461, -0.16390835, 6.524031, 0.0014739037, -0.012310982, 10.053524
180238417891045, 7.670193, -0.15792629, 6.530013, -0.0017232895, -7.7199936E-4, 10.0746155
180238427530680, 7.668997, -0.15792629, 6.5443697, -0.005108595, -0.009136677, 10.083011
180238437170316, 7.664211, -0.16031912, 6.5455666, -0.00380826, -0.013706207, 10.080182
180238446809951, 7.682157, -0.1591227, 6.5443697, -0.0015571117, -9.0789795E-4, 10.09305
180238456449586, 7.6809607, -0.16749759, 6.558727, 0.0032474995, -0.015400887, 10.101578
180238466089222, 7.649854, -0.16390835, 6.532406, 4.631281E-4, -0.014684677, 10.060779
180238475728909, 7.63789, -0.15314065, 6.512067, -0.007155299, -0.0044341087, 10.038315
180238485368545, 7.63789, -0.14596218, 6.506085, -0.012406349, 0.0019860268, 10.034323
180238495008180, 7.624729, -0.1698904, 6.478567, 0.014662862, 0.004907131, 10.006847
180238504647816, 7.6223364, -0.15672988, 6.468996, 0.003638029, 0.014166355, 9.998614
180238514287451, 7.6307116, -0.15672988, 6.489335, 3.0517578E-5, 0.003250599, 10.018172
180238523927086, 7.641479, -0.15074782, 6.492924, -0.004973531, 0.008433819, 10.0286045
180238533566722, 7.655836, -0.13519448, 6.5108705, -0.020750046, 0.0098929405, 10.0509205
180238543206409, 7.6737823, -0.13519448, 6.521638, -0.019164562, 0.014228821, 10.071565
180238552846045, 7.672586, -0.14356937, 6.5228343, -0.010703802, 0.0106425285, 10.07156
180238562485680, 7.6893353, -0.14596218, 6.5204415, -0.0055582523, 0.022370815, 10.082796
180238572125316, 7.6606216, -0.16510476, 6.5204415, 0.01002717, -0.001709938, 10.061235
180238581764951, 7.652247, -0.18664017, 6.5204415, 0.03000629, -0.012732506, 10.055189
180238591404638, 7.6331043, -0.16151553, 6.4977098, 0.0071617365, -0.002216816, 10.025494
180238601044274, 7.635497, -0.18424734, 6.4941206, 0.030164719, -0.004357815, 10.02534
180238610683909, 7.6343007, -0.18065812, 6.506085, 0.023789167, -0.013159752, 10.032127
180238620323545, 7.645068, -0.17228323, 6.502496, 0.01766193, -8.907318E-4, 10.037872
180238629963180, 7.6630144, -0.14117654, 6.4977098, -0.008794785, 0.021713734, 10.0479555
180238639602816, 7.688139, -0.13280165, 6.5048885, -0.014674425, 0.03572607, 10.071604
180238649242451, 7.6749787, -0.13160525, 6.489335, -0.014913559, 0.039855957, 10.051482
180238658882138, 7.670193, -0.13040884, 6.5072813, -0.020465493, 0.024093628, 10.059453
180238668521774, 7.645068, -0.12203395, 6.524031, -0.036176562, -0.0024170876, 10.051052
180238678161409, 7.631908, -0.13758731, 6.5252275, -0.023707032, -0.016233444, 10.042046
180238687801045, 7.645068, -0.13758731, 6.530013, -0.022339344, -0.010956764, 10.05517
180238697440680, 7.6678, -0.14117654, 6.530013, -0.015684724, 0.005085945, 10.072531
180238707080368, 7.672586, -0.16151553, 6.526424, 0.004663348, 0.0055942535, 10.074165
180238716720003, 7.6666036, -0.16390835, 6.5347986, 0.0042951107, -0.004945278, 10.07508
180238726359638, 7.6594253, -0.16510476, 6.5407805, 8.1956387E-4, -0.015648842, 10.073511
180238735999274, 7.643872, -0.16271193, 6.5276203, -0.0015172958, -0.015594482, 10.053101
180238745638909, 7.648658, -0.15792629, 6.530013, -0.0059098005, -0.012980938, 10.058218
180238755278597, 7.655836, -0.148355, 6.515656, -0.010329604, 0.004518032, 10.054228
180238764918232, 7.6606216, -0.17706887, 6.506085, 0.021839738, 0.0071582794, 10.052118
180238774557868, 7.643872, -0.15792629, 6.4869423, 0.004755497, 0.015902996, 10.026659
180238784197503, 7.6426754, -0.17587246, 6.468996, 0.025901914, 0.021615505, 10.0144
180238793837138, 7.6462646, -0.20697916, 6.463014, 0.057719707, 0.019747257, 10.013742
180238803476826, 7.647461, -0.19980069, 6.4642105, 0.048978925, 0.018746376, 10.015331
180238813116461, 7.631908, -0.18903299, 6.4821568, 0.03124547, -9.36985E-4, 10.014945
180238822756097, 7.6331043, -0.18185452, 6.512067, 0.017679453, -0.019014835, 10.035123
