timestamp_acc,device_acc_x,device_acc_y,device_acc_z,earth_acc_x,earth_acc_y,earth_acc_z
180134281500778, 3.2949169, -0.5407779, 9.505488, 0.023513086, 0.005322695, 10.074853
180134291140465, 3.3020952, -0.5347959, 9.521041, 0.016469758, 0.006165266, 10.091569
180134300780153, 3.2673993, -0.5288138, 9.506684, 0.016162746, -0.021655798, 10.066374
180134310419736, 3.290131, -0.5072784, 9.505488, -0.007004041, -0.002510786, 10.071572
180134320059424, 3.3032916, -0.51206404, 9.501899, -0.0036952943, 0.010926485, 10.07273
180134329699111, 3.3008988, -0.4881358, 9.471989, -0.026836991, 0.015484333, 10.042501
180134339338799, 3.2853456, -0.4761717, 9.473185, -0.036560938, -0.0032086372, 10.037932
180134348978382, 3.2829528, -0.47736812, 9.487542, -0.03520239, -0.0105621815, 10.050759
180134358618069, 3.2673993, -0.48454657, 9.456435, -0.025735058, -0.014090776, 10.016686
180134368257757, 3.2853456, -0.4761717, 9.46481, -0.036189124, -0.0010523796, 10.030033
180134377897444, 3.2769706, -0.50368917, 9.454042, -0.0069731288, -0.001866579, 10.018539
180134387537028, 3.2769706, -0.50129634, 9.4432745, -0.0089241415, 0.0016992092, 10.008256
180134397176715, 3.298506, -0.5024927, 9.442079, -0.010407265, 0.022668123, 10.014234
180134406816403, 3.31047, -0.52283174, 9.44806, 0.008440021, 0.034765244, 10.024826
180134416456090, 3.3092737, -0.5240282, 9.449257, 0.009501016, 0.033771515, 10.025623
180134426095674, 3.318845, -0.53599226, 9.473185, 0.019160826, 0.037288904, 10.05194
180134435735361, 3.3236306, -0.54436713, 9.48156, 0.026326522, 0.040453672, 10.061835
180134445375049, 3.3128629, -0.54675996, 9.498309, 0.029683836, 0.026489496, 10.074241
180134455014736, 3.2709885, -0.5419743, 9.509077, 0.031795762, -0.016816854, 10.070469
180134464654319, 3.2566316, -0.5407779, 9.522238, 0.03257899, -0.033935785, 10.078141
180134474294007, 3.2793634, -0.5312066, 9.531809, 0.018908076, -0.01625514, 10.094115
180134483933694, 3.2829528, -0.526421, 9.529416, 0.013339259, -0.011786461, 10.09279
180134493573382, 3.2602208, -0.5204389, 9.531809, 0.011654556, -0.03406048, 10.087318
180134503212965, 3.2530425, -0.51565325, 9.510274, 0.00837579, -0.034333467, 10.064405
180134512852653, 3.269792, -0.51086766, 9.516255, 0.0012635514, -0.021138668, 10.075276
180134522492340, 3.2853456, -0.49651068, 9.522238, -0.01515298, -0.011020422, 10.085272
180134532132028, 3.2817562, -0.4881358, 9.509077, -0.02201198, -0.012168884, 10.071251
180134541771611, 3.2829528, -0.47138608, 9.495916, -0.03786443, -0.009561539, 10.058374
180134551411299, 3.2949169, -0.47976094, 9.46481, -0.03116199, 0.013361692, 10.033352
180134561050986, 3.3056846, -0.46899325, 9.461221, -0.042118546, 0.022587776, 10.032942
180134570690674, 3.2997024, -0.4438686, 9.439685, -0.065335386, 0.019935608, 10.009397
180134580330257, 3.2973096, -0.46660042, 9.444471, -0.0418514, 0.017987967, 10.014287
180134589969944, 3.3140593, -0.47018966, 9.4432745, -0.03967985, 0.034027338, 10.018821
180134599609632, 3.3092737, -0.47736812, 9.434899, -0.030885685, 0.03330493, 10.009716
180134609249319, 3.2805598, -0.4833502, 9.433703, -0.020363595, 0.0071144104, 9.999499
180134618888903, 3.2685957, -0.4977071, 9.42174, -0.0041453615, 0.0012917519, 9.985019
180134628528590, 3.2805598, -0.5204389, 9.4432745, 0.016107818, 0.00931859, 10.010396
180134638168278, 3.286542, -0.5347959, 9.46481, 0.028807951, 0.01079464, 10.033397
180134647807861, 3.286542, -0.5180461, 9.489935, 0.011867769, 0.0012850761, 10.056264
180134657447549, 3.2841492, -0.50488555, 9.4839525, -7.7259494E-4, -8.671284E-4, 10.049175
180134667087236, 3.2757742, -0.506082, 9.518648, 0.0017434321, -0.018162727, 10.079244
180134676726924, 3.269792, -0.51445687, 9.517452, 0.011451248, -0.02077198, 10.076585
180134686366507, 3.269792, -0.50488555, 9.517452, 0.0027854014, -0.020764112, 10.076105
180134696006194, 3.2829528, -0.50368917, 9.516255, -5.317107E-5, -0.007299423, 10.079214
180134705645882, 3.2733815, -0.51086766, 9.505488, 0.008823832, -0.011115789, 10.066287
180134715285569, 3.2721848, -0.50129634, 9.51147, -4.2394176E-4, -0.0155546665, 10.071062
180134724925153, 3.2769706, -0.48454657, 9.518648, -0.017954387, -0.015827894, 10.078563
180134734564840, 3.2733815, -0.49651068, 9.509077, -0.005827073, -0.014514923, 10.068955
180134744204528, 3.2793634, -0.48095736, 9.488738, -0.021718496, -0.004641533, 10.050931
180134753844111, 3.2626138, -0.47258246, 9.487542, -0.027506724, -0.021075726, 10.043916
180134763483799, 3.2829528, -0.46899325, 9.4636135, -0.0334057, 0.0049402714, 10.02779
180134773123486, 3.3020952, -0.4642076, 9.419347, -0.039588977, 0.036164284, 9.9920225
180134782763174, 3.278167, -0.46899325, 9.413364, -0.030329764, 0.015784025, 9.978808
180134792402757, 3.2817562, -0.48095736, 9.427721, -0.018225674, 0.01519084, 9.994127
180134802042444, 3.3080773, -0.485743, 9.450453, -0.016663164, 0.03341818, 10.02442
180134811682132, 3.3212378, -0.48095736, 9.479167, -0.022847623, 0.036483765, 10.05558
180134821321715, 3.278167, -0.47976094, 9.474381, -0.014683057, -0.0019359589, 10.036944
180134830961403, 3.2638102, -0.47976094, 9.474381, -0.01266869, -0.015379429, 10.032254
180134840601090, 3.290131, -0.51086766, 9.517452, 0.016128022, -0.0012485981, 10.083035
180134850240778, 3.290131, -0.5096712, 9.482756, 0.016654901, 0.008709669, 10.050226
180134859880361, 3.3116665, -0.47976094, 9.479167, -0.017017942, 0.02511549, 10.052412
180134869520049, 3.2889347, -0.5276174, 9.497113, 0.032226868, 0.003680706, 10.064272
180134879159736, 3.2757742, -0.51565325, 9.52822, 0.02230129, -0.020762444, 10.088738
180134888799319, 3.2757742, -0.53240305, 9.542577, 0.035661563, -0.023923635, 10.103123
180134898439007, 3.2817562, -0.5479564, 9.517452, 0.0503212, -0.008376598, 10.082137
180134908078694, 3.269792, -0.54317075, 9.486345, 0.046930987, -0.009486198, 10.048632
180134917718382, 3.3020952, -0.54317075, 9.439685, 0.043255262, 0.035024643, 10.015161
180134927357965, 3.2949169, -0.5407779, 9.437292, 0.041626345, 0.029120684, 10.010436
180134936997653, 3.2853456, -0.5371887, 9.446864, 0.039398234, 0.014130354, 10.016165
180134946637340, 3.3056846, -0.51445687, 9.44806, 0.013312925, 0.027829409, 10.022829
180134956276924, 3.3212378, -0.50368917, 9.469596, -8.6081773E-4, 0.0320518, 10.047714
180134965916611, 3.2913275, -0.50368917, 9.48156, 0.0024612322, -0.0019366741, 10.049204
180134975556299, 3.3044882, -0.48095736, 9.48156, -0.022239402, 0.0053248405, 10.052382
180134985195882, 3.2949169, -0.48095736, 9.450453, -0.020715676, 0.0060391426, 10.019899
180134994835569, 3.2889347, -0.48095736, 9.426525, -0.018794648, 0.008243322, 9.995368
180135004475257, 3.2877383, -0.4749753, 9.430114, -0.022989146, 0.004921198, 9.998065
180135014114840, 3.2973096, -0.47736812, 9.401401, -0.021244809, 0.023709059, 9.974241
180135023754528, 3.31047, -0.46779683, 9.432507, -0.031702884, 0.024031162, 10.007431
180135033394215, 3.2817562, -0.47976094, 9.449257, -0.01394885, -0.0064799786, 10.014406
180135043033903, 3.290131, -0.47976094, 9.49472, -0.014231011, -0.013665915, 10.060043
180135052673486, 3.290131, -0.4989035, 9.523434, 0.0050417483, -0.019337654, 10.088075
180135062313174, 3.2877383, -0.48933223, 9.515059, -0.0039478443, -0.01953125, 10.078919
180135071952861, 3.2937205, -0.49172506, 9.489935, -0.0025235917, -0.005259037, 10.057295
180135081592444, 3.3080773, -0.4977071, 9.454042, 0.0023094863, 0.021052837, 10.028438
180135091232132, 3.3212378, -0.5192425, 9.433703, 0.021926131, 0.042898893, 10.014624
180135100871819, 3.3080773, -0.5180461, 9.434899, 0.022499941, 0.02919197, 10.011377
180135110511403, 3.306881, -0.50129634, 9.446864, 0.003692314, 0.021048069, 10.021455
180135120151090, 3.2925239, -0.49292147, 9.474381, -0.0030884966, -0.0025088787, 10.042289
180135129790778, 3.2757742, -0.50368917, 9.476774, 0.009522183, -0.016132593, 10.039587
180135139430361, 3.2961133, -0.4941179, 9.493524, -0.0022855503, -0.002395153, 10.061586
180135149070049, 3.2937205, -0.49172506, 9.476774, -0.0042891186, 5.41687E-4, 10.044882
180135158709736, 3.2638102, -0.48215377, 9.474381, -0.0066868756, -0.024817228, 10.032357
180135168349319, 3.2590244, -0.47377887, 9.467203, -0.013550127, -0.026865244, 10.023609
180135177989007, 3.2961133, -0.46181476, 9.485149, -0.031021468, 1.4162064E-4, 10.0521
180135187628694, 3.2769706, -0.4642076, 9.480363, -0.025291529, -0.015145302, 10.041436
180135197268278, 3.2949169, -0.45104706, 9.503095, -0.04115507, -0.006804228, 10.068116
180135206907965, 3.278167, -0.46061835, 9.462418, -0.029222742, -0.007933855, 10.024719
180135216547653, 3.2733815, -0.4749753, 9.468399, -0.014502116, -0.012898445, 10.029497
180135226187236, 3.3032916, -0.47018966, 9.461221, -0.022957362, 0.016931057, 10.032282
180135235826924, 3.3092737, -0.48215377, 9.440882, -0.011833243, 0.03102827, 10.015633
180135245466507, 3.269792, -0.47856453, 9.434899, -0.011274241, -0.0039179325, 9.996886
180135255106194, 3.2877383, -0.4989035, 9.434899, 0.0061573833, 0.016610384, 10.003757
180135264745882, 3.2745779, -0.4941179, 9.430114, 0.0022997297, 0.006525755, 9.9946995
180135274385465, 3.2853456, -0.49651068, 9.458828, 0.0023982413, 0.008620501, 10.025436
180135284025153, 3.266203, -0.506082, 9.46481, 0.0145115, -0.009930611, 10.025294
180135293664840, 3.2937205, -0.50129634, 9.500702, 0.005088132, 0.004367113, 10.067928
180135303304424, 3.31047, -0.5024927, 9.467203, 0.0030273334, 0.032656908, 10.041841
180135312944111, 3.2709885, -0.6448657, 9.438489, 0.14941877, 0.029127598, 10.008854
180135322583799, 3.3918262, 0.009571291, 9.59163, -0.51522726, -0.01503849, 10.160624
180135332223382, 3.1944182, -1.1593226, 9.257831, 0.66664463, 0.093149185, 9.838836
180135341863069, 3.2925239, 0.18544376, 9.639486, -0.6678834, -0.13634253, 10.165144
180135351502653, 3.3116665, -1.1533405, 9.3104725, 0.63977337, 0.18547082, 9.926657
180135361142340, 3.1429725, -0.0526421, 9.6071825, -0.4189798, -0.23272991, 10.096994
180135370782028, 3.3990045, -0.77407813, 9.489935, 0.26047087, 0.1563623, 10.105394
180135380421611, 3.0580273, -0.5024927, 9.482756, 0.044752154, -0.19697356, 9.974263
180135390061299, 3.4600215, -0.2883351, 9.58804, -0.23331271, 0.11158037, 10.194044
180135399700882, 3.1070802, -0.98584294, 9.35833, 0.51183456, -0.0481956, 9.896459
180135409340569, 3.418147, 0.111266255, 9.735199, -0.62787086, -0.023456097, 10.299293
180135418980257, 3.2004004, -1.2430713, 9.327223, 0.75503564, 0.09134102, 9.909917
180135428619840, 3.3379877, 0.22013968, 9.65504, -0.72682405, -0.08456731, 10.191908
180135438259528, 3.330809, -1.1712867, 9.238688, 0.66854453, 0.21605968, 9.86539
180135447899215, 3.2219357, 0.03589234, 9.527023, -0.5283911, -0.12919545, 10.042432
180135457538799, 3.4217365, -0.7848458, 9.400204, 0.26905882, 0.19985247, 10.0287485
180135467178486, 3.0879376, -0.41515473, 9.424132, -0.055729277, -0.16384053, 9.924316
180135476818069, 3.4480574, -0.29312077, 9.482756, -0.226737, 0.13898635, 10.090935
180135486457757, 3.0496526, -0.9284152, 9.303294, 0.4553781, -0.09873128, 9.823263
180135496097444, 3.4025939, 0.09810573, 9.682557, -0.61245424, -0.012350559, 10.24519
180135505737028, 3.1405797, -1.2311072, 9.323633, 0.742199, 0.020846128, 9.88725
180135515376715, 3.3020952, 0.2428715, 9.693324, -0.7434875, -0.123643875, 10.215444
180135525016299, 3.2817562, -1.1892328, 9.296116, 0.6934314, 0.166332, 9.904215
180135534655986, 3.1836505, 0.03589234, 9.640682, -0.52149993, -0.19393706, 10.137558
180135544295569, 3.3918262, -0.84347, 9.501899, 0.3250962, 0.15127635, 10.117975
180135553935257, 3.0819557, -0.36610186, 9.580862, -0.10087484, -0.2169354, 10.068175
180135563574944, 3.4408789, -0.35653058, 9.5868435, -0.16433273, 0.11411023, 10.189912
180135573214528, 3.0652058, -0.8817552, 9.342776, 0.40753132, -0.0950582, 9.863333
180135582854215, 3.4169507, 0.05742774, 9.645468, -0.56703025, 0.030740023, 10.217212
180135592493799, 3.1513474, -1.1676974, 9.297313, 0.6778957, 0.031199932, 9.862759
180135602133486, 3.3379877, 0.2536392, 9.634701, -0.7482649, -0.06837106, 10.171989
180135611773069, 3.2961133, -1.2071791, 9.208778, 0.6989971, 0.19889092, 9.82828
180135621412757, 3.2303107, 0.104087785, 9.525827, -0.5812681, -0.127208, 10.041568
180135631052444, 3.394219, -0.8745767, 9.372686, 0.35446066, 0.19933224, 9.998374
180135640692028, 3.1022944, -0.32183465, 9.497113, -0.14339754, -0.18401432, 9.993427
180135650331715, 3.4492538, -0.40797627, 9.510274, -0.109997466, 0.14739037, 10.123009
180135659971299, 3.071188, -0.80997044, 9.334401, 0.34418726, -0.09651542, 9.853503
180135669610986, 3.4217365, 0.04426722, 9.61795, -0.55677396, 0.040674686, 10.193309
180135679250569, 3.1310084, -1.154537, 9.339187, 0.6805624, -0.0063302517, 9.894108
180135688890257, 3.3367913, 0.25722843, 9.706485, -0.7615192, -0.08900714, 10.238571
180135698529840, 3.2733815, -1.2095718, 9.298509, 0.7208556, 0.13720584, 9.904641
180135708169528, 3.2231321, 0.14596218, 9.601201, -0.63766193, -0.14485645, 10.107686
180135717809215, 3.3750763, -0.92482597, 9.400204, 0.41316444, 0.16858006, 10.0205345
180135727448799, 3.101098, -0.25004998, 9.540184, -0.2260519, -0.20174289, 10.0300865
180135737088486, 3.4121652, -0.4438686, 9.51147, -0.065674126, 0.123257875, 10.113775
180135746728069, 3.056831, -0.7788638, 9.3308115, 0.31303543, -0.111099005, 9.844011
180135756367757, 3.4313076, -0.032303106, 9.613165, -0.47872552, 0.05057311, 10.1958885
180135766007340, 3.1310084, -1.1760724, 9.345169, 0.6987036, 0.008663416, 9.901025
180135775647028, 3.353541, 0.1902294, 9.726824, -0.6865938, -0.08668256, 10.267162
180135785286611, 3.237489, -1.2669996, 9.29133, 0.7641316, 0.12910843, 9.8901415
180135794926299, 3.2422748, 0.11246266, 9.5964155, -0.6071534, -0.13235068, 10.110888
180135804565882, 3.3750763, -0.991825, 9.366704, 0.4729988, 0.19787145, 9.992353
180135814205569, 3.1262228, -0.22492532, 9.533006, -0.25492534, -0.18234372, 10.030146
180135823845153, 3.4217365, -0.5180461, 9.489935, -0.0030472986, 0.1429336, 10.100251
180135833484840, 3.0759735, -0.73340017, 9.3308115, 0.2619026, -0.09960294, 9.848097
180135843124424, 3.4492538, -0.02871387, 9.595219, -0.49232122, 0.075608015, 10.184219
180135852764111, 3.1154552, -1.1114662, 9.3104725, 0.6267608, -0.0079603195, 9.860702
180135862403694, 3.35713, 0.22851457, 9.678967, -0.7249224, -0.09216118, 10.221103
180135872043382, 3.2386854, -1.2191432, 9.267402, 0.7146291, 0.13473868, 9.865662
180135881683069, 3.2566316, 0.19740787, 9.567701, -0.68030864, -0.124345064, 10.085
180135891322653, 3.367898, -1.0025927, 9.305687, 0.4933295, 0.21873307, 9.932398
180135900962236, 3.1393833, -0.15314065, 9.5353985, -0.31920847, -0.17775893, 10.033419
180135910601924, 3.4121652, -0.5312066, 9.475577, 0.01617001, 0.13660789, 10.084279
180135920241611, 3.0843484, -0.63170516, 9.381062, 0.16008535, -0.12817621, 9.893155
180135929881194, 3.4504502, -0.06580263, 9.59163, -0.44851142, 0.09286451, 10.183296
180135939520778, 3.1046875, -1.079163, 9.366704, 0.6066122, -0.06894612, 9.907881
180135949160465, 3.379862, 0.2321038, 9.750752, -0.7407476, -0.05581975, 10.295761
180135958800049, 3.2075787, -1.2287145, 9.32483, 0.74842536, 0.0733335, 9.908847
180135968439736, 3.2338998, 0.18783657, 9.637094, -0.6800446, -0.14310575, 10.143175
180135978079319, 3.3403804, -1.0707881, 9.327223, 0.5737415, 0.18459201, 9.946787
180135987719007, 3.1477582, -0.09930214, 9.515059, -0.37939745, -0.16979885, 10.014082
180135997358590, 3.4396825, -0.6257231, 9.454042, 0.10874698, 0.18198133, 10.077544
180136006998278, 3.0915267, -0.6412765, 9.38465, 0.16905874, -0.12087917, 9.899354
180136016637861, 3.4612179, -0.16271193, 9.548559, -0.35637513, 0.12619686, 10.150791
180136026277549, 3.1058838, -1.0648061, 9.333204, 0.587371, -0.048386335, 9.876319
180136035917132, 3.3750763, 0.18424734, 9.688539, -0.6893722, -0.026185751, 10.238015
180136045556819, 3.21715, -1.2394822, 9.262616, 0.7529258, 0.09145093, 9.854297
180136055196403, 3.2757742, 0.21894327, 9.578469, -0.72040194, -0.09495473, 10.099391
180136064836090, 3.318845, -1.0779666, 9.280562, 0.58061147, 0.1717906, 9.896412
180136074475674, 3.1489546, -0.059820566, 9.561719, -0.41806728, -0.17745662, 10.056822
180136084115361, 3.394219, -0.654437, 9.4839525, 0.1465771, 0.13687897, 10.092282
180136093754944, 3.0903304, -0.5132605, 9.47797, 0.040014915, -0.15947771, 9.9809065
180136103394632, 3.463611, -0.17228323, 9.610772, -0.34702766, 0.11630893, 10.210743
180136113034215, 3.1166515, -1.0073783, 9.355937, 0.53128725, -0.034801006, 9.898405
180136122673903, 3.3906298, 0.17228323, 9.71845, -0.67658895, -0.027605295, 10.272088
180136132313486, 3.1609187, -1.253839, 9.2997055, 0.77218765, 0.044407368, 9.871666
180136141953069, 3.266203, 0.21296121, 9.632308, -0.7016273, -0.114448786, 10.14837
180136151592757, 3.3236306, -1.1629118, 9.281759, 0.6485685, 0.19163442, 9.904168
180136161232340, 3.1716864, -0.058624156, 9.594023, -0.43475834, -0.18094254, 10.093887
180136170872028, 3.4025939, -0.7501499, 9.529416, 0.22182822, 0.13968635, 10.143049
180136180511611, 3.0652058, -0.5204389, 9.488738, 0.0398712, -0.1877706, 9.98327
180136190151299, 3.4109688, -0.28713873, 9.5353985, -0.23683861, 0.09340048, 10.127991
180136199790882, 3.0675986, -1.0193424, 9.287741, 0.5351337, -0.05866456, 9.819447
180136209430569, 3.4217365, 0.106480606, 9.644272, -0.6245379, 0.019508839, 10.214751
180136219070153, 3.1956146, -1.2466606, 9.286545, 0.7506905, 0.08954716, 9.87089
180136228709736, 3.306881, 0.22253251, 9.620343, -0.7354826, -0.10412145, 10.148113
180136238349424, 3.3092737, -1.1533405, 9.286545, 0.6431393, 0.17473555, 9.903397
180136247989007, 3.199204, 0.0047856453, 9.60479, -0.5064643, -0.17036843, 10.10947
180136257628694, 3.4289148, -0.7860422, 9.467203, 0.25547057, 0.19049788, 10.094637
180136267268278, 3.1022944, -0.43788654, 9.45165, -0.04823467, -0.15659261, 9.956045
180136276907965, 3.4600215, -0.29910284, 9.473185, -0.23696487, 0.15201712, 10.085793
180136286547549, 3.0939198, -0.93679005, 9.24826, 0.44819012, -0.029827833, 9.786648
180136296187132, 3.418147, 0.076570325, 9.615558, -0.59829116, 0.011682749, 10.187761
180136305826819, 3.1453655, -1.2394822, 9.305687, 0.7362711, 0.04223728, 9.873276
180136315466403, 3.324827, 0.22851457, 9.688539, -0.7471572, -0.11634183, 10.217764
180136325106090, 3.2626138, -1.2167503, 9.280562, 0.7005384, 0.17787647, 9.885929
180136334745674, 3.1848469, 0.02632105, 9.59163, -0.51474863, -0.18412805, 10.091801
180136344385361, 3.3750763, -0.8602197, 9.466006, 0.3241143, 0.15116191, 10.080104
180136354024944, 3.0963125, -0.39361933, 9.542577, -0.0911077, -0.19169807, 10.037818
180136363664528, 3.4396825, -0.37447673, 9.572487, -0.16266912, 0.11606574, 10.176652
180136373304215, 3.0783663, -0.9296116, 9.353543, 0.43753612, -0.0877831, 9.880796
180136382943799, 3.4157543, 0.031106694, 9.680164, -0.55631685, 0.010604143, 10.25009
180136392583486, 3.117848, -1.2119647, 9.357133, 0.7104993, -0.016810417, 9.911643
180136402223069, 3.3140593, 0.22851457, 9.71486, -0.7509645, -0.10272884, 10.239103
180136411862653, 3.2638102, -1.2227324, 9.326026, 0.71191144, 0.14004445, 9.9295435
180136421502340, 3.2219357, 0.09451649, 9.59163, -0.60179645, -0.15253139, 10.09969
180136431141924, 3.4109688, -0.86261255, 9.387043, 0.32125503, 0.2148726, 10.017286
180136440781611, 3.101098, -0.33020952, 9.467203, -0.15456226, -0.16740775, 9.965034
180136450421194, 3.4504502, -0.41754755, 9.439685, -0.12370092, 0.17396164, 10.056938
180136460060882, 3.0987053, -0.8530413, 9.267402, 0.36190355, -0.03771162, 9.802142
180136469700465, 3.4432719, 0.008374879, 9.5665045, -0.54390836, 0.075618505, 10.152471
180136479340049, 3.121437, -1.2059826, 9.2590275, 0.7146665, 0.028901577, 9.819156
180136488979736, 3.3008988, 0.25004998, 9.65504, -0.76607776, -0.120084524, 10.177278
180136498619319, 3.21715, -1.1988041, 9.275777, 0.695912, 0.11193967, 9.865618
180136508259007, 3.2039895, 0.16510476, 9.622736, -0.65886265, -0.17331123, 10.120561
180136517898590, 3.3427732, -0.8865408, 9.426525, 0.3688282, 0.14238667, 10.033103
180136527538174, 3.0819557, -0.20697916, 9.585648, -0.27238756, -0.23399019, 10.064641
180136537177861, 3.4193435, -0.39720857, 9.571291, -0.1315015, 0.11473608, 10.169998
180136546817444, 3.0699914, -0.7704889, 9.365508, 0.2873875, -0.09962702, 9.88123
180136556457132, 3.4372897, -0.0035892338, 9.633504, -0.52453196, 0.055842638, 10.214749
180136566096715, 3.1202407, -1.1736795, 9.389436, 0.6801941, -0.00620842, 9.940434
180136575736299, 3.345166, 0.17826529, 9.741181, -0.6924368, -0.08206487, 10.277468
180136585375986, 3.2243285, -1.3016955, 9.306884, 0.78229856, 0.11937475, 9.903664
180136595015569, 3.2159536, 0.078963146, 9.58804, -0.5767116, -0.14623976, 10.0957985
180136604655153, 3.35713, -1.0516455, 9.35474, 0.5233172, 0.19769073, 9.978703
180136614294840, 3.1118658, -0.2883351, 9.521041, -0.21500263, -0.17552972, 10.016987
180136623934424, 3.4313076, -0.5802595, 9.510274, 0.036410555, 0.16418052, 10.125591
180136633574111, 3.07717, -0.8135597, 9.367901, 0.31356993, -0.09788799, 9.888401
180136643213694, 3.4576287, -0.1160519, 9.615558, -0.43190688, 0.10860491, 10.209274
180136652853278, 3.117848, -1.2011969, 9.355937, 0.68824947, -0.015099764, 9.910776
180136662492965, 3.3619158, 0.15553348, 9.732806, -0.6846969, -0.052486658, 10.275341
180136672132549, 3.196811, -1.2801601, 9.3200445, 0.75701916, 0.06559801, 9.906779
180136681772236, 3.2075787, 0.15433706, 9.5868435, -0.6598951, -0.15449047, 10.087646
180136691411819, 3.3176486, -1.0336994, 9.317652, 0.49890292, 0.16253448, 9.930691
180136701051403, 3.1226335, -0.1591227, 9.540184, -0.34178048, -0.17717075, 10.032102
180136710691090, 3.4301112, -0.5479564, 9.503095, 0.0051695555, 0.15896988, 10.11679
180136720330674, 3.0640094, -0.64247286, 9.41456, 0.14261837, -0.14380574, 9.919369
180136729970361, 3.4229329, -0.083748795, 9.622736, -0.45806634, 0.079081774, 10.203159
180136739609944, 3.083152, -1.1066805, 9.340384, 0.60775584, -0.050722837, 9.879342
180136749249528, 3.3619158, 0.19142582, 9.734002, -0.7182462, -0.070393324, 10.274683
180136758889215, 3.2063823, -1.274178, 9.29492, 0.7604987, 0.111264944, 9.884798
180136768528799, 3.2482567, 0.15074782, 9.600004, -0.67203444, -0.13153768, 10.1126175
180136778168382, 3.3296127, -1.0971092, 9.334401, 0.56461793, 0.19595051, 9.953081
180136787808069, 3.1345978, -0.13160525, 9.583255, -0.36612704, -0.19256663, 10.075251
180136797447653, 3.3966117, -0.6448657, 9.530613, 0.101277575, 0.13770294, 10.136872
180136807087340, 3.0520453, -0.65922266, 9.440882, 0.16548312, -0.15311551, 9.941276
180136816726924, 3.4444683, -0.18185452, 9.577272, -0.36543575, 0.10288715, 10.172387
180136826366507, 3.1046875, -1.0839486, 9.305687, 0.57468146, -0.0060453415, 9.852896
180136836006194, 3.3846476, 0.14596218, 9.687343, -0.6786716, -0.018630981, 10.240158
180136845645778, 3.1692936, -1.2837493, 9.286545, 0.77249974, 0.06891966, 9.865638
180136855285361, 3.2614172, 0.17706887, 9.619147, -0.69338435, -0.1108768, 10.1342535
180136864925049, 3.3020952, -1.1174482, 9.316455, 0.5757485, 0.16979218, 9.929176
180136874564632, 3.1310084, -0.11006984, 9.594023, -0.39581528, -0.19369102, 10.082977
180136884204215, 3.377469, -0.70947194, 9.486345, 0.16892463, 0.13844109, 10.092259
180136893843903, 3.050849, -0.5694918, 9.4229355, 0.07150724, -0.16131663, 9.919304
180136903483486, 3.434897, -0.19740787, 9.534202, -0.3480125, 0.123264074, 10.129274
180136913123174, 3.1082766, -1.0408778, 9.317652, 0.534792, -0.032572508, 9.862879
180136922762757, 3.4241292, 0.15433706, 9.71486, -0.69410276, 0.023648739, 10.278357
180136932402340, 3.229114, -1.2454642, 9.339187, 0.72683716, 0.101300955, 9.932785
180136942042028, 3.2877383, 0.19740787, 9.683753, -0.7335581, -0.08662748, 10.201847
180136951681611, 3.2757742, -1.1724831, 9.334401, 0.64675593, 0.14871979, 9.93962
180136961321194, 3.1322048, -0.049052864, 9.619147, -0.45438254, -0.20418382, 10.104107
180136970960882, 3.3990045, -0.74895346, 9.506684, 0.19793549, 0.1584158, 10.12062
180136980600465, 3.0675986, -0.5312066, 9.466006, 0.02915249, -0.16266155, 9.9634495
180136990240153, 3.4085758, -0.28594232, 9.530613, -0.26222336, 0.09979987, 10.121958
180136999879736, 3.0664022, -1.0468599, 9.328419, 0.54464877, -0.052164078, 9.859959
180137009519319, 3.3930225, 0.08973085, 9.722038, -0.62918, -0.015753508, 10.278258
180137019159007, 3.1609187, -1.2969099, 9.378669, 0.77962315, 0.055915356, 9.9509735
180137028798590, 3.2769706, 0.19501504, 9.6993065, -0.7155854, -0.13741899, 10.213822
180137038438174, 3.2973096, -1.2179468, 9.3308115, 0.6835695, 0.18457508, 9.94577
180137048077861, 3.1669009, -0.040677983, 9.603594, -0.47936475, -0.17478943, 10.099484
180137057717444, 3.3918262, -0.82313097, 9.458828, 0.27749205, 0.1782391, 10.076839
180137067357132, 3.0999017, -0.47736812, 9.47797, -0.036468327, -0.14320421, 9.982352
180137076996715, 3.4444683, -0.31345975, 9.492328, -0.24242756, 0.15525174, 10.098714
180137086636299, 3.0675986, -0.9415757, 9.290133, 0.4326201, -0.053383112, 9.819027
180137096275986, 3.3894334, 0.08973085, 9.645468, -0.63215756, -0.011455059, 10.20449
180137105915569, 3.121437, -1.2466606, 9.312865, 0.7228443, 0.030467272, 9.874389
180137115555153, 3.3176486, 0.25124636, 9.678967, -0.7798508, -0.1014328, 10.204599
180137125194840, 3.269792, -1.1904292, 9.296116, 0.6593738, 0.16473985, 9.902755
180137134834424, 3.1752756, 0.038285162, 9.602397, -0.5607784, -0.169693, 10.096862
180137144474007, 3.3619158, -0.8554341, 9.460024, 0.309376, 0.14265776, 10.070266
180137154113694, 3.0412776, -0.39601216, 9.54497, -0.106805235, -0.22259164, 10.02256
180137163753278, 3.400201, -0.3696911, 9.548559, -0.1751528, 0.110731125, 10.140518
180137173392965, 3.0412776, -0.9343972, 9.38465, 0.42601663, -0.13410568, 9.899225
180137183032549, 3.406183, 0.0071784677, 9.757931, -0.5586394, 0.032608032, 10.320186
180137192672132, 3.1322048, -1.2574283, 9.442079, 0.7325132, -0.03555417, 10.000342
180137202311819, 3.3044882, 0.17587246, 9.795019, -0.70907795, -0.09672713, 10.31411
180137211951403, 3.2506495, -1.274178, 9.345169, 0.7372023, 0.118896484, 9.948109
180137221591090, 3.1836505, 0.033499517, 9.598808, -0.55650276, -0.16261005, 10.096421
180137231230674, 3.347559, -0.93320084, 9.393025, 0.38470626, 0.16972733, 10.0064535
180137240870257, 3.0915267, -0.3696911, 9.497113, -0.13791557, -0.16348076, 9.992178
180137250509944, 3.4432719, -0.42951167, 9.480363, -0.12892392, 0.17027068, 10.093179
180137260149528, 3.103491, -0.8315059, 9.270991, 0.3217436, -0.028552294, 9.806631
180137269789111, 3.4337006, 0.0011964113, 9.5868435, -0.5512254, 0.06888437, 10.168053
180137279428799, 3.138187, -1.2179468, 9.297313, 0.7028021, 0.042826176, 9.862853
180137289068382, 3.3643086, 0.21774685, 9.705289, -0.7517058, -0.08079815, 10.24632
180137298707965, 3.2638102, -1.2442678, 9.303294, 0.69946563, 0.16451693, 9.911389
180137308347653, 3.2147572, 0.106480606, 9.595219, -0.6289952, -0.15562844, 10.099227
180137317987236, 3.3284163, -0.9451649, 9.391829, 0.39362893, 0.1652956, 9.999793
180137327626924, 3.0795627, -0.26081768, 9.5557375, -0.23739305, -0.22071671, 10.037868
180137337266507, 3.4205399, -0.45224348, 9.540184, -0.100542694, 0.13121295, 10.14359
180137346906090, 3.050849, -0.7932207, 9.410972, 0.29960254, -0.115819216, 9.9196825
180137356545778, 3.4325042, -0.029910283, 9.698111, -0.51520556, 0.029245138, 10.274729
180137366185361, 3.1154552, -1.1904292, 9.415757, 0.6757689, 0.0040249825, 9.966091
180137375825049, 3.32722, 0.19262223, 9.783055, -0.71690685, -0.108759165, 10.309697
180137385464632, 3.21715, -1.2957134, 9.332008, 0.7747084, 0.14289808, 9.924451
180137395104215, 3.1980073, 0.09332009, 9.58804, -0.59709096, -0.15421319, 10.088913
180137404743903, 3.3260236, -1.0289137, 9.361918, 0.49660534, 0.17972422, 9.974351
180137414383486, 3.1058838, -0.27158538, 9.527023, -0.23556319, -0.17660856, 10.019867
180137424023069, 3.426522, -0.5599205, 9.486345, 0.00833004, 0.17089653, 10.100299
180137433662757, 3.0652058, -0.7645068, 9.342776, 0.26519057, -0.09172511, 9.858432
180137443302340, 3.4480574, -0.07776674, 9.571291, -0.46824226, 0.106656075, 10.162389
180137452941924, 3.1190443, -1.1330016, 9.312865, 0.6183763, 0.0086193085, 9.867073
180137462581611, 3.3487554, 0.2105684, 9.731609, -0.7499484, -0.06931186, 10.266232
180137472221194, 3.2303107, -1.247857, 9.336794, 0.72804534, 0.12800336, 9.930828
180137481860882, 3.2219357, 0.17826529, 9.634701, -0.6844989, -0.16380763, 10.136309
180137491500465, 3.3056846, -1.0097711, 9.367901, 0.47046822, 0.15596509, 9.9729185
180137501140049, 3.0987053, -0.15553348, 9.578469, -0.33541784, -0.2150073, 10.060543
180137510779736, 3.4025939, -0.54675996, 9.540184, 0.003113024, 0.13124704, 10.142705
180137520419319, 3.0640094, -0.66161543, 9.409775, 0.16740967, -0.1263187, 9.915935
180137530059007, 3.4301112, -0.1052842, 9.58804, -0.43649203, 0.08465314, 10.173965
180137539698590, 3.109473, -1.1246266, 9.342776, 0.6202142, -0.0020308495, 9.891229
180137549338174, 3.365505, 0.18305093, 9.766306, -0.72596717, -0.06429076, 10.305811
180137558977861, 3.2039895, -1.2753744, 9.348758, 0.7565805, 0.09946704, 9.9352455
180137568617444, 3.2530425, 0.09930214, 9.639486, -0.6152538, -0.116862774, 10.154785
180137578257132, 3.3343983, -1.1102697, 9.345169, 0.57646483, 0.19397616, 9.965599
180137587896715, 3.1250265, -0.148355, 9.573684, -0.3534831, -0.1873753, 10.063954
180137597536299, 3.426522, -0.66999036, 9.509077, 0.12214936, 0.18059039, 10.127437
180137607175986, 3.062813, -0.6723832, 9.438489, 0.1672662, -0.13984823, 9.943363
180137616815569, 3.4337006, -0.19381863, 9.590433, -0.35464132, 0.10557222, 10.181717
180137626455153, 3.0759735, -1.0911272, 9.345169, 0.586866, -0.041256905, 9.8812065
180137636094840, 3.365505, 0.15074782, 9.734002, -0.6961108, -0.048802137, 10.276828
180137645734424, 3.1884363, -1.2753744, 9.35833, 0.7573519, 0.07472134, 9.93941
180137655374111, 3.2685957, 0.17706887, 9.667004, -0.6945843, -0.1311357, 10.181669
180137665013694, 3.2997024, -1.1162517, 9.336794, 0.5697288, 0.18036294, 9.947495
180137674653278, 3.1190443, -0.0849452, 9.60479, -0.42583042, -0.21231031, 10.087678
180137684292965, 3.385844, -0.70348984, 9.493524, 0.14824267, 0.15513659, 10.101475
180137693932549, 3.0652058, -0.5599205, 9.456435, 0.06374279, -0.14917994, 9.955241
180137703572236, 3.4289148, -0.21296121, 9.583255, -0.3407309, 0.09915161, 10.174264
180137713211819, 3.0903304, -1.0480564, 9.335598, 0.5417845, -0.02727151, 9.874597
180137722851403, 3.3834512, 0.12083755, 9.704092, -0.6586329, -0.03312254, 10.256551
180137732491090, 3.1549366, -1.2813566, 9.336794, 0.7552798, 0.050637245, 9.909502
180137742130674, 3.2626138, 0.18783657, 9.678967, -0.7090778, -0.12684512, 10.190363
180137751770361, 3.3008988, -1.1880364, 9.342776, 0.6419343, 0.17556167, 9.957507
180137761409944, 3.182454, -0.08015956, 9.608379, -0.43437123, -0.14532018, 10.111655
180137771049528, 3.3906298, -0.7477571, 9.497113, 0.20151788, 0.16073155, 10.108622
180137780689215, 3.0652058, -0.5192425, 9.4636135, 0.014749125, -0.15843248, 9.959906
180137790328799, 3.4528432, -0.28115666, 9.552148, -0.27606648, 0.14415574, 10.156166
180137799968486, 3.097509, -1.018146, 9.345169, 0.5102583, -0.03182149, 9.884432
180137809608069, 3.3822548, 0.09930214, 9.713663, -0.63829845, -0.021737337, 10.266298
180137819247757, 3.1106694, -1.2717853, 9.372686, 0.76233286, 0.011098146, 9.927722
180137828887340, 3.249453, 0.1794617, 9.724431, -0.69734514, -0.15699434, 10.229604
180137838526924, 3.2554352, -1.2011969, 9.369097, 0.661445, 0.13014579, 9.968262
180137848166611, 3.1525438, -0.0071784677, 9.650253, -0.51246476, -0.19618773, 10.137301
180137857806194, 3.359523, -0.80159557, 9.49472, 0.25149068, 0.14005256, 10.0992985
180137867445882, 3.0843484, -0.4534399, 9.505488, -0.052367814, -0.16264367, 10.002197
180137877085465, 3.4456646, -0.29790643, 9.540184, -0.2544786, 0.14893007, 10.143449
180137886725049, 3.0987053, -0.9296116, 9.302098, 0.4189915, -0.025056124, 9.839666
180137896364736, 3.4289148, 0.09451649, 9.635897, -0.64781755, 0.042322636, 10.207619
180137906004319, 3.1848469, -1.2430713, 9.326026, 0.72267765, 0.09255648, 9.90618
180137915644007, 3.3044882, 0.22971097, 9.672985, -0.754782, -0.09970856, 10.196049
180137925283590, 3.2673993, -1.2071791, 9.284152, 0.6631206, 0.17565203, 9.892323
180137934923174, 3.1549366, 0.02632105, 9.598808, -0.5430206, -0.19399142, 10.0875635
180137944562861, 3.35713, -0.8458628, 9.446864, 0.29609326, 0.15278196, 10.055747
180137954202444, 3.0520453, -0.39960137, 9.509077, -0.09668573, -0.2057972, 9.992273
180137963842132, 3.4372897, -0.38285163, 9.52822, -0.17060336, 0.14804196, 10.133978
180137973481715, 3.0616167, -0.91405827, 9.341579, 0.4148602, -0.06781244, 9.863944
180137983121403, 3.3894334, 0.021535404, 9.693324, -0.5601674, 0.001098156, 10.253559
180137992760986, 3.1118658, -1.2382857, 9.420543, 0.7299809, 0.008569479, 9.971497
180138002400569, 3.3008988, 0.18544376, 9.797412, -0.72145724, -0.13361716, 10.314128
180138012040257, 3.2530425, -1.2777673, 9.393025, 0.7488008, 0.15007448, 9.993033
180138021679840, 3.196811, 0.039481573, 9.643075, -0.55754906, -0.17200446, 10.142466
180138031319528, 3.3726835, -0.9343972, 9.4432745, 0.38293344, 0.18836403, 10.06188
180138040959111, 3.089134, -0.37686956, 9.525827, -0.121434234, -0.17211413, 10.019072
180138050598799, 3.418147, -0.4319045, 9.498309, -0.116169296, 0.1494782, 10.102095
180138060238382, 3.050849, -0.8470592, 9.309277, 0.3459056, -0.08287859, 9.826561
180138069877965, 3.4372897, 0.011964113, 9.610772, -0.5628035, 0.08565354, 10.191073
180138079517653, 3.1525438, -1.1976078, 9.316455, 0.67604476, 0.038098097, 9.884871
180138089157236, 3.359523, 0.22971097, 9.693324, -0.761463, -0.051363707, 10.233145
180138098796924, 3.2446675, -1.2323036, 9.305687, 0.70907986, 0.13966942, 9.905551
180138108436507, 3.1932218, 0.106480606, 9.637094, -0.6166618, -0.16950274, 10.132748
180138118076194, 3.3547373, -0.9343972, 9.437292, 0.3987346, 0.16939902, 10.049984
180138127715778, 3.0927234, -0.276371, 9.562916, -0.22000976, -0.19586849, 10.050072
180138137355465, 3.400201, -0.47976094, 9.513863, -0.061150692, 0.13641047, 10.113494
180138146995049, 3.0580273, -0.78843504, 9.359526, 0.2937848, -0.09640956, 9.873109
180138156634632, 3.4229329, -0.025124637, 9.639486, -0.5205303, 0.05654168, 10.215803
180138166274319, 3.117848, -1.1641082, 9.373882, 0.65177375, 0.0066399574, 9.925772
180138175913903, 3.3320055, 0.20937198, 9.784252, -0.73370606, -0.10234547, 10.31159
180138185553590, 3.2147572, -1.253839, 9.373882, 0.7222369, 0.10922003, 9.962072
180138195193174, 3.2027931, 0.1268196, 9.670592, -0.6443949, -0.18337703, 10.165897
180138204832861, 3.3379877, -0.991825, 9.430114, 0.445455, 0.16964102, 10.041201
180138214472444, 3.0843484, -0.23569304, 9.585648, -0.26134884, -0.20924377, 10.066843
180138224112132, 3.418147, -0.5407779, 9.509077, -0.01163742, 0.1604557, 10.117948
180138233751715, 3.083152, -0.75613195, 9.335598, 0.25718135, -0.06326914, 9.857019
180138243391299, 3.434897, -0.08973085, 9.57488, -0.45485905, 0.09145975, 10.162167
180138253030986, 3.1202407, -1.1641082, 9.315259, 0.64948404, 0.032894135, 9.87128
180138262670569, 3.3643086, 0.17228323, 9.706485, -0.70254004, -0.06334472, 10.250196
180138272310257, 3.249453, -1.2813566, 9.285348, 0.7412303, 0.17235994, 9.891379
180138281949840, 3.2554352, 0.15314065, 9.601201, -0.6827946, -0.11931777, 10.115529
180138291589528, 3.3224342, -1.0516455, 9.335598, 0.49931607, 0.19658351, 9.950376
180138301229111, 3.2087753, -0.13519448, 9.552148, -0.3781975, -0.10982728, 10.069902
180138310868799, 3.2446675, -0.573081, 9.455238, 0.04107109, 0.016189337, 10.012785
180138320508382, 3.2099717, -0.44865423, 9.499506, -0.069692805, -0.04625821, 10.036875
180138330148069, 3.2231321, -0.54436713, 9.497113, 0.022425614, -0.014000416, 10.043874
180138339787653, 3.2231321, -0.485743, 9.522238, -0.036436766, -0.02849412, 10.064561
180138349427340, 3.2386854, -0.552742, 9.5557375, 0.027012916, -0.01232934, 10.104744
180138359066924, 3.2398818, -0.5383851, 9.580862, 0.011483431, -0.019466877, 10.128134
180138368706611, 3.2362926, -0.5407779, 9.571291, 0.013660343, -0.017810345, 10.11806
180138378346194, 3.237489, -0.5515456, 9.572487, 0.024023931, -0.015694857, 10.120139
180138387985882, 3.225525, -0.5515456, 9.554541, 0.023947407, -0.020125628, 10.099331
180138397625465, 3.2362926, -0.552742, 9.550952, 0.022213489, -0.0084860325, 10.099467
180138407265049, 3.2530425, -0.54317075, 9.55813, 0.010303855, 0.003588438, 10.111135
180138416904736, 3.2303107, -0.54317075, 9.533006, 0.012282804, -0.009233952, 10.080073
180138426544319, 3.2219357, -0.5347959, 9.529416, 0.0042335317, -0.016775608, 10.073547
180138436184007, 3.219543, -0.5407779, 9.54497, 0.009430319, -0.022813797, 10.087799
180138445823590, 3.21715, -0.54436713, 9.49472, 0.013317615, -0.0073726177, 10.039716
180138455463278, 3.2362926, -0.54675996, 9.46481, 0.012964219, 0.02184558, 10.017712
180138465102861, 3.2470603, -0.5491528, 9.488738, 0.014232092, 0.026405334, 10.043913
180138474742549, 3.237489, -0.55393845, 9.479167, 0.02040591, 0.0211699, 10.032044
180138484382132, 3.2338998, -0.5383851, 9.519845, 0.005594, 0.003281355, 10.068533
180138494021819, 3.2410784, -0.5407779, 9.536594, 0.007517755, 0.006570101, 10.086802
180138503661403, 3.2398818, -0.5168497, 9.546165, -0.016035303, -7.4744225E-4, 10.094206
180138513301090, 3.2267213, -0.50129634, 9.580862, -0.029512808, -0.025105953, 10.121979
180138522940674, 3.2267213, -0.5084748, 9.553345, -0.019634917, -0.01301527, 10.096342
180138532580361, 3.2087753, -0.50129634, 9.547362, -0.024120085, -0.02888441, 10.084556
180138542219944, 3.229114, -0.49052864, 9.503095, -0.03497288, 0.0045161247, 10.04865
180138551859632, 3.2183464, -0.51086766, 9.492328, -0.0132358745, 6.568432E-4, 10.036079
180138561499215, 3.2219357, -0.51206404, 9.501899, -0.012514569, 2.553463E-4, 10.046344
180138571138903, 3.2015967, -0.54675996, 9.497113, 0.024651311, -0.012870789, 10.03711
180138580778486, 3.2087753, -0.5395815, 9.503095, 0.013693817, -0.009233475, 10.044695
180138590418174, 3.2207394, -0.5706882, 9.522238, 0.042691797, -1.821518E-4, 10.068268
180138600057757, 3.2422748, -0.587438, 9.523434, 0.055210337, 0.021256924, 10.0771885
180138609697444, 3.2590244, -0.56590253, 9.536594, 0.030324578, 0.0301373, 10.093872
180138619337028, 3.2482567, -0.573081, 9.517452, 0.039247204, 0.027483463, 10.072696
180138628976715, 3.2470603, -0.5371887, 9.489935, 0.004296355, 0.03076291, 10.0443945
180138638616299, 3.2338998, -0.526421, 9.493524, -0.0042623393, 0.01570177, 10.043005
180138648255986, 3.2362926, -0.5084748, 9.479167, -0.02081624, 0.020789146, 10.029251
180138657895569, 3.211168, -0.4761717, 9.48156, -0.04860177, -0.00865674, 10.021772
180138667535257, 3.1944182, -0.47856453, 9.486345, -0.043156773, -0.025414944, 10.021057
180138677174840, 3.199204, -0.48215377, 9.51147, -0.03998939, -0.028092384, 10.046546
180138686814528, 3.1920254, -0.5024927, 9.530613, -0.018881805, -0.035944223, 10.063422
180138696454111, 3.2027931, -0.49651068, 9.531809, -0.02682625, -0.023076057, 10.0676985
180138706093799, 3.1944182, -0.5024927, 9.530613, -0.01849038, -0.027910233, 10.064207
180138715733382, 3.2123644, -0.5180461, 9.505488, -0.0061937394, -5.1403046E-4, 10.046987
180138725373069, 3.2506495, -0.4881358, 9.488738, -0.040807966, 0.037496805, 10.041817
180138735012653, 3.245864, -0.50488555, 9.470792, -0.023030732, 0.041741848, 10.02418
180138744652340, 3.2554352, -0.5084748, 9.4839525, -0.020796508, 0.04665923, 10.039878
180138754291924, 3.257828, -0.5072784, 9.499506, -0.023237333, 0.043608904, 10.055294
180138763931611, 3.2530425, -0.51086766, 9.498309, -0.019555135, 0.040385008, 10.052817
180138773571299, 3.2338998, -0.5204389, 9.531809, -0.0077118473, 0.013571501, 10.078894
180138783210882, 3.211168, -0.5419743, 9.533006, 0.01694478, -0.0039992332, 10.073889
180138792850569, 3.1836505, -0.5371887, 9.530613, 0.016522212, -0.025764227, 10.062595
180138802490153, 3.182454, -0.55034924, 9.524631, 0.029717699, -0.022938251, 10.057239
180138812129840, 3.1728828, -0.5623133, 9.536594, 0.04335871, -0.031080723, 10.066139
180138821769424, 3.1932218, -0.57188463, 9.54138, 0.048958935, -0.006701708, 10.07766
180138831409111, 3.178865, -0.55752766, 9.54497, 0.03614261, -0.021730185, 10.0757475
180138841048694, 3.1932218, -0.55393845, 9.571291, 0.030198175, -0.017504692, 10.105043
180138850688382, 3.1848469, -0.5479564, 9.600004, 0.024336852, -0.033913374, 10.129257
180138860327965, 3.17049, -0.5479564, 9.600004, 0.026085801, -0.044487715, 10.124708
180138869967653, 3.1680973, -0.51206404, 9.597611, -0.008589387, -0.04955983, 10.119816
180138879607236, 3.1896327, -0.52522457, 9.565309, 0.0027115121, -0.016230106, 10.096754
180138889246924, 3.196811, -0.5204389, 9.548559, -0.0022053216, -0.004909277, 10.082927
180138898886507, 3.1956146, -0.4953143, 9.552148, -0.026437815, -0.011177778, 10.0846405
180138908526194, 3.182454, -0.51445687, 9.547362, -0.00547019, -0.019136906, 10.076924
180138918165778, 3.176472, -0.49172506, 9.538987, -0.026890956, -0.025725603, 10.065916
180138927805465, 3.1956146, -0.49651068, 9.524631, -0.025242582, -0.0027372837, 10.058649
180138937445153, 3.2135608, -0.5192425, 9.500702, -0.0054653715, 0.025172472, 10.042871
180138947084736, 3.21715, -0.54675996, 9.461221, 0.021155696, 0.042006254, 10.008071
180138956724424, 3.2243285, -0.54436713, 9.457631, 0.017516699, 0.04964161, 10.006829
180138966364007, 3.2410784, -0.54317075, 9.473185, 0.012536813, 0.058074236, 10.026831
180138976003694, 3.2303107, -0.5383851, 9.489935, 0.00745086, 0.039636135, 10.039024
180138985643278, 3.1980073, -0.5192425, 9.505488, -0.0065992093, 0.0015997887, 10.042467
180138995282965, 3.176472, -0.51565325, 9.521041, -0.0066778925, -0.023627996, 10.050149
180139004922549, 3.1657043, -0.5300102, 9.517452, 0.010126123, -0.028823376, 10.044081
180139014562236, 3.1872396, -0.5096712, 9.51147, -0.012272533, -0.008281231, 10.044208
180139024201819, 3.205186, -0.5084748, 9.512667, -0.014827102, 0.010383844, 10.050984
180139033841507, 3.2087753, -0.5084748, 9.515059, -0.015509881, 0.012876749, 10.054389
180139043481194, 3.190829, -0.5240282, 9.52822, 0.0034601614, -0.0050320625, 10.0619545
180139053120778, 3.196811, -0.526421, 9.5665045, 0.004692508, -0.011378288, 10.100227
180139062760465, 3.1896327, -0.5383851, 9.585648, 0.016747583, -0.021772623, 10.116694
180139072400049, 3.205186, -0.54317075, 9.553345, 0.016774232, 0.005170822, 10.091301
180139082039736, 3.1884363, -0.54317075, 9.538987, 0.019536711, -0.0059816837, 10.07239
180139091679319, 3.190829, -0.5563313, 9.5353985, 0.031388007, -0.0017688274, 10.070439
180139101319007, 3.2075787, -0.53599226, 9.531809, 0.008121725, 0.011383295, 10.071297
180139110958590, 3.2123644, -0.53240305, 9.510274, 0.003358543, 0.021570683, 10.052242
180139120598278, 3.2207394, -0.5383851, 9.492328, 0.008412078, 0.035200834, 10.038226
180139130237861, 3.2039895, -0.5204389, 9.485149, -0.0069568083, 0.018033266, 10.025173
180139139877549, 3.21715, -0.51206404, 9.474381, -0.01672589, 0.03293109, 10.018722
180139149517236, 3.2159536, -0.51206404, 9.47797, -0.016767882, 0.029436588, 10.021744
180139159156819, 3.2183464, -0.52163535, 9.488738, -0.007819295, 0.029138803, 10.033199
180139168796507, 3.2027931, -0.5288138, 9.49472, 5.9610605E-4, 0.013715744, 10.034292
180139178436090, 3.211168, -0.5192425, 9.498309, -0.010562472, 0.020056248, 10.039849
180139188075778, 3.178865, -0.51206404, 9.495916, -0.013180882, -0.009897947, 10.02694
180139197715361, 3.1848469, -0.526421, 9.486345, -6.5196306E-5, 0.0017313957, 10.020537
180139207355049, 3.199204, -0.5312066, 9.525827, 0.0023133848, 0.0031533241, 10.062729
180139216994632, 3.2004004, -0.52283174, 9.547362, -0.006961677, -0.0030162334, 10.083055
180139226634319, 3.2027931, -0.5168497, 9.561719, -0.013938194, -0.0042266846, 10.097092
180139236274007, 3.1812577, -0.5395815, 9.583255, 0.012200797, -0.027537823, 10.111844
180139245913590, 3.1836505, -0.5371887, 9.571291, 0.009981788, -0.021009445, 10.101151
180139255553278, 3.1932218, -0.54675996, 9.5665045, 0.018003153, -0.008183479, 10.10016
180139265192861, 3.2015967, -0.55752766, 9.567701, 0.027644483, 0.0010743141, 10.104515
180139274832549, 3.2159536, -0.53599226, 9.548559, 0.003970082, 0.015944242, 10.089815