timestamp_acc,device_acc_x,device_acc_y,device_acc_z,earth_acc_x,earth_acc_y,earth_acc_z
269449935117657, 0.33020952, 6.0837517, 8.221739, 0.22353745, -0.014011353, 10.230733
269449944757344, 0.29072794, 6.070591, 8.157132, 0.20909452, -0.05133909, 10.170007
269449954397032, 0.2428715, 6.0981083, 8.066205, 0.13779688, -0.107347816, 10.11331
269449964036719, 0.24885355, 6.1698933, 7.966903, 0.03110838, -0.11142886, 10.079071
269449973676407, 0.35294133, 6.2213387, 7.8580294, -0.07425547, -0.014115602, 10.028587
269449983316094, 0.30269206, 6.1435723, 7.8257265, -0.0124025345, -0.052446663, 9.953603
269449992955782, 0.20697916, 6.1507506, 7.8400836, 0.031113625, -0.14205337, 9.96596
269450002595573, 0.30388847, 6.099305, 7.7587276, 0.009232044, -0.043751806, 9.87369
269450012235261, 0.485743, 6.1794643, 7.655836, -0.1254816, 0.12295529, 9.848994
269450021874948, 0.5515456, 6.215357, 7.5433736, -0.2159729, 0.17704266, 9.785671
269450031514636, 0.5168497, 6.229714, 7.4333034, -0.27567863, 0.1298984, 9.707605
269450041154323, 0.45702913, 6.1902323, 7.300502, -0.30454302, 0.064668715, 9.577486
269450050794011, 0.4546363, 6.1734824, 7.2155566, -0.32126713, 0.05626449, 9.501392
269450060433698, 0.4127619, 6.1770716, 7.251449, -0.29540396, 0.01944828, 9.530083
269450070073386, 0.40797627, 6.1830535, 7.359126, -0.22304106, 0.016813874, 9.617863
269450079713073, 0.4235296, 6.1770716, 7.4620175, -0.15617657, 0.04028651, 9.694909
269450089352761, 0.39960137, 6.189036, 7.6462646, -0.047199726, 0.023864776, 9.845121
269450098992448, 0.3804588, 6.2321067, 7.783852, 0.0051078796, 0.0038416684, 9.978587
269450108632240, 0.35653058, 6.2141604, 7.8783684, 0.07611513, -0.01485315, 10.040198
269450118271927, 0.3397808, 6.209375, 7.91785, 0.10188246, -0.029833972, 10.067416
269450127911615, 0.33738798, 6.2464633, 7.8831544, 0.0477767, -0.03808832, 10.063424
269450137551302, 0.35174492, 6.224928, 7.780263, -0.006324768, -0.024740368, 9.9702215
269450147190990, 0.36370903, 6.1806607, 7.733603, -0.0023479462, -0.009888351, 9.906632
269450156830677, 0.37686956, 6.1974106, 7.7611203, -0.0031461716, 2.3809075E-4, 9.93906
269450166470365, 0.41754755, 6.1830535, 7.789834, 0.019087791, 0.041162536, 9.954092
269450176110052, 0.4211368, 6.1830535, 7.8556366, 0.059114933, 0.047553748, 10.005638
269450185749740, 0.40797627, 6.157929, 7.9190464, 0.11304855, 0.03664291, 10.039108
269450195389427, 0.37567315, 6.1830535, 7.9022965, 0.086761475, 0.0011967719, 10.04042
269450205029219, 0.35294133, 6.181857, 7.8113694, 0.031320572, -0.024521649, 9.96774
269450214668907, 0.34217364, 6.2081785, 7.7072816, -0.05181265, -0.041719973, 9.90234
269450224308594, 0.3397808, 6.2213387, 7.6666036, -0.08703947, -0.047332942, 9.878637
269450233948282, 0.36131623, 6.215357, 7.6307116, -0.10597134, -0.025965214, 9.847693
269450243587969, 0.4127619, 6.189036, 7.624729, -0.09456205, 0.028697759, 9.828595
269450253227657, 0.41515473, 6.1770716, 7.6809607, -0.05075264, 0.034655213, 9.865189
269450262867344, 0.37208393, 6.1447687, 7.7383885, 0.01265955, -0.0040079653, 9.888333
269450272507032, 0.38524446, 6.134001, 7.7551384, 0.027469158, 0.009917855, 9.895237
269450282146719, 0.4103691, 6.1734824, 7.746763, -0.016646862, 0.02805221, 9.914209
269450291786407, 0.46899325, 6.1914287, 7.6941214, -0.07065725, 0.08152866, 9.8864355
269450301426198, 0.4546363, 6.1567326, 7.648658, -0.07193184, 0.06733647, 9.828751
269450311065886, 0.4354937, 6.181857, 7.6570325, -0.085466385, 0.04283151, 9.850179
269450320705573, 0.43070808, 6.1806607, 7.6606216, -0.084276676, 0.035912693, 9.852046
269450330345261, 0.42951167, 6.172286, 7.6713896, -0.074546814, 0.033934593, 9.855206
269450339984948, 0.40079778, 6.178268, 7.708478, -0.0561471, 0.0065968633, 9.886814
269450349624636, 0.29790643, 6.172286, 7.7994056, 0.00927639, -0.08594459, 9.950334
269450359264323, 0.28115666, 6.1232333, 7.881958, 0.10005665, -0.09178123, 9.98398
269450368904011, 0.357727, 6.1675005, 7.91785, 0.06826115, -0.012702018, 10.042587
269450378543698, 0.3912265, 6.186643, 7.91785, 0.046444416, 0.021655232, 10.055713
269450388183386, 0.38763726, 6.161518, 7.8556366, 0.02609539, 0.02114904, 9.99122
269450397823177, 0.3900301, 6.1591253, 7.8293157, 0.00906992, 0.024668783, 9.969174
269450407462865, 0.36610186, 6.157929, 7.8556366, 0.027319908, 0.0032199621, 9.988214
269450417102552, 0.3684947, 6.1531434, 7.893922, 0.05435896, 0.008197755, 10.015387
269450426742240, 0.43908295, 6.134001, 7.8699937, 0.039155483, 0.07791543, 9.987389
269450436381927, 0.45702913, 6.131608, 7.769495, -0.026464462, 0.08758193, 9.907682
269450446021615, 0.3912265, 6.1244297, 7.812566, 0.014620304, 0.025794119, 9.934637
269450455661302, 0.32183465, 6.114858, 7.874779, 0.06650448, -0.04192871, 9.975019
269450465300990, 0.3361916, 6.09093, 7.9034934, 0.0909152, -0.029730022, 9.983413
269450474940677, 0.3792624, 6.1040907, 7.836494, 0.029368877, 0.0033447444, 9.9405
269450484580365, 0.41156548, 6.134001, 7.7012997, -0.081234455, 0.024662971, 9.85384
269450494220157, 0.33020952, 6.084948, 7.5864444, -0.10536194, -0.059782207, 9.730114
269450503859844, 0.27517462, 6.0418773, 7.641479, -0.03156185, -0.10851762, 9.744713
269450513499532, 0.26919255, 6.06102, 7.6917286, -0.016462326, -0.1155082, 9.79579
269450523139219, 0.34576288, 6.0753765, 7.652247, -0.064732075, -0.045034707, 9.776524
269450532778907, 0.39840496, 6.0717874, 7.54457, -0.13621616, 6.2057376E-4, 9.691609
269450542418594, 0.39960137, 6.078966, 7.4356966, -0.20781803, -0.0069414377, 9.610404
269450552058282, 0.36011982, 6.0622163, 7.3746796, -0.22628117, -0.047037125, 9.550531
269450561697969, 0.28953153, 6.0454664, 7.4715886, -0.14698076, -0.10686028, 9.613693
269450571337657, 0.2943172, 6.003592, 7.704889, 0.027933598, -0.08295861, 9.771765
269450580977448, 0.3361916, 6.013163, 7.9238324, 0.1424346, -0.030122817, 9.951736
269450590617136, 0.40917268, 6.0311093, 8.1942215, 0.27518034, 0.05389008, 10.178819
269450600256823, 0.45583272, 6.053841, 8.311469, 0.30833387, 0.09917021, 10.287485
269450609896511, 0.41515473, 6.0861444, 8.416754, 0.3523121, 0.060554773, 10.388813
269450619536198, 0.3924229, 6.181857, 8.35454, 0.24030447, 0.024195284, 10.397564
269450629175886, 0.3361916, 6.196214, 8.210971, 0.15049458, -0.03573218, 10.29088
269450638815573, 0.30029923, 6.2033925, 8.049456, 0.0678339, -0.06280303, 10.166487
269450648455261, 0.31465617, 6.1627145, 7.8281193, -0.03824091, -0.05407685, 9.967605
269450658094948, 0.26081768, 6.117251, 7.884351, 0.055633545, -0.08332321, 9.982071
269450667734636, 0.29671, 6.10768, 7.844869, 0.039906025, -0.041784257, 9.946378
269450677374323, 0.37088752, 6.099305, 7.895118, 0.068418026, 0.035505474, 9.983288
269450687014115, 0.30388847, 6.1100726, 7.847262, 0.042675495, -0.030706823, 9.949979
269450696653802, 0.37447673, 6.1196437, 7.8017983, 0.0036025047, 0.033375144, 9.922561
269450706293490, 0.4354937, 6.2081785, 7.8759756, -0.024074554, 0.08073476, 10.03768
269450715933177, 0.4235296, 6.262017, 7.999206, 0.015803814, 0.061481178, 10.167376
269450725572865, 0.41156548, 6.262017, 7.9800634, 0.00573349, 0.04868123, 10.151909
269450735212552, 0.34576288, 6.192625, 7.91785, 0.033279896, -0.015087128, 10.057793
269450744852240, 0.22612174, 6.1698933, 7.8029947, 6.0892105E-4, -0.13617337, 9.949217
269450754491927, 0.17826529, 6.148358, 7.682157, -0.035356045, -0.17602897, 9.839584
269450764131615, 0.23090738, 6.0933228, 7.517052, -0.10153818, -0.12562466, 9.677908
269450773771302, 0.3182454, 6.1005015, 7.4189467, -0.17096949, -0.037688494, 9.608721
269450783410990, 0.4534399, 6.1794643, 7.4045897, -0.2511115, 0.09279987, 9.651304
269450793050677, 0.573081, 6.2548385, 7.4979095, -0.2638855, 0.20627457, 9.7753725
269450802690469, 0.68075806, 6.3122663, 7.7072816, -0.19129133, 0.30778888, 9.978928
269450812330157, 0.762114, 6.37089, 7.952546, -0.097941875, 0.38564107, 10.210474
269450821969844, 0.7429714, 6.3625154, 8.195417, 0.056950092, 0.3705951, 10.395091
269450831609532, 0.6017949, 6.3194447, 8.370093, 0.21587753, 0.2463932, 10.499938
269450841249219, 0.37686956, 6.2177496, 8.465807, 0.37965584, 0.031638592, 10.503675
269450850888907, 0.27517462, 6.166304, 8.390432, 0.38199615, -0.07082057, 10.409008
269450860528594, 0.29910284, 6.142376, 8.112865, 0.22415066, -0.059844673, 10.177574
269450870168282, 0.33260235, 6.1304116, 7.737192, 0.010323048, -0.056929827, 9.876912
269450879807969, 0.2835495, 6.111269, 7.393822, -0.17948532, -0.12545899, 9.5942
269450889447657, 0.2416751, 6.099305, 7.092326, -0.32370615, -0.19795486, 9.34971
269450899087344, 0.21774685, 6.0634127, 6.8913293, -0.41875267, -0.22619087, 9.169313
269450908727032, 0.13280165, 6.009574, 6.7226353, -0.45652056, -0.31860602, 9.000917
269450918366719, 0.20578274, 6.000003, 6.7094746, -0.4474864, -0.2574755, 8.988486
269450928006511, 0.3804588, 6.0526447, 6.7812595, -0.4622712, -0.09707448, 9.085242
269450937646198, 0.5180461, 6.1507506, 6.8578296, -0.5086894, 0.028942615, 9.212509
269450947285886, 0.5886344, 6.1507506, 6.9678993, -0.45014, 0.10994825, 9.301353
269450956925573, 0.64965135, 6.1304116, 7.1425757, -0.33933544, 0.18014827, 9.427235
269450966565261, 0.63529444, 6.10768, 7.432107, -0.14950705, 0.18204224, 9.637846
269450976204948, 0.55034924, 6.539584, 7.7754774, -0.2591834, 0.05385399, 10.171383
269450985844636, 0.44506502, 5.7224355, 7.844869, 0.41261244, 0.068026215, 9.711408
269450995484323, 0.357727, 6.350551, 8.143971, 0.11529493, -0.08357692, 10.332544
269451005124011, 0.40917268, 6.081359, 8.082955, 0.25575876, 0.004671514, 10.120231
269451014763698, 0.3361916, 5.907879, 8.183454, 0.4373312, -0.025289118, 10.089254
269451024403386, 0.6233303, 6.6125655, 8.140383, -0.19336557, 0.14972079, 10.503359
269451034043073, 0.36131623, 5.5262237, 8.177471, 0.7040458, 0.07048851, 9.850892
269451043682761, 0.58983076, 6.914061, 8.4909315, -0.23488426, 0.09325695, 10.962856
269451053322448, 0.29072794, 5.4867425, 8.504091, 0.92507315, 0.058822334, 10.082125
269451062962136, 0.4019942, 6.8422766, 8.779266, 5.950928E-4, -0.044781387, 11.137857
269451072601823, 0.27038896, 5.682954, 8.636893, 0.8305507, 0.027444541, 10.3089485
269451082241511, 0.23688944, 6.485746, 8.845069, 0.3430791, -0.12720877, 10.964597
269451091881198, 0.32422748, 6.125626, 8.663215, 0.47620296, -0.004294932, 10.604383
269451101520886, 0.12801601, 5.9700923, 8.59143, 0.5866909, -0.1769762, 10.444883
269451111160573, 0.3505485, 6.5252275, 8.372486, -0.014837265, -0.060346603, 10.620554
269451120800365, 0.13758731, 5.5226345, 8.105687, 0.6410737, -0.1282807, 9.787397
269451130440052, 0.42711884, 6.8219376, 7.9561353, -0.48919296, -0.05093223, 10.477568
269451140079740, 0.2416751, 5.383851, 7.537391, 0.40669584, -0.050223947, 9.256815
269451149719427, 0.4331009, 6.8075805, 7.479964, -0.7362189, -0.08689082, 10.096088
269451159359115, 0.29192436, 5.6063833, 7.1365933, 0.011548996, -0.0679819, 9.07981
269451168998802, 0.36490545, 6.4941206, 7.203593, -0.61793804, -0.13114113, 9.685012
269451178638490, 0.49292147, 6.005985, 6.937989, -0.41602278, 0.045452714, 9.180162
269451188278177, 0.4761717, 6.0047884, 6.8578296, -0.4485793, 0.018636882, 9.116605
269451197917865, 0.85064846, 6.582655, 6.660422, -1.0552249, 0.28779843, 9.339156
269451207557552, 0.5802595, 5.51426, 6.502496, -0.29193735, 0.17342639, 8.53879
269451217197240, 0.7788638, 6.8482585, 6.6101727, -1.2727304, 0.1774039, 9.462999
269451226836927, 0.4438686, 5.4125648, 6.6676, -0.08615732, 0.08031392, 8.598599
269451236476615, 0.58624154, 6.8339014, 7.076773, -0.9593587, 0.027463198, 9.80844
269451246116302, 0.38524446, 5.599205, 7.1880393, 0.09055853, 0.034242213, 9.1191025
269451255755990, 0.38883367, 6.5575304, 7.6139617, -0.3969717, -0.07778287, 10.047945
269451265395677, 0.43669012, 6.013163, 7.732406, 0.06761885, 0.063066006, 9.804611
269451275035365, 0.3589234, 6.117251, 8.084151, 0.17978287, -0.009126902, 10.142519
269451284675052, 0.5982057, 6.512067, 8.200203, -0.092256546, 0.17638272, 10.486589
269451294314740, 0.3589234, 5.6386867, 8.29472, 0.6497812, 0.06678051, 10.0149555
269451303954427, 0.5706882, 6.8135624, 8.4705925, -0.18558931, 0.12155974, 10.883568
269451313594115, 0.19980069, 5.3790655, 8.400003, 0.9164157, -0.055643052, 9.934355
269451323233802, 0.34576288, 6.800402, 8.571091, -0.118952274, -0.09013656, 10.945608
269451332873490, 0.09092726, 5.4616175, 8.451449, 0.887372, -0.1749118, 10.022301
269451342513177, 0.17108682, 6.533602, 8.608179, 0.12746477, -0.22761297, 10.805087
269451352152865, 0.19980069, 5.905486, 8.411968, 0.4915161, -0.1295315, 10.267303
269451361792552, 0.15074782, 6.050252, 8.510074, 0.44435835, -0.19331238, 10.431433
269451371432240, 0.40677986, 6.390033, 8.300702, 0.019434452, 0.0025857985, 10.483286
269451381071927, 0.24047868, 5.651847, 8.157132, 0.5381851, -0.06559116, 9.911916
269451390711615, 0.5300102, 6.7669024, 8.01117, -0.4520707, 0.04557371, 10.490198
269451400351302, 0.28594232, 5.389833, 7.6797643, 0.46409178, -0.011053979, 9.375251
269451409990990, 0.552742, 6.8518476, 7.584051, -0.7566447, 0.014847517, 10.207766
269451419630677, 0.3912265, 5.495117, 7.23111, 0.12450981, 0.054417968, 9.089546
269451429270365, 0.4833502, 6.586244, 7.344769, -0.6557989, -0.020355523, 9.855324
269451438910052, 0.4546363, 5.8360944, 7.1653075, -0.17782688, 0.05862701, 9.250584
269451448549740, 0.32303107, 6.1363935, 7.3256264, -0.28398705, -0.10483241, 9.55682
269451458189427, 0.47856453, 6.3314085, 7.2550383, -0.5055003, 0.009262204, 9.627863
269451467829115, 0.35413775, 5.6793647, 7.3136625, 0.055617332, 0.0013591051, 9.266456
269451477468802, 0.6580262, 6.754938, 7.520642, -0.7005968, 0.13337457, 10.105127
269451487108490, 0.40797627, 5.4616175, 7.507481, 0.32984352, 0.10649377, 9.286434
269451496748177, 0.6448657, 6.893722, 7.655836, -0.72885466, 0.10266876, 10.296083
269451506387865, 0.41635114, 5.45085, 7.5122666, 0.3305683, 0.12103504, 9.284145
269451516027552, 0.49651068, 6.629315, 7.810173, -0.40705395, 0.01942259, 10.248272
269451525667240, 0.42592242, 5.8013983, 7.810173, 0.23403502, 0.095959306, 9.735115
269451535306927, 0.29312077, 6.1710896, 8.069795, 0.1255455, -0.0751701, 10.162107
269451544946615, 0.42592242, 6.300302, 8.036295, -0.027299881, 0.032889605, 10.220345
269451554586302, 0.21655045, 5.736792, 8.115258, 0.48607397, -0.076466024, 9.928394
269451564225990, 0.45942193, 6.7537417, 8.154739, -0.32535982, 0.009271681, 10.593296
269451573865677, 0.17706887, 5.495117, 8.053044, 0.6330633, -0.096301466, 9.729807
269451583505365, 0.44865423, 6.8781686, 8.110473, -0.44646263, -0.019779325, 10.634405
269451593145052, 0.27038896, 5.4257255, 7.8496547, 0.5483856, -0.0075184405, 9.530367
269451602784740, 0.4642076, 6.641279, 7.9501534, -0.36039305, 0.014205694, 10.363251
269451612424427, 0.45224348, 5.733203, 7.749156, 0.22312307, 0.1229659, 9.646692
269451622064115, 0.40917268, 6.2679987, 7.816155, -0.1407342, 0.004039526, 10.02635
269451631703802, 0.5419743, 6.245267, 7.5960155, -0.2784357, 0.12307459, 9.843978
269451641343490, 0.29790643, 5.7930236, 7.6271224, 0.13200712, -0.04608506, 9.581301
269451650983177, 0.4749753, 6.666404, 7.7012997, -0.5289955, -0.010746598, 10.183153
269451660622865, 0.13758731, 5.4460645, 7.676175, 0.45773125, -0.14366418, 9.400642
269451670262552, 0.4031906, 6.899704, 7.769495, -0.6539521, -0.10804844, 10.377583
269451679902240, 0.20458634, 5.413761, 7.587641, 0.41572094, -0.085090935, 9.313587
269451689541927, 0.465404, 6.7262244, 7.752745, -0.53901815, -0.012010276, 10.260266
269451699181615, 0.46899325, 5.709275, 7.5936227, 0.15202427, 0.12946391, 9.509944
269451708821302, 0.47856453, 6.2919273, 7.792227, -0.18274117, 0.068936646, 10.02487
269451718460990, 0.57906306, 6.1328044, 7.6666036, -0.15223265, 0.18439114, 9.831899
269451728100677, 0.3924229, 5.7343993, 7.745567, 0.23366213, 0.06674692, 9.642204
269451737740365, 0.5814559, 6.526424, 7.8113694, -0.3694067, 0.13908559, 10.187933
269451747379948, 0.2943172, 5.424529, 7.82453, 0.5298071, 0.02876085, 9.510725
269451757019636, 0.47976094, 6.859026, 7.9776707, -0.52913475, -0.01535821, 10.518527
269451766659323, 0.17587246, 5.4233327, 7.867601, 0.5745158, -0.06758976, 9.539809
269451776299011, 0.28594232, 6.77767, 8.114061, -0.3371973, -0.18948406, 10.569152
269451785938698, 0.2428715, 5.7224355, 7.9561353, 0.37786436, -0.05286652, 9.795905
269451795578386, 0.29790643, 6.430711, 8.093722, -0.10035753, -0.10598034, 10.340689
269451805218073, 0.3792624, 6.1567326, 7.8759756, -0.036432743, 0.0016180277, 10.0039425
269451814857761, 0.22971097, 5.8337016, 7.850851, 0.229949, -0.0882805, 9.780594
269451824497448, 0.49292147, 6.5407805, 7.856833, -0.36113024, 0.045868754, 10.228495
269451834137136, 0.23928227, 5.447261, 7.7874413, 0.48879957, -0.016704917, 9.493942
269451843776823, 0.5288138, 6.8051877, 7.8783684, -0.5476389, 0.053364098, 10.409427
269451853416511, 0.2883351, 5.365905, 7.6163545, 0.44276762, 0.027365923, 9.310646
269451863056198, 0.4642076, 6.7585278, 7.6869426, -0.6088524, -0.01660502, 10.227968
269451872695886, 0.35174492, 5.6099725, 7.463214, 0.15693331, 0.041410208, 9.341773
269451882335573, 0.3684947, 6.393622, 7.6366935, -0.33341885, -0.054664433, 9.96088
269451891975261, 0.4319045, 6.0897336, 7.5433736, -0.17015266, 0.052734315, 9.702687
269451901614948, 0.30388847, 5.946164, 7.6546397, 0.034600735, -0.039954066, 9.697418
269451911254636, 0.55513483, 6.5347986, 7.6797643, -0.44663477, 0.12298685, 10.088406
269451920894323, 0.32063824, 5.521438, 7.7850485, 0.4360714, 0.04658097, 9.539588
269451930534011, 0.5814559, 6.8051877, 7.9944205, -0.4655757, 0.14133194, 10.503461
269451940173594, 0.31585258, 5.3682976, 7.847262, 0.59171915, 0.06888679, 9.494369
269451949813282, 0.47377887, 6.7740808, 7.948957, -0.46046782, 0.023776352, 10.444424
269451959452969, 0.28235307, 5.5573306, 7.763513, 0.39541912, 0.0021205544, 9.543554
269451969092657, 0.23688944, 6.4941206, 7.9884386, -0.18383312, -0.16623414, 10.294825
269451978732344, 0.23808585, 6.005985, 7.864012, 0.10985613, -0.096264064, 9.896962
269451988372032, 0.12203395, 5.9521465, 7.9573317, 0.23077106, -0.19124627, 9.93339
269451998011719, 0.42951167, 6.4881387, 7.9393854, -0.2552023, 0.027069092, 10.259065
269452007651407, 0.29790643, 5.56092, 7.9800634, 0.5137868, 0.056625426, 9.717345
269452017291094, 0.6029913, 6.8051877, 8.094919, -0.4364581, 0.16086245, 10.58232
269452026930782, 0.32303107, 5.3886366, 7.880761, 0.5872221, 0.08853006, 9.533913
269452036570469, 0.4953143, 6.8243303, 7.8963146, -0.5490098, 0.028512716, 10.433905
269452046210157, 0.2847459, 5.535795, 7.5529447, 0.28769398, 0.011842012, 9.364304
269452055849844, 0.32542387, 6.502496, 7.676175, -0.3916235, -0.09596783, 10.057308
269452065489532, 0.3290131, 5.959325, 7.4979095, -0.08220291, -0.017920017, 9.582973
269452075129219, 0.25722843, 6.0155563, 7.6426754, -0.015338898, -0.08042449, 9.7291765
269452084768802, 0.5084748, 6.3972116, 7.645068, -0.3578272, 0.102431655, 9.974538
269452094408490, 0.26679972, 5.5657053, 7.776674, 0.41163826, 0.019192517, 9.557985
269452104048177, 0.5168497, 6.7872415, 7.938189, -0.47793722, 0.06391293, 10.445866
269452113687865, 0.2644069, 5.3814583, 7.7754774, 0.54536057, 0.048374236, 9.443956
269452123327552, 0.465404, 6.829116, 7.8604226, -0.54754543, 0.012242854, 10.408637
269452132967240, 0.2847459, 5.538188, 7.6331043, 0.342144, 0.0241673, 9.428641
269452142606927, 0.37208393, 6.6077795, 7.816155, -0.38679886, -0.043245852, 10.234354
269452152246615, 0.33020952, 5.919843, 7.676175, 0.059753895, 0.0135414, 9.699149
269452161886302, 0.23688944, 6.0622163, 7.7850485, 0.038753986, -0.09242064, 9.869322
269452171525990, 0.42592242, 6.3457656, 7.757531, -0.23485804, 0.04135102, 10.028587
269452181165677, 0.22492532, 5.5860443, 7.8281193, 0.42748022, -0.028762043, 9.60991
269452190805365, 0.48095736, 6.6855464, 8.019546, -0.35021877, 0.057995915, 10.445811
269452200445052, 0.22731815, 5.3563333, 7.96451, 0.67730093, 0.027657509, 9.576841
269452210084740, 0.4869394, 6.8171515, 8.066205, -0.43162394, 0.030918837, 10.563477
269452219724427, 0.32422748, 5.5106707, 7.8257265, 0.45492363, 0.06605977, 9.565735
269452229364011, 0.4223332, 6.647261, 7.98126, -0.34492826, -0.017626882, 10.38969
269452239003698, 0.41156548, 5.885147, 7.798209, 0.12665272, 0.07944596, 9.777222
269452248643386, 0.32063824, 6.196214, 7.8867435, -0.03745079, -0.05699116, 10.03454
269452258283073, 0.48215377, 6.367301, 7.7587276, -0.27816486, 0.062999904, 10.0444765
269452267922761, 0.2548356, 5.662615, 7.7347994, 0.29124546, -0.052681923, 9.5848675
269452277562448, 0.4941179, 6.7202425, 7.7551384, -0.55091524, 0.02436304, 10.258846
269452287202136, 0.22492532, 5.367101, 7.537391, 0.40401793, -0.04982698, 9.2467785
269452296841823, 0.47856453, 6.7740808, 7.62114, -0.6670804, -0.001886487, 10.18597
269452306481511, 0.25603202, 5.410172, 7.4440713, 0.3190112, -0.023119748, 9.200402
269452316121198, 0.36370903, 6.593423, 7.682157, -0.47798014, -0.08727175, 10.1185465
269452325760886, 0.3361916, 5.7631135, 7.60439, 0.12149477, 0.011859894, 9.54664
269452335400573, 0.31106696, 6.1603217, 7.789834, -0.06375551, -0.06354904, 9.9357815
269452345040261, 0.52163535, 6.2584276, 7.7120676, -0.23248768, 0.11855024, 9.94223
269452354679844, 0.32063824, 5.642276, 7.7910304, 0.3243246, 0.031850338, 9.619359
269452364319532, 0.57188463, 6.6556363, 7.946564, -0.42255783, 0.122315764, 10.372025
269452373959219, 0.2105684, 5.3706903, 7.9884386, 0.6631365, -0.0047128797, 9.605417
269452383598907, 0.37567315, 6.8051877, 8.187042, -0.37064362, -0.07614213, 10.6459465
269452393238594, 0.12801601, 5.389833, 7.966903, 0.6368208, -0.091159225, 9.5981455
269452402878282, 0.2847459, 6.669993, 8.0817585, -0.31783295, -0.13946557, 10.476845
269452412517969, 0.25842485, 5.7523456, 7.8149586, 0.23930931, -0.010962009, 9.704248
269452422157657, 0.17467605, 6.2201424, 7.9680996, -0.014365196, -0.16013867, 10.108682
269452431797344, 0.25004998, 6.1914287, 7.873583, -0.064572334, -0.083082914, 10.018909
269452441437032, 0.09571291, 5.7224355, 7.8867435, 0.33866405, -0.13641208, 9.737701
269452451076719, 0.4139583, 6.587441, 7.9334035, -0.36845875, 0.0121154785, 10.31352
269452460716407, 0.2105684, 5.3682976, 7.797013, 0.5248275, 0.04441768, 9.454045
269452470356094, 0.56590253, 6.7740808, 7.8400836, -0.60014963, 0.12334788, 10.358569
269452479995782, 0.34456646, 5.3216376, 7.6534433, 0.45216942, 0.17730403, 9.315463
269452489635365, 0.506082, 6.6855464, 7.7814593, -0.54986525, 0.08728802, 10.256403
269452499275052, 0.36370903, 5.6733823, 7.600801, 0.14000845, 0.118451774, 9.489894
269452508914740, 0.37208393, 6.303891, 7.7312098, -0.2571087, 0.019430578, 9.979108
269452518554427, 0.4235296, 6.172286, 7.643872, -0.22295141, 0.08638579, 9.830978
269452528194115, 0.1902294, 5.7834525, 7.670193, 0.14125443, -0.0639897, 9.60689
269452537833802, 0.38644084, 6.6053867, 7.7551384, -0.48812675, -0.008377194, 10.18255
269452547473490, 0.11485548, 5.432904, 7.806584, 0.50165844, -0.0618394, 9.498258
269452557113177, 0.40079778, 6.818348, 7.966903, -0.5396242, 0.0030905008, 10.480022
269452566752865, 0.20697916, 5.3383875, 7.85444, 0.57869196, 0.045601428, 9.481375
269452576392552, 0.41156548, 6.6963143, 8.099705, -0.36166286, 0.051926315, 10.511028
269452586032240, 0.2955136, 5.625526, 7.9680996, 0.40079498, 0.08450812, 9.749702
269452595671927, 0.2847459, 6.3290157, 8.105687, -0.062140465, -0.016779065, 10.287641
269452605311615, 0.29790643, 6.078966, 7.96451, 0.036328793, 0.021539629, 10.023683
269452614951198, 0.0741775, 5.797809, 7.9860454, 0.30216074, -0.15429103, 9.863159
269452624590886, 0.28235307, 6.4462643, 7.9680996, -0.24735594, -0.04217887, 10.24996
269452634230573, 0.11844472, 5.346762, 7.899904, 0.58973503, -0.044680595, 9.521585
269452643870261, 0.4546363, 6.728617, 8.007581, -0.4746232, 0.0889616, 10.457971
269452653509948, 0.21296121, 5.2953167, 7.832905, 0.5668011, 0.060840547, 9.4400835
269452663149636, 0.38883367, 6.7369924, 7.908279, -0.5321388, 0.011910975, 10.382477
269452672789323, 0.22612174, 5.578866, 7.7347994, 0.28284168, 0.027965963, 9.535261
269452682429011, 0.20817557, 6.4199433, 7.905886, -0.2582035, -0.109901786, 10.182499
269452692068698, 0.29192436, 6.064609, 7.795816, -0.06483698, 0.021694243, 9.881032
269452701708386, 0.11964113, 5.9138613, 7.864012, 0.13087845, -0.11269283, 9.838746
269452711348073, 0.3385844, 6.474978, 7.8520474, -0.35175657, 0.0101130605, 10.176974
269452720987761, 0.11964113, 5.4149575, 7.8628154, 0.521657, -0.03180921, 9.533457
269452730627448, 0.43429732, 6.698707, 8.033902, -0.4365611, 0.0993073, 10.459658
269452740267136, 0.21655045, 5.2486563, 7.91785, 0.6601939, 0.08902705, 9.4786005
269452749906823, 0.4319045, 6.647261, 8.038688, -0.38526344, 0.1065312, 10.432322
269452759546511, 0.28713873, 5.4699926, 7.856833, 0.43522453, 0.12344289, 9.56705
269452769186094, 0.30029923, 6.3996043, 8.012366, -0.19016647, 0.007216215, 10.257042
269452778825782, 0.30508488, 5.9904313, 7.8376904, 0.015216827, 0.060557306, 9.869337
269452788465469, 0.1052842, 5.9916277, 7.8556366, 0.06497145, -0.13564843, 9.879226
269452798105157, 0.276371, 6.519245, 7.745567, -0.43998623, -0.06349081, 10.11796
269452807744844, 0.022731815, 5.54417, 7.732406, 0.35659552, -0.1519146, 9.506745
269452817384532, 0.30987054, 6.782456, 7.9034934, -0.54530287, -0.061718762, 10.404893
269452827024219, 0.11246266, 5.2953167, 7.800602, 0.5858531, -0.010049164, 9.410583
269452836663907, 0.4223332, 6.7166533, 7.911868, -0.51598215, 0.058506727, 10.373997
269452846303594, 0.32063824, 5.3982077, 7.698907, 0.40627956, 0.15685266, 9.398243
269452855943282, 0.3481557, 6.390033, 7.82453, -0.29150677, 0.031582355, 10.104011
269452865582969, 0.317049, 5.8540406, 7.6773715, 0.03825903, 0.074715495, 9.659468
269452875222657, 0.1268196, 5.9557357, 7.8029947, 0.069746494, -0.114822805, 9.816087
269452884862344, 0.30867413, 6.367301, 7.725228, -0.3341875, -0.006028533, 10.010255
269452894502032, 0.08733802, 5.5250273, 7.692925, 0.34340382, -0.089824796, 9.465128
269452904141719, 0.35174492, 6.7334027, 7.8281193, -0.5605302, -0.0044009686, 10.316378
269452913781407, 0.086141616, 5.322834, 7.773084, 0.5403557, -0.05603224, 9.405621
269452923421094, 0.31345975, 6.771688, 7.928618, -0.525537, -0.025601566, 10.418261
269452933060782, 0.148355, 5.4759746, 7.8556366, 0.4547758, -0.008023024, 9.566213
269452942700469, 0.317049, 6.5347986, 8.062616, -0.26657104, 0.027300179, 10.379697
269452952340157, 0.35653058, 5.8743796, 7.9166536, 0.14526796, 0.14797628, 9.862346
269452961979740, 0.26799613, 6.0514483, 7.9597244, 0.04891491, 0.04003626, 10.002253
269452971619427, 0.37806597, 6.3110695, 7.8604226, -0.23519039, 0.10626778, 10.084255
269452981259115, 0.07776674, 5.5800624, 7.8891363, 0.39666843, -0.08577824, 9.65489
269452990898802, 0.21296121, 6.6352973, 8.031509, -0.3617835, -0.0945161, 10.41335
269453000538490, -0.062213387, 5.278567, 7.972885, 0.698226, -0.16633207, 9.535137
269453010178177, 0.23928227, 6.7704916, 8.098508, -0.43434143, -0.08801383, 10.549232
269453019817865, 0.21655045, 5.395815, 7.893922, 0.51399755, 0.09047127, 9.550045
269453029457552, 0.45104706, 6.576673, 8.019546, -0.37240648, 0.14403808, 10.373512
269453039097240, 0.44506502, 5.7810597, 7.880761, 0.15648174, 0.25297183, 9.779399
269453048736927, 0.2883351, 6.0801625, 7.9680996, 0.013177395, 0.05575061, 10.026905
269453058376615, 0.34456646, 6.2309103, 7.847262, -0.18580961, 0.07470578, 10.024091
269453068016302, 0.07298109, 5.554938, 7.850851, 0.39707756, -0.0769304, 9.609108
269453077655990, 0.3062813, 6.611369, 7.9238324, -0.4293537, -0.021236598, 10.315346
269453087295677, -0.0011964113, 5.3180485, 7.836494, 0.5899739, -0.09997296, 9.451678
269453096935365, 0.2321038, 6.786045, 7.9070826, -0.56011343, -0.12808758, 10.40654
269453106575052, 0.06699903, 5.3946185, 7.678568, 0.41313457, -0.066437304, 9.375057
269453116214740, 0.22492532, 6.631708, 7.8520474, -0.4614892, -0.11195302, 10.269339
269453125854427, 0.18185452, 5.79422, 7.752745, 0.13807058, -0.01537025, 9.679453
269453135494115, 0.21894327, 6.1854467, 7.826923, -0.12737703, -0.040697098, 9.977501
269453145133802, 0.47856453, 6.2344995, 7.6773715, -0.30699396, 0.19362265, 9.894863
269453154773490, 0.3182454, 5.633901, 7.6666036, 0.18531561, 0.13320988, 9.516663
269453164413177, 0.6149554, 6.6017976, 7.7144604, -0.58885956, 0.2634781, 10.151781
269453174052865, 0.31585258, 5.237889, 7.6390862, 0.4829855, 0.16635513, 9.253645
269453183692552, 0.5419743, 6.6676, 7.8376904, -0.5647769, 0.17547202, 10.287384
269453193332240, 0.19262223, 5.2498527, 7.7647095, 0.5568929, 0.0466972, 9.358231
269453202971927, 0.27158538, 6.541977, 8.025527, -0.30418158, -0.063391924, 10.352959
269453212611615, 0.14596218, 5.6817575, 7.9022965, 0.29679966, -0.06832743, 9.729194
269453222251302, 0.13280165, 6.2548385, 7.928618, -0.13160563, -0.17362845, 10.097335
269453231890990, 0.23330021, 6.3074803, 7.7790666, -0.29218006, -0.0982874, 10.012871
269453241530677, -0.0023928226, 5.8277197, 7.893922, 0.19324732, -0.24156749, 9.807171
269453251170365, 0.19860429, 6.631708, 7.999206, -0.41626263, -0.15991026, 10.383038
269453260810052, -0.069391854, 5.339584, 8.054241, 0.673996, -0.19641119, 9.638149
269453270449740, 0.2105684, 6.6448684, 8.325827, -0.23287249, -0.114224255, 10.651325
269453280089427, 0.13160525, 5.2127643, 8.136793, 0.768445, 0.036504388, 9.633576
269453289729115, 0.38763726, 6.5347986, 8.268398, -0.22907925, 0.08964378, 10.543232
269453299368802, 0.3924229, 5.5298133, 7.850851, 0.29206705, 0.22605872, 9.603765
269453309008490, 0.3493521, 6.1770716, 7.8317084, -0.21638346, 0.098113775, 9.977849
269453318648177, 0.29671, 6.0023956, 7.798209, -0.09079647, 0.0701918, 9.844576
269453328287865, 0.031106694, 5.6793647, 7.895118, 0.27345943, -0.11432117, 9.721173
269453337927552, 0.27756742, 6.5048885, 7.954939, -0.3834896, 0.00750196, 10.272515
269453347567240, 0.0634098, 5.3994045, 7.945368, 0.51365423, -0.026403248, 9.592807
269453357206927, 0.33140594, 6.8039913, 8.029117, -0.5793457, 0.029576778, 10.513531
269453366846615, 0.076570325, 5.2929235, 7.7994056, 0.52126646, -0.007963479, 9.411687
269453376486302, 0.22492532, 6.672386, 7.928618, -0.51304245, -0.057093263, 10.35219
269453386125990, 0.1591227, 5.5776696, 7.8077803, 0.29223967, 0.026402175, 9.592239
269453395765677, 0.17826529, 6.2488565, 8.019546, -0.10921574, -0.034554422, 10.167594
269453405405365, 0.32183465, 5.98086, 7.9501534, 0.029307365, 0.13703549, 9.9528675
269453415045052, 0.19860429, 5.767899, 7.982456, 0.24119234, 0.05119753, 9.847178
269453424684740, 0.44147578, 6.4199433, 7.9776707, -0.3141489, 0.19419202, 10.242921
269453434324427, 0.11844472, 5.3587265, 7.978867, 0.577559, 0.03698337, 9.594652
269453443964115, 0.33379877, 6.7561345, 8.106883, -0.48121166, 0.06597012, 10.547152
269453453603802, 0.013160525, 5.328816, 7.7682986, 0.49765587, -0.06544864, 9.406964
269453463243490, 0.096909314, 6.719046, 7.804191, -0.58236647, -0.17975426, 10.280512
269453472883177, -0.020338992, 5.575277, 7.479964, 0.134058, -0.15166014, 9.327004
269453482522865, 0.032303106, 6.378069, 7.5625157, -0.440073, -0.19755125, 9.881285
269453492162552, 0.11964113, 5.9952173, 7.521838, -0.18153715, -0.052795112, 9.617655
269453501802240, 0.032303106, 5.837291, 7.757531, 0.10358095, -0.10270071, 9.70737
269453511441927, 0.3505485, 6.4008007, 7.9573317, -0.2624917, 0.1573185, 10.213649
269453521081615, 0.16510476, 5.3970113, 8.070991, 0.6136093, 0.09471381, 9.690739
269453530721302, 0.4546363, 6.708278, 8.237292, -0.3549633, 0.23136044, 10.624555
269453540360782, 0.148355, 5.2869415, 8.092526, 0.70167017, 0.10401088, 9.641555
269453550000730, 0.1902294, 6.6891356, 8.257631, -0.29834366, -0.038013577, 10.62444
269453559640417, -0.07058827, 5.521438, 8.086544, 0.54346704, -0.1474759, 9.7758045
269453569280105, -0.021535404, 6.4534426, 8.256434, -0.082240105, -0.21520412, 10.476786
269453578919792, 0.10767702, 5.9784675, 8.0817585, 0.15539122, -0.029307425, 10.05204
269453588559480, 0.11964113, 5.983253, 8.1020975, 0.16911077, -0.011722028, 10.07119
269453598199167, 0.39960137, 6.442675, 7.9740815, -0.31562614, 0.17136633, 10.253035
269453607838855, 0.1471586, 5.4676, 7.847262, 0.42066383, 0.073886216, 9.555804
269453617478542, 0.4211368, 6.6927247, 7.8293157, -0.57985926, 0.14056736, 10.291361
269453627118230, 0.11964113, 5.2235317, 7.5625157, 0.45945024, 0.04529673, 9.180312
269453636757917, 0.2440679, 6.6831536, 7.647461, -0.63142395, -0.053985, 10.139336
269453646397605, 0.07776674, 5.460421, 7.475178, 0.24165583, -0.041701376, 9.254211
269453656037344, 0.0849452, 6.465407, 7.7611203, -0.35509968, -0.16596675, 10.094061
269453665677084, 0.09810573, 5.9497533, 7.7503524, 0.035420418, -0.07250899, 9.770908
269453675316771, 0.049052864, 6.046663, 7.9908314, 0.11639643, -0.10978353, 10.019596
269453684956459, 0.3062813, 6.439086, 7.9597244, -0.26058054, 0.06907302, 10.239149
269453694596146, 0.10887343, 5.5716877, 7.9633136, 0.45266676, 0.021986246, 9.708993
269453704235834, 0.39601216, 6.725028, 8.01117, -0.46200323, 0.11147785, 10.456376
269453713875521, 0.14955142, 5.3336015, 7.816155, 0.54339075, 0.084273696, 9.447728
269453723515209, 0.33260235, 6.7573314, 7.895118, -0.54033136, 0.037286103, 10.383241
269453733154896, 0.15194423, 5.4341, 7.6103725, 0.35928345, 0.042679906, 9.345553
269453742794584, 0.15314065, 6.521638, 7.798209, -0.37513876, -0.10908568, 10.159462
269453752434271, 0.06460621, 5.8396835, 7.7742805, 0.16061735, -0.09118205, 9.721698
269453762073959, -0.05742774, 6.038288, 8.002795, 0.16683388, -0.2182585, 10.02165
269453771713646, 0.20458634, 6.3696938, 7.9800634, -0.15342426, -0.017179966, 10.211388
269453781353334, 0.11365908, 5.6267223, 8.024331, 0.4647932, 0.019956648, 9.790117
269453790993073, 0.44985065, 6.707082, 8.085348, -0.39546394, 0.17141992, 10.505922
269453800632813, 0.18783657, 5.349155, 7.9800634, 0.6394005, 0.14002311, 9.58654
269453810272500, 0.4211368, 6.79442, 8.024331, -0.4837265, 0.107062936, 10.511229
269453819912188, 0.2416751, 5.419743, 7.716853, 0.43658257, 0.1439355, 9.42181
269453829551875, 0.31465617, 6.587441, 7.786245, -0.4349103, 0.013213575, 10.194591
269453839191563, 0.22013968, 5.800202, 7.5720873, 0.061132908, 0.032835066, 9.540572
269453848831250, 0.033499517, 6.1160545, 7.7946196, 0.002644062, -0.1823526, 9.906063
269453858470938, 0.1160519, 6.3086767, 7.719246, -0.2064662, -0.14346159, 9.966765
269453868110625, -0.06699903, 5.6327047, 7.7216387, 0.35553455, -0.2033714, 9.549231
269453877750313, 0.30508488, 6.7118673, 7.7551384, -0.52484417, -0.030600429, 10.247343
269453887390052, 0.096909314, 5.4125648, 7.7443705, 0.52089596, -0.011008859, 9.434462
269453897029792, 0.38763726, 6.8578296, 7.921439, -0.5414047, 0.043264747, 10.470638
269453906669480, 0.2440679, 5.4676, 7.813762, 0.49401522, 0.13565111, 9.526105
269453916309167, 0.36011982, 6.661618, 8.026724, -0.3157463, 0.05722308, 10.432268
269453925948855, 0.21655045, 5.697311, 7.7886376, 0.31522417, 0.0545128, 9.647112
269453935588542, -0.1052842, 6.096912, 7.9944205, 0.19749403, -0.31162834, 10.047791
269453945228230, 0.30149564, 6.428318, 7.745567, -0.28842592, 0.004219532, 10.066021
269453954867917, 0.22971097, 6.125626, 7.7671022, -0.015375137, -0.011740088, 9.894623
269453964507605, 0.26679972, 6.2033925, 7.7144604, -0.1146369, 0.004162967, 9.902172
269453974147344, 0.16869399, 6.135197, 7.6570325, -0.06650257, -0.0965333, 9.812518
269453983787084, 0.24526432, 6.0861444, 7.5900335, -0.08549118, -0.02039963, 9.731506
269453993426771, 0.4534399, 6.229714, 7.752745, -0.13375616, 0.168199, 9.953582
269454003066459, 0.5132605, 6.1447687, 7.9357963, 0.033854008, 0.2478534, 10.046686
269454012706146, 0.506082, 6.1387863, 7.962117, 0.060152054, 0.22264594, 10.063943
269454022345834, 0.43070808, 6.07418, 7.9836526, 0.1393981, 0.15366471, 10.038767
269454031985521, 0.34337005, 6.141179, 7.952546, 0.08453083, 0.05311972, 10.053111
269454041625209, 0.2440679, 6.141179, 7.8053875, 0.008204937, -0.05471039, 9.934521
269454051264948, 0.21535404, 6.131608, 7.6510506, -0.06795883, -0.084858924, 9.806618
269454060904688, 0.2009971, 6.1603217, 7.5673018, -0.13496256, -0.104465574, 9.758324
269454070544375, 0.13758731, 6.1675005, 7.6127653, -0.107857704, -0.16398004, 9.796563
269454080184063, 0.21894327, 6.1495543, 7.692925, -0.045767784, -0.07778606, 9.850782
269454089823750, 0.38644084, 6.1878395, 7.763513, -0.050061703, 0.087813914, 9.934818
269454099463438, 0.49052864, 6.1806607, 7.826923, -0.016530037, 0.18811253, 9.983298
269454109103125, 0.44985065, 6.1591253, 7.865208, 0.028077602, 0.1481888, 9.998797
269454118742865, 0.3481557, 6.1328044, 7.8628154, 0.057536125, 0.048620462, 9.9775095
269454128382605, 0.28115666, 6.1208405, 7.8592257, 0.07173061, -0.015068799, 9.965229
269454138022292, 0.18305093, 6.1244297, 7.877172, 0.09154701, -0.10963282, 9.978556
269454147661980, 0.1794617, 6.192625, 7.884351, 0.04360819, -0.117039144, 10.026377
269454157301667, 0.20697916, 6.1938214, 7.8113694, -0.005660534, -0.093951404, 9.970703
269454166941355, 0.3062813, 6.186643, 7.813762, -0.010502338, 0.008467644, 9.971111
269454176581042, 0.3804588, 6.161518, 7.798209, -0.007780552, 0.084302366, 9.94555
269454186220782, 0.44745782, 6.1531434, 7.834101, 0.011599064, 0.15392631, 9.970492
269454195860521, 0.42711884, 6.117251, 7.8149586, 0.032271862, 0.13425708, 9.932657
269454205500209, 0.39601216, 6.0753765, 7.7874413, 0.05418396, 0.100554794, 9.88424
269454215139896, 0.31944183, 6.0825553, 7.704889, 0.0076088905, 0.017180294, 9.821634
269454224779584, 0.25244278, 6.1651077, 7.6390862, -0.08710861, -0.065546095, 9.819168
269454234419271, 0.18185452, 6.178268, 7.6163545, -0.101606846, -0.13796997, 9.807322
269454244059011, 0.19501504, 6.222535, 7.6462646, -0.11998701, -0.1282183, 9.858624
269454253698750, 0.22612174, 6.2488565, 7.757531, -0.07565546, -0.094103515, 9.963135
269454263338438, 0.23449662, 6.1914287, 7.879565, 0.03955841, -0.06895113, 10.023472
269454272978125, 0.28594232, 6.1675005, 7.9501534, 0.092204094, -0.009836853, 10.065594
269454282617813, 0.37806597, 6.134001, 7.948957, 0.103009224, 0.086885184, 10.046723
269454292257500, 0.42951167, 6.1244297, 7.8903327, 0.06554127, 0.13500711, 9.996397
269454301897240, 0.41994038, 6.122037, 7.832905, 0.034502983, 0.121287555, 9.949583
269454311536980, 0.37208393, 6.0861444, 7.6869426, -0.018482208, 0.06817514, 9.811406
269454321176667, 0.3074777, 6.087341, 7.576873, -0.06924105, -0.0013236403, 9.723912
269454330816355, 0.23688944, 6.1531434, 7.521838, -0.13976955, -0.08194536, 9.71952
269454340456042, 0.20338993, 6.157929, 7.550552, -0.1204443, -0.11316061, 9.743971
269454350095730, 0.22013968, 6.195018, 7.5792656, -0.1325407, -0.09653145, 9.7900505
269454359735469, 0.2536392, 6.222535, 7.690532, -0.090381145, -0.056815803, 9.89531
269454369375209, 0.31944183, 6.2057858, 7.7551384, -0.04906988, 0.017552733, 9.937468
269454379014896, 0.40558344, 6.1902323, 7.8089767, -0.019741058, 0.10644266, 9.972555
269454388654584, 0.49172506, 6.1914287, 7.880761, 0.011088371, 0.19620425, 10.032118
269454398294271, 0.41635114, 6.13759, 7.958528, 0.10907936, 0.12982431, 10.057474
269454407934011, 0.38285163, 6.1292152, 7.995617, 0.13946104, 0.09668505, 10.080423
269454417573750, 0.31226337, 6.148358, 7.9357963, 0.09148884, 0.016750276, 10.043308
269454427213438, 0.22492532, 6.1124654, 7.885547, 0.10009432, -0.0658986, 9.978994
269454436853125, 0.16031912, 6.1268225, 7.8520474, 0.07863474, -0.13387245, 9.959628
269454446492813, 0.13519448, 6.1471615, 7.8281193, 0.05101347, -0.16069764, 9.952733
269454456132552, 0.14476576, 6.1304116, 7.8592257, 0.0815649, -0.13919687, 9.96716
269454465772292, 0.20219351, 6.1471615, 7.88794, 0.076890945, -0.08244026, 10.001768
269454475411980, 0.2739782, 6.189036, 7.873583, 0.022338867, -0.017479122, 10.018569
269454485051667, 0.34217364, 6.1974106, 7.813762, -0.027079105, 0.044664055, 9.978834
269454494691355, 0.3505485, 6.222535, 7.737192, -0.094977856, 0.044193894, 9.934587
269454504331094, 0.36131623, 6.2117677, 7.6331043, -0.14832544, 0.047470897, 9.846656
269454513970834, 0.32422748, 6.1639113, 7.645068, -0.09087324, 0.016913682, 9.825347
269454523610521, 0.30269206, 6.142376, 7.6666036, -0.05809927, -2.6908517E-4, 9.828216
269454533250209, 0.30149564, 6.1232333, 7.719246, -0.010507107, 0.0013788342, 9.857562
269454542889896, 0.31465617, 6.088537, 7.7671022, 0.042727947, 0.019705832, 9.873953
269454552529636, 0.32303107, 6.101698, 7.8281193, 0.06639528, 0.029845387, 9.930218
269454562169375, 0.3290131, 6.1675005, 7.8664045, 0.03840828, 0.030243903, 10.001211
269454571809063, 0.35174492, 6.1878395, 7.8460655, 0.005563736, 0.049631983, 9.998566
269454581448750, 0.28235307, 6.1806607, 7.8257265, 0.005821228, -0.018366963, 9.976067
269454591088490, 0.2536392, 6.202196, 7.818548, -0.012117863, -0.04948011, 9.982919
269454600728230, 0.25004998, 6.1938214, 7.812566, -0.008224487, -0.0510675, 9.972937
269454610367917, 0.28235307, 6.189036, 7.7850485, -0.023134708, -0.017337084, 9.949373
269454620007605, 0.29312077, 6.1710896, 7.7383885, -0.038624763, -0.006463915, 9.901989
269454629647292, 0.31944183, 6.1639113, 7.7240314, -0.044339657, 0.019355953, 9.887073
269454639287032, 0.29790643, 6.1387863, 7.7814593, 0.013030052, 0.003077209, 9.915865
269454648926771, 0.29790643, 6.134001, 7.771888, 0.010734081, 0.0016181171, 9.905395
269454658566459, 0.29910284, 6.1064835, 7.8017983, 0.04915285, 0.0066982806, 9.911821
269454668206146, 0.3074777, 6.1399827, 7.765906, -0.0011906624, 0.007526487, 9.904704
269454677845886, 0.3290131, 6.1591253, 7.7419777, -0.036267757, 0.023649752, 9.898454
269454687485625, 0.31944183, 6.1914287, 7.756335, -0.052485466, 0.010821253, 9.929436
269454697125313, 0.29192436, 6.192625, 7.7994056, -0.023347378, -0.014718413, 9.963122
269454706765000, 0.25244278, 6.1675005, 7.776674, -0.013606548, -0.052090585, 9.928521
269454716404740, 0.30987054, 6.2440705, 7.7647095, -0.08992958, -0.003319651, 9.968302
269454726044480, 0.38524446, 6.215357, 7.749156, -0.086443424, 0.07430422, 9.940599
269454735684167, 0.25004998, 6.0957155, 7.751549, 0.024559498, -0.04530281, 9.864284
269454745323855, 0.22851457, 6.13759, 7.7144604, -0.028406143, -0.07331079, 9.860473
269454754963594, 0.3182454, 6.1005015, 7.7706914, 0.0209136, 0.024817824, 9.884332
269454764603334, 0.42711884, 6.1639113, 7.7946196, -0.029334068, 0.12545455, 9.945639
269454774243021, 0.48933223, 6.1363935, 7.8496547, 0.017280579, 0.19089931, 9.973721
269454783882709, 0.35533416, 6.1184473, 7.8783684, 0.062346935, 0.06012404, 9.981125
269454793522448, 0.18664017, 6.076573, 7.7994056, 0.065702915, -0.10492438, 9.888123
269454803162188, 0.26081768, 6.192625, 7.722835, -0.08112335, -0.051997244, 9.901997
269454812801875, 0.28594232, 6.175875, 7.745567, -0.061767578, -0.023136318, 9.91023
269454822441563, 0.3361916, 6.2213387, 7.629515, -0.17562819, 0.013025969, 9.848683
269454832081302, 0.32422748, 6.1627145, 7.726424, -0.07413578, 0.009136558, 9.8881855
269454841721042, 0.24885355, 6.10768, 7.836494, 0.0416584, -0.055646837, 9.938384
269454851360730, 0.26081768, 6.0897336, 7.905886, 0.096446514, -0.03754732, 9.9822445
269454861000417, 0.31226337, 6.067002, 7.945368, 0.1253829, 0.014796317, 10.000946
269454870640157, 0.40917268, 6.1268225, 7.9369926, 0.055577278, 0.09918216, 10.034357
269454880279896, 0.25124636, 5.962914, 7.9764743, 0.22081614, -0.039737165, 9.959581
269454889919584, 0.23449662, 6.0717874, 7.9704924, 0.13422775, -0.070816964, 10.021341
269454899559271, 0.2440679, 6.1292152, 7.932207, 0.06124115, -0.06885967, 10.026877
269454909199011, 0.26919255, 6.134001, 7.879565, 0.02050066, -0.045726836, 9.989168
269454918838750, 0.2428715, 6.1304116, 7.826923, -0.0049791336, -0.072237045, 9.944668