timestamp_acc,device_acc_x,device_acc_y,device_acc_z,earth_acc_x,earth_acc_y,earth_acc_z
97974102808963, 0.2847459, 6.5754766, 7.405786, -0.0080497265, 0.03702259, 9.907684
97974112448650, 0.30508488, 6.5718875, 7.4129643, 0.009625196, 0.0236125, 9.911316
97974122088442, 0.33140594, 6.579066, 7.416554, 0.035318494, 0.017665386, 9.919559
97974131728130, 0.3290131, 6.5659056, 7.463214, 0.019120097, -0.018793106, 9.945764
97974141367921, 0.31585258, 6.5455666, 7.489535, -0.0036988258, -0.04301834, 9.951656
97974151007609, 0.2955136, 6.5479593, 7.489535, -0.022116184, -0.033319473, 9.952621
97974160647400, 0.3074777, 6.558727, 7.4979095, -0.010047555, -0.03393507, 9.966385
97974170287088, 0.29790643, 6.558727, 7.4979095, -0.019912004, -0.030494213, 9.966091
97974179926775, 0.32422748, 6.5694947, 7.472785, 0.013747811, -0.016553879, 9.955173
97974189566567, 0.2883351, 6.550352, 7.4452677, -0.018750787, -0.0040197372, 9.920782
97974199206255, 0.28713873, 6.5491557, 7.3579297, 0.0010989904, 0.04931307, 9.854471
97974208846046, 0.27517462, 6.5575304, 7.2957163, 0.0059458017, 0.09289503, 9.813038
97974218485734, 0.29790643, 6.5515485, 7.30768, 0.02308786, 0.0737381, 9.818745
97974228125421, 0.30149564, 6.567102, 7.322037, 0.0250988, 0.071671486, 9.83993
97974237765213, 0.30987054, 6.562316, 7.3782687, 0.018471837, 0.030813694, 9.8791485
97974247404900, 0.32303107, 6.5551376, 7.4069824, 0.022323728, 0.0038189888, 9.896315
97974257044692, 0.34456646, 6.558727, 7.442875, 0.036225677, -0.019445896, 9.926244
97974266684380, 0.3290131, 6.559923, 7.4859457, 0.012066364, -0.038945198, 9.958842
97974276324067, 0.28594232, 6.546763, 7.501499, -0.034714103, -0.04382515, 9.960485
97974285963859, 0.2644069, 6.5551376, 7.4919276, -0.050723672, -0.024977684, 9.958189
97974295603546, 0.25842485, 6.5742803, 7.487142, -0.051713943, -0.006330967, 9.9670725
97974305243338, 0.30029923, 6.5647087, 7.4416785, -0.0023766756, 0.0034732819, 9.927947
97974314883025, 0.31226337, 6.5455666, 7.436893, 0.0062247515, -0.010893822, 9.912073
97974324522713, 0.30029923, 6.5515485, 7.4237323, -0.0012824535, 0.0047183037, 9.905794
97974334162505, 0.317049, 6.5551376, 7.4333034, 0.012793541, -0.0042271614, 9.9158535
97974343802192, 0.3062813, 6.556334, 7.4213395, 0.005201459, 0.0067653656, 9.907349
97974353441984, 0.31585258, 6.5539412, 7.389036, 0.02112925, 0.02107048, 9.881845
97974363081671, 0.31106696, 6.5539412, 7.3782687, 0.018883824, 0.027614594, 9.873632
97974372721359, 0.2727818, 6.5539412, 7.3926253, -0.020774126, 0.03152132, 9.883221
97974382361150, 0.29910284, 6.5575304, 7.4153576, -0.0011571646, 0.009821892, 9.903439
97974392000838, 0.32662028, 6.5814586, 7.432107, 0.026181102, 0.007688999, 9.932661
97974401640630, 0.32183465, 6.5814586, 7.4309106, 0.021420836, 0.00961113, 9.93162
97974411280317, 0.3062813, 6.5647087, 7.409375, 0.008139849, 0.015935898, 9.903925
97974420920109, 0.29790643, 6.5611196, 7.4033933, 8.3339214E-4, 0.019787312, 9.8968115
97974430559796, 0.2883351, 6.5515485, 7.3950186, -0.008434057, 0.021444798, 9.88391
97974440199484, 0.28594232, 6.533602, 7.405786, -0.017205238, 0.0028190613, 9.880035
97974449839275, 0.29312077, 6.550352, 7.38784, -0.0025538206, 0.024126053, 9.877885
97974459478963, 0.31345975, 6.5718875, 7.373483, 0.024883628, 0.041811466, 9.881996
97974469118755, 0.32422748, 6.5659056, 7.389036, 0.029588938, 0.025779724, 9.890023
97974478758442, 0.32662028, 6.5611196, 7.4177504, 0.024141312, 0.0051321983, 9.908451
97974488398130, 0.30508488, 6.5850477, 7.460821, -0.001011014, 0.0024356842, 9.955893
97974498037921, 0.28594232, 6.5659056, 7.501499, -0.032708406, -0.0289464, 9.973138
97974507677609, 0.30269206, 6.5647087, 7.5266237, -0.02273202, -0.049774647, 9.991701
97974517317400, 0.30867413, 6.550352, 7.507481, -0.015140295, -0.049654007, 9.968046
97974526957088, 0.32422748, 6.5694947, 7.442875, 0.019325256, -0.0018239021, 9.932743
97974536596775, 0.317049, 6.567102, 7.351948, 0.033470392, 0.053431034, 9.862783
97974546236567, 0.31106696, 6.5479593, 7.300502, 0.03648615, 0.07315874, 9.811381
97974555876255, 0.30987054, 6.5575304, 7.308877, 0.03500676, 0.073969364, 9.823961
97974565516046, 0.33379877, 6.546763, 7.3567333, 0.04206121, 0.02868557, 9.853449
97974575155734, 0.31465617, 6.546763, 7.4141607, 0.009271979, 0.003139019, 9.895897
97974584795421, 0.2727818, 6.532406, 7.4883385, -0.051386118, -0.036402225, 9.940723
97974594435213, 0.23928227, 6.515656, 7.476374, -0.08241677, -0.028687954, 9.919656
97974604074900, 0.28235307, 6.5288167, 7.450053, -0.031408906, -0.016804695, 9.909956
97974613714692, 0.3278167, 6.5515485, 7.420143, 0.023948193, 0.0026621819, 9.903951
97974623354380, 0.36251262, 6.5659056, 7.409375, 0.06130755, 0.0075449944, 9.90644
97974632994067, 0.32542387, 6.5754766, 7.429714, 0.023789048, 0.013950825, 9.9268675
97974642633859, 0.31585258, 6.5898337, 7.428518, 0.016531825, 0.027331352, 9.935164
97974652273546, 0.29910284, 6.5742803, 7.4775705, -0.015175939, -0.007971764, 9.9611435
97974661913338, 0.30987054, 6.5611196, 7.499106, -0.0138783455, -0.034140587, 9.968931
97974671553025, 0.32063824, 6.5455666, 7.507481, -0.009339333, -0.05383587, 9.965267
97974681192713, 0.33020952, 6.5431733, 7.5026956, -5.2547455E-4, -0.05586672, 9.960397
97974690832505, 0.28953153, 6.535995, 7.457232, -0.02976811, -0.02011919, 9.920286
97974700472192, 0.28235307, 6.556334, 7.3746796, -0.010431886, 0.04721117, 9.871616
97974710111984, 0.2943172, 6.556334, 7.3256264, 0.012281895, 0.071196556, 9.835229
97974719751671, 0.31226337, 6.5647087, 7.274181, 0.042966485, 0.100485325, 9.802789
97974729391359, 0.31345975, 6.556334, 7.2658057, 0.042585492, 0.097023964, 9.791039
97974739031150, 0.30149564, 6.559923, 7.292127, 0.024392128, 0.08752203, 9.812765
97974748670838, 0.27876383, 6.5479593, 7.372287, -0.018857837, 0.037412167, 9.864195
97974758310630, 0.31585258, 6.5431733, 7.4273214, 0.0019893646, -0.012168884, 9.903425
97974767950317, 0.32542387, 6.532406, 7.4356966, 0.0066964626, -0.026956081, 9.902882
97974777590005, 0.33738798, 6.5479593, 7.436893, 0.020897865, -0.01763153, 9.914446
97974787229796, 0.3182454, 6.541977, 7.483553, -0.009805322, -0.043661118, 9.944863
97974796869484, 0.2835495, 6.5407805, 7.489535, -0.0440979, -0.03586006, 9.947468
97974806509275, 0.2644069, 6.559923, 7.4883385, -0.057530165, -0.015137196, 9.958623
97974816148963, 0.2847459, 6.5718875, 7.4656067, -0.02908945, 0.0012235641, 9.950137
97974825788650, 0.31106696, 6.579066, 7.446464, 0.0030653477, 0.009334564, 9.941359
97974835428442, 0.32422748, 6.600601, 7.448857, 0.019443393, 0.017151356, 9.957805
97974845068130, 0.3397808, 6.576673, 7.4536424, 0.026936293, -0.008210659, 9.946059
97974854707921, 0.3361916, 6.5718875, 7.4584284, 0.01974237, -0.014192581, 9.946373
97974864347609, 0.3182454, 6.5682983, 7.4380894, 0.006918788, 0.0016942024, 9.928192
97974873987296, 0.30867413, 6.5647087, 7.4105716, 0.0030626059, 0.017109394, 9.904896
97974883627088, 0.29312077, 6.533602, 7.3770723, -0.0106419325, 0.020655155, 9.858729
97974893266775, 0.28594232, 6.5371914, 7.335198, -0.0064183474, 0.049883366, 9.829508
97974902906463, 0.27876383, 6.538388, 7.32443, -0.010318637, 0.05849409, 9.822014
97974912546255, 0.27517462, 6.532406, 7.3268228, -0.015462995, 0.052535534, 9.819744
97974922185942, 0.30388847, 6.5407805, 7.328019, 0.0130239725, 0.04749775, 9.8270855
97974931825630, 0.3469593, 6.556334, 7.375876, 0.04694593, 0.014770508, 9.874564
97974941465421, 0.32542387, 6.5575304, 7.3866434, 0.024543166, 0.01544714, 9.882751
97974951105109, 0.28713873, 6.539584, 7.393822, -0.017404795, 0.010234833, 9.875061
97974960744900, 0.28115666, 6.552745, 7.3806615, -0.016082168, 0.031141281, 9.873726
97974970384588, 0.2955136, 6.5539412, 7.4129643, -0.008930087, 0.008428574, 9.89916
97974980024275, 0.27876383, 6.5551376, 7.4273214, -0.027826905, 0.0055122375, 9.910189
97974989664067, 0.31465617, 6.582655, 7.4656067, 0.0037083626, -0.0058374405, 9.958194
97974999303755, 0.33499518, 6.602994, 7.5122666, 0.01646018, -0.026716232, 10.007245
97975008943442, 0.34097722, 6.579066, 7.5529447, 0.0073007345, -0.06878376, 10.022104
97975018583234, 0.34337005, 6.573084, 7.548159, 0.009120941, -0.06916666, 10.014648
97975028222921, 0.32542387, 6.562316, 7.5230346, -0.0037611723, -0.05406809, 9.988144
97975037862609, 0.31345975, 6.5515485, 7.463214, -0.0029940605, -0.022628784, 9.935799
97975047502400, 0.29671, 6.5371914, 7.3806615, -0.00332582, 0.021017551, 9.863905
97975057142088, 0.28953153, 6.5312095, 7.314859, 0.003283739, 0.059845924, 9.810408
97975066781880, 0.28713873, 6.5276203, 7.280163, 0.0056296587, 0.07446051, 9.781998
97975076421567, 0.29671, 6.533602, 7.283752, 0.0155694485, 0.07361221, 9.788941
97975086061255, 0.30029923, 6.5479593, 7.3064837, 0.015322566, 0.0661459, 9.815601
97975095701046, 0.30029923, 6.5575304, 7.344769, 0.008743644, 0.049160004, 9.850611
97975105340734, 0.29192436, 6.5539412, 7.3974113, -0.011941671, 0.01660204, 9.887398
97975114980421, 0.31345975, 6.5922265, 7.4273214, 0.011737585, 0.021350384, 9.935804
97975124620213, 0.29790643, 6.5659056, 7.4679995, -0.01814282, -0.017873287, 9.948378
97975134259900, 0.30388847, 6.580262, 7.4883385, -0.013872504, -0.021129608, 9.973304
97975143899588, 0.24885355, 6.1507506, 7.3986077, -0.1418978, -0.2529025, 9.620237
97975153539380, 0.40438703, 7.1820574, 7.568498, 0.20028877, 0.32710028, 10.434584
97975163179067, 0.23569304, 5.85763, 7.26102, -0.18632853, -0.36927748, 9.32302
97975172818755, 0.3493521, 7.1880393, 7.5792656, 0.15288234, 0.34564066, 10.44473
97975182458546, 0.33738798, 6.0622163, 7.251449, -0.04818213, -0.24952698, 9.45427
97975192098234, 0.2428715, 6.847062, 7.609176, -0.03392124, 0.120681286, 10.238413
97975201737921, 0.39840496, 6.509674, 7.3064837, 0.10364032, 0.00909996, 9.793287
97975211377713, 0.18305093, 6.4091754, 7.4333034, -0.15625632, -0.06044817, 9.81514
97975221017400, 0.4211368, 6.971489, 7.375876, 0.22787035, 0.28031301, 10.151457
97975230657088, 0.16749759, 5.9521465, 7.3746796, -0.2683984, -0.3446064, 9.468432
97975240296880, 0.40079778, 7.257431, 7.5314093, 0.24290013, 0.39535093, 10.4564705
97975249936567, 0.25842485, 5.828916, 7.210771, -0.16771519, -0.3657174, 9.266952
97975259576255, 0.3684947, 7.2287173, 7.519445, 0.19735944, 0.39961433, 10.427536
97975269216046, 0.3361916, 6.0418773, 7.1808605, -0.030266523, -0.22472143, 9.387793
97975278855734, 0.2632105, 6.9224358, 7.568498, 0.0046087503, 0.18310547, 10.258557
97975288495421, 0.38524446, 6.445068, 7.283752, 0.08023834, -0.017781734, 9.73312
97975298135213, 0.16869399, 6.4031935, 7.4452677, -0.17135918, -0.0803709, 9.819651
97975307774900, 0.39601216, 6.9332037, 7.396215, 0.1746105, 0.26139355, 10.140577
97975317414588, 0.14237295, 5.959325, 7.448857, -0.29384613, -0.38735247, 9.528006
97975327054380, 0.38763726, 7.2358956, 7.6666036, 0.17238498, 0.3070588, 10.543304
97975336694067, 0.24765715, 5.8277197, 7.351948, -0.20244288, -0.4586382, 9.371418
97975346333755, 0.38763726, 7.2670026, 7.5625157, 0.21246362, 0.3901987, 10.4858885
97975355973442, 0.31226337, 6.017949, 7.166504, -0.057760954, -0.22178364, 9.360527
97975365613234, 0.23688944, 6.9858456, 7.5349984, 0.010710835, 0.25734377, 10.27463
97975375252921, 0.38165522, 6.424729, 7.198807, 0.096380234, 0.015379906, 9.655884
97975384892609, 0.19262223, 6.4797635, 7.408179, -0.12178087, -0.006383419, 9.843306
97975394532400, 0.43070808, 6.873383, 7.2993054, 0.2322061, 0.24965811, 10.029583
97975404172088, 0.15194423, 5.994021, 7.3543406, -0.26894414, -0.2990985, 9.480291
97975413811775, 0.41515473, 7.2095747, 7.5493555, 0.23209, 0.3394928, 10.43906
97975423451463, 0.20697916, 5.7990055, 7.312466, -0.2538576, -0.42824793, 9.321781
97975433091255, 0.35294133, 7.2586274, 7.6127653, 0.16559696, 0.3639412, 10.516964
97975442730942, 0.30149564, 5.9581285, 7.2586274, -0.103384495, -0.31579924, 9.389752
97975452370630, 0.2883351, 7.02772, 7.6402826, 0.043759823, 0.20934916, 10.382686
97975462010421, 0.40797627, 6.3625154, 7.353144, 0.073343635, -0.12087011, 9.731228
97975471650109, 0.21655045, 6.532406, 7.542177, -0.11498177, -0.059233665, 9.979326
97975481289796, 0.42592242, 6.8374906, 7.32443, 0.19907916, 0.23135233, 10.024309
97975490929484, 0.17228323, 6.0526447, 7.331609, -0.21427655, -0.26165867, 9.502753
97975500569275, 0.39960137, 7.173682, 7.483553, 0.20282507, 0.38636875, 10.365065
97975510208963, 0.16390835, 5.7954164, 7.2442703, -0.25291777, -0.38729382, 9.267105
97975519848650, 0.33140594, 7.2299137, 7.5146594, 0.14488494, 0.4288807, 10.42337
97975529488442, 0.2847459, 5.879165, 7.170093, -0.10286522, -0.32158136, 9.270485
97975539128130, 0.3074777, 7.0348988, 7.6019974, 0.06710124, 0.24273205, 10.359117
97975548767817, 0.40558344, 6.306284, 7.3196445, 0.06511307, -0.13820696, 9.668898
97975558407505, 0.22253251, 6.587441, 7.5792656, -0.10679448, -0.03891611, 10.043716
97975568047296, 0.43908295, 6.815955, 7.365108, 0.19694841, 0.19394779, 10.040839
97975577686984, 0.17108682, 6.1387863, 7.450053, -0.22852409, -0.25351, 9.648874
97975587326671, 0.42951167, 7.18445, 7.587641, 0.21749568, 0.32190084, 10.450941
97975596966359, 0.20458634, 5.861219, 7.3974113, -0.2497288, -0.43497086, 9.426869
97975606606150, 0.3912265, 7.2909307, 7.6019974, 0.2088207, 0.40560293, 10.530574
97975616245838, 0.27158538, 5.8624153, 7.183254, -0.12898123, -0.31954098, 9.269415
97975625885525, 0.27158538, 7.0301127, 7.536195, 0.049227476, 0.2943673, 10.305407
97975635525317, 0.33499518, 6.2237315, 7.225128, -3.5429E-4, -0.117397785, 9.5412655
97975645165005, 0.20937198, 6.619744, 7.5254273, -0.10025215, 0.022231102, 10.024288
97975654804692, 0.44027936, 6.6999035, 7.288538, 0.19513631, 0.14855671, 9.906826
97975664444380, 0.17228323, 6.1244297, 7.3663044, -0.21570277, -0.21919537, 9.576334
97975674084171, 0.44027936, 7.125826, 7.500303, 0.24115753, 0.3185606, 10.347277
97975683723859, 0.19740787, 5.855237, 7.405786, -0.26331258, -0.44716406, 9.428635
97975693363546, 0.39481574, 7.301698, 7.6570325, 0.20446193, 0.3594942, 10.579687
97975703003234, 0.28713873, 5.866005, 7.288538, -0.14600909, -0.39000082, 9.351033
97975712643025, 0.32542387, 7.1413794, 7.6606216, 0.09953129, 0.27565765, 10.473988
97975722282713, 0.35413775, 6.2309103, 7.3375907, -0.0102210045, -0.19008446, 9.630871
97975731922400, 0.20338993, 6.7011, 7.611569, -0.10789621, 0.028469086, 10.1424675
97975741562088, 0.41635114, 6.6676, 7.308877, 0.15860832, 0.12018061, 9.900017
97975751201775, 0.18424734, 6.175875, 7.361519, -0.18758583, -0.19025278, 9.607079
97975760841567, 0.44506502, 7.09113, 7.3902326, 0.26886642, 0.35745955, 10.241957
97975770481255, 0.17467605, 5.8265233, 7.259824, -0.25034857, -0.37164497, 9.299631
97975780120942, 0.36011982, 7.2562346, 7.463214, 0.20668542, 0.45134258, 10.403644
97975789760630, 0.25124636, 5.820541, 7.103094, -0.1555152, -0.30863333, 9.180214
97975799400421, 0.3062813, 7.1365933, 7.5254273, 0.115669966, 0.34350252, 10.369448
97975809040109, 0.33020952, 6.128019, 7.222735, -0.035226345, -0.18745804, 9.475927
97975818679796, 0.21774685, 6.745367, 7.600801, -0.08193147, 0.05863905, 10.164125
97975828319484, 0.4031906, 6.658029, 7.348358, 0.13466918, 0.082864285, 9.922969
97975837959275, 0.18783657, 6.2691956, 7.460821, -0.18911958, -0.18513823, 9.7433
97975847598963, 0.47377887, 7.1162543, 7.533802, 0.26959515, 0.27184248, 10.367119
97975857238650, 0.21415763, 5.9342003, 7.4679995, -0.25070405, -0.4380393, 9.527691
97975866878338, 0.42831525, 7.292127, 7.6809607, 0.22349143, 0.3211522, 10.592575
97975876518025, 0.2656033, 5.8432727, 7.2705917, -0.17267, -0.39265203, 9.321581
97975886157817, 0.31345975, 7.1820574, 7.578069, 0.11966777, 0.3503394, 10.438883
97975895797505, 0.29312077, 6.0861444, 7.223932, -0.080946326, -0.21001196, 9.447838
97975905437192, 0.19740787, 6.771688, 7.5661054, -0.08762038, 0.10236788, 10.154926
97975915076880, 0.3900301, 6.5491557, 7.237092, 0.12183523, 0.07631874, 9.767211
97975924716671, 0.18424734, 6.2883377, 7.3160553, -0.15739393, -0.08699608, 9.647252
97975934356359, 0.45224348, 7.015756, 7.3112698, 0.27416635, 0.33943462, 10.133588
97975943996046, 0.20338993, 5.925825, 7.2969127, -0.22562015, -0.33366537, 9.393585
97975953635734, 0.424726, 7.2789664, 7.5493555, 0.25031364, 0.39428616, 10.485152
97975963275421, 0.2656033, 5.8217373, 7.24786, -0.1763959, -0.39904356, 9.290011
97975972915213, 0.35294133, 7.223932, 7.600801, 0.15014803, 0.35434723, 10.484934
97975982554900, 0.32183465, 6.053841, 7.2897344, -0.078267574, -0.28306103, 9.476632
97975992194588, 0.21894327, 6.849455, 7.68455, -0.08180499, 0.07967615, 10.295739
97976001834275, 0.36370903, 6.5168524, 7.361519, 0.055579543, -0.0078969, 9.838215
97976011473963, 0.16031912, 6.3696938, 7.4679995, -0.19633651, -0.11041355, 9.814224
97976021113755, 0.4546363, 6.971489, 7.361519, 0.25343454, 0.27737522, 10.14195
97976030753442, 0.19860429, 5.928218, 7.280163, -0.22270012, -0.3204007, 9.382524
97976040393130, 0.4223332, 7.2646093, 7.4979095, 0.26022553, 0.41090298, 10.437195
97976050032817, 0.25842485, 5.8097734, 7.172486, -0.17798626, -0.36462092, 9.224976
97976059672505, 0.37208393, 7.2442703, 7.5062847, 0.20026147, 0.4034934, 10.428773
97976069312296, 0.34217364, 6.0215383, 7.2215385, -0.050163746, -0.26983404, 9.404856
97976078951984, 0.23330021, 6.927222, 7.7012997, -0.056848526, 0.1123147, 10.36026
97976088591671, 0.3481557, 6.4666033, 7.4069824, 0.013385415, -0.06902599, 9.838528
97976098231359, 0.16031912, 6.4127645, 7.5385876, -0.20795727, -0.12175131, 9.895531
97976107871046, 0.43908295, 6.9296145, 7.399804, 0.21776688, 0.22925043, 10.142459
97976117510838, 0.19980069, 5.977271, 7.3842506, -0.24261117, -0.34867907, 9.492861
97976127150525, 0.42592242, 7.233503, 7.576873, 0.23883581, 0.34402752, 10.475617
97976136790213, 0.24646074, 5.802595, 7.2957163, -0.2209959, -0.43512487, 9.3123665
97976146429900, 0.37328035, 7.2442703, 7.5828547, 0.19799995, 0.36401606, 10.48555
97976156069588, 0.3074777, 5.992824, 7.200003, -0.08874357, -0.25804472, 9.368782
97976165709275, 0.23808585, 6.9583282, 7.5960155, -0.012366772, 0.20311117, 10.302091
97976175349067, 0.3900301, 6.4067826, 7.2562346, 0.07748985, -0.03946066, 9.687329
97976184988755, 0.20697916, 6.4845495, 7.4273214, -0.11873317, -0.023735523, 9.861171
97976194628442, 0.424726, 6.8865438, 7.3064837, 0.20809054, 0.2638626, 10.043737
97976204268130, 0.17826529, 6.02752, 7.3627152, -0.23481405, -0.3085327, 9.509051
97976213907817, 0.44865423, 7.2418776, 7.568498, 0.249179, 0.34869576, 10.475904
97976223547609, 0.23090738, 5.8097734, 7.3256264, -0.22135901, -0.46011782, 9.338676
97976233187296, 0.35533416, 7.2562346, 7.618747, 0.14559114, 0.35389185, 10.520365
97976242826984, 0.28594232, 5.933004, 7.2382884, -0.12386429, -0.32537746, 9.357024
97976252466671, 0.2656033, 6.9906316, 7.629515, 0.0038894415, 0.18806887, 10.349567
97976262106359, 0.3696911, 6.3326054, 7.3268228, 0.02491653, -0.1245842, 9.690447
97976271746046, 0.20937198, 6.5371914, 7.4883385, -0.11810207, -0.028196335, 9.941792
97976281385838, 0.47258246, 6.836294, 7.239485, 0.2669623, 0.24221468, 9.961851
97976291025525, 0.20697916, 6.068198, 7.2466636, -0.17101014, -0.21250296, 9.450164
97976300665213, 0.4223332, 7.2119675, 7.416554, 0.25258005, 0.4178548, 10.342037
97976310304900, 0.18424734, 5.831309, 7.2358956, -0.24973369, -0.3762722, 9.283983
97976319944588, 0.32063824, 7.274181, 7.530213, 0.1417253, 0.42223358, 10.465289
97976329584275, 0.27996024, 5.9042897, 7.2263246, -0.1301099, -0.34658766, 9.328545
97976339224067, 0.3074777, 7.0468626, 7.661818, 0.047788024, 0.19350529, 10.412329
97976348863755, 0.3792624, 6.3086767, 7.381858, 0.0123775005, -0.18443823, 9.716013
97976358503442, 0.2009971, 6.6101727, 7.6127653, -0.14129639, -0.048755646, 10.082987
97976368143130, 0.4426722, 6.808777, 7.389036, 0.19189334, 0.14579439, 10.054609
97976377782817, 0.20219351, 6.131608, 7.422536, -0.21249056, -0.26549578, 9.623715
97976387422505, 0.44865423, 7.194021, 7.536195, 0.25294065, 0.32208872, 10.420258
97976397062296, 0.20219351, 5.849255, 7.3579297, -0.27018702, -0.43191242, 9.387985
97976406701984, 0.37567315, 7.2909307, 7.5637126, 0.21346998, 0.39769506, 10.502609
97976416341671, 0.276371, 5.8887367, 7.133004, -0.13600326, -0.29505682, 9.248125
97976425981359, 0.28235307, 7.0636125, 7.479964, 0.08535504, 0.31986952, 10.286623
97976435621046, 0.36131623, 6.235696, 7.149754, 0.03416741, -0.090157986, 9.493374
97976445260734, 0.22612174, 6.6460648, 7.432107, -0.06581199, 0.069509506, 9.97238
97976454900525, 0.42592242, 6.7058854, 7.225128, 0.19005442, 0.16815996, 9.863489
97976464540213, 0.1591227, 6.1328044, 7.3256264, -0.22667754, -0.20196438, 9.550352
97976474179900, 0.4223332, 7.1389866, 7.493124, 0.22815275, 0.30784845, 10.351017
97976483819588, 0.19621146, 5.871987, 7.396215, -0.27813375, -0.4345708, 9.431676
97976493459275, 0.37686956, 7.308877, 7.6773715, 0.1881082, 0.3452773, 10.599488
97976503098963, 0.28594232, 5.889933, 7.331609, -0.17703545, -0.41188335, 9.398115
97976512738755, 0.31944183, 7.186843, 7.7300134, 0.08605337, 0.24459505, 10.556448
97976522378442, 0.38883367, 6.245267, 7.4033933, -0.0062111616, -0.24226522, 9.690512
97976532018130, 0.2213361, 6.71426, 7.668997, -0.111077905, -0.00938797, 10.194674
97976541657817, 0.4103691, 6.6795645, 7.3639116, 0.13562143, 0.08365154, 9.949211
97976551297505, 0.148355, 6.175875, 7.408179, -0.24329317, -0.20924568, 9.640622
97976560937192, 0.4139583, 7.070791, 7.416554, 0.2214942, 0.3255973, 10.247812
97976570576880, 0.1698904, 5.834898, 7.26102, -0.26076615, -0.37468338, 9.305317
97976580216671, 0.39601216, 7.263413, 7.487142, 0.23320425, 0.42521524, 10.427662
97976589856359, 0.27876383, 5.832505, 7.111469, -0.123202085, -0.32050085, 9.195158
97976599496046, 0.3397808, 7.153343, 7.4787674, 0.15705895, 0.3619666, 10.347077
97976609135734, 0.38404804, 6.1627145, 7.1485577, 0.037649035, -0.15204048, 9.44478
97976618775421, 0.24646074, 6.79442, 7.4883385, -0.020695448, 0.13585615, 10.113417
97976628415109, 0.40677986, 6.660422, 7.225128, 0.16210914, 0.1464119, 9.832672
97976638054900, 0.12083755, 6.273981, 7.4045897, -0.24839008, -0.13179159, 9.701872
97976647694588, 0.3912265, 7.070791, 7.4943204, 0.18126786, 0.27487993, 10.305609
97976657334275, 0.15553348, 5.885147, 7.5146594, -0.33306932, -0.49144268, 9.527686
97976666973963, 0.4139583, 7.280163, 7.780263, 0.17870212, 0.24458456, 10.658935
97976676613650, 0.276371, 5.84088, 7.4141607, -0.19827044, -0.5008311, 9.42719
97976686253338, 0.35533416, 7.170093, 7.682157, 0.121747255, 0.2532487, 10.510618
97976695893130, 0.36370903, 6.1304116, 7.2550383, -0.00792253, -0.2200222, 9.502701
97976705532817, 0.27517462, 6.855437, 7.556534, 0.0044106245, 0.13632059, 10.205652
97976715172505, 0.43429732, 6.587441, 7.2011995, 0.17764223, 0.10937643, 9.767125
97976724812192, 0.1902294, 6.3218374, 7.3256264, -0.14304018, -0.07663107, 9.67679
97976734451880, 0.42951167, 7.0205417, 7.355537, 0.23595166, 0.32487965, 10.169325
97976744091567, 0.1363909, 5.892326, 7.351948, -0.3012346, -0.38495398, 9.410118
97976753731359, 0.34456646, 7.2382884, 7.585248, 0.15226257, 0.3686428, 10.482769
97976763371046, 0.19980069, 5.7631135, 7.227521, -0.23924541, -0.42027903, 9.23345
97976773010734, 0.31585258, 7.18445, 7.5457664, 0.114378095, 0.35954332, 10.4169235
97976782650421, 0.3182454, 6.050252, 7.2059855, -0.052530408, -0.2351861, 9.41143
97976792290109, 0.2440679, 6.9020967, 7.600801, -0.025749445, 0.14719248, 10.268805
97976801929796, 0.4331009, 6.5682983, 7.301698, 0.15025449, 0.032735348, 9.829611
97976811569588, 0.22731815, 6.4151573, 7.4644103, -0.121575475, -0.107372284, 9.843629
97976821209275, 0.47736812, 7.0133634, 7.436893, 0.26514447, 0.24562025, 10.227018
97976830848963, 0.1794617, 5.933004, 7.450053, -0.28704226, -0.42155075, 9.511885
97976840488650, 0.3804588, 7.245467, 7.6869426, 0.16524315, 0.28912783, 10.565023
97976850128338, 0.20817557, 5.800202, 7.312466, -0.2594955, -0.43190908, 9.322229
97976859768025, 0.33020952, 7.2358956, 7.5816584, 0.1510278, 0.3717518, 10.477966
97976869407713, 0.31585258, 6.007181, 7.2155566, -0.07489264, -0.26804972, 9.390037
97976879047505, 0.27038896, 6.95115, 7.6163545, 0.011977315, 0.16975689, 10.313658
97976888687192, 0.38524446, 6.5084777, 7.3399835, 0.08103645, -0.014800549, 9.817194
97976898326880, 0.17228323, 6.4211397, 7.4907312, -0.17773402, -0.09912491, 9.865616
97976907966567, 0.43669012, 6.9355965, 7.332805, 0.22777092, 0.2758217, 10.0963
97976917606255, 0.18783657, 5.966503, 7.322037, -0.22462893, -0.32496023, 9.438782
97976927245942, 0.4019942, 7.1880393, 7.507481, 0.20788288, 0.36200762, 10.393148
97976936885734, 0.19381863, 5.771488, 7.1880393, -0.2243309, -0.38901758, 9.209447
97976946525421, 0.35174492, 7.2323065, 7.4739814, 0.18221581, 0.41991615, 10.396194
97976956165109, 0.2955136, 5.9676995, 7.1449685, -0.08134925, -0.2520275, 9.310274
97976965804796, 0.23090738, 6.9619174, 7.605587, -0.023949862, 0.1917162, 10.311607
97976975444484, 0.36370903, 6.40439, 7.320841, 0.04174304, -0.07639456, 9.733223
97976985084171, 0.20458634, 6.5252275, 7.554141, -0.13708568, -0.07859993, 9.983011
97976994723963, 0.43788654, 6.9212394, 7.4177504, 0.21229267, 0.21087742, 10.15031
97977004363650, 0.18783657, 6.033502, 7.489535, -0.26354682, -0.37409973, 9.608443
97977014003338, 0.43908295, 7.259824, 7.7001033, 0.22798944, 0.27997828, 10.585795
97977023643025, 0.22612174, 5.8468623, 7.432107, -0.25647926, -0.47766733, 9.443474
97977033282713, 0.37447673, 7.2622166, 7.682157, 0.17161834, 0.31954193, 10.571849
97977042922400, 0.27158538, 5.938986, 7.271788, -0.14697886, -0.32988405, 9.385829
97977052562192, 0.2416751, 7.024131, 7.6331043, 6.6924095E-4, 0.22151756, 10.373623
97977062201880, 0.36610186, 6.352944, 7.2418776, 0.05012691, -0.05508709, 9.640186
97977071841567, 0.20338993, 6.5407805, 7.3974113, -0.09566581, 0.03672266, 9.875949
97977081481255, 0.44506502, 6.820741, 7.179664, 0.25664866, 0.28046083, 9.905739
97977091120942, 0.19142582, 6.0323057, 7.2622166, -0.19627297, -0.243783, 9.437542
97977100760630, 0.40558344, 7.173682, 7.493124, 0.21738648, 0.3525691, 10.373117
97977110400421, 0.18664017, 5.79422, 7.312466, -0.27332425, -0.43915462, 9.317318
97977120040109, 0.36011982, 7.245467, 7.5816584, 0.18073905, 0.37089872, 10.485124
97977129679796, 0.2536392, 5.895915, 7.227521, -0.15991402, -0.33101416, 9.323522
97977139319484, 0.25603202, 7.0636125, 7.655836, 0.014849901, 0.22735882, 10.417298
97977148959171, 0.3182454, 6.29432, 7.3196445, -0.026743174, -0.12876177, 9.658138
97977158598859, 0.18424734, 6.5898337, 7.5026956, -0.12578666, 0.010867119, 9.986709
97977168238650, 0.465404, 6.815955, 7.288538, 0.2521187, 0.20194817, 9.984602
97977177878338, 0.22013968, 6.15434, 7.3603225, -0.16253889, -0.21968842, 9.592915
97977187518025, 0.46061835, 7.21436, 7.5529447, 0.27970374, 0.32640076, 10.446116
97977197157713, 0.23330021, 5.8396835, 7.4452677, -0.24158347, -0.5003691, 9.44879
97977206797400, 0.3696911, 7.2789664, 7.739585, 0.1549797, 0.30343008, 10.625682
97977216437192, 0.25244278, 5.861219, 7.3567333, -0.19869196, -0.43465042, 9.397381
97977226076880, 0.2632105, 7.0576305, 7.713264, 0.0038266182, 0.19392157, 10.456398
97977235716567, 0.3469593, 6.2285175, 7.30768, -0.0068240166, -0.17402506, 9.606596
97977245356255, 0.20219351, 6.6532435, 7.503892, -0.09260619, 0.05753517, 10.0301075
97977254995942, 0.40438703, 6.7226353, 7.2179494, 0.18437743, 0.21206474, 9.867989
97977264635630, 0.1471586, 6.1387863, 7.2526455, -0.2039212, -0.14510536, 9.499714
97977274275421, 0.40797627, 7.1377897, 7.4010005, 0.24615753, 0.38808107, 10.279986
97977283915109, 0.18783657, 5.852844, 7.3196445, -0.25495934, -0.39448452, 9.362033
97977293554796, 0.38883367, 7.2933235, 7.588837, 0.20941186, 0.38625717, 10.523363
97977303194484, 0.28235307, 5.8504515, 7.23111, -0.13918078, -0.37686157, 9.297047
97977312834171, 0.30867413, 7.119844, 7.5960155, 0.09110713, 0.28631926, 10.41137
97977322473963, 0.37806597, 6.198607, 7.263413, 0.021842957, -0.18701124, 9.554443
97977332113650, 0.22253251, 6.7011, 7.5517483, -0.07723236, 0.044781685, 10.098278
97977341753338, 0.43788654, 6.6687965, 7.331609, 0.17132711, 0.09166908, 9.918636
97977351393025, 0.21296121, 6.218946, 7.4715886, -0.1774683, -0.24177742, 9.718815
97977361032713, 0.44027936, 7.111469, 7.585248, 0.20570898, 0.25654364, 10.401667
97977370672505, 0.16151553, 5.871987, 7.503892, -0.29958963, -0.49364996, 9.512165
97977380312192, 0.3696911, 7.3052874, 7.722835, 0.15585506, 0.34037352, 10.630425
97977389951880, 0.23330021, 5.8480587, 7.2789664, -0.19214988, -0.39408588, 9.329809
97977399591567, 0.31465617, 7.1688967, 7.6019974, 0.09799194, 0.32709885, 10.448248
97977409231255, 0.36610186, 6.1232333, 7.21436, 0.0147253275, -0.19461775, 9.467678
97977418871046, 0.2428715, 6.7573314, 7.5553374, -0.04785931, 0.08038664, 10.138781
97977428510734, 0.42592242, 6.6305118, 7.29452, 0.1578281, 0.09674597, 9.865133
97977438150421, 0.19980069, 6.2309103, 7.4033933, -0.1693995, -0.18814611, 9.675241
97977447790109, 0.4642076, 7.0731835, 7.446464, 0.2587651, 0.2975793, 10.273254
97977457429796, 0.1591227, 5.9114685, 7.373483, -0.27299345, -0.39270735, 9.439825
97977467069588, 0.34217364, 7.2933235, 7.597212, 0.14914715, 0.40899944, 10.52795
97977476709275, 0.22612174, 5.849255, 7.219146, -0.18050718, -0.36690426, 9.285138
97977486348963, 0.34456646, 7.2095747, 7.520642, 0.1594944, 0.39036512, 10.415321
97977495988650, 0.35533416, 6.1028943, 7.1748786, 0.002690792, -0.19642305, 9.4240055
97977505628338, 0.28115666, 6.8279195, 7.5385876, 0.0037573576, 0.12073374, 10.174244
97977515268130, 0.43070808, 6.5551376, 7.2466636, 0.15403557, 0.06251192, 9.779665
97977524907817, 0.19381863, 6.2871413, 7.393822, -0.16493452, -0.14540577, 9.704946
97977534547505, 0.43070808, 7.0097737, 7.4189467, 0.21100044, 0.2821293, 10.209755
97977544187192, 0.1698904, 5.9066825, 7.4237323, -0.27492929, -0.4252329, 9.474872
97977553826984, 0.3900301, 7.268199, 7.708478, 0.16724598, 0.30906487, 10.596035
97977563466671, 0.22013968, 5.844469, 7.3842506, -0.23932791, -0.45811176, 9.405653
97977573106359, 0.3278167, 7.2442703, 7.7036924, 0.09985983, 0.31043625, 10.57485
97977582746046, 0.32063824, 6.0981083, 7.30768, -0.07215583, -0.2607088, 9.519389
97977592385734, 0.2620141, 6.8925257, 7.655836, -0.02302277, 0.11280823, 10.304084
97977602025525, 0.4103691, 6.5288167, 7.300502, 0.11893487, 0.019993782, 9.801868
97977611665213, 0.22851457, 6.4031935, 7.422536, -0.11321306, -0.082579136, 9.804464
97977621304900, 0.4749753, 6.9619174, 7.361519, 0.27217042, 0.26142025, 10.136244
97977630944588, 0.2117648, 5.9270215, 7.348358, -0.22077048, -0.37182283, 9.433229
97977640584380, 0.42711884, 7.239485, 7.564909, 0.238603, 0.34748363, 10.471043
97977650224067, 0.2117648, 5.7858453, 7.21436, -0.22475731, -0.39350033, 9.239183
97977659863755, 0.30029923, 7.23111, 7.513463, 0.121544, 0.4298892, 10.422653
97977669503442, 0.2727818, 6.007181, 7.170093, -0.09701574, -0.23176432, 9.354558
97977679143234, 0.2416751, 6.948757, 7.609176, -0.02336061, 0.1861701, 10.305726
97977688782921, 0.3912265, 6.502496, 7.32443, 0.0886457, -0.0057353973, 9.801781
97977698422609, 0.2213361, 6.4474607, 7.503892, -0.12488198, -0.10488558, 9.89447
97977708062296, 0.47736812, 6.9320073, 7.3926253, 0.2491126, 0.23134804, 10.139819
97977717701984, 0.22013968, 5.992824, 7.389036, -0.20204997, -0.35871887, 9.507404
97977727341775, 0.41754755, 7.237092, 7.5864444, 0.21696901, 0.34447527, 10.485144
97977736981463, 0.15672988, 5.7786665, 7.2861447, -0.28842092, -0.42586994, 9.286598
97977746621150, 0.32662028, 7.2346992, 7.568498, 0.13735723, 0.3823638, 10.467314
97977756260838, 0.30029923, 5.9724855, 7.2023964, -0.088722825, -0.27556515, 9.356895
97977765900630, 0.27158538, 6.971489, 7.623533, 0.018382192, 0.18455839, 10.332439
97977775540317, 0.37686956, 6.4067826, 7.335198, 0.053905725, -0.07793665, 9.746029
97977785180005, 0.21655045, 6.513263, 7.539784, -0.12277758, -0.06871033, 9.964842
97977794819692, 0.4426722, 6.879365, 7.4033933, 0.21625376, 0.19543886, 10.111721
97977804459484, 0.19142582, 6.020342, 7.4548388, -0.2434454, -0.35542965, 9.574454
97977814099171, 0.44745782, 7.223932, 7.631908, 0.24814487, 0.29221153, 10.51116
97977823738859, 0.20817557, 5.832505, 7.350751, -0.25295377, -0.42393875, 9.372902
97977833378546, 0.35653058, 7.268199, 7.6031938, 0.1857264, 0.38215876, 10.515793
97977843018338, 0.2727818, 5.938986, 7.1880393, -0.120203376, -0.27400827, 9.323322
97977852658025, 0.2416751, 7.015756, 7.615158, 0.014864206, 0.23111916, 10.354527
97977862297713, 0.33499518, 6.352944, 7.338787, 0.0018156767, -0.097723484, 9.711868
97977871937400, 0.16869399, 6.5168524, 7.54457, -0.16597247, -0.049306393, 9.969374
97977881577192, 0.424726, 6.778867, 7.3459654, 0.19395387, 0.16415453, 10.001604
97977891216880, 0.1794617, 6.0418773, 7.3698936, -0.2256993, -0.2831645, 9.524742
97977900856567, 0.40438703, 7.1808605, 7.4943204, 0.22860932, 0.37153435, 10.377996
97977910496359, 0.2213361, 5.8265233, 7.23111, -0.2074908, -0.37216997, 9.279264
97977920136046, 0.39840496, 7.2622166, 7.463214, 0.2537936, 0.43901205, 10.408695
97977929775734, 0.31226337, 5.918647, 7.1365933, -0.070857525, -0.27507925, 9.272441
97977939415421, 0.2727818, 7.1078796, 7.6426754, 0.053704977, 0.27468538, 10.436882
97977949055213, 0.3589234, 6.334998, 7.411768, -6.067753E-5, -0.16407013, 9.75543
97977958694900, 0.19621146, 6.611369, 7.722835, -0.16325879, -0.10037947, 10.166325
97977968334588, 0.3924229, 6.7764735, 7.4715886, 0.1271882, 0.1039238, 10.093178
97977977974275, 0.1363909, 6.1160545, 7.4775705, -0.27771413, -0.27146578, 9.653392
97977987614067, 0.42592242, 7.143772, 7.5314093, 0.23408175, 0.31546402, 10.381845
97977997253755, 0.2117648, 5.8133626, 7.3064837, -0.22989094, -0.41313267, 9.327444
97978006893442, 0.40438703, 7.2729845, 7.520642, 0.24862576, 0.42585897, 10.458332
97978016533234, 0.28115666, 5.858826, 7.1306114, -0.10929072, -0.29812527, 9.227659
97978026172921, 0.26919255, 7.0695944, 7.568498, 0.054667115, 0.29178667, 10.355948
97978035812609, 0.31944183, 6.2285175, 7.308877, -0.031880498, -0.15912199, 9.60676
97978045452296, 0.19621146, 6.6795645, 7.62114, -0.11745703, 0.013420582, 10.135229
97978055092088, 0.42592242, 6.7405815, 7.3435726, 0.18473887, 0.14190912, 9.9745
97978064731775, 0.17706887, 6.15434, 7.4105716, -0.21060681, -0.22367716, 9.629613
97978074371463, 0.4426722, 7.1509504, 7.483553, 0.2648579, 0.33871126, 10.351363
97978084011255, 0.22971097, 5.8636117, 7.342376, -0.22086358, -0.40345907, 9.387953
97978093650942, 0.38883367, 7.2753773, 7.5936227, 0.22683215, 0.38079834, 10.514225
97978103290630, 0.21894327, 5.828916, 7.2299137, -0.21333861, -0.35915232, 9.280159
97978112930421, 0.25722843, 7.1007013, 7.6366935, 0.041826963, 0.2753291, 10.427256
97978122570109, 0.28713873, 6.114858, 7.3340015, -0.09800315, -0.24041796, 9.549561
97978132209796, 0.26919255, 6.7441707, 7.5816584, -0.0219028, 0.056363106, 10.150578
97978141849484, 0.3182454, 6.4869423, 7.450053, -0.0046679974, -0.058208466, 9.8834
97978151489275, 0.3493521, 6.5886374, 7.4859457, 0.039910078, -0.019151688, 9.978458
97978161128963, 0.3278167, 6.559923, 7.4620175, 0.01769948, -0.016257763, 9.940884
97978170768650, 0.30987054, 6.579066, 7.432107, 0.012593389, 0.021509647, 9.930546
97978180408442, 0.2883351, 6.567102, 7.416554, -0.006901145, 0.028901577, 9.910316
97978190048130, 0.26799613, 6.5515485, 7.436893, -0.03376484, 0.011204243, 9.914673
97978199687817, 0.26799613, 6.5551376, 7.4344997, -0.031763196, 0.014184952, 9.915253
97978209327609, 0.29910284, 6.546763, 7.4476604, -0.0068813562, -0.011106014, 9.920538
97978218967296, 0.32183465, 6.556334, 7.4033933, 0.02715683, 0.015134811, 9.894361
97978228606984, 0.30149564, 6.552745, 7.359126, 0.01684606, 0.046523094, 9.858177
97978238246671, 0.3062813, 6.519245, 7.331609, 0.020094275, 0.036981583, 9.815555
97978247886463, 0.31106696, 6.532406, 7.3698936, 0.01863885, 0.020382881, 9.853104
97978257526150, 0.29790643, 6.533602, 7.428518, -0.0072495937, -0.010543346, 9.897446
97978267165942, 0.30029923, 6.5491557, 7.5254273, -0.023466706, -0.056569576, 9.980478
97978276805630, 0.31345975, 6.558727, 7.576873, -0.021069527, -0.08564997, 10.025785
97978286445317, 0.32063824, 6.5539412, 7.6031938, -0.02070713, -0.10525179, 10.04261
97978296085005, 0.31585258, 6.576673, 7.55773, -0.009924889, -0.05723715, 10.023389
97978305724796, 0.34097722, 6.5718875, 7.493124, 0.028687358, -0.028132915, 9.972526
97978315364484, 0.32542387, 6.580262, 7.432107, 0.030781984, 0.01990223, 9.9318
97978325004171, 0.30508488, 6.5694947, 7.4010005, 0.014586568, 0.035660267, 9.900741
97978334643963, 0.2847459, 6.5479593, 7.393822, -0.007847786, 0.03163147, 9.8805065
97978344283650, 0.2632105, 6.5252275, 7.4189467, -0.040362597, 0.0050935745, 9.883673
97978353923338, 0.28115666, 6.5252275, 7.402197, -0.01937139, 0.00921011, 9.871662
97978363563130, 0.26919255, 6.521638, 7.408179, -0.031649947, 0.007176399, 9.873413
97978373202817, 0.276371, 6.5168524, 7.4333034, -0.031673193, -0.014476299, 9.889315
97978382842505, 0.30508488, 6.5407805, 7.4177504, 0.004524708, 0.0026612282, 9.894335
97978392482296, 0.3278167, 6.5539412, 7.3974113, 0.03390181, 0.01702261, 9.888472
97978402121984, 0.3361916, 6.556334, 7.3663044, 0.04921639, 0.034571648, 9.866983
97978411761671, 0.3182454, 6.556334, 7.3627152, 0.03224981, 0.042377472, 9.863749
97978421401463, 0.30867413, 6.573084, 7.368697, 0.025455832, 0.053199768, 9.879014
97978431041150, 0.3062813, 6.5479593, 7.4249287, 0.003905058, 0.0018186569, 9.904501
97978440680942, 0.27756742, 6.558727, 7.459625, -0.028503418, -0.0013227463, 9.936758
97978450320630, 0.28953153, 6.556334, 7.495517, -0.025033474, -0.027867794, 9.962465
97978459960317, 0.29790643, 6.5611196, 7.539784, -0.025600553, -0.05319023, 9.999096
97978469600109, 0.2883351, 6.5647087, 7.5720873, -0.040732384, -0.06654358, 10.025414
97978479239796, 0.31585258, 6.562316, 7.560123, -0.012714148, -0.06932497, 10.015698
97978488879484, 0.33499518, 6.5611196, 7.5385876, 0.009351969, -0.061823368, 9.999344
97978498519275, 0.33738798, 6.558727, 7.5182486, 0.016253114, -0.051608086, 9.982577
97978508158963, 0.30508488, 6.5611196, 7.475178, -0.00508821, -0.013419628, 9.9508505
97978517798650, 0.30508488, 6.5455666, 7.4010005, 0.007717967, 0.020213604, 9.884932
97978527438442, 0.30029923, 6.5515485, 7.3567333, 0.014662027, 0.051709652, 9.8555355
97978537078130, 0.28594232, 6.5455666, 7.3196445, 0.00696826, 0.07118988, 9.823355
97978546717817, 0.26919255, 6.5575304, 7.2993054, -0.002255559, 0.09629631, 9.815513
97978556357609, 0.30388847, 6.562316, 7.3136625, 0.027036786, 0.07910299, 9.830515
97978565997296, 0.27996024, 6.576673, 7.361519, -0.0037685633, 0.06707573, 9.875143
97978575637088, 0.31106696, 6.5575304, 7.381858, 0.017185807, 0.03168297, 9.878689
97978585276775, 0.32303107, 6.552745, 7.4380894, 0.014921308, -0.010454178, 9.918047
97978594916463, 0.3290131, 6.556334, 7.487142, 0.010379791, -0.03694105, 9.957388
97978604556255, 0.3290131, 6.546763, 7.5110703, 0.0032526255, -0.058814526, 9.969006
97978614195942, 0.30029923, 6.5611196, 7.5385876, -0.028339982, -0.054026127, 9.998254
97978623835630, 0.30508488, 6.550352, 7.520642, -0.021159291, -0.051912785, 9.977829
97978633475421, 0.30269206, 6.559923, 7.4883385, -0.01340282, -0.024439335, 9.959852
97978643115109, 0.30149564, 6.567102, 7.448857, -0.0033667088, 0.004799366, 9.934946
97978652754900, 0.30269206, 6.5718875, 7.426125, 0.0042717457, 0.020774364, 9.921101
97978662394588, 0.30388847, 6.5694947, 7.4237323, 0.005348563, 0.020184517, 9.917761
97978672034275, 0.31465617, 6.582655, 7.408179, 0.02151537, 0.033848763, 9.915134
97978681674067, 0.31465617, 6.5455666, 7.416554, 0.010601401, 0.0012397766, 9.8969
97978691313755, 0.31226337, 6.5371914, 7.4177504, 0.0057501793, -0.004864216, 9.892186
97978700953442, 0.30388847, 6.539584, 7.4189467, -0.0021275282, -0.0010404587, 9.894407
97978710593234, 0.2883351, 6.5515485, 7.426125, -0.015570402, 0.008563042, 9.907217
97978720232921, 0.30029923, 6.538388, 7.4141607, -0.0039401054, 0.0026593208, 9.889917
97978729872713, 0.2943172, 6.5611196, 7.411768, -0.0034692287, 0.02238512, 9.902966
97978739512400, 0.2955136, 6.5647087, 7.4344997, -0.006735921, 0.011166573, 9.922417
97978749152088, 0.32063824, 6.567102, 7.4512496, 0.013097525, -0.005897045, 9.937332
97978758791880, 0.32063824, 6.5611196, 7.475178, 0.0051459074, -0.02402258, 9.951319
97978768431567, 0.317049, 6.558727, 7.4907312, -0.0024448633, -0.03400898, 9.961289
97978778071359, 0.30508488, 6.5479593, 7.4907312, -0.016219735, -0.03747654, 9.953804
97978787711046, 0.30388847, 6.5635123, 7.440482, -0.0011924505, 0.0048179626, 9.926368
97978797350734, 0.30388847, 6.567102, 7.426125, 0.0029925108, 0.014977932, 9.917978
97978806990525, 0.29910284, 6.5647087, 7.3866434, 0.007491827, 0.038491726, 9.886648
97978816630213, 0.30029923, 6.5742803, 7.399804, 0.0069568157, 0.036470413, 9.902882
97978826270005, 0.29312077, 6.5575304, 7.4129643, -0.0069003105, 0.018714428, 9.901454
97978835909692, 0.28594232, 6.5479593, 7.4153576, -0.01594305, 0.012694359, 9.8967
97978845549380, 0.27756742, 6.552745, 7.4356966, -0.026763082, 0.007000923, 9.914854
97978855189171, 0.28953153, 6.5491557, 7.4512496, -0.01825571, -0.0080218315, 9.924517
97978864828859, 0.28235307, 6.5407805, 7.448857, -0.025944352, -0.010016918, 9.916968
97978874468650, 0.29671, 6.535995, 7.426125, -0.007994294, -0.004295826, 9.897199
97978884108338, 0.31106696, 6.546763, 7.4237323, 0.008703351, -3.1995773E-4, 9.90296
97978893748025, 0.30867413, 6.5647087, 7.4069824, 0.013671875, 0.02220869, 9.902191
97978903387817, 0.30508488, 6.562316, 7.402197, 0.01066184, 0.024200916, 9.896914
97978913027505, 0.33499518, 6.550352, 7.408179, 0.034617662, 0.0015206337, 9.894407
97978922667296, 0.33379877, 6.5742803, 7.416554, 0.037147522, 0.0141124725, 9.916467
97978932306984, 0.3074777, 6.5611196, 7.420143, 0.008271933, 0.012783527, 9.909649
97978941946671, 0.28235307, 6.558727, 7.4512496, -0.02382052, 0.0010151863, 9.930618
97978951586463, 0.28235307, 6.558727, 7.495517, -0.0343107, -0.02519989, 9.963814
97978961226150, 0.28953153, 6.576673, 7.5266237, -0.03111279, -0.033825874, 9.999222
97978970865942, 0.30149564, 6.567102, 7.521838, -0.0223912, -0.0410738, 9.989674
97978980505630, 0.31345975, 6.5659056, 7.489535, -0.002881527, -0.02650547, 9.96503
97978990145317, 0.30269206, 6.558727, 7.4309106, -1.97649E-4, 0.0071377754, 9.915993
97978999785109, 0.28115666, 6.562316, 7.3950186, -0.011362195, 0.038858414, 9.890787
97979009424796, 0.28953153, 6.5551376, 7.381858, -0.0017653704, 0.036967278, 9.876444
97979019064588, 0.3074777, 6.5515485, 7.3830543, 0.014044523, 0.027996063, 9.875519
97979028704275, 0.29790643, 6.5647087, 7.4153576, 3.3521652E-4, 0.019511223, 9.908142
97979038344067, 0.2835495, 6.5718875, 7.4153576, -0.0125540495, 0.02876091, 9.912449
97979047983755, 0.3074777, 6.552745, 7.4129643, 0.0058614016, 0.008347511, 9.898733
97979057623442, 0.29910284, 6.5431733, 7.3746796, 0.0049078465, 0.027115822, 9.863453
97979067263234, 0.2955136, 6.532406, 7.3698936, -1.705885E-4, 0.022545815, 9.852637
97979076902921, 0.31226337, 6.533602, 7.37109, 0.015487909, 0.01688385, 9.854841
97979086542713, 0.31585258, 6.5407805, 7.367501, 0.021199107, 0.023204803, 9.85701
97979096182400, 0.3278167, 6.5491557, 7.3974113, 0.026052237, 0.0074853897, 9.885336
