timestamp_acc,device_acc_x,device_acc_y,device_acc_z,earth_acc_x,earth_acc_y,earth_acc_z
97615972815820, -0.33260235, 6.361319, 7.60798, 0.020625472, -0.0218544, 9.922573
97615982454570, -0.3505485, 6.3696938, 7.5924263, 0.0073297024, 4.3535233E-4, 9.916691
97615992093320, -0.35533416, 6.381658, 7.609176, 0.0030429363, 4.7445297E-4, 9.937372
97616001732070, -0.37088752, 6.3864436, 7.6139617, -0.011303544, 0.005437851, 9.944672
97616011370716, -0.3696911, 6.3924255, 7.6019974, -0.007057905, 0.01693821, 9.939307
97616021009466, -0.37208393, 6.3948183, 7.5900335, -0.006693125, 0.026761055, 9.931768
97616030648216, -0.36490545, 6.381658, 7.5828547, -0.0013473034, 0.019586563, 9.917562
97616040286966, -0.37806597, 6.375676, 7.5661054, -0.012723088, 0.028743267, 9.901371
97616049925716, -0.37567315, 6.355337, 7.5673018, -0.014683485, 0.012148857, 9.889141
97616059564466, -0.36610186, 6.3541408, 7.548159, -0.0031897426, 0.020385265, 9.873369
97616069203111, -0.35533416, 6.355337, 7.542177, 0.008602381, 0.022341728, 9.869167
97616078841861, -0.35174492, 6.350551, 7.57448, 0.0064526796, -0.0022230148, 9.890699
97616088480611, -0.3361916, 6.367301, 7.6127653, 0.019215703, -0.017498493, 9.93021
97616098119361, -0.3481557, 6.361319, 7.6402826, 0.0013914108, -0.0338192, 9.947884
97616107758111, -0.34097722, 6.3493547, 7.6606216, 0.002462387, -0.056230545, 9.955528
97616117396861, -0.3361916, 6.3517475, 7.63789, 0.010701537, -0.04048872, 9.939484
97616127035507, -0.33499518, 6.363712, 7.6031938, 0.019351125, -0.010186672, 9.920541
97616136674257, -0.37567315, 6.3661046, 7.611569, -0.020859003, -0.0026917458, 9.929954
97616146313007, -0.38404804, 6.367301, 7.609176, -0.028829575, 0.0017552376, 9.929188
97616155951757, -0.36370903, 6.373283, 7.605587, -0.0072233677, 0.0031833649, 9.929547
97616165590507, -0.35653058, 6.3864436, 7.5924263, 0.0041926503, 0.019342422, 9.927655
97616175229257, -0.36251262, 6.3828545, 7.5613194, 0.0015547276, 0.037132263, 9.901739
97616184868007, -0.37567315, 6.367301, 7.542177, -0.0120334625, 0.04001093, 9.877569
97616194506653, -0.38644084, 6.3565335, 7.5110703, -0.020249248, 0.054474354, 9.847216
97616204145403, -0.37567315, 6.364908, 7.5086775, -0.0074127913, 0.05762434, 9.850384
97616213784153, -0.2835495, 6.3625154, 7.487142, 0.08355737, 0.04476595, 9.829054
97616223422903, -0.32063824, 6.3397837, 7.507481, 0.03983116, 0.025044918, 9.831364
97616233061653, -0.35653058, 6.355337, 7.588837, -0.0041422844, -0.0033717155, 9.904942
97616242700403, -0.3361916, 6.3565335, 7.652247, 0.006485462, -0.047611713, 9.953549
97616252339153, -0.34097722, 6.363712, 7.6797643, 0.0011116266, -0.054726124, 9.9794235
97616261977799, -0.33738798, 6.3684974, 7.6630144, 0.008248329, -0.040280342, 9.969539
97616271616549, -0.34576288, 6.384051, 7.6546397, 0.004662752, -0.021460056, 9.973399
97616281255299, -0.38404804, 6.373283, 7.624729, -0.02984941, 6.0224533E-4, 9.944941
97616290894049, -0.38763726, 6.3744793, 7.6307116, -0.03326583, -0.0011229515, 9.950423
97616300532799, -0.37328035, 6.373283, 7.615158, -0.017303944, 0.0036149025, 9.937223
97616310171549, -0.36729828, 6.367301, 7.59123, -0.008788586, 0.01191473, 9.914836
97616319810195, -0.3684947, 6.355337, 7.5637126, -0.008337736, 0.01944542, 9.886122
97616329448945, -0.34097722, 6.3421764, 7.5553374, 0.015683293, 0.0060153008, 9.8702755
97616339087695, -0.30987054, 6.3457656, 7.5625157, 0.044529438, -0.0058908463, 9.876962
97616348726445, -0.3062813, 6.363712, 7.564909, 0.051561475, 0.0052261353, 9.890186
97616358365195, -0.33140594, 6.3589263, 7.580462, 0.023468971, -6.23703E-4, 9.899931
97616368003945, -0.3481557, 6.364908, 7.576873, 0.0096030235, 0.010495663, 9.90162
97616377642695, -0.35413775, 6.352944, 7.578069, 7.5912476E-4, 0.002773285, 9.895071
97616387281445, -0.3912265, 6.3601227, 7.59123, -0.03415215, 0.009634972, 9.911091
97616396920091, -0.41156548, 6.3541408, 7.594819, -0.055638075, 0.008554459, 9.910732
97616406558841, -0.3924229, 6.375676, 7.6031938, -0.032597184, 0.013687134, 9.9302845
97616416197591, -0.36490545, 6.3744793, 7.5924263, -0.003309846, 0.011478901, 9.920279
97616425836341, -0.35533416, 6.398408, 7.6067834, 0.009396791, 0.017167568, 9.946289
97616435475091, -0.36011982, 6.4008007, 7.6067834, 0.0053117275, 0.020164967, 9.947997
97616445113841, -0.38285163, 6.3888364, 7.6139617, -0.020913005, 0.013393402, 9.946638
97616454752591, -0.35653058, 6.373283, 7.594819, 0.0033613443, 0.0052700043, 9.921043
97616464391236, -0.34456646, 6.3768725, 7.5756764, 0.018644333, 0.016475677, 9.908253
97616474029986, -0.33738798, 6.3517475, 7.550552, 0.023324728, 0.011432171, 9.872623
97616483668736, -0.3589234, 6.3493547, 7.5385876, 0.003407836, 0.022441864, 9.862704
97616493307486, -0.38165522, 6.343373, 7.530213, -0.019453168, 0.028574467, 9.8532715
97616502946236, -0.37447673, 6.346962, 7.548159, -0.014243722, 0.017492771, 9.8690605
97616512584986, -0.34337005, 6.364908, 7.5553374, 0.019215703, 0.01809454, 9.88496
97616522223736, -0.31585258, 6.3804617, 7.5553374, 0.048938394, 0.022720814, 9.893952
97616531862382, -0.30269206, 6.3744793, 7.578069, 0.057311893, 0.001024723, 9.907042
97616541501132, -0.3361916, 6.3744793, 7.6127653, 0.018750072, -0.01219511, 9.934824
97616551139882, -0.357727, 6.3792653, 7.62114, -0.0022915602, -0.008016586, 9.945086
97616560778632, -0.35174492, 6.3768725, 7.63789, 4.771948E-4, -0.02185011, 9.95616
97616570417382, -0.357727, 6.37089, 7.6390862, -0.006811261, -0.025074482, 9.953449
97616580056132, -0.37208393, 6.3720865, 7.635497, -0.019492745, -0.018066406, 9.951988
97616589694882, -0.3912265, 6.35773, 7.62114, -0.03907156, -0.015189648, 9.932461
97616599333528, -0.38763726, 6.361319, 7.594819, -0.03096497, 0.0023155212, 9.914482
97616608972278, -0.37088752, 6.3625154, 7.5493555, -0.0078109503, 0.026442051, 9.879837
97616618611028, -0.36370903, 6.3517475, 7.513463, 0.0016908646, 0.037851334, 9.845184
97616628249778, -0.3505485, 6.3744793, 7.5122666, 0.019049168, 0.051966667, 9.858397
97616637888528, -0.3469593, 6.391229, 7.5385876, 0.021604776, 0.044839382, 9.889187
97616647527278, -0.35294133, 6.3888364, 7.5696945, 0.011079907, 0.025026321, 9.911676
97616657166028, -0.3505485, 6.4055862, 7.576873, 0.015975833, 0.030735493, 9.927851
97616666804778, -0.3696911, 6.3768725, 7.568498, -0.0075472593, 0.01933527, 9.903682
97616676443424, -0.3397808, 6.373283, 7.536195, 0.025497317, 0.028350353, 9.875573
97616686082174, -0.3493521, 6.3661046, 7.520642, 0.016939163, 0.0350008, 9.8594055
97616695720924, -0.3182454, 6.3625154, 7.530213, 0.044499874, 0.017638683, 9.863301
97616705359674, -0.3290131, 6.3601227, 7.57448, 0.026931763, -0.008787155, 9.896027
97616714998424, -0.36370903, 6.3589263, 7.6163545, -0.013876319, -0.025738716, 9.928556
97616724637174, -0.3684947, 6.35773, 7.628319, -0.020673513, -0.031708717, 9.937119
97616734275924, -0.37088752, 6.3457656, 7.60798, -0.022352695, -0.02725029, 9.91395
97616743914570, -0.36370903, 6.343373, 7.588837, -0.012622118, -0.01884222, 9.897505
97616753553320, -0.35294133, 6.350551, 7.5924263, -0.0010160208, -0.018898487, 9.904476
97616763192070, -0.31585258, 6.375676, 7.5864444, 0.04124558, -0.0069332123, 9.914705
97616772830820, -0.3397808, 6.3804617, 7.5900335, 0.018422484, 8.211136E-4, 9.921392
97616782469570, -0.3493521, 6.385247, 7.600801, 0.0087246895, 1.1730194E-4, 9.933054
97616792108320, -0.39720857, 6.378069, 7.587641, -0.03692341, 0.015415192, 9.920092
97616801746966, -0.41635114, 6.375676, 7.5673018, -0.05297357, 0.030276299, 9.903683
97616811385716, -0.3912265, 6.3888364, 7.500303, -0.014347553, 0.07356405, 9.85998
97616821024466, -0.35533416, 6.3960147, 7.4859457, 0.023590088, 0.07844448, 9.852307
97616830663216, -0.35413775, 6.3948183, 7.4847493, 0.025031567, 0.07621765, 9.850592
97616840301966, -0.37208393, 6.3888364, 7.5326056, -0.0012518167, 0.04457903, 9.88402
97616849940716, -0.37088752, 6.381658, 7.5924263, -0.009865999, 0.0014066696, 9.9251175
97616859579466, -0.3589234, 6.378069, 7.6127653, -0.0016489029, -0.01701498, 9.937931
97616869218216, -0.37686956, 6.381658, 7.6271224, -0.020337462, -0.018610477, 9.951876
97616878856861, -0.3804588, 6.3696938, 7.605587, -0.023555398, -0.012681007, 9.927839
97616888495611, -0.4019942, 6.364908, 7.5960155, -0.043697596, -0.005200386, 9.918224
97616898134361, -0.36011982, 6.363712, 7.578069, -5.2046776E-4, -0.006375313, 9.902203
97616907773111, -0.32063824, 6.3804617, 7.5756764, 0.041395664, -0.00319767, 9.909706
97616917411861, -0.32183465, 6.398408, 7.5756764, 0.04352355, 0.009829998, 9.921295
97616927050611, -0.37328035, 6.3924255, 7.5924263, -0.010798335, 0.008220673, 9.932129
97616936689257, -0.3912265, 6.373283, 7.594819, -0.032940626, -0.0031113625, 9.922298
97616946328007, -0.36370903, 6.3589263, 7.568498, -0.005854368, -0.0053157806, 9.891932
97616955966757, -0.3505485, 6.363712, 7.513463, 0.01597786, 0.029170513, 9.8524475
97616965605507, -0.35533416, 6.352944, 7.450053, 0.017444253, 0.061548233, 9.797212
97616975244257, -0.3397808, 6.3720865, 7.446464, 0.036803246, 0.0711956, 9.80624
97616984883007, -0.37328035, 6.35773, 7.4452677, 0.0011637211, 0.07047367, 9.7973
97616994521757, -0.37088752, 6.3696938, 7.5326056, -0.0056191683, 0.023940086, 9.871683
97617004160403, -0.38404804, 6.224928, 7.60798, -0.061926365, -0.12400627, 9.836633
97617013799153, -0.25962126, 6.7034926, 7.7551384, 0.14731383, 0.09739065, 10.252571
97617023437903, -0.44745782, 5.852844, 7.52782, -0.19986993, -0.32234955, 9.538356
97617033076653, -0.30029923, 7.038488, 7.813762, 0.17922616, 0.31758022, 10.514391
97617042715403, -0.45224348, 5.692525, 7.4045897, -0.22319508, -0.35663748, 9.341323
97617052354153, -0.39481574, 7.007381, 7.7144604, 0.10227227, 0.38799858, 10.421668
97617061992799, -0.37686956, 5.8540406, 7.422536, -0.11779845, -0.27918053, 9.4559
97617071631549, -0.40797627, 6.7334027, 7.649854, 0.030466437, 0.23038435, 10.196637
97617081270299, -0.2632105, 6.29432, 7.5326056, 0.08296943, -0.056367397, 9.81926
97617090909049, -0.44027936, 6.2285175, 7.4620175, -0.09311235, -0.014823914, 9.729393
97617100547799, -0.21894327, 6.7334027, 7.628319, 0.20807469, 0.19209433, 10.173384
97617110186549, -0.39361933, 5.8229337, 7.408179, -0.13192546, -0.2904439, 9.425543
97617119825195, -0.22013968, 7.02772, 7.751549, 0.25631213, 0.3240323, 10.457205
97617129463945, -0.39720857, 5.6470613, 7.3543406, -0.17567009, -0.38588476, 9.271116
97617139102695, -0.36370903, 7.0612197, 7.732406, 0.13140142, 0.40625525, 10.469046
97617148741445, -0.38165522, 5.8241305, 7.4392858, -0.13382685, -0.30572033, 9.449749
97617158380195, -0.4546363, 6.739385, 7.704889, -0.022572517, 0.21285582, 10.244293
97617168018945, -0.27158538, 6.2512493, 7.5637126, 0.05636275, -0.1090765, 9.815628
97617177657591, -0.4127619, 6.3074803, 7.4847493, -0.053741693, 0.022779465, 9.796568
97617187296341, -0.2321038, 6.7118673, 7.6103725, 0.19896841, 0.18305445, 10.146313
97617196935091, -0.4869394, 5.8217373, 7.37109, -0.22270375, -0.24023294, 9.399755
97617206573841, -0.2847459, 7.042077, 7.746763, 0.20058727, 0.3517542, 10.465195
97617216212591, -0.4354937, 5.663811, 7.344769, -0.20482504, -0.3602066, 9.275902
97617225851341, -0.3481557, 7.0600233, 7.725228, 0.14328885, 0.39627552, 10.462635
97617235489986, -0.38883367, 5.797809, 7.4392858, -0.13909161, -0.3350253, 9.432772
97617245128736, -0.4426722, 6.806384, 7.719246, -0.0043212175, 0.24142742, 10.298122
97617254767486, -0.29910284, 6.2009997, 7.5589266, 0.020964146, -0.1328597, 9.780653
97617264406236, -0.45822555, 6.2955165, 7.4859457, -0.100577354, 0.021727562, 9.79144
97617274044986, -0.21655045, 6.6424756, 7.5936227, 0.1971221, 0.14297915, 10.088268
97617283683632, -0.42951167, 5.858826, 7.4141607, -0.16059136, -0.26297522, 9.454373
97617293322382, -0.2440679, 7.0002027, 7.776674, 0.22203135, 0.29513884, 10.459572
97617302961132, -0.39960137, 5.6350975, 7.385447, -0.17280388, -0.4129176, 9.287544
97617312599882, -0.29790643, 7.085148, 7.7204423, 0.1995343, 0.40547466, 10.473255
97617322238632, -0.36610186, 5.779863, 7.4177504, -0.11884147, -0.33859968, 9.403994
97617331877278, -0.4211368, 6.836294, 7.7276206, 0.019922018, 0.25467873, 10.322941
97617341516028, -0.31106696, 6.1507506, 7.57448, -0.009871483, -0.17781591, 9.760611
97617351154778, -0.4642076, 6.3684974, 7.5457664, -0.099586844, 0.042265892, 9.884338
97617360793528, -0.24526432, 6.62094, 7.60439, 0.16560316, 0.1249423, 10.083685
97617370432278, -0.46181476, 5.881558, 7.3974113, -0.19361424, -0.21461964, 9.45749
97617380070924, -0.22971097, 6.991828, 7.745567, 0.2519449, 0.3007202, 10.429685
97617389709674, -0.40079778, 5.669793, 7.3866434, -0.19281602, -0.38240433, 9.310548
97617399348424, -0.2943172, 7.088737, 7.7419777, 0.21375751, 0.3857355, 10.491928
97617408987174, -0.35294133, 5.7631135, 7.3746796, -0.1175617, -0.31671143, 9.36001
97617418625924, -0.41754755, 6.8949184, 7.678568, 0.051527143, 0.3304186, 10.322927
97617428264674, -0.33260235, 6.142376, 7.5254273, -0.025909066, -0.14996195, 9.718451
97617437903320, -0.4953143, 6.430711, 7.5553374, -0.11603093, 0.08913088, 9.932831
97617447542070, -0.27996024, 6.567102, 7.6163545, 0.11473203, 0.08870411, 10.059477
97617457180820, -0.46181476, 5.925825, 7.446464, -0.18304366, -0.22263718, 9.523415
97617466819570, -0.24526432, 6.9678993, 7.797013, 0.21073079, 0.2576623, 10.454397
97617476458320, -0.41156548, 5.6578293, 7.4010005, -0.19840193, -0.40433264, 9.314096
97617486096966, -0.24646074, 7.071987, 7.706085, 0.25033247, 0.39378548, 10.451783
97617495735716, -0.32063824, 5.7224355, 7.3399835, -0.08608937, -0.34604836, 9.305765
97617505374466, -0.36251262, 6.923632, 7.6749787, 0.10878074, 0.3352623, 10.336786
97617515013216, -0.28594232, 6.0717874, 7.5026956, 0.004483342, -0.19771624, 9.653997
97617524651966, -0.46301118, 6.4761744, 7.5756764, -0.08101308, 0.096178055, 9.976486
97617534290611, -0.23928227, 6.5539412, 7.5613194, 0.15435147, 0.1021719, 10.007533
97617543929361, -0.45942193, 5.977271, 7.3830543, -0.16657472, -0.14357805, 9.50789
97617553568111, -0.2644069, 6.9248285, 7.725228, 0.19044924, 0.27425957, 10.372599
97617563206861, -0.47138608, 5.6757755, 7.3950186, -0.25171113, -0.3718748, 9.323158
97617572845611, -0.31106696, 7.0875406, 7.769495, 0.18132532, 0.3828473, 10.512638
97617582484257, -0.37328035, 5.704489, 7.3842506, -0.14595795, -0.37246943, 9.329934
97617592123007, -0.36370903, 6.948757, 7.751549, 0.09508145, 0.3017497, 10.411722
97617601761757, -0.30987054, 6.047859, 7.560123, -0.025410771, -0.25015593, 9.683226
97617611400507, -0.4546363, 6.5443697, 7.641479, -0.0637573, 0.10175419, 10.070414
97617621039153, -0.23928227, 6.5312095, 7.597212, 0.14582479, 0.06441736, 10.020288
97617630677903, -0.48095736, 6.029913, 7.429714, -0.17763793, -0.13251305, 9.578241
97617640316653, -0.2644069, 6.926025, 7.708478, 0.19335175, 0.28492308, 10.36059
97617649955403, -0.45224348, 5.692525, 7.338787, -0.21970528, -0.3269577, 9.290424
97617659594153, -0.27756742, 7.0779696, 7.631908, 0.22928667, 0.44823408, 10.400349
97617669232799, -0.3696911, 5.662615, 7.210771, -0.13111687, -0.29933596, 9.170076
97617678871549, -0.3469593, 6.9475603, 7.609176, 0.1439085, 0.38195944, 10.301548
97617688510299, -0.28235307, 5.986842, 7.4392858, -0.0028413534, -0.23127508, 9.550468
97617698149049, -0.42592242, 6.532406, 7.6510506, -0.042798042, 0.0732913, 10.069018
97617707787695, -0.25962126, 6.4163537, 7.678568, 0.085017204, -0.070794106, 10.009254
97617717426445, -0.45822555, 6.067002, 7.548159, -0.16972971, -0.18246031, 9.691805
97617727065195, -0.2416751, 6.9020967, 7.847262, 0.19242764, 0.17447281, 10.450331
97617736703945, -0.47258246, 5.7224355, 7.5254273, -0.26641345, -0.4080186, 9.453265
97617746342695, -0.3062813, 7.1138616, 7.834101, 0.19051516, 0.35009193, 10.578995
97617755981341, -0.40917268, 5.6997037, 7.344769, -0.18561053, -0.33458424, 9.298025
97617765620091, -0.36131623, 7.001399, 7.655836, 0.14090335, 0.401021, 10.372141
97617775258841, -0.30388847, 5.933004, 7.38784, -0.031527996, -0.22872066, 9.477329
97617784897591, -0.4127619, 6.611369, 7.5433736, 0.01134789, 0.2000637, 10.037078
97617794536236, -0.24047868, 6.407979, 7.48116, 0.13529634, 0.038882732, 9.852308
97617804174986, -0.44745782, 6.0981083, 7.365108, -0.12061107, -0.054644108, 9.571544
97617813813736, -0.23330021, 6.814759, 7.6773715, 0.20740926, 0.20812559, 10.264068
97617823452486, -0.47856453, 5.7320065, 7.429714, -0.2479167, -0.35472202, 9.386068
97617833091132, -0.30388847, 7.103094, 7.8317084, 0.18104208, 0.35175943, 10.570025
97617842729882, -0.4139583, 5.669793, 7.4273214, -0.19777179, -0.41534853, 9.341917
97617852368632, -0.34456646, 7.036095, 7.765906, 0.13591468, 0.34855747, 10.478297
97617862007382, -0.30269206, 5.925825, 7.489535, -0.039744496, -0.2911663, 9.550591
97617871646132, -0.4103691, 6.6676, 7.6390862, 0.0029881, 0.17891407, 10.146376
97617881284778, -0.2644069, 6.343373, 7.521838, 0.0895704, -0.020591736, 9.842657
97617890923528, -0.48095736, 6.1363935, 7.4213395, -0.15200788, -0.05123663, 9.640393
97617900562278, -0.24885355, 6.775277, 7.652247, 0.18630362, 0.20407438, 10.219924
97617910201028, -0.45942193, 5.727221, 7.440482, -0.23196328, -0.36827183, 9.390606
97617919839674, -0.27158538, 7.0576305, 7.7790666, 0.21545184, 0.34087133, 10.499296
97617929478424, -0.39840496, 5.6650076, 7.351948, -0.16851705, -0.37691832, 9.280718
97617939117174, -0.34097722, 7.068398, 7.706085, 0.15387654, 0.4182639, 10.452925
97617948755820, -0.33260235, 5.8863435, 7.456035, -0.07782495, -0.29623604, 9.500437
97617958394570, -0.42951167, 6.7178497, 7.6893353, -0.003774047, 0.19386816, 10.217744
97617968033320, -0.29192436, 6.3086767, 7.59123, 0.04383731, -0.08434582, 9.874329
97617977672070, -0.47377887, 6.218946, 7.499106, -0.1374948, -0.04026699, 9.752734
97617987310820, -0.25722843, 6.759724, 7.652247, 0.1775564, 0.19429636, 10.210173
97617996949466, -0.47976094, 5.77747, 7.391429, -0.22789073, -0.29332542, 9.386404
97618006588216, -0.28594232, 7.055238, 7.752745, 0.19804037, 0.35418415, 10.478481
97618016226966, -0.4223332, 5.649454, 7.34118, -0.20072412, -0.3667307, 9.263521
97618025865716, -0.32662028, 7.038488, 7.7144604, 0.16139507, 0.38369036, 10.439668
97618035504361, -0.32662028, 5.8277197, 7.4309106, -0.07547009, -0.32895994, 9.443173
97618045143111, -0.38165522, 6.7609205, 7.6534433, 0.05399239, 0.22658777, 10.21649
97618054781861, -0.24646074, 6.2691956, 7.5254273, 0.08917916, -0.083141804, 9.796977
97618064420611, -0.43429732, 6.239285, 7.4416785, -0.086912155, -0.0045900345, 9.720509
97618074059257, -0.21894327, 6.715457, 7.629515, 0.19897294, 0.1706481, 10.162977
97618083698007, -0.46181476, 5.8133626, 7.48116, -0.22037482, -0.3319378, 9.477209
97618093336757, -0.29790643, 7.015756, 7.8580294, 0.15830588, 0.26348925, 10.533933
97618102975507, -0.44985065, 5.608776, 7.4273214, -0.24685645, -0.45035076, 9.303874
97618112614153, -0.32422748, 7.0576305, 7.7240314, 0.17050278, 0.3918314, 10.459126
97618122252903, -0.33260235, 5.818148, 7.3842506, -0.07525504, -0.2961445, 9.4018755
97618131891653, -0.40797627, 6.8015985, 7.655836, 0.034612298, 0.2645645, 10.245429
97618141530403, -0.29671, 6.242874, 7.513463, 0.036991596, -0.078953266, 9.772719
97618151169049, -0.45822555, 6.32423, 7.475178, -0.09559965, 0.04427433, 9.801686
97618160807799, -0.25244278, 6.6915283, 7.6199436, 0.16466379, 0.16610241, 10.141456
97618170446549, -0.5024927, 5.8600225, 7.4129643, -0.2372244, -0.24134398, 9.456738
97618180085299, -0.29192436, 7.007381, 7.795816, 0.18282974, 0.29363775, 10.480635
97618189723945, -0.46061835, 5.6243296, 7.399804, -0.2526561, -0.41917372, 9.2931595
97618199362695, -0.3290131, 7.082755, 7.765906, 0.16420853, 0.38323164, 10.507576
97618209001445, -0.36011982, 5.751149, 7.4189467, -0.12421328, -0.36820078, 9.385903
97618218640195, -0.3912265, 6.8315086, 7.7001033, 0.05620861, 0.25091314, 10.297964
97618228278841, -0.29192436, 6.1770716, 7.556534, 0.021006107, -0.15638638, 9.763081
97618237917591, -0.46181476, 6.3517475, 7.5385876, -0.101634026, 0.02607441, 9.867992
97618247556341, -0.2428715, 6.640083, 7.5960155, 0.16478181, 0.14295912, 10.089676
97618257195091, -0.45104706, 5.895915, 7.3782687, -0.17222965, -0.20902586, 9.451494
97618266833736, -0.24047868, 7.015756, 7.7276206, 0.23431444, 0.3279128, 10.432274
97618276472486, -0.4354937, 5.6733823, 7.359126, -0.20862532, -0.36805296, 9.292723
97618286111236, -0.33020952, 7.0863442, 7.725228, 0.17052364, 0.40055513, 10.479261
97618295749986, -0.3804588, 5.7391853, 7.399804, -0.15361917, -0.35723925, 9.364235
97618305388632, -0.37686956, 6.882954, 7.7156568, 0.07548857, 0.2736554, 10.3425255
97618315027382, -0.28235307, 6.1304116, 7.5433736, 0.012369275, -0.19060707, 9.722534
97618324666132, -0.47856453, 6.418747, 7.57448, -0.10714841, 0.05982399, 9.939166
97618334304882, -0.2632105, 6.631708, 7.6163545, 0.14596474, 0.12217808, 10.100569
97618343943528, -0.46660042, 5.9557357, 7.429714, -0.1873312, -0.19215298, 9.529802
97618353582278, -0.25603202, 6.9595246, 7.752745, 0.21395397, 0.2723961, 10.415644
97618363221028, -0.4426722, 5.619544, 7.3902326, -0.23173773, -0.4185686, 9.282342
97618372859778, -0.29671, 7.082755, 7.7204423, 0.20292246, 0.3917942, 10.472058
97618382498424, -0.3481557, 5.704489, 7.348358, -0.11767328, -0.35993528, 9.301472
97618392137174, -0.36370903, 6.8709903, 7.6941214, 0.08981943, 0.283566, 10.317646
97618401775924, -0.2883351, 6.064609, 7.54457, -0.0051956177, -0.23101902, 9.681414
97618411414674, -0.44506502, 6.4737816, 7.5900335, -0.06562126, 0.08212519, 9.985263
97618421053320, -0.2440679, 6.5814586, 7.62114, 0.14873326, 0.08366871, 10.071138
97618430692070, -0.44626144, 5.9904313, 7.452446, -0.15609747, -0.18651867, 9.568919
97618440330820, -0.2644069, 6.948757, 7.792227, 0.18936217, 0.25224257, 10.439081
97618449969570, -0.4977071, 5.6709895, 7.4392858, -0.27736092, -0.39490604, 9.355101
97618459608320, -0.3397808, 7.1018977, 7.765906, 0.16031015, 0.40212488, 10.5201845
97618469246966, -0.3924229, 5.6781683, 7.37109, -0.16731834, -0.37175512, 9.303888
97618478885716, -0.36490545, 6.916454, 7.7108707, 0.097283006, 0.3015046, 10.359906
97618488524466, -0.2835495, 6.0311093, 7.513463, 3.4940243E-4, -0.23566389, 9.635937
97618498163216, -0.42711884, 6.506085, 7.600801, -0.04198897, 0.093752384, 10.013651
97618507801861, -0.22851457, 6.4881387, 7.5936227, 0.14684927, 0.028739452, 9.989439
97618517440611, -0.465404, 6.0047884, 7.440482, -0.17393363, -0.15832663, 9.56972
97618527079361, -0.25124636, 6.9248285, 7.733603, 0.20870423, 0.26054144, 10.378515
97618536718111, -0.44506502, 5.6997037, 7.3830543, -0.21870029, -0.34890747, 9.3287
97618546356757, -0.27756742, 7.115058, 7.7096744, 0.23641253, 0.4255066, 10.483475
97618555995507, -0.37088752, 5.690132, 7.283752, -0.13316011, -0.3145299, 9.244001
97618565634257, -0.3684947, 6.983453, 7.649854, 0.12454653, 0.39384747, 10.356353
97618575273007, -0.31465617, 5.992824, 7.4620175, -0.029526234, -0.22403336, 9.573066
97618584911653, -0.45942193, 6.567102, 7.6426754, -0.061171412, 0.12132025, 10.086124
97618594550403, -0.26919255, 6.430711, 7.6067834, 0.09327543, -0.008500576, 9.96398
97618604189153, -0.4749753, 6.0394845, 7.4787674, -0.17503369, -0.15883732, 9.621698
97618613827903, -0.26799613, 6.8482585, 7.795816, 0.16499817, 0.18046713, 10.377159
97618623466653, -0.4881358, 5.6985073, 7.489535, -0.26932955, -0.40894938, 9.410878
97618633105299, -0.30867413, 7.0803623, 7.85444, 0.16376483, 0.32324123, 10.572971
97618642744049, -0.41874397, 5.6650076, 7.436893, -0.20126814, -0.4115944, 9.346931
97618652382799, -0.34576288, 6.995417, 7.769495, 0.13410795, 0.32044315, 10.454653
97618662021549, -0.30987054, 5.9724855, 7.5086775, -0.031162858, -0.26348877, 9.595645
97618671660195, -0.45224348, 6.629315, 7.6366935, -0.038602233, 0.1681304, 10.121347
97618681298945, -0.27996024, 6.3960147, 7.5457664, 0.08678007, 0.0073509216, 9.895372
97618690937695, -0.45224348, 6.0981083, 7.409375, -0.12813151, -0.07579279, 9.605631
97618700576445, -0.19501504, 6.8315086, 7.617551, 0.25662208, 0.25706196, 10.227547
97618710215091, -0.4211368, 5.727221, 7.342376, -0.18181252, -0.3151698, 9.314318
97618719853841, -0.25603202, 7.068398, 7.706085, 0.24274433, 0.38335228, 10.450151
97618729492591, -0.36011982, 5.643472, 7.3160553, -0.12079346, -0.3767538, 9.238322
97618739131341, -0.33499518, 6.99781, 7.728817, 0.13773525, 0.35359764, 10.424593
97618748770091, -0.34456646, 5.881558, 7.5110703, -0.09809971, -0.32755184, 9.539954
97618758408736, -0.4426722, 6.65444, 7.7072816, -0.035704374, 0.14477253, 10.19105
97618768047486, -0.2632105, 6.381658, 7.629515, 0.08494294, -0.056054115, 9.949572
97618777686236, -0.48933223, 6.1734824, 7.5290165, -0.16588032, -0.08370972, 9.746944
97618787324986, -0.2656033, 6.800402, 7.759924, 0.1618489, 0.16631174, 10.318846
97618796963736, -0.4881358, 5.753542, 7.489535, -0.26608157, -0.35489702, 9.446584
97618806602382, -0.28713873, 7.09113, 7.8197446, 0.2144419, 0.344985, 10.55225
97618816241132, -0.41874397, 5.6590257, 7.375876, -0.2037847, -0.37934685, 9.296131
97618825879882, -0.36729828, 7.042077, 7.7012997, 0.13628376, 0.40326834, 10.433341
97618835518632, -0.3385844, 5.8839507, 7.4177504, -0.07399011, -0.2611332, 9.47021
97618845157382, -0.40558344, 6.7166533, 7.617551, 0.03251481, 0.23449421, 10.161148
97618854796028, -0.2656033, 6.2991056, 7.5230346, 0.078789115, -0.05103302, 9.815117
97618864434778, -0.47377887, 6.172286, 7.4380894, -0.13808179, -0.032791138, 9.6760845
97618874073528, -0.25124636, 6.7322063, 7.6402826, 0.17640555, 0.18879938, 10.182971
97618883712278, -0.45224348, 5.7750773, 7.4344997, -0.21205288, -0.32677937, 9.416798
97618893351028, -0.23688944, 7.045666, 7.8017983, 0.23745823, 0.3175578, 10.507538
97618902989674, -0.41156548, 5.6410794, 7.4177504, -0.19865042, -0.42567253, 9.316303
97618912628424, -0.32542387, 7.07438, 7.7814593, 0.16000068, 0.36879492, 10.5139065
97618922267174, -0.3589234, 5.8707905, 7.495517, -0.108439445, -0.3191023, 9.521774
97618931905924, -0.45224348, 6.771688, 7.733603, -0.024974585, 0.21864605, 10.286908
97618941544570, -0.30867413, 6.276374, 7.594819, 0.021567822, -0.09860659, 9.856939
97618951183320, -0.46061835, 6.2524457, 7.5050883, -0.11628473, -0.018512249, 9.778432
97618960822070, -0.24646074, 6.704689, 7.6343007, 0.17532909, 0.17260742, 10.160494
97618970460820, -0.44745782, 5.8013983, 7.416554, -0.19219601, -0.29560757, 9.420053
97618980099570, -0.24526432, 7.01097, 7.769495, 0.22649407, 0.31480885, 10.46081
97618989738320, -0.43669012, 5.6303115, 7.3627152, -0.21245116, -0.3945999, 9.268217
97618999376966, -0.30867413, 7.062416, 7.7072816, 0.1798203, 0.4131837, 10.448547
97619009015716, -0.34097722, 5.790631, 7.4177504, -0.09910858, -0.33410358, 9.410061
97619018654466, -0.4127619, 6.7968125, 7.7240314, 0.02013123, 0.22714567, 10.294449
97619028293216, -0.30029923, 6.216553, 7.588837, 0.013749361, -0.13993692, 9.813583
97619037931966, -0.4833502, 6.3158555, 7.542177, -0.12974036, 0.014446259, 9.848403
97619047570611, -0.2440679, 6.6771717, 7.645068, 0.17185688, 0.146348, 10.150877
97619057209361, -0.47258246, 5.849255, 7.4416785, -0.21390212, -0.26357222, 9.471033
97619066848111, -0.26679972, 7.024131, 7.818548, 0.21145749, 0.29620647, 10.507465
97619076486861, -0.45224348, 5.639883, 7.422536, -0.24662644, -0.41050816, 9.320811
97619086125611, -0.3290131, 7.068398, 7.7611203, 0.16669965, 0.37821245, 10.494507
97619095764361, -0.36490545, 5.7667027, 7.426125, -0.12672448, -0.34814262, 9.402025
97619105403007, -0.41635114, 6.838687, 7.7407813, 0.026961446, 0.25650692, 10.334126
97619115041757, -0.31465617, 6.166304, 7.6019974, -0.010379195, -0.17935658, 9.791854
97619124680507, -0.46301118, 6.363712, 7.5864444, -0.104064226, 0.019245148, 9.912323
97619134319257, -0.22612174, 6.6460648, 7.641479, 0.18310761, 0.12093878, 10.127455
97619143958007, -0.43788654, 5.8971114, 7.4045897, -0.1671834, -0.21140337, 9.472221
97619153596757, -0.22372891, 6.9882383, 7.7180495, 0.25854003, 0.31959057, 10.405999
97619163235403, -0.42592242, 5.6386867, 7.3256264, -0.20721304, -0.35987377, 9.244921
97619172874153, -0.3385844, 7.0803623, 7.702496, 0.177055, 0.42130756, 10.4578085
97619182512903, -0.37447673, 5.7260246, 7.37109, -0.14927804, -0.33705616, 9.33406
97619192151653, -0.36490545, 6.8422766, 7.706085, 0.0887717, 0.25661802, 10.308245
97619201790403, -0.25004998, 6.131608, 7.5613194, 0.052761078, -0.19343424, 9.736144
97619211429153, -0.41994038, 6.445068, 7.5960155, -0.044476032, 0.060951233, 9.9704075
97619221067799, -0.22612174, 6.6077795, 7.641479, 0.17229605, 0.0978384, 10.102812
97619230706549, -0.46181476, 5.925825, 7.4883385, -0.189587, -0.23952866, 9.555656
97619240345299, -0.23928227, 6.9738817, 7.826923, 0.22125995, 0.25283957, 10.480463
97619249984049, -0.43908295, 5.6590257, 7.4440713, -0.22610843, -0.41321993, 9.349314
97619259622799, -0.32303107, 7.0803623, 7.745567, 0.17570019, 0.4098959, 10.489555
97619269261549, -0.4223332, 5.706882, 7.3639116, -0.18379974, -0.33325338, 9.31822
97619278900299, -0.39361933, 6.908079, 7.692925, 0.07311356, 0.3294139, 10.341362
97619288538945, -0.28115666, 6.0825553, 7.530213, 0.018964052, -0.19585228, 9.682042
97619298177695, -0.42592242, 6.4642105, 7.5960155, -0.04251373, 0.08054352, 9.982915
97619307816445, -0.2213361, 6.5312095, 7.6031938, 0.16841376, 0.0659256, 10.024048
97619317455195, -0.45942193, 5.973682, 7.457232, -0.17036921, -0.18152428, 9.562651
97619327093945, -0.25962126, 6.914061, 7.800602, 0.18980098, 0.23144865, 10.422642
97619336732695, -0.46181476, 5.621937, 7.4787674, -0.25467885, -0.4556613, 9.353016
97619346371445, -0.33020952, 7.038488, 7.856833, 0.13865447, 0.30831146, 10.548218
97619356010091, -0.38285163, 5.6733823, 7.450053, -0.16475797, -0.41729355, 9.361403
97619365648841, -0.37686956, 6.9092755, 7.77787, 0.07790625, 0.28615713, 10.406124
97619375287591, -0.32662028, 6.0311093, 7.560123, -0.041746855, -0.23949194, 9.673536
97619384926341, -0.46779683, 6.5407805, 7.6271224, -0.070158124, 0.13126612, 10.057409
97619394565091, -0.25842485, 6.5347986, 7.576873, 0.13899028, 0.10048485, 10.007494
97619404203841, -0.47976094, 6.023931, 7.4069824, -0.16312915, -0.11152363, 9.557314
97619413842591, -0.22971097, 6.9332037, 7.6953177, 0.24035668, 0.3087678, 10.353109
97619423481341, -0.42951167, 5.704489, 7.375876, -0.18096799, -0.34583664, 9.32614
97619433119986, -0.2727818, 7.085148, 7.7443705, 0.21447337, 0.39930773, 10.490165
97619442758736, -0.36251262, 5.660222, 7.342376, -0.11829662, -0.36829376, 9.269865
97619452397486, -0.34217364, 6.9224358, 7.704889, 0.11460942, 0.3218956, 10.357884
97619462036236, -0.30867413, 5.9545393, 7.5266237, -0.027422905, -0.28105164, 9.598029
97619471674986, -0.46061835, 6.524031, 7.696514, -0.08234078, 0.06201935, 10.099548
97619481313736, -0.2632105, 6.4235325, 7.6977105, 0.090135336, -0.054810524, 10.02869
97619490952486, -0.46181476, 6.040681, 7.554141, -0.16210818, -0.19850397, 9.680003
97619500591236, -0.2428715, 6.8865438, 7.8089767, 0.19480431, 0.21030283, 10.410641
97619510229986, -0.465404, 5.727221, 7.4919276, -0.22831964, -0.38209438, 9.4312525
97619519868632, -0.29312077, 7.1078796, 7.82453, 0.19707906, 0.37091255, 10.566681
97619529507382, -0.4031906, 5.686543, 7.37109, -0.17206377, -0.3543973, 9.310054
97619539146132, -0.4127619, 7.0229344, 7.6869426, 0.08473241, 0.42970037, 10.4110155
97619548784882, -0.36131623, 5.95095, 7.4356966, -0.07978642, -0.21727037, 9.527872
97619558423632, -0.4426722, 6.6149583, 7.588837, -0.024192095, 0.19452667, 10.075
97619568062382, -0.26919255, 6.4163537, 7.475178, 0.11618507, 0.07236624, 9.854013
97619577701132, -0.49651068, 6.1184473, 7.3746796, -0.15968144, -0.020339489, 9.593847
97619587339882, -0.25244278, 6.856633, 7.661818, 0.20757937, 0.26821852, 10.279375
97619596978632, -0.45942193, 5.73081, 7.4333034, -0.22556114, -0.35391855, 9.387817
97619606617382, -0.2644069, 7.0803623, 7.8197446, 0.2153486, 0.33599377, 10.544695
97619616256132, -0.4019942, 5.651847, 7.4033933, -0.17263281, -0.40597153, 9.31239
97619625894778, -0.38644084, 6.9990063, 7.7742805, 0.09652877, 0.3446169, 10.461683
97619635533528, -0.37806597, 5.898308, 7.5409803, -0.11103481, -0.3170476, 9.575308
97619645172278, -0.47377887, 6.6711893, 7.7108707, -0.056828856, 0.1639018, 10.205718
97619654811028, -0.29192436, 6.3720865, 7.618747, 0.06483495, -0.040209293, 9.936207
97619664449778, -0.4749753, 6.1806607, 7.521838, -0.14233541, -0.0750289, 9.745684
97619674088528, -0.22851457, 6.8243303, 7.751549, 0.20454037, 0.19197273, 10.326255
97619683727278, -0.42831525, 5.7786665, 7.4883385, -0.18205726, -0.35926104, 9.459886
97619693366028, -0.2548356, 7.079166, 7.8233337, 0.22216272, 0.33507776, 10.5462055
97619703004778, -0.40558344, 5.6147585, 7.3698936, -0.18294692, -0.4165988, 9.262737
97619712643528, -0.31226337, 7.01097, 7.6941214, 0.17989862, 0.38187456, 10.405407
97619722282278, -0.32063824, 5.837291, 7.402197, -0.05576527, -0.2895546, 9.427743
97619731921028, -0.42831525, 6.674779, 7.618747, 0.0016899109, 0.21331453, 10.135873
97619741559778, -0.30508488, 6.2871413, 7.5110703, 0.04312837, -0.035994053, 9.7997055
97619751198528, -0.45702913, 6.206982, 7.4309106, -0.11008525, -0.003297329, 9.69236
97619760837278, -0.2321038, 6.7872415, 7.635497, 0.21438134, 0.22600651, 10.213928
97619770476028, -0.48215377, 5.8037915, 7.4189467, -0.2357912, -0.27548075, 9.424742
97619780114674, -0.28953153, 7.0935225, 7.816155, 0.2068528, 0.34561062, 10.551395
97619789753424, -0.4354937, 5.669793, 7.405786, -0.219805, -0.38421345, 9.326627
97619799392174, -0.33379877, 7.075577, 7.7671022, 0.16939437, 0.37719345, 10.50391
97619809030924, -0.3684947, 5.8396835, 7.4847493, -0.12160015, -0.33009624, 9.493968
97619818669674, -0.44147578, 6.751349, 7.7647095, -0.014863253, 0.17808437, 10.297298
97619828308424, -0.32063824, 6.2464633, 7.629515, 0.0032128096, -0.13627148, 9.864686
97619837947174, -0.485743, 6.227321, 7.5062847, -0.14037097, -0.024020672, 9.7641945
97619847585924, -0.2321038, 6.6891356, 7.611569, 0.19985712, 0.17171574, 10.132372
97619857224674, -0.43788654, 5.7930236, 7.3830543, -0.17868304, -0.2770033, 9.388914
97619866863424, -0.24646074, 7.042077, 7.745567, 0.24696743, 0.34571552, 10.462547
97619876502174, -0.39960137, 5.619544, 7.385447, -0.18556106, -0.4133792, 9.277849
97619886140924, -0.31106696, 7.045666, 7.7551384, 0.18789876, 0.36892176, 10.474204
97619895779674, -0.3589234, 5.8097734, 7.4943204, -0.12426853, -0.35588694, 9.481827
97619905418424, -0.41635114, 6.8279195, 7.804191, 0.023474574, 0.20515108, 10.375769
97619915057174, -0.2955136, 6.2344995, 7.6510506, 0.018044114, -0.16199923, 9.872602
97619924695924, -0.49651068, 6.320641, 7.588837, -0.14166963, -0.002769947, 9.887739
97619934334674, -0.2656033, 6.686743, 7.670193, 0.15726817, 0.14734983, 10.176861
97619943973424, -0.47976094, 5.8420763, 7.442875, -0.22007978, -0.260221, 9.467855
97619953612174, -0.2739782, 7.007381, 7.7706914, 0.21439028, 0.31227875, 10.460337
97619963250924, -0.4438686, 5.6470613, 7.34118, -0.22430551, -0.3524232, 9.263084
97619972889674, -0.33738798, 7.082755, 7.6666036, 0.18537128, 0.45009184, 10.431639
97619982528424, -0.37567315, 5.771488, 7.351948, -0.12377107, -0.28596163, 9.349079
97619992167174, -0.3912265, 6.91765, 7.7072816, 0.08596897, 0.32621813, 10.358346
97620001805924, -0.35653058, 6.175875, 7.55773, -0.035511017, -0.12970638, 9.765744
97620011444674, -0.34337005, 6.428318, 7.6510506, 0.02246809, -0.00944376, 9.998958
97620021083424, -0.37088752, 6.3254266, 7.645068, -0.026234746, -0.07295179, 9.929233
97620030722174, -0.37686956, 6.38764, 7.648658, -0.01824534, -0.028265476, 9.972202
97620040360924, -0.36251262, 6.352944, 7.623533, -0.0075799227, -0.040593147, 9.930149
97620049999674, -0.3278167, 6.378069, 7.600801, 0.034041643, -0.016516209, 9.927637
97620059638424, -0.34217364, 6.3744793, 7.588837, 0.020976663, -0.007901669, 9.916704
97620069277174, -0.36729828, 6.3601227, 7.5469627, -0.0016608238, 0.012645245, 9.876365
97620078915924, -0.35413775, 6.361319, 7.5314093, 0.013704777, 0.018986225, 9.864754
97620088554674, -0.3469593, 6.3684974, 7.5314093, 0.021982312, 0.021863937, 9.869108
97620098193424, -0.36011982, 6.385247, 7.5517483, 0.0103036165, 0.024792671, 9.895922
97620107832174, -0.38285163, 6.3696938, 7.5732837, -0.018703103, 0.00594759, 9.903223
97620117470924, -0.3792624, 6.3684974, 7.580462, -0.016572237, -4.8017502E-4, 9.907812
97620127109674, -0.36729828, 6.3768725, 7.5960155, -0.0047757626, -0.0068917274, 9.924654
97620136748424, -0.3792624, 6.3696938, 7.6127653, -0.019850612, -0.018831253, 9.933292
97620146387174, -0.38763726, 6.3792653, 7.6343007, -0.028408289, -0.022687435, 9.956232
97620156025924, -0.40677986, 6.407979, 7.649854, -0.042404175, -0.005944252, 9.987297
97620165664674, -0.39481574, 6.398408, 7.631908, -0.029604197, -0.0051221848, 9.966978
97620175303424, -0.38883367, 6.3768725, 7.6127653, -0.025822043, -0.011049271, 9.938265
97620184942174, -0.36251262, 6.3972116, 7.587641, 0.007630825, 0.012760639, 9.931154
97620194580924, -0.35294133, 6.391229, 7.5696945, 0.018061161, 0.016474724, 9.913227
97620204219674, -0.36490545, 6.3948183, 7.5589266, 0.008406639, 0.028251171, 9.9077425
97620213858424, -0.37686956, 6.3828545, 7.5517483, -0.0056375265, 0.026243687, 9.895
97620223497174, -0.37208393, 6.367301, 7.570891, -0.007722974, 0.0011458397, 9.899461
97620233136028, -0.35413775, 6.378069, 7.5792656, 0.0108881, -0.0014109612, 9.91213
97620242774778, -0.36251262, 6.3696938, 7.5637126, 0.0032960176, 0.00458622, 9.895158
97620252413528, -0.35413775, 6.3744793, 7.5433736, 0.015320897, 0.018297672, 9.882372
97620262052278, -0.33379877, 6.3924255, 7.533802, 0.040282488, 0.03098011, 9.885853
97620271691028, -0.33140594, 6.38764, 7.550552, 0.038835645, 0.01648426, 9.895494
97620281329778, -0.3481557, 6.3888364, 7.580462, 0.018136501, 0.002749443, 9.919754
97620290968528, -0.36131623, 6.3768725, 7.618747, -0.0034399033, -0.025736809, 9.941816
97620300607278, -0.36011982, 6.3828545, 7.615158, -7.6556206E-4, -0.018814087, 9.942877
97620310246028, -0.37208393, 6.384051, 7.6139617, -0.011236787, -0.012909412, 9.943172
97620319884778, -0.39481574, 6.35773, 7.6067834, -0.037681818, -0.020869732, 9.921587
97620329523528, -0.38285163, 6.363712, 7.6031938, -0.023198128, -0.016787529, 9.922256
97620339162278, -0.37208393, 6.384051, 7.6031938, -0.007856131, -0.0047426224, 9.93494
97620348801028, -0.37328035, 6.381658, 7.60798, -0.010369301, -0.009078503, 9.937107
97620358439778, -0.3684947, 6.38764, 7.624729, -0.0074464083, -0.016722202, 9.953587
97620368078528, -0.35653058, 6.3960147, 7.617551, 0.007076621, -0.009570599, 9.953043
97620377717382, -0.35294133, 6.4008007, 7.5924263, 0.015030146, 0.0078725815, 9.936773
97620387356132, -0.36610186, 6.384051, 7.5756764, 6.284714E-4, 0.008939743, 9.913673
97620396994882, -0.36011982, 6.37089, 7.5517483, 0.007045746, 0.012586117, 9.88669
97620406633632, -0.37088752, 6.3768725, 7.521838, 0.0026847124, 0.037959576, 9.868063
97620416272382, -0.3792624, 6.381658, 7.521838, -0.0042461157, 0.043190002, 9.871452
97620425911132, -0.3804588, 6.3744793, 7.5314093, -0.008707881, 0.03123951, 9.874199
97620435549882, -0.37686956, 6.3888364, 7.548159, -0.004716873, 0.030209064, 9.896112
97620445188632, -0.37088752, 6.3768725, 7.578069, -0.005961776, 0.0010814667, 9.911062
97620454827382, -0.36370903, 6.381658, 7.587641, 7.709265E-4, -0.0031900406, 9.921197
97620464466132, -0.3493521, 6.391229, 7.59123, 0.01632917, -0.0016293526, 9.929569
97620474104882, -0.34576288, 6.398408, 7.6103725, 0.01874566, -0.008764267, 9.948692
97620483743736, -0.36011982, 6.3888364, 7.635497, -6.4212084E-4, -0.027719975, 9.962278
97620493382486, -0.37088752, 6.3924255, 7.641479, -0.011211455, -0.02612114, 9.969557
97620503021236, -0.3696911, 6.398408, 7.6366935, -0.008303344, -0.018793583, 9.969701
97620512659986, -0.37806597, 6.3864436, 7.617551, -0.01663214, -0.013940334, 9.947675
97620522298736, -0.38883367, 6.375676, 7.570891, -0.023308396, 0.00998354, 9.905462
97620531937486, -0.37208393, 6.384051, 7.5529447, -0.0026836991, 0.02206707, 9.896517
97620541576236, -0.35413775, 6.378069, 7.52782, 0.016430438, 0.029382706, 9.872799
97620551214986, -0.32542387, 6.3960147, 7.513463, 0.049473166, 0.043569088, 9.87232
97620560853736, -0.36729828, 6.3768725, 7.5457664, 4.7683716E-5, 0.01852417, 9.886237
97620570492591, -0.3696911, 6.3804617, 7.5661054, -0.0039402246, 0.008916378, 9.904183
97620580131341, -0.36490545, 6.373283, 7.59123, -0.0041178465, -0.01326704, 9.9185915
97620589770091, -0.38644084, 6.3924255, 7.605587, -0.02250731, -0.0026378632, 9.942678
97620599408841, -0.40797627, 6.390033, 7.6103725, -0.04400873, -5.903244E-4, 9.945594
97620609047591, -0.39601216, 6.4055862, 7.5960155, -0.02606523, 0.016610622, 9.944185
97620618686341, -0.38763726, 6.3828545, 7.585248, -0.02143228, 0.0044369698, 9.921019
97620628325091, -0.36011982, 6.3948183, 7.584051, 0.008024216, 0.0058660507, 9.926788
97620637963841, -0.37567315, 6.3948183, 7.5900335, -0.008212924, 0.0065145493, 9.931936
97620647602591, -0.36729828, 6.3804617, 7.5553374, 0.001758337, 0.015097141, 9.895863
97620657241445, -0.34456646, 6.3828545, 7.5553374, 0.023967028, 0.010491371, 9.8965645
97620666880195, -0.37088752, 6.3888364, 7.5625157, -0.0011301041, 0.017384052, 9.906874
97620676518945, -0.37447673, 6.363712, 7.564909, -0.011187792, -0.0015873909, 9.892663
97620686157695, -0.36490545, 6.35773, 7.588837, -0.0065739155, -0.023683071, 9.906751
97620695796445, -0.36011982, 6.3828545, 7.597212, 0.0025668144, -0.010955334, 9.929151
97620705435195, -0.3278167, 6.38764, 7.60439, 0.033667684, -0.020668507, 9.936529
97620715073945, -0.3481557, 6.384051, 7.609176, 0.011900187, -0.02034998, 9.938627
97620724712799, -0.35533416, 6.38764, 7.597212, 0.007543683, -0.008281231, 9.932053
97620734351549, -0.35174492, 6.391229, 7.594819, 0.011764288, -0.0053133965, 9.932404
97620743990299, -0.3684947, 6.385247, 7.5864444, -0.004730344, -4.0245056E-4, 9.922768
97620753629049, -0.36729828, 6.378069, 7.55773, -0.001046896, 0.0120892525, 9.896152
97620763267799, -0.39601216, 6.381658, 7.570891, -0.029678822, 0.013765812, 9.909576
97620772906549, -0.4019942, 6.3792653, 7.560123, -0.03449619, 0.019838333, 9.900024
97620782545299, -0.3792624, 6.390033, 7.564909, -0.010537624, 0.018573761, 9.909782
97620792184153, -0.37686956, 6.3864436, 7.554141, -0.007191539, 0.021861076, 9.899153
97620801822903, -0.34217364, 6.40439, 7.5457664, 0.031371474, 0.030988216, 9.903025
97620811461653, -0.33379877, 6.3948183, 7.54457, 0.03758657, 0.021762848, 9.895646
97620821100403, -0.33738798, 6.390033, 7.5673018, 0.029131532, 0.004480362, 9.910072
97620830739153, -0.36490545, 6.3792653, 7.5924263, -0.0042865276, -0.011330605, 9.923356
97620840377903, -0.37208393, 6.3744793, 7.6163545, -0.01573801, -0.027264595, 9.938829
97620850016757, -0.36370903, 6.3684974, 7.6139617, -0.008803248, -0.032357216, 9.93284
97620859655507, -0.35533416, 6.38764, 7.600801, 0.005715728, -0.011639595, 9.934797
97620869294257, -0.36011982, 6.373283, 7.5960155, -0.0017296076, -0.016661644, 9.922075
97620878933007, -0.35533416, 6.378069, 7.5756764, 0.0070956945, -0.0016889572, 9.909431
97620888571757, -0.3505485, 6.390033, 7.550552, 0.018274188, 0.021070957, 9.897751
97620898210507, -0.3505485, 6.3828545, 7.536195, 0.018511891, 0.024055004, 9.882156
97620907849361, -0.36610186, 6.38764, 7.539784, 0.004279852, 0.029100895, 9.888552
97620917488111, -0.3924229, 6.3864436, 7.576873, -0.027110219, 0.012677193, 9.917095
97620927126861, -0.3912265, 6.3996043, 7.594819, -0.025687099, 0.010326862, 9.939241
97620936765611, -0.37088752, 6.3960147, 7.5996046, -0.0075905323, -0.0010328293, 9.939844
97620946404361, -0.3469593, 6.4055862, 7.584051, 0.01991427, 0.009161949, 9.933242
97620956043216, -0.357727, 6.3996043, 7.5792656, 0.008646607, 0.011141777, 9.9261265
97620965681966, -0.357727, 6.3888364, 7.580462, 0.0053139925, 0.0026259422, 9.920108
