timestamp_acc,device_acc_x,device_acc_y,device_acc_z,earth_acc_x,earth_acc_y,earth_acc_z
356275479755752, 6.789634, -0.37447673, 7.3782687, 0.027185798, 0.019138336, 10.033798
356275489394607, 6.8195443, -0.3505485, 7.3770723, 0.008551836, 0.046866417, 10.052263
356275499033461, 6.7932234, -0.34456646, 7.426125, -0.0062292814, -0.0032877922, 10.070446
356275508672419, 6.780063, -0.30987054, 7.4476604, -0.04349625, -0.020860672, 10.07624
356275518311273, 6.782456, -0.28713873, 7.4416785, -0.060700774, -0.009408951, 10.072683
356275527950127, 6.7908306, -0.29790643, 7.428518, -0.047234178, 0.0033750534, 10.069
356275537588982, 6.802795, -0.29671, 7.4333034, -0.04645908, 0.010912895, 10.0805645
356275547227836, 6.8398833, -0.2955136, 7.4356966, -0.04322064, 0.03667593, 10.107309
356275556866794, 6.8506513, -0.29790643, 7.4249287, -0.03846872, 0.050688267, 10.106714
356275566505648, 6.8506513, -0.27756742, 7.4177504, -0.056135535, 0.055359364, 10.100756
356275576144502, 6.8339014, -0.28594232, 7.4141607, -0.048000693, 0.042028904, 10.087105
356275585783357, 6.788438, -0.30149564, 7.3830543, -0.031720757, 0.02670002, 10.034019
356275595422211, 6.754938, -0.3385844, 7.344769, 0.0068366528, 0.021449089, 9.984435
356275605061169, 6.7441707, -0.35174492, 7.375876, 0.0125489235, -0.0067305565, 10.0005455
356275614700023, 6.7525454, -0.33379877, 7.426125, -0.013617158, -0.028148174, 10.042641
356275624338877, 6.7728844, -0.35533416, 7.429714, 0.009424329, -0.019462585, 10.059743
356275633977732, 6.7573314, -0.3924229, 7.4416785, 0.041107655, -0.041634083, 10.059357
356275643616586, 6.77767, -0.38883367, 7.4883385, 0.033117652, -0.05603075, 10.107372
356275653255544, 6.7908306, -0.35174492, 7.5026956, -0.0034290552, -0.048916817, 10.12557
356275662894398, 6.7704916, -0.3361916, 7.5050883, -0.019763827, -0.06327534, 10.113087
356275672533252, 6.765706, -0.36370903, 7.4739814, 0.011908531, -0.05130434, 10.087847
356275682172107, 6.7728844, -0.3684947, 7.476374, 0.018192768, -0.049960136, 10.094607
356275691811065, 6.7872415, -0.36011982, 7.4679995, 0.01115483, -0.036593914, 10.097816
356275701449919, 6.798009, -0.33379877, 7.4536424, -0.012085915, -0.015217304, 10.0936
356275711088773, 6.7740808, -0.3696911, 7.4045897, 0.025850177, -0.008158207, 10.042513
356275720727627, 6.759724, -0.4031906, 7.3399835, 0.06391764, 0.0134625435, 9.986366
356275730366586, 6.759724, -0.38524446, 7.2933235, 0.052357018, 0.047243595, 9.951376
356275740005440, 6.7573314, -0.36610186, 7.2969127, 0.03063643, 0.04276657, 9.951771
356275749644294, 6.7501526, -0.3469593, 7.301698, 0.009046435, 0.03367281, 9.949801
356275759283148, 6.759724, -0.38165522, 7.2789664, 0.04649651, 0.047341347, 9.940748
356275768922107, 6.765706, -0.37328035, 7.2861447, 0.037492216, 0.04740858, 9.949793
356275778560961, 6.7633133, -0.32422748, 7.3172517, -0.014904857, 0.03299761, 9.969372
356275788199815, 6.7740808, -0.30149564, 7.3340015, -0.035779834, 0.033824444, 9.988205
356275797838669, 6.814759, -0.30867413, 7.353144, -0.02732122, 0.04963541, 10.030042
356275807477523, 6.8219376, -0.30867413, 7.3902326, -0.026296973, 0.030097485, 10.06221
356275817116482, 6.8422766, -0.30269206, 7.4010005, -0.029492617, 0.0391078, 10.083691
356275826755336, 6.836294, -0.3062813, 7.4141607, -0.027056098, 0.025930405, 10.089457
356275836394190, 6.843473, -0.29312077, 7.4392858, -0.042696357, 0.017209053, 10.112364
356275846033044, 6.8542404, -0.2835495, 7.4656067, -0.05397117, 0.012172222, 10.1387005
356275855672002, 6.8135624, -0.27756742, 7.450053, -0.061754346, -0.005643368, 10.099562
356275865310857, 6.792027, -0.30987054, 7.4344997, -0.029655337, -0.016863346, 10.074635
356275874949711, 6.780063, -0.30508488, 7.4380894, -0.03615868, -0.027210236, 10.069035
356275884588565, 6.7645097, -0.33379877, 7.4249287, -0.007875681, -0.03588915, 10.0497875
356275894227523, 6.7669024, -0.36610186, 7.4033933, 0.026896477, -0.026305676, 10.036625
356275903866377, 6.77767, -0.38285163, 7.3842506, 0.04593587, -0.008928776, 10.030373
356275913505232, 6.8039913, -0.37806597, 7.365108, 0.043889046, 0.023621082, 10.033922
356275923144086, 6.7908306, -0.37088752, 7.3543406, 0.034611166, 0.02161932, 10.016867
356275932783044, 6.7669024, -0.35533416, 7.3543406, 0.015545666, 0.005279064, 10.000165
356275942421898, 6.7728844, -0.37208393, 7.308877, 0.037723005, 0.036743164, 9.971325
356275952060752, 6.74776, -0.4019942, 7.314859, 0.065819085, 0.0069379807, 9.959752
356275961699607, 6.739385, -0.35413775, 7.3399835, 0.014626265, -0.009809971, 9.970947
356275971338565, 6.780063, -0.3062813, 7.37109, -0.03286296, 0.006860256, 10.019727
356275980977419, 6.802795, -0.31226337, 7.408179, -0.02693379, -0.0024194717, 10.062599
356275990616273, 6.8219376, -0.31106696, 7.4249287, -0.02678883, 9.7608566E-4, 10.087836
356276000255127, 6.8458657, -0.27756742, 7.456035, -0.061644435, 0.003730297, 10.125787
356276009894086, 6.8506513, -0.26799613, 7.4548388, -0.06905967, 0.010092735, 10.127832
356276019532940, 6.8398833, -0.29671, 7.411768, -0.03406608, 0.025745869, 10.089823
356276029171794, 6.8315086, -0.30867413, 7.373483, -0.016386628, 0.04195404, 10.056392
356276038810648, 6.8398833, -0.28953153, 7.3543406, -0.032327175, 0.058463573, 10.047371
356276048449607, 6.826723, -0.28953153, 7.318448, -0.028772235, 0.07267237, 10.01207
356276058088461, 6.802795, -0.33020952, 7.2909307, 0.011973619, 0.061138153, 9.977016
356276067727315, 6.780063, -0.34217364, 7.2658057, 0.024676204, 0.05938673, 9.943546
356276077366169, 6.7609205, -0.3278167, 7.281359, 0.0061600804, 0.03648615, 9.941547
356276087005127, 6.7645097, -0.3278167, 7.300502, 0.003395915, 0.026384354, 9.958046
356276096643982, 6.7585278, -0.32303107, 7.312466, -0.002828002, 0.016728878, 9.962627
356276106282836, 6.7585278, -0.31465617, 7.361519, -0.01777327, -0.014436722, 9.998407
356276115921690, 6.7908306, -0.2955136, 7.422536, -0.039248347, -0.02515316, 10.064522
356276125560648, 6.799206, -0.31226337, 7.4333034, -0.023340821, -0.02908802, 10.078657
356276135199502, 6.812366, -0.3505485, 7.428518, 0.020006657, -0.018170834, 10.085304
356276144838357, 6.8255267, -0.37567315, 7.442875, 0.04340017, -0.021253109, 10.105593
356276154477211, 6.8398833, -0.34217364, 7.483553, 0.006113529, -0.03141451, 10.144143
356276164116169, 6.838687, -0.30867413, 7.469196, -0.027712703, -0.014169693, 10.131675
356276173755023, 6.826723, -0.33738798, 7.4392858, 0.0031926632, -0.008811951, 10.102518
356276183393877, 6.8243303, -0.3684947, 7.4045897, 0.038816094, 0.0062532425, 10.076391
356276193032732, 6.7740808, -0.357727, 7.381858, 0.024304628, -0.016074657, 10.025324
356276202671690, 6.7669024, -0.34097722, 7.3579297, 0.010731459, -0.0022654533, 10.002312
356276212310544, 6.7704916, -0.32422748, 7.350751, -0.0049179792, 0.006626606, 9.998907
356276221949398, 6.739385, -0.30867413, 7.3459654, -0.023477077, -0.013518333, 9.97382
356276231588357, 6.735796, -0.32303107, 7.3232336, -0.0065154433, -0.003549099, 9.955149
356276241227211, 6.782456, -0.34456646, 7.3160553, 0.019818664, 0.032503605, 9.982166
356276250866065, 6.802795, -0.37447673, 7.353144, 0.045299053, 0.01927042, 10.024199
356276260504919, 6.812366, -0.38404804, 7.3579297, 0.053711593, 0.024594784, 10.034513
356276270143877, 6.8051877, -0.3696911, 7.359126, 0.037986934, 0.02261734, 10.030058
356276279782732, 6.808777, -0.35533416, 7.37109, 0.022726178, 0.019141674, 10.040806
356276289421586, 6.799206, -0.33379877, 7.396215, -0.0025390983, -2.002716E-4, 10.052095
356276299060440, 6.7848487, -0.2955136, 7.4356966, -0.046339333, -0.030920506, 10.070152
356276308699398, 6.788438, -0.27756742, 7.426125, -0.060332894, -0.018823624, 10.064953
356276318338252, 6.7872415, -0.26799613, 7.428518, -0.070326865, -0.019360542, 10.065586
356276327977107, 6.789634, -0.3062813, 7.4237323, -0.030466437, -0.020819664, 10.064959
356276337615961, 6.786045, -0.3397808, 7.4069824, 0.003685832, -0.016593933, 10.051316
356276347254919, 6.800402, -0.34456646, 7.4237323, 0.007288456, -0.01813364, 10.073513
356276356893773, 6.8051877, -0.33260235, 7.422536, -0.0072335005, -0.009953499, 10.075471
356276366532627, 6.7872415, -0.37328035, 7.399804, 0.033586502, -0.014975548, 10.047972
356276376171482, 6.77767, -0.37567315, 7.38784, 0.035909534, -0.0147538185, 10.032778
356276385810440, 6.7812595, -0.34576288, 7.3746796, 0.008900046, 0.0021371841, 10.024512
356276395449294, 6.799206, -0.3278167, 7.38784, -0.009226203, 0.0072665215, 10.045731
356276405088148, 6.7848487, -0.3182454, 7.381858, -0.018927932, 8.544922E-4, 10.031298
356276414727002, 6.8051877, -0.34337005, 7.373483, 0.009345174, 0.016520023, 10.03974
356276424365961, 6.799206, -0.32422748, 7.3770723, -0.010370016, 0.012025356, 10.037693
356276434004815, 6.8111696, -0.32422748, 7.3639116, -0.007464409, 0.028666496, 10.036108
356276443643669, 6.8171515, -0.3361916, 7.3543406, 0.006005883, 0.036916733, 10.03352
356276453282523, 6.8075805, -0.31106696, 7.359126, -0.02061057, 0.030571938, 10.029722
356276462921482, 6.792027, -0.28115666, 7.3495545, -0.050314665, 0.027854443, 10.011158
356276472560336, 6.788438, -0.30149564, 7.3292155, -0.027064681, 0.032396793, 9.994469
356276482199190, 6.799206, -0.34217364, 7.3196445, 0.014826536, 0.036788464, 9.996096
356276491838044, 6.8219376, -0.32422748, 7.347162, -0.005803585, 0.03705454, 10.031118
356276501477002, 6.835098, -0.33379877, 7.3603225, 0.0031341314, 0.03624773, 10.050025
356276511115857, 6.806384, -0.34337005, 7.342376, 0.011364579, 0.027679443, 10.017702
356276520754711, 6.782456, -0.5084748, 7.37109, 0.16634834, -0.039605618, 10.02816
356276530393565, 6.802795, -0.038285162, 7.342376, -0.29023308, 0.08541441, 10.004921
356276540032523, 6.7836523, -0.43429732, 7.409375, 0.08534241, -0.049316883, 10.054634
356276549671377, 6.71426, -0.46181476, 7.342376, 0.11857593, -0.06559038, 9.95925
356276559310232, 6.884151, 0.04546363, 7.4213395, -0.36989963, 0.11433411, 10.115334
356276568949086, 6.721439, -0.9092726, 7.3052874, 0.56484973, -0.13700724, 9.951578
356276578588044, 6.940382, 0.33379877, 7.4356966, -0.6392281, 0.20787096, 10.154707
356276588226898, 6.708278, -1.174876, 7.3268228, 0.8056892, -0.22025347, 9.96825
356276597865752, 6.9092755, 0.35413775, 7.4189467, -0.66413414, 0.19956493, 10.120443
356276607504607, 6.7633133, -0.9906286, 7.3340015, 0.638381, -0.12968159, 10.004348
356276617143565, 6.799206, 0.0059820567, 7.3196445, -0.33653677, 0.12207222, 9.9839
356276626782419, 6.7369924, -0.587438, 7.348358, 0.23345923, -0.07487965, 9.983506
356276636421273, 6.6676, -0.47736812, 7.2909307, 0.12467909, -0.06787157, 9.890515
356276646060127, 6.800402, -0.013160525, 7.3603225, -0.32656723, 0.08384514, 10.015304
356276655698982, 6.6017976, -0.92482597, 7.26102, 0.5612961, -0.18733549, 9.839273
356276665337940, 6.856633, 0.3505485, 7.4548388, -0.69035244, 0.15028858, 10.109983
356276674976794, 6.6628146, -1.105484, 7.353144, 0.7172134, -0.25110483, 9.955224
356276684615648, 6.927222, 0.4642076, 7.472785, -0.79489833, 0.20580053, 10.167114
356276694254502, 6.795616, -0.95712906, 7.3770723, 0.594095, -0.1193285, 10.05736
356276703893461, 6.9044895, 0.14237295, 7.4213395, -0.45453173, 0.16750526, 10.125901
356276713532315, 6.88774, -0.5132605, 7.469196, 0.16393888, -0.023452759, 10.171818
356276723171169, 6.7908306, -0.32662028, 7.3806615, -0.008318067, 0.0019774437, 10.034746
356276732810023, 6.9056864, 0.025124637, 7.429714, -0.3462113, 0.13110399, 10.1367035
356276742448982, 6.6891356, -0.8554341, 7.2897344, 0.5041373, -0.12745905, 9.916962
356276752087836, 6.875776, 0.3589234, 7.442875, -0.68774796, 0.17428684, 10.114253
356276761726690, 6.6329045, -1.0839486, 7.355537, 0.7104219, -0.26269293, 9.934816
356276771365544, 6.863812, 0.39481574, 7.4153576, -0.7095071, 0.18980885, 10.08543
356276781004398, 6.672386, -1.0743774, 7.301698, 0.72044575, -0.17535067, 9.921696
356276790643357, 6.795616, 0.14476576, 7.3100734, -0.47405535, 0.14158058, 9.969642
356276800282211, 6.782456, -0.59700924, 7.3663044, 0.2517438, -0.048531055, 10.027704
356276809921065, 6.7441707, -0.33379877, 7.3399835, -0.0070660114, -0.009557724, 9.973488
356276819559919, 6.862615, -0.0741775, 7.3950186, -0.258151, 0.09243107, 10.085241
356276829198877, 6.707082, -0.7920243, 7.288538, 0.45014536, -0.085538864, 9.9259815
356276838837732, 6.9344, 0.33140594, 7.426125, -0.654983, 0.20182371, 10.14265
356276848476586, 6.6891356, -1.1234303, 7.3639116, 0.7521658, -0.2160716, 9.981052
356276858115440, 6.943971, 0.4354937, 7.4656067, -0.75452733, 0.18403196, 10.175486
356276867754398, 6.765706, -1.0277174, 7.3567333, 0.6801293, -0.13547468, 10.023552
356276877393252, 6.8685975, 0.21415763, 7.4153576, -0.53594434, 0.13317347, 10.094854
356276887032107, 6.769295, -0.65324056, 7.391429, 0.29520738, -0.08985281, 10.039326
356276896670961, 6.7262244, -0.276371, 7.3459654, -0.068036675, -0.021385193, 9.963765
356276906309815, 6.8374906, -0.14237295, 7.3950186, -0.19405949, 0.05389309, 10.070614
356276915948773, 6.6711893, -0.80757767, 7.245467, 0.46196067, -0.093854904, 9.870741
356276925587627, 6.906883, 0.2548356, 7.3842506, -0.5729706, 0.17971802, 10.096363
356276935226482, 6.6711893, -1.1377872, 7.301698, 0.777707, -0.21112728, 9.922939
356276944865336, 6.88774, 0.38404804, 7.4380894, -0.71725476, 0.17319918, 10.117765
356276954504294, 6.708278, -1.1270195, 7.314859, 0.7573743, -0.1884942, 9.958372
356276964143148, 6.8398833, 0.19501504, 7.3603225, -0.52456087, 0.14599991, 10.034935
356276973782002, 6.7836523, -0.7082755, 7.381858, 0.357867, -0.096551895, 10.043608
356276983420857, 6.768099, -0.2213361, 7.372287, -0.11770654, 0.0011086464, 10.009641
356276993059711, 6.882954, -0.16510476, 7.459625, -0.17615592, 0.039479256, 10.149667
356277002698565, 6.719046, -0.69152576, 7.3304124, 0.3403349, -0.09694815, 9.961602
356277012337523, 6.927222, 0.2739782, 7.429714, -0.59360725, 0.1722207, 10.1429825
356277021976377, 6.68435, -1.0803595, 7.328019, 0.71799695, -0.18792677, 9.949711
356277031615232, 6.927222, 0.42951167, 7.440482, -0.7453361, 0.18162203, 10.14609
356277041254086, 6.690332, -1.0947163, 7.301698, 0.7468189, -0.17986012, 9.933965
356277050893044, 6.8542404, 0.23688944, 7.3064837, -0.55279636, 0.19409657, 10.003909
356277060531898, 6.765706, -0.78723866, 7.2969127, 0.45180154, -0.057035923, 9.971563
356277070170752, 6.7465634, -0.1902294, 7.2957163, -0.1372602, 0.03548813, 9.93779
356277079809607, 6.8662047, -0.2105684, 7.3698936, -0.12223172, 0.07028723, 10.073956
356277089448461, 6.7202425, -0.6269195, 7.2622166, 0.29229152, -0.042480946, 9.909956
356277099087419, 6.9344, 0.3074777, 7.3842506, -0.6224408, 0.20631838, 10.113239
356277108726273, 6.690332, -1.0001999, 7.27777, 0.6621182, -0.1514802, 9.912897
356277118365127, 6.9451675, 0.506082, 7.4309106, -0.82068676, 0.21454859, 10.1484165
356277128003982, 6.74776, -0.997807, 7.318448, 0.65396726, -0.11723328, 9.982293
356277137642836, 6.9320073, 0.38883367, 7.3746796, -0.68195796, 0.22511816, 10.103172
356277147281690, 6.8195443, -0.73100734, 7.3639116, 0.40537882, -0.059330463, 10.054846
356277156920648, 6.8219376, -0.059820566, 7.32443, -0.2486158, 0.090749264, 10.00598
356277166559502, 6.8662047, -0.24765715, 7.3663044, -0.07018638, 0.06360769, 10.072714
356277176198357, 6.7130637, -0.66161543, 7.2622166, 0.335912, -0.051766396, 9.90592
356277185837211, 6.893722, 0.15672988, 7.3902326, -0.4755935, 0.14253664, 10.095396
356277195476169, 6.6652074, -1.0504491, 7.318448, 0.69683933, -0.19225502, 9.92802
356277205115023, 6.8721867, 0.37567315, 7.4787674, -0.70533514, 0.14680195, 10.138096
356277214753877, 6.6329045, -1.174876, 7.385447, 0.79506814, -0.2907548, 9.960116
356277224392732, 6.820741, 0.30388847, 7.440482, -0.6256288, 0.10899258, 10.07831
356277234031586, 6.6927247, -0.86141616, 7.4105716, 0.50036657, -0.19984055, 10.008039
356277243670544, 6.7334027, -0.08015956, 7.4129643, -0.26613533, -0.0048274994, 10.011311
356277253309398, 6.795616, -0.35413775, 7.463214, 0.0066235065, -0.05356121, 10.099628
356277262948252, 6.707082, -0.58983076, 7.3830543, 0.23790443, -0.11460066, 9.988623
356277272587107, 6.9020967, 0.13519448, 7.4847493, -0.45942307, 0.11824608, 10.171216
356277282225961, 6.6819572, -1.0336994, 7.379465, 0.6748884, -0.21579313, 9.983564
356277291864919, 6.9212394, 0.40917268, 7.5409803, -0.73163664, 0.14811325, 10.216659
356277301503773, 6.7011, -1.119841, 7.4105716, 0.75489616, -0.2464552, 10.022212
356277311142627, 6.8865438, 0.35294133, 7.4656067, -0.6774014, 0.17715311, 10.1387415
356277320781482, 6.7441707, -0.8925229, 7.38784, 0.52825606, -0.15688705, 10.027808
356277330420336, 6.802795, 0.0071784677, 7.359126, -0.32999992, 0.10606289, 10.01572
356277340059190, 6.836294, -0.33140594, 7.396215, 0.0013047457, 0.020569801, 10.077118
356277349698148, 6.7298136, -0.47736812, 7.281359, 0.14841509, -0.013858318, 9.925434
356277359337002, 6.88774, 0.13160525, 7.359126, -0.44161373, 0.17542887, 10.069221
356277368975857, 6.687939, -0.9559326, 7.23111, 0.6265373, -0.1021862, 9.875641
356277378614711, 6.9116683, 0.43429732, 7.4105716, -0.7456329, 0.22187138, 10.11292
356277388253565, 6.686743, -1.0935199, 7.3052874, 0.7524843, -0.17637825, 9.933691
356277397892523, 6.893722, 0.3804588, 7.3543406, -0.6779757, 0.21749306, 10.062183
356277407531377, 6.7381887, -0.93320084, 7.308877, 0.58617246, -0.1192832, 9.96674
356277417170232, 6.7968125, 0.032303106, 7.3579297, -0.34831733, 0.08101225, 10.010443
356277426809086, 6.823134, -0.44745782, 7.4309106, 0.11124623, -0.035417557, 10.097534
356277436447940, 6.721439, -0.45583272, 7.385447, 0.11278868, -0.08136654, 9.99555
356277446086794, 6.8709903, 0.06699903, 7.4440713, -0.39081568, 0.098763466, 10.122584
356277455725752, 6.6795645, -0.94396853, 7.3459654, 0.5877092, -0.18859053, 9.9543915
356277465364607, 6.9248285, 0.40797627, 7.4979095, -0.7308658, 0.16509008, 10.187096
356277475003461, 6.6556363, -1.1365907, 7.3603225, 0.7699785, -0.24861956, 9.95535
356277484642315, 6.8805614, 0.36729828, 7.4010005, -0.6756644, 0.15734482, 10.088139
356277494281169, 6.7369924, -1.0085747, 7.3100734, 0.6647733, -0.110091686, 9.969324
356277503920127, 6.798009, 0.043070808, 7.3268228, -0.37015277, 0.095811844, 9.987538
356277513558982, 6.8015985, -0.53359944, 7.348358, 0.20070493, -0.012758732, 10.025187
356277523197836, 6.6999035, -0.424726, 7.27777, 0.09092063, -0.01933527, 9.900829
356277532836690, 6.863812, 0.02751746, 7.3495545, -0.3518154, 0.11973238, 10.049403
356277542475544, 6.6460648, -0.91525465, 7.2358956, 0.57999384, -0.12480211, 9.849573
356277552114398, 6.8853474, 0.3696911, 7.4344997, -0.68700004, 0.14308453, 10.115534
356277561753357, 6.6687965, -1.0971092, 7.381858, 0.73363805, -0.22994614, 9.978838
356277571392211, 6.9188466, 0.46301118, 7.4919276, -0.77331173, 0.16840887, 10.177792
356277581031065, 6.734599, -0.971486, 7.402197, 0.6286489, -0.18100071, 10.033103
356277590669919, 6.859026, 0.17587246, 7.442875, -0.4874872, 0.10558796, 10.110626
356277600308773, 6.835098, -0.50368917, 7.4883385, 0.16734445, -0.0731101, 10.149588
356277609947732, 6.7573314, -0.3397808, 7.420143, 0.007891059, -0.051492214, 10.0415535
356277619586586, 6.8889365, -0.010767702, 7.466803, -0.30719852, 0.07785654, 10.154324
356277629225440, 6.7094746, -0.83030945, 7.335198, 0.49903905, -0.1305213, 9.962204
356277638864294, 6.942775, 0.36370903, 7.4644103, -0.6720891, 0.18725061, 10.176693
356277648503148, 6.6759753, -1.119841, 7.365108, 0.76299894, -0.23725414, 9.971412
356277658142002, 6.9116683, 0.45702913, 7.4620175, -0.75530326, 0.18287086, 10.151739
356277667780961, 6.707082, -1.0193424, 7.3495545, 0.67893016, -0.19889069, 9.976946
356277677419815, 6.795616, 0.148355, 7.338787, -0.4553557, 0.13183498, 9.99177
356277687058669, 6.769295, -0.6053841, 7.3579297, 0.27061832, -0.07228804, 10.012519
356277696697523, 6.728617, -0.27996024, 7.3232336, -0.043084145, -0.012467384, 9.948891
356277706336377, 6.8685975, -0.046660043, 7.361519, -0.25763303, 0.11379576, 10.064415
356277715975336, 6.6855464, -0.8315059, 7.2287173, 0.50596833, -0.10036993, 9.867939
356277725614190, 6.8985076, 0.29671, 7.3902326, -0.6033199, 0.17191029, 10.094526
356277735253044, 6.6855464, -1.1270195, 7.2825556, 0.7817949, -0.19525671, 9.917309
356277744891898, 6.910472, 0.43070808, 7.4129643, -0.72695017, 0.18929052, 10.115725
356277754530752, 6.7034926, -1.0660025, 7.344769, 0.71906424, -0.17739725, 9.973478
356277764169607, 6.826723, 0.19621146, 7.375876, -0.5007538, 0.1115818, 10.039073
356277773808565, 6.7704916, -0.62811595, 7.389036, 0.3023919, -0.08470583, 10.036598
356277783447419, 6.754938, -0.23569304, 7.3627152, -0.08119929, -0.0067925453, 9.994383
356277793086273, 6.876972, -0.0849452, 7.4476604, -0.22726744, 0.050946712, 10.13476
356277802725127, 6.7178497, -0.7286145, 7.2909307, 0.4098947, -0.0799222, 9.9319515
356277812363982, 6.957132, 0.34337005, 7.4476604, -0.6326357, 0.18715286, 10.17605
356277822002940, 6.7238317, -1.0648061, 7.3842506, 0.7254193, -0.20134306, 10.015194
356277831641794, 6.9499536, 0.465404, 7.499106, -0.7545527, 0.18064308, 10.205542
356277841280648, 6.7202425, -1.0492527, 7.355537, 0.72155595, -0.19447517, 9.990397
356277850919502, 6.823134, 0.276371, 7.375876, -0.5685469, 0.12374592, 10.034766
356277860558357, 6.751349, -0.7070791, 7.3698936, 0.3870995, -0.107801914, 10.011721
356277870197315, 6.73101, -0.2213361, 7.355537, -0.08964229, -0.01979065, 9.972511
356277879836169, 6.838687, -0.16031912, 7.4249287, -0.1521945, 0.024780273, 10.094509
356277889475023, 6.7011, -0.69272214, 7.3112698, 0.36874557, -0.11038113, 9.93434
356277899113877, 6.9044895, 0.2943172, 7.456035, -0.5972658, 0.14103699, 10.147633
356277908752732, 6.669993, -1.0683953, 7.3698936, 0.73019814, -0.2535696, 9.967352
356277918391586, 6.927222, 0.4881358, 7.501499, -0.7900863, 0.1724267, 10.190348
356277928030544, 6.7166533, -1.0241281, 7.3902326, 0.67922294, -0.2183361, 10.013432
356277937669398, 6.8925257, 0.33260235, 7.4213395, -0.62471354, 0.16878271, 10.113113
356277947308252, 6.798009, -0.6735796, 7.4309106, 0.3552984, -0.121061325, 10.086832
356277956947107, 6.8219376, -0.05742774, 7.3842506, -0.23706394, 0.05120516, 10.050396
356277966585961, 6.8853474, -0.15672988, 7.4213395, -0.1422801, 0.055847168, 10.123511
356277976224919, 6.748956, -0.6161518, 7.27777, 0.31579792, -0.043224335, 9.939437
356277985863773, 6.9332037, 0.27756742, 7.381858, -0.55077505, 0.19768667, 10.114136
356277995502627, 6.698707, -1.006182, 7.280163, 0.6943104, -0.16446543, 9.918505
356278005141482, 6.9248285, 0.4833502, 7.4105716, -0.75609535, 0.2112608, 10.123593
356278014780336, 6.68435, -1.0755738, 7.281359, 0.7615266, -0.18559837, 9.911671
356278024419294, 6.832705, 0.3505485, 7.300502, -0.6234902, 0.1794982, 9.984243
356278034058148, 6.7369924, -0.7501499, 7.304091, 0.44228542, -0.103824615, 9.954554
356278043697002, 6.74776, -0.061016977, 7.3196445, -0.23333669, 0.03241062, 9.952772
356278053335857, 6.8135624, -0.25962126, 7.3746796, -0.045677662, 0.0070209503, 10.043694
356278062974711, 6.7022963, -0.5910272, 7.30768, 0.28260827, -0.08775377, 9.928984
356278072613669, 6.9212394, 0.2117648, 7.4356966, -0.5003205, 0.13156939, 10.147432
356278082252523, 6.6999035, -1.026521, 7.3663044, 0.70812666, -0.19745207, 9.983209
356278091891377, 6.9475603, 0.44027936, 7.530213, -0.72908604, 0.14300013, 10.228125
356278101530232, 6.7262244, -1.1126626, 7.4213395, 0.7792176, -0.2550764, 10.044109
356278111169086, 6.926025, 0.3493521, 7.475178, -0.643677, 0.16980171, 10.174822
356278120808044, 6.7908306, -0.8207382, 7.4249287, 0.49353373, -0.1650672, 10.08205
356278130446898, 6.808777, 0.008374879, 7.411768, -0.30503678, 0.05746746, 10.059694
356278140085752, 6.847062, -0.29192436, 7.4249287, -0.014252782, 0.002336979, 10.104298
356278149724607, 6.7011, -0.56829536, 7.2933235, 0.2548226, -0.085903645, 9.917053
356278159363461, 6.884151, 0.18065812, 7.393822, -0.46698952, 0.16327524, 10.091979
356278169002419, 6.6735826, -0.9882358, 7.257431, 0.65769136, -0.1854186, 9.885174
356278178641273, 6.8865438, 0.39720857, 7.399804, -0.671618, 0.20683813, 10.091854
356278188280127, 6.6628146, -1.160519, 7.304091, 0.8264793, -0.24908638, 9.916882
356278197918982, 6.879365, 0.36610186, 7.355537, -0.6573442, 0.2023158, 10.054382
356278207557940, 6.7238317, -0.8650054, 7.308877, 0.536389, -0.1233964, 9.953638
356278217196794, 6.792027, 0.03589234, 7.3495545, -0.3341958, 0.06817579, 10.001626
356278226835648, 6.8195443, -0.35294133, 7.4440713, 0.029408097, -0.04430628, 10.101589
356278236474502, 6.7178497, -0.4833502, 7.372287, 0.16478264, -0.08822155, 9.983929
356278246113357, 6.9116683, 0.15433706, 7.466803, -0.45146465, 0.11563873, 10.165182
356278255752315, 6.7166533, -0.910469, 7.405786, 0.5860994, -0.18645477, 10.020468
356278265391169, 6.95115, 0.44506502, 7.5613194, -0.748632, 0.14712667, 10.25222
356278275030023, 6.710671, -1.0839486, 7.426125, 0.7499795, -0.25402975, 10.036353
356278284668877, 6.9248285, 0.46779683, 7.4943204, -0.7491451, 0.18085289, 10.185431
356278294307836, 6.769295, -0.8757731, 7.3842506, 0.5478209, -0.1380496, 10.039838
356278303946690, 6.8446693, 0.08255238, 7.379465, -0.37562746, 0.11861467, 10.057716
356278313585544, 6.832705, -0.4139583, 7.4153576, 0.10047495, -0.0229702, 10.0912895
356278323224398, 6.7238317, -0.40917268, 7.281359, 0.10826075, -0.013503075, 9.918854
356278332863252, 6.8853474, 0.086141616, 7.34118, -0.36924368, 0.15852737, 10.05718
356278342502211, 6.669993, -0.9164511, 7.2550383, 0.6038439, -0.1378727, 9.87829
356278352141065, 6.91765, 0.43669012, 7.4333034, -0.72243977, 0.17659712, 10.136345
356278361779919, 6.690332, -1.0827522, 7.344769, 0.7610655, -0.1982832, 9.96293
356278371418773, 6.916454, 0.41515473, 7.3986077, -0.69632447, 0.19147968, 10.110764
356278381057732, 6.7704916, -0.930808, 7.3627152, 0.6033021, -0.12911749, 10.026709
356278390696586, 6.843473, 0.15792629, 7.396215, -0.45980144, 0.10935259, 10.066711
356278400335440, 6.8051877, -0.47856453, 7.428518, 0.15464044, -0.06321287, 10.0843725
356278409974294, 6.7334027, -0.4139583, 7.344769, 0.1003871, -0.047039032, 9.972131
356278419613252, 6.8602223, -0.0011964113, 7.4105716, -0.30264252, 0.08028841, 10.093622
356278429252107, 6.6819572, -0.89371926, 7.3172517, 0.5716021, -0.15537739, 9.931696
356278438890961, 6.9152575, 0.37328035, 7.48116, -0.66501117, 0.16230679, 10.1714945
356278448529815, 6.65444, -1.1473584, 7.37109, 0.8018986, -0.28478193, 9.960261
356278458168773, 6.884151, 0.3912265, 7.426125, -0.6771898, 0.1760478, 10.109517
356278467807627, 6.7034926, -0.9834501, 7.3363943, 0.65528846, -0.18299294, 9.9631195
356278477446482, 6.832705, 0.15194423, 7.3974113, -0.45783567, 0.10812998, 10.060284
356278487085336, 6.792027, -0.54675996, 7.426125, 0.22346151, -0.08632994, 10.075741
356278496724294, 6.7429743, -0.32662028, 7.365108, 0.010265589, -0.032353878, 9.990898
356278506363148, 6.88774, -0.0011964113, 7.4273214, -0.29781878, 0.1025753, 10.124569
356278516002002, 6.704689, -0.81954175, 7.2969127, 0.5037365, -0.11804247, 9.929842
356278525640857, 6.966703, 0.39481574, 7.466803, -0.686324, 0.21258497, 10.194496
356278535279815, 6.715457, -1.0683953, 7.3543406, 0.74008083, -0.20560598, 9.98675
356278544918669, 6.960721, 0.47138608, 7.446464, -0.74460673, 0.24169016, 10.1740265
356278554557523, 6.735796, -0.971486, 7.355537, 0.6462698, -0.17670679, 9.998488
356278564196482, 6.8482585, 0.22731815, 7.361519, -0.52164835, 0.1546669, 10.042223
356278573835336, 6.786045, -0.5407779, 7.379465, 0.22758186, -0.062173843, 10.037117
356278583474190, 6.7405815, -0.2416751, 7.355537, -0.0666548, -0.017440319, 9.979631
356278593113044, 6.8578296, -0.05383851, 7.411768, -0.24780136, 0.06757355, 10.094605
356278602752002, 6.6855464, -0.7860422, 7.2753773, 0.4709245, -0.10840702, 9.900101
356278612390857, 6.908079, 0.33140594, 7.429714, -0.61731255, 0.16254759, 10.130379
356278622029711, 6.6628146, -1.079163, 7.3782687, 0.73711586, -0.24625301, 9.969582
356278631668565, 6.906883, 0.45702913, 7.479964, -0.76131773, 0.14405394, 10.1618595
356278641307523, 6.7238317, -1.0432707, 7.3663044, 0.7211368, -0.19061422, 10.000217
356278650946377, 6.8410797, 0.2321038, 7.3866434, -0.517503, 0.13087034, 10.05643
356278660585232, 6.780063, -0.6652047, 7.402197, 0.3501439, -0.094954014, 10.053492
356278670224190, 6.7501526, -0.21894327, 7.3806615, -0.08817506, -0.017961502, 10.003929
356278679863044, 6.8518476, -0.10049855, 7.426125, -0.20256007, 0.051331997, 10.102554
356278689501898, 6.68435, -0.75254273, 7.301698, 0.435889, -0.112612724, 9.91761
356278699140752, 6.9056864, 0.29790643, 7.457232, -0.58749205, 0.14339972, 10.149968
356278708779711, 6.6819572, -1.0911272, 7.3627152, 0.75375426, -0.2247243, 9.971462
356278718418565, 6.928418, 0.50129634, 7.507481, -0.7845359, 0.18216944, 10.196464
356278728057419, 6.7202425, -1.0025927, 7.393822, 0.66436934, -0.2016635, 10.017653
356278737696377, 6.8650084, 0.30388847, 7.409375, -0.58897316, 0.17534685, 10.0867195
356278747335232, 6.799206, -0.65084773, 7.399804, 0.34374702, -0.08387041, 10.06403
356278756974086, 6.800402, -0.11246266, 7.367501, -0.17585957, 0.05503273, 10.025181
356278766612940, 6.879365, -0.12562318, 7.422536, -0.16319406, 0.06884718, 10.1194935
356278776251898, 6.710671, -0.6795616, 7.280163, 0.3801093, -0.08562708, 9.916847
356278785890752, 6.9523463, 0.30867413, 7.385447, -0.57679266, 0.23508692, 10.128538
356278795529607, 6.7034926, -1.0145568, 7.3196445, 0.6936921, -0.18033886, 9.951363
356278805168565, 6.906883, 0.4869394, 7.475178, -0.7597623, 0.18850613, 10.159117
356278814807419, 6.695118, -1.0600204, 7.353144, 0.74291253, -0.20685863, 9.971071
356278824446273, 6.8578296, 0.32422748, 7.3926253, -0.59576714, 0.17041302, 10.069851
356278834085232, 6.745367, -0.70348984, 7.405786, 0.38985324, -0.13043737, 10.033522
356278843724086, 6.748956, -0.11724831, 7.4045897, -0.18340671, -0.006119728, 10.017806
356278853362940, 6.8195443, -0.25004998, 7.466803, -0.06002164, -0.02213955, 10.115225
356278863001898, 6.7034926, -0.66400826, 7.351948, 0.34925115, -0.12017727, 9.96456
356278872640752, 6.9152575, 0.23688944, 7.489535, -0.5284729, 0.14519691, 10.181831
356278882279607, 6.672386, -1.052842, 7.3782687, 0.7222464, -0.2434187, 9.974325
356278891918565, 6.899704, 0.43669012, 7.4979095, -0.7322132, 0.16715622, 10.171095
356278901557419, 6.6676, -1.1210374, 7.344769, 0.80125356, -0.21428871, 9.948433
356278911196273, 6.8398833, 0.2943172, 7.367501, -0.58072186, 0.17370176, 10.039087
356278920835232, 6.7298136, -0.8243274, 7.328019, 0.5187683, -0.10354948, 9.96945
356278930474086, 6.7704916, -0.08135597, 7.34118, -0.20692837, 0.061044216, 9.984616
356278940112940, 6.815955, -0.2727818, 7.411768, -0.03020513, 0.01308012, 10.072977
356278949751898, 6.6819572, -0.5766702, 7.30768, 0.2715242, -0.0777607, 9.914812
356278959390752, 6.9009004, 0.24526432, 7.422536, -0.5269687, 0.16606951, 10.122814
356278969029607, 6.6915283, -0.92602235, 7.3543406, 0.6075895, -0.16429186, 9.966156
356278978668565, 6.948757, 0.54675996, 7.5469627, -0.8348758, 0.18504715, 10.237656
356278988307419, 6.739385, -1.0133604, 7.4620175, 0.6949843, -0.22063637, 10.079496
356278997946273, 6.9224358, 0.4319045, 7.4907312, -0.7159097, 0.17300892, 10.182105
356279007585232, 6.7704916, -0.7752745, 7.460821, 0.4550928, -0.14521122, 10.093377
356279017224086, 6.8039913, 0.06580263, 7.4249287, -0.34774375, 0.061231613, 10.064965
356279026862940, 6.859026, -0.26919255, 7.499106, -0.024407744, -0.008200645, 10.1663475
356279036501898, 6.7058854, -0.5982057, 7.3567333, 0.30348492, -0.083277225, 9.967411
356279046140752, 6.8458657, 0.1363909, 7.4045897, -0.41675436, 0.1191206, 10.075939
356279055779607, 6.658029, -0.971486, 7.2873416, 0.67577744, -0.13487053, 9.894627
356279065418565, 6.882954, 0.4438686, 7.4440713, -0.7163197, 0.16351318, 10.121582
356279075057419, 6.6484575, -1.1078769, 7.3543406, 0.7817768, -0.23011541, 9.942413
356279084696377, 6.8602223, 0.39840496, 7.402197, -0.6679272, 0.1643424, 10.076744
356279094335232, 6.7202425, -0.8566305, 7.3399835, 0.54774475, -0.117875576, 9.972809
356279103974086, 6.778867, 0.03589234, 7.3902326, -0.3156895, 0.06119919, 10.023296
356279113613044, 6.832705, -0.36729828, 7.440482, 0.07127941, -0.0059781075, 10.108234
356279123251898, 6.727421, -0.46899325, 7.411768, 0.16947532, -0.07894325, 10.018858
356279132890752, 6.897311, 0.15672988, 7.5182486, -0.44539672, 0.10127878, 10.193768
356279142529711, 6.7034926, -0.92602235, 7.4010005, 0.616498, -0.18011427, 10.007829
356279152168565, 6.936793, 0.43788654, 7.55773, -0.7245902, 0.16076708, 10.241057
356279161807523, 6.678368, -1.0839486, 7.442875, 0.76471543, -0.25642586, 10.026034
356279171446377, 6.8817577, 0.44626144, 7.501499, -0.71880317, 0.15187216, 10.163192
356279181085232, 6.7238317, -0.8578269, 7.393822, 0.55498755, -0.15543318, 10.014101
356279190724190, 6.792027, 0.12801601, 7.391429, -0.40838134, 0.10015297, 10.030176
356279200363044, 6.7932234, -0.4031906, 7.4177504, 0.112167954, -0.03075695, 10.065783
356279210002002, 6.710671, -0.42592242, 7.3112698, 0.14051545, -0.025783539, 9.93221
356279219640857, 6.8949184, 0.0849452, 7.4010005, -0.35069644, 0.15748405, 10.108122
356279229279711, 6.6795645, -0.8913264, 7.2897344, 0.5887767, -0.12739658, 9.909006
356279238918669, 6.9044895, 0.39720857, 7.4392858, -0.66796994, 0.21443939, 10.133142
356279248557523, 6.6424756, -1.119841, 7.3663044, 0.7876818, -0.25676107, 9.947493
356279258196482, 6.8602223, 0.45822555, 7.457232, -0.7241151, 0.18547583, 10.115541
356279267835336, 6.7058854, -0.9236295, 7.3986077, 0.5998744, -0.18229151, 10.008411
356279277474190, 6.836294, 0.13878371, 7.436893, -0.42074913, 0.11749554, 10.093103
356279287113148, 6.8099732, -0.47258246, 7.48116, 0.16370702, -0.06627941, 10.125988
356279296752002, 6.7585278, -0.3278167, 7.409375, 0.033246875, -0.02382183, 10.034058
356279306390961, 6.899704, 0.07178468, 7.4644103, -0.3461032, 0.13267803, 10.158302
356279316029815, 6.6975107, -0.8327023, 7.3579297, 0.53113353, -0.14434004, 9.969265
356279325668669, 6.9296145, 0.43669012, 7.500303, -0.69817734, 0.20679808, 10.194832
356279335307627, 6.6676, -1.0755738, 7.393822, 0.7642642, -0.2295227, 9.982263
356279344946482, 6.8709903, 0.45104706, 7.4715886, -0.72629106, 0.19223547, 10.132824
356279354585440, 6.6915283, -0.96430755, 7.3950186, 0.6565721, -0.18849611, 9.996306
356279364224294, 6.789634, 0.18544376, 7.426125, -0.47264826, 0.096206665, 10.052274
356279373863252, 6.762117, -0.5072784, 7.4416785, 0.19936097, -0.075134754, 10.065622
356279383502107, 6.7094746, -0.28594232, 7.3830543, -0.007265806, -0.033820152, 9.980335
356279393140961, 6.8602223, 0.015553347, 7.4380894, -0.2960977, 0.09360838, 10.113934
356279402779919, 6.6795645, -0.7932207, 7.320841, 0.4917152, -0.120821, 9.928953
356279412418773, 6.899704, 0.36370903, 7.4644103, -0.6363976, 0.18107033, 10.14977
356279422057732, 6.6628146, -1.0899308, 7.3866434, 0.78032136, -0.23026276, 9.974048
356279431696586, 6.9044895, 0.47258246, 7.475178, -0.7451544, 0.2115922, 10.157439
356279441335544, 6.721439, -1.0049855, 7.3830543, 0.70120585, -0.17021704, 10.008825
356279450974398, 6.8243303, 0.2117648, 7.4177504, -0.49294627, 0.13460922, 10.068676
356279460613357, 6.759724, -0.59342, 7.442875, 0.2790649, -0.10439968, 10.067454
356279470252211, 6.7202425, -0.23569304, 7.3926253, -0.06478071, -0.025687218, 9.99316
356279479891065, 6.8219376, -0.03708875, 7.450053, -0.2545929, 0.049253464, 10.098328
356279489530023, 6.666404, -0.7477571, 7.3435726, 0.4406395, -0.14807606, 9.935394
356279499168877, 6.8398833, 0.046660043, 7.4584284, -0.33610845, 0.0778532, 10.114114
356279508807836, 6.7645097, -0.3900301, 7.4476604, 0.08682656, -0.06684971, 10.068087
356279518446690, 6.799206, -0.30508488, 7.389036, 0.018093467, 0.01774311, 10.04587
356279528085648, 6.8099732, -0.33260235, 7.344769, 0.054199815, 0.04818678, 10.021315
356279537724502, 6.7932234, -0.3696911, 7.350751, 0.083859205, 0.0241642, 10.015512
356279547363461, 6.7908306, -0.3469593, 7.391429, 0.051513314, 9.870529E-4, 10.043223
356279557002315, 6.798009, -0.33738798, 7.379465, 0.045144677, 0.01686716, 10.038971
356279566641273, 6.771688, -0.2943172, 7.3902326, -0.0038506985, 0.0010347366, 10.027857
356279576280127, 6.7334027, -0.26919255, 7.399804, -0.034731746, -0.028277397, 10.00831
356279585919086, 6.7465634, -0.24885355, 7.4105716, -0.05039966, -0.021944523, 10.0245495
356279595557940, 6.775277, -0.21894327, 7.432107, -0.07933009, -0.010753632, 10.058931
356279605196898, 6.789634, -0.20937198, 7.4644103, -0.089309394, -0.02000904, 10.0921755
356279614835752, 6.808777, -0.23330021, 7.476374, -0.06086576, -0.017460346, 10.114645
356279624474711, 6.829116, -0.2943172, 7.457232, 0.003926873, -6.055832E-5, 10.1160145
356279634113565, 6.8422766, -0.31585258, 7.432107, 0.029416203, 0.024300575, 10.106992
356279643752523, 6.838687, -0.31345975, 7.409375, 0.027412295, 0.036354065, 10.0877495
356279653391377, 6.826723, -0.30149564, 7.4010005, 0.015714526, 0.035183907, 10.073153
356279663030336, 6.795616, -0.29072794, 7.348358, 0.0067392588, 0.047438145, 10.013042
356279672669190, 6.7645097, -0.30987054, 7.314859, 0.0256778, 0.040910244, 9.96792
356279682308044, 6.7118673, -0.3074777, 7.3136625, 0.016646385, 0.0010943413, 9.931418
356279691947002, 6.6999035, -0.30867413, 7.3256264, 0.014369249, -0.017630577, 9.932184
356279701585857, 6.7166533, -0.28953153, 7.3459654, -0.0042341948, -0.013309479, 9.957927
356279711224815, 6.739385, -0.31226337, 7.372287, 0.018263698, -0.015894413, 9.99334
356279720863669, 6.7848487, -0.29790643, 7.4380894, 1.8429756E-4, -0.02105236, 10.0721245
356279730502627, 6.8315086, -0.26919255, 7.5050883, -0.032315135, -0.026186943, 10.152174
356279740141482, 6.8542404, -0.25842485, 7.5122666, -0.038832247, -0.0075030327, 10.172511
356279749780440, 6.8374906, -0.28115666, 7.520642, -0.019049823, -0.029165268, 10.168047
356279759419398, 6.838687, -0.29790643, 7.524231, -0.0017460585, -0.032518864, 10.17199
356279769058252, 6.8339014, -0.26799613, 7.5026956, -0.028159618, -0.016923904, 10.152014
356279778697211, 6.8075805, -0.25722843, 7.472785, -0.037859738, -0.016114235, 10.111881
356279788336065, 6.775277, -0.3074777, 7.4189467, 0.014468551, -0.016586304, 10.0518265
356279797975023, 6.7704916, -0.33020952, 7.3663044, 0.04129964, 0.0093512535, 10.010456
356279807613877, 6.759724, -0.32542387, 7.332805, 0.03726077, 0.022880077, 9.978372
356279817252836, 6.7501526, -0.30149564, 7.3196445, 0.014547765, 0.028416157, 9.961509
356279826891690, 6.7465634, -0.3182454, 7.3268228, 0.026834607, 0.015531063, 9.964877
356279836530648, 6.754938, -0.3074777, 7.3770723, 0.009714007, -0.010320187, 10.007235
356279846169502, 6.741778, -0.30388847, 7.3830543, 0.003804326, -0.02315569, 10.002642
356279855808461, 6.762117, -0.2955136, 7.402197, -0.0024495125, -0.019248486, 10.030239
356279865447315, 6.7740808, -0.27996024, 7.4656067, -0.024024248, -0.050349712, 10.084579
356279875086273, 6.792027, -0.28235307, 7.4859457, -0.02261436, -0.051110744, 10.111756
356279884725127, 6.8171515, -0.30029923, 7.4859457, -8.097887E-4, -0.03619051, 10.129255
356279894364086, 6.8303123, -0.29671, 7.448857, 0.0034908056, -0.0014762878, 10.11072
356279904003044, 6.8303123, -0.3278167, 7.4309106, 0.036602497, 0.0048747063, 10.098401
356279913641898, 6.812366, -0.34576288, 7.3950186, 0.056762934, 0.011974812, 10.060358
356279923280857, 6.780063, -0.3481557, 7.355537, 0.058157206, 0.012997627, 10.009537
356279932919711, 6.7645097, -0.31944183, 7.342376, 0.030158997, 0.014747143, 9.988494
356279942558669, 6.7645097, -0.27158538, 7.342376, -0.01796174, 0.020546913, 9.987097
356279952197523, 6.7585278, -0.2548356, 7.3232336, -0.030459762, 0.030724525, 9.968477
356279961836482, 6.7764735, -0.24047868, 7.3363943, -0.04209721, 0.036717415, 9.989895
356279971475336, 6.7932234, -0.24526432, 7.3567333, -0.03830743, 0.03468561, 10.016332
356279981114294, 6.818348, -0.22731815, 7.389036, -0.053732276, 0.035054684, 10.0566025
356279990753252, 6.8374906, -0.23808585, 7.4213395, -0.044315338, 0.027214527, 10.093639
356280000392107, 6.8303123, -0.24047868, 7.448857, -0.046777725, 0.003455639, 10.1091175
356280010031065, 6.8482585, -0.2416751, 7.459625, -0.04403627, 0.013711929, 10.129211
356280019669919, 6.8446693, -0.25842485, 7.456035, -0.027505279, 0.011498451, 10.124617
356280029308877, 6.8279195, -0.2428715, 7.466803, -0.046275854, -0.005162239, 10.120794
356280038947836, 6.8398833, -0.26919255, 7.4859457, -0.022133112, -0.013471603, 10.143727
356280048586690, 6.818348, -0.29192436, 7.450053, 0.0029865503, -0.009049892, 10.10338
356280058225648, 6.775277, -0.32303107, 7.4141607, 0.032995462, -0.021527767, 10.048729
356280067864502, 6.786045, -0.30388847, 7.4249287, 0.011900425, -0.017582417, 10.063393
356280077503461, 6.769295, -0.31465617, 7.4129643, 0.02238524, -0.023674965, 10.043573
356280087142315, 6.7262244, -0.32422748, 7.3974113, 0.026768208, -0.046272278, 10.003303
356280096781273, 6.728617, -0.32303107, 7.389036, 0.027389288, -0.03847027, 9.9987135
356280106420232, 6.745367, -0.29790643, 7.3902326, 0.0030257702, -0.023154736, 10.0101795
356280116059086, 6.7573314, -0.30149564, 7.389036, 0.0071656704, -0.014689922, 10.017487
356280125698044, 6.765706, -0.31944183, 7.351948, 0.03230095, 0.011296749, 9.996338
356280135336898, 6.782456, -0.3469593, 7.342376, 0.06256986, 0.024979591, 10.001402
356280144975857, 6.7968125, -0.34097722, 7.342376, 0.05840242, 0.035814762, 10.01093
356280154614815, 6.795616, -0.33140594, 7.355537, 0.046016812, 0.02855587, 10.019541
356280164253669, 6.7836523, -0.35174492, 7.3567333, 0.06470287, 0.0150876045, 10.01293
356280173892627, 6.771688, -0.3361916, 7.350751, 0.048850894, 0.013771534, 9.999987
356280183531482, 6.765706, -0.28594232, 7.3746796, -0.0049937963, 0.0026640892, 10.012114
356280193170440, 6.7848487, -0.24646074, 7.399804, -0.04531151, 0.005944252, 10.042407
356280202809398, 6.7848487, -0.24646074, 7.429714, -0.04576683, -0.014126778, 10.064456
356280212448252, 6.8255267, -0.22013968, 7.456035, -0.06860334, 0.0038776398, 10.11059
356280222087211, 6.8422766, -0.20338993, 7.4823565, -0.08388108, 0.0030617714, 10.140844
356280231726065, 6.8506513, -0.18544376, 7.469196, -0.09879327, 0.021972656, 10.136293
356280241365023, 6.855437, -0.18305093, 7.4883385, -0.10052353, 0.013779163, 10.153591
356280251003982, 6.8518476, -0.1902294, 7.4859457, -0.09144616, 0.011295795, 10.149626
356280260642836, 6.8422766, -0.21415763, 7.4344997, -0.06085658, 0.033994198, 10.105917
356280270281794, 6.8303123, -0.22013968, 7.429714, -0.05707854, 0.02658844, 10.094471
356280279920752, 6.820741, -0.23569304, 7.429714, -0.04288125, 0.01681137, 10.08844
356280289559607, 6.8255267, -0.28235307, 7.3902326, 0.00760293, 0.037374973, 10.063877
356280299198565, 6.7740808, -0.3182454, 7.375876, 0.035494924, 0.0015296936, 10.0195675
356280308837419, 6.778867, -0.31106696, 7.3567333, 0.03184533, 0.018885136, 10.008495
356280318476377, 6.7573314, -0.32542387, 7.3363943, 0.042452455, 0.012790203, 9.979385
356280328115336, 6.7369924, -0.33379877, 7.361519, 0.04467666, -0.020406723, 9.984389
356280337754190, 6.734599, -0.3589234, 7.367501, 0.06668937, -0.0315547, 9.987907
356280347393148, 6.721439, -0.37686956, 7.3770723, 0.07946575, -0.04773283, 9.9866085
356280357032107, 6.721439, -0.37806597, 7.3986077, 0.07661462, -0.05894375, 10.002537
356280366670961, 6.715457, -0.37328035, 7.440482, 0.0631876, -0.08754015, 10.029249
356280376309919, 6.7561345, -0.37806597, 7.456035, 0.07084119, -0.06882906, 10.068317
356280385948773, 6.7812595, -0.35413775, 7.476374, 0.04666865, -0.0561738, 10.09959
356280395587732, 6.769295, -0.3493521, 7.4775705, 0.040578842, -0.06050396, 10.092281
356280405226690, 6.7669024, -0.33499518, 7.448857, 0.030543923, -0.04060316, 10.069065
356280414865544, 6.751349, -0.36251262, 7.4237323, 0.061343312, -0.038912296, 10.040849
356280424504502, 6.74776, -0.3684947, 7.3926253, 0.07480359, -0.022378445, 10.015632
356280434143461, 6.739385, -0.33260235, 7.368697, 0.042043924, -0.006266594, 9.991287
356280443782315, 6.741778, -0.29192436, 7.3806615, 0.0041544437, -0.0059132576, 10.000545
356280453421273, 6.7322063, -0.27876383, 7.4177504, -0.015613079, -0.034796715, 10.021072
356280463060232, 6.7573314, -0.2620141, 7.4213395, -0.026435018, -0.015687943, 10.040195
356280472699086, 6.8051877, -0.2428715, 7.416554, -0.033623338, 0.025933743, 10.068418