timestamp_acc,device_acc_x,device_acc_y,device_acc_z,earth_acc_x,earth_acc_y,earth_acc_z
773052430070091, 5.983253, -0.36251262, 7.8053875, -0.105169326, 0.09710169, 9.840444
773052439709987, 6.017949, -0.39601216, 7.600801, -0.058175035, 0.24250746, 9.699615
773052449349883, 5.9904313, -0.40917268, 7.5661054, -0.04169005, 0.23582554, 9.656153
773052458989883, 5.9784675, -0.40797627, 7.6630144, -0.03892964, 0.1681714, 9.72628
773052468629779, 6.0011992, -0.4127619, 7.836494, -0.036689047, 0.07667303, 9.878674
773052478269674, 6.000003, -0.3924229, 7.982456, -0.06342884, -0.016227722, 9.993464
773052487909570, 5.9760747, -0.4103691, 8.116454, -0.05126321, -0.11445856, 10.086773
773052497549570, 5.98086, -0.45583272, 8.175078, -0.01322934, -0.13565826, 10.138629
773052507189466, 6.0083776, -0.51086766, 8.163115, 0.039743163, -0.10422373, 10.148181
773052516829362, 6.033502, -0.57427746, 8.10808, 0.10265638, -0.04238081, 10.122331
773052526469362, 6.056234, -0.6089734, 8.037491, 0.13760522, 0.023160458, 10.081201
773052536109258, 6.1232333, -0.55393845, 8.029117, 0.078538924, 0.08231926, 10.112102
773052545749154, 6.1363935, -0.5072784, 8.015956, 0.029226344, 0.09785414, 10.107312
773052555389049, 6.0430737, -0.47138608, 8.009974, 0.0011047311, 0.022533894, 10.044905
773052565029049, 5.9880385, -0.4534399, 8.02792, -0.011837155, -0.033386707, 10.025391
773052574668945, 5.966503, -0.47138608, 8.017152, 0.0084423125, -0.043823242, 10.0047035
773052584308841, 5.966503, -0.45104706, 8.005188, -0.012255006, -0.03837061, 9.994198
773052593948737, 6.0358953, -0.44506502, 7.9860454, -0.026232488, 0.028104305, 10.020258
773052603588737, 6.10768, -0.42711884, 7.9429746, -0.05415286, 0.1096344, 10.028065
773052613228633, 6.1028943, -0.42592242, 8.005188, -0.054418787, 0.068892956, 10.074823
773052622868529, 6.0550375, -0.44027936, 8.025527, -0.0334118, 0.017420769, 10.063049
773052632508529, 5.985646, -0.46660042, 8.039884, 7.13408E-4, -0.04557228, 10.034108
773052642148424, 5.968896, -0.45942193, 8.135597, -0.0045807064, -0.11705923, 10.100148
773052651788320, 6.02752, -0.47976094, 8.062616, 0.0099744275, -0.025800705, 10.078005
773052661428216, 6.0777693, -0.5072784, 7.9920278, 0.032633357, 0.05983734, 10.053083
773052671068216, 5.994021, -0.44985065, 8.030313, -0.015425548, -0.04045105, 10.030686
773052680708112, 5.960521, -0.4031906, 8.030313, -0.057847753, -0.07172823, 10.008388
773052690348008, 5.983253, -0.41635114, 7.941778, -0.046711057, 4.043579E-4, 9.952001
773052699987904, 6.04427, -0.424726, 7.874779, -0.0411764, 0.09034777, 9.935587
773052709627904, 6.117251, -0.4031906, 8.037491, -0.06644122, 0.04899025, 10.108301
773052719267799, 6.1639113, -0.41874397, 8.087741, -0.054278944, 0.057228565, 10.177155
773052728907695, 5.9988065, -0.46660042, 8.030313, 0.007711686, -0.030947208, 10.034356
773052738547591, 5.956932, -0.4941179, 8.105687, 0.04196517, -0.1015563, 10.070714
773052748187591, 5.9712887, -0.47258246, 8.048259, 0.024458475, -0.043543816, 10.032528
773052757827487, 6.029913, -0.50368917, 8.065009, 0.050405234, -0.0043883324, 10.082428
773052767467383, 6.0514483, -0.5072784, 8.079366, 0.05522582, 0.009889603, 10.106945
773052777107279, 6.087341, -0.4977071, 8.0614195, 0.04753761, 0.055809498, 10.113582
773052786747279, 6.0753765, -0.4438686, 8.026724, -0.00508862, 0.062291622, 10.07629
773052796387174, 5.9916277, -0.40917268, 7.941778, -0.026450686, 0.051681995, 9.956682
773052806027070, 5.907879, -0.4354937, 7.911868, 0.0070776194, 0.005112171, 9.883839
773052815666966, 5.8731833, -0.4127619, 7.908279, -0.009119786, -0.01823759, 9.859264
773052825306966, 5.9234324, -0.4211368, 7.9633136, -0.0045130253, -0.010461807, 9.933711
773052834946862, 5.938986, -0.4331009, 7.9776707, 0.004497461, -0.0033960342, 9.955014
773052844586758, 5.98086, -0.46779683, 8.04108, 0.027918354, -5.5742264E-4, 10.032333
773052854226654, 6.040681, -0.5180461, 8.073383, 0.0730335, 0.031850338, 10.096106
773052863866654, 6.0658054, -0.50009996, 8.136793, 0.048683956, 0.013704777, 10.161148
773052873506549, 6.058627, -0.49172506, 8.152347, 0.03685195, -0.0036344528, 10.16898
773052883146445, 5.9724855, -0.4881358, 8.111669, 0.038601093, -0.050621033, 10.084839
773052892786341, 5.9748783, -0.44506502, 8.066205, -0.005316399, -0.02738142, 10.047893
773052902426341, 6.04427, -0.37088752, 8.054241, -0.085642114, 0.027804375, 10.076382
773052912066237, 5.9784675, -0.3696911, 8.063812, -0.07910768, -0.03440857, 10.044718
773052921706133, 5.9545393, -0.40917268, 8.033902, -0.037981734, -0.032255173, 10.008249
773052931346029, 5.962914, -0.48215377, 8.023134, 0.03489241, -0.013925552, 10.007901
773052940986029, 5.992824, -0.50009996, 7.98126, 0.047313556, 0.034980297, 9.9930525
773052950625924, 6.01436, -0.51086766, 8.008778, 0.05646889, 0.036474705, 10.028437
773052960265820, 6.020342, -0.5072784, 8.007581, 0.050155826, 0.038646698, 10.030911
773052969905716, 5.959325, -0.4534399, 8.012366, -0.0042118803, -0.02049303, 9.995836
773052979545612, 5.930611, -0.43070808, 8.055437, -0.026175551, -0.07214117, 10.012085
773052989185612, 6.000003, -0.44506502, 8.07458, -0.01935146, -0.028337955, 10.069548
773052998825508, 6.0155563, -0.40438703, 8.096115, -0.06193605, -0.034931183, 10.094179
773053008465404, 6.026324, -0.4139583, 8.109276, -0.0530788, -0.03375721, 10.111594
773053018105299, 6.046663, -0.44626144, 8.050652, -0.02251774, 0.017130375, 10.078365
773053027745299, 6.007181, -0.424726, 8.020741, -0.037691623, -0.001809597, 10.02983
773053037385195, 6.017949, -0.40797627, 7.952546, -0.057425946, 0.046634674, 9.980967
773053047025091, 6.0514483, -0.39840496, 7.945368, -0.072989196, 0.07638979, 9.994822
773053056664987, 6.0394845, -0.40438703, 8.013563, -0.06558168, 0.025569439, 10.042467
773053066304987, 6.013163, -0.4534399, 8.085348, -0.011351883, -0.0323658, 10.086399
773053075944883, 5.979664, -0.4941179, 8.087741, 0.031311095, -0.056275368, 10.070152
773053085584779, 5.9676995, -0.51086766, 8.065009, 0.045550853, -0.050065994, 10.045608
773053095224674, 5.9700923, -0.49052864, 8.009974, 0.023186207, -0.017715454, 10.002073
773053104864570, 6.038288, -0.51565325, 8.002795, 0.038906947, 0.04147911, 10.038343
773053114504570, 6.02752, -0.54675996, 8.001599, 0.07124454, 0.036397934, 10.032405
773053124144466, 6.033502, -0.5288138, 8.018349, 0.051982448, 0.028449059, 10.048542
773053133784362, 5.992824, -0.50009996, 8.020741, 0.023215622, -0.0047073364, 10.024758
773053143424258, 6.003592, -0.4761717, 8.053044, -0.0025864094, -0.016654491, 10.0559
773053153064154, 6.020342, -0.4941179, 8.090134, 0.013780981, -0.024116516, 10.096443
773053162704154, 6.0119667, -0.53359944, 8.048259, 0.053566705, -0.0031514168, 10.059824
773053172344049, 6.007181, -0.5192425, 8.017152, 0.039227128, 0.009847641, 10.031397
773053181983945, 6.0191455, -0.45702913, 8.005188, -0.023725832, 0.02195406, 10.026016
773053191623841, 6.02752, -0.4546363, 7.960921, -0.026196318, 0.05519867, 9.995511
773053201263841, 6.020342, -0.40797627, 7.9944205, -0.07195033, 0.025790691, 10.015781
773053210903737, 5.9844494, -0.42951167, 8.045866, -0.046714034, -0.03311777, 10.036473
773053220543633, 5.9988065, -0.47138608, 8.094919, -0.006049169, -0.04830122, 10.086289
773053230183529, 6.0023956, -0.5168497, 8.13799, 0.041146215, -0.071825504, 10.125015
773053239823424, 6.013163, -0.5479564, 8.063812, 0.070985146, -0.01654625, 10.073637
773053249463424, 6.005985, -0.5288138, 7.9704924, 0.053196117, 0.03163147, 9.993818
773053259103320, 5.994021, -0.49052864, 7.941778, 0.016090695, 0.03276968, 9.961898
773053268743216, 6.02752, -0.4642076, 7.9657063, -0.013193391, 0.04306841, 9.999847
773053278383112, 6.0023956, -0.4546363, 7.954939, -0.021601997, 0.027520657, 9.975735
773053288023008, 5.968896, -0.44865423, 8.006385, -0.02786646, -0.031922817, 9.99647
773053297663008, 6.003592, -0.43908295, 8.072187, -0.040046297, -0.044594288, 10.069386
773053307302904, 6.0717874, -0.46061835, 8.129615, -0.026417285, -0.025081635, 10.157169
773053316942799, 6.117251, -0.5168497, 8.120044, 0.02519019, 0.017499447, 10.179492
773053326582695, 6.058627, -0.5395815, 8.1020975, 0.056057274, -0.017711163, 10.131073
773053336222591, 6.0394845, -0.53240305, 8.031509, 0.051643938, 0.00848341, 10.062862
773053345862591, 6.009574, -0.48933223, 7.9657063, 0.0106295645, 0.019768238, 9.990315
773053355502487, 5.9844494, -0.44985065, 7.9908314, -0.0207977, -0.019954205, 9.993426
773053365142383, 6.007181, -0.41754755, 7.9704924, -0.055930346, 0.0069651604, 9.989303
773053374782279, 6.026324, -0.38883367, 8.012366, -0.083778515, -0.0055537224, 10.032883
773053384422174, 6.0418773, -0.40438703, 8.025527, -0.06568362, 1.8262863E-4, 10.053486
773053394062174, 6.0490556, -0.44865423, 7.9764743, -0.023132086, 0.040106773, 10.020697
773053403702070, 6.0323057, -0.4438686, 7.9501534, -0.024142452, 0.04038143, 9.989416
773053413341966, 6.02752, -0.44147578, 7.9657063, -0.025815427, 0.027064323, 9.998849
773053422981862, 5.9904313, -0.45822555, 8.012366, -0.0062045082, -0.03225231, 10.014599
773053432621758, 5.9557357, -0.4642076, 8.050652, 0.0026852004, -0.08240318, 10.024594
773053442261758, 6.01436, -0.46899325, 8.136793, 6.310176E-5, -0.088418484, 10.128774
773053451901654, 6.0490556, -0.47018966, 8.110473, -0.0019530803, -0.04446268, 10.12867
773053461541549, 6.1064835, -0.49172506, 8.087741, 0.01724412, 0.016202927, 10.14603
773053471181445, 6.0418773, -0.52283174, 8.048259, 0.055494495, -0.0101771355, 10.077148
773053480821341, 6.0358953, -0.5300102, 7.9310107, 0.0632497, 0.056350708, 9.980316
773053490461341, 6.0430737, -0.45583272, 7.885547, -0.009352203, 0.08522749, 9.9449005
773053500101237, 6.0083776, -0.79800636, 7.792227, 0.3348795, 0.13087893, 9.865442
773053509741133, 6.094519, 0.2117648, 8.026724, -0.68722016, -0.010408878, 10.057034
773053519381029, 6.0454664, -1.0037891, 7.9537425, 0.52792364, 0.07792282, 10.02659
773053529020924, 6.0083776, 0.047856454, 8.2145605, -0.51704603, -0.18685818, 10.16266
773053538660820, 6.0729837, -0.80159557, 8.10449, 0.3309666, 0.0031266212, 10.153666
773053548300820, 6.000003, -0.43429732, 8.072187, -0.028146848, -0.06920624, 10.066941
773053557940716, 6.1567326, -0.33140594, 8.018349, -0.14923158, 0.08100319, 10.113371
773053567580612, 5.9988065, -0.8470592, 7.879565, 0.3801698, 0.079794884, 9.93176
773053577220508, 6.1064835, 0.15553348, 8.05783, -0.6198573, -0.022673607, 10.092435
773053586860404, 5.9413786, -1.0600204, 7.877172, 0.5997218, 0.052313328, 9.905103
773053596500404, 6.01436, 0.32542387, 8.110473, -0.7711155, -0.1389823, 10.071955
773053606140299, 5.8863435, -1.0947163, 7.8317084, 0.64244175, 0.041349888, 9.837107
773053615780195, 5.953343, 0.0741775, 8.048259, -0.51253235, -0.12963724, 9.997138
773053625420091, 6.094519, -0.8817552, 7.9310107, 0.41290078, 0.12520742, 10.031721
773053635059987, 6.026324, -0.46899325, 8.051848, 0.005739294, -0.04028511, 10.068125
773053644699883, 6.1854467, -0.43070808, 8.065009, -0.049613565, 0.07305002, 10.172604
773053654339883, 6.0634127, -0.8805587, 7.9944205, 0.4088406, 0.05030918, 10.0638685
773053663979779, 6.229714, 0.05742774, 8.199007, -0.5390557, -0.008953571, 10.283272
773053673619674, 5.986842, -1.160519, 7.9680996, 0.6867029, 0.013356686, 10.010394
773053683259570, 6.084948, 0.2620141, 8.163115, -0.73768705, -0.11029625, 10.157526
773053692899466, 6.013163, -1.160519, 7.8317084, 0.7035886, 0.11241531, 9.916296
773053702539362, 6.053841, 0.13280165, 7.9980097, -0.5963423, -0.04532957, 10.013846
773053712179362, 6.1160545, -0.79920274, 7.8604226, 0.33928734, 0.15052128, 9.984653
773053721819258, 6.0119667, -0.24047868, 7.9740815, -0.20801201, -0.040885925, 9.987123
773053731459154, 6.1040907, -0.3385844, 7.982456, -0.11615129, 0.033150196, 10.053835
773053741099049, 5.956932, -0.7369894, 7.8891363, 0.29584754, 0.008813858, 9.908536
773053750738945, 6.1567326, 0.08135597, 8.042277, -0.53514147, -2.69413E-4, 10.114536
773053760378945, 5.979664, -1.119841, 7.865208, 0.6693232, 0.07060528, 9.920633
773053770018841, 6.141179, 0.28115666, 8.185846, -0.7276175, -0.10700321, 10.210796
773053779658737, 6.087341, -1.1760724, 7.989635, 0.72617936, 0.0788188, 10.086604
773053789298633, 6.1005015, 0.10887343, 8.249256, -0.5656229, -0.16100311, 10.24365
773053798938529, 6.0514483, -0.9379865, 8.032705, 0.48262385, -0.0094361305, 10.089163
773053808578424, 5.973682, -0.19142582, 8.067402, -0.24326889, -0.13788891, 10.036248
773053818218320, 6.13759, -0.3361916, 7.9274216, -0.115269646, 0.080836296, 10.030314
773053827858320, 5.9617176, -0.63170516, 7.798209, 0.2006172, 0.033895016, 9.834215
773053837498216, 6.1328044, 0.10049855, 7.893922, -0.5384511, 0.057364464, 9.982093
773053847138112, 5.9904313, -1.0600204, 7.745567, 0.6267978, 0.11240101, 9.828387
773053856778008, 6.161518, 0.27517462, 8.070991, -0.70600975, -0.045995235, 10.133131
773053866417904, 6.078966, -1.2107682, 7.8460655, 0.7781437, 0.12121248, 9.967966
773053876057799, 6.168697, 0.18305093, 8.147561, -0.6142247, -0.09839058, 10.202065
773053885697799, 6.155536, -0.8997013, 8.006385, 0.45010152, 0.049013615, 10.129032
773053895337695, 6.0215383, -0.111266255, 8.153543, -0.3153579, -0.19483757, 10.129866
773053904977591, 6.04427, -0.4103691, 8.109276, -0.020876907, -0.13158226, 10.121471
773053914617487, 5.845666, -0.56829536, 8.078169, 0.15702483, -0.25842285, 9.982993
773053924257383, 6.0861444, 0.07058827, 8.185846, -0.48530293, -0.17636585, 10.18762
773053933897279, 5.994021, -1.0396814, 7.8987074, 0.6332009, -0.009004593, 9.949762
773053943537174, 6.2691956, 0.2739782, 7.975278, -0.6791446, 0.07212925, 10.125043
773053953177174, 6.135197, -1.1306087, 7.698907, 0.7407955, 0.21164608, 9.879195
773053962817070, 6.2201424, 0.32422748, 7.8484583, -0.7158364, 0.0852828, 9.993693
773053972456966, 6.1639113, -0.8757731, 7.643872, 0.47991103, 0.24399233, 9.843765
773053982096862, 6.0658054, -0.01794617, 7.921439, -0.37216976, -0.0755806, 9.969921
773053991736758, 6.175875, -0.4534399, 8.025527, 0.059279352, -0.02961874, 10.136653
773054001376654, 6.050252, -0.54317075, 8.069795, 0.16102582, -0.15431118, 10.098141
773054011016654, 6.273981, -0.025124637, 8.16431, -0.37413454, -0.074017525, 10.289509
773054020656549, 6.1184473, -1.0049855, 7.865208, 0.61221904, 0.047565937, 9.99649
773054030296445, 6.3254266, 0.33020952, 8.042277, -0.71987605, 0.006052017, 10.2117605
773054039936341, 5.9712887, -1.052842, 7.77787, 0.68108857, 0.0017399788, 9.838503
773054049576237, 5.9210396, 0.38883367, 8.012366, -0.72174007, -0.30435467, 9.939537
773054059216133, 5.983253, -0.9379865, 7.874779, 0.5852792, -0.058396816, 9.916922
773054068856029, 6.1698933, -0.06819545, 8.0614195, -0.27480853, -0.10748863, 10.147493
773054078496029, 6.498906, -0.5922236, 7.9477606, 0.21217613, 0.24300528, 10.278587
773054088135924, 6.2955165, -0.47377887, 8.030313, 0.11062768, 0.010038853, 10.214283
773054097775820, 6.535995, 0.020338992, 7.9429746, -0.40940434, 0.19443941, 10.276432
773054107415716, 6.2512493, -0.8925229, 7.6737823, 0.51584697, 0.23465824, 9.921718
773054117055612, 6.367301, 0.28115666, 7.85444, -0.64410067, 0.084133625, 10.094151
773054126695508, 6.0622163, -1.1760724, 7.4476604, 0.8206486, 0.2156372, 9.637493
773054136335404, 6.145965, 0.25124636, 7.655836, -0.5914913, 0.035862923, 9.802893
773054145975404, 6.0981083, -0.9762716, 7.4249287, 0.6178182, 0.23882198, 9.634877
773054155615299, 6.053841, 0.09810573, 7.7706914, -0.43294722, -0.09385729, 9.841038
773054165255195, 6.1387863, -0.52283174, 7.8580294, 0.16750666, -0.028263569, 9.983877
773054174895091, 5.930611, -0.38165522, 8.053044, 0.056530505, -0.31521988, 10.003338
773054184534987, 6.172286, -0.083748795, 8.29113, -0.2619859, -0.29117298, 10.329257
773054194174883, 6.0634127, -0.910469, 8.103293, 0.5784964, -0.17139149, 10.143631
773054203814883, 6.4259253, 0.22013968, 8.288737, -0.57448924, -0.10731745, 10.473899
773054213454779, 6.4008007, -1.0779666, 8.000402, 0.7040359, 0.18147182, 10.276678
773054223094674, 6.573084, 0.44506502, 8.142776, -0.8126148, 0.08960152, 10.442219
773054232734570, 6.381658, -0.910469, 7.792227, 0.56397927, 0.28627014, 10.09323
773054242374466, 6.2548385, 0.17826529, 7.8173513, -0.5070531, 0.06873846, 10.000197
773054252014362, 6.151947, -0.5395815, 7.624729, 0.22335367, 0.17419147, 9.807847
773054261654258, 5.9138613, -0.22372891, 7.7001033, -0.06755215, -0.087436676, 9.710983
773054271294154, 6.0957155, -0.02751746, 7.786245, -0.27767807, -0.008015633, 9.884682
773054280934154, 5.919843, -0.78364944, 7.726424, 0.49203867, -0.044275284, 9.752549
773054290574049, 6.245267, 0.32063824, 7.9908314, -0.6282011, -0.04422283, 10.127337
773054300213945, 6.1064835, -0.97866446, 7.847262, 0.663624, 0.04501152, 9.969153
773054309853841, 6.276374, 0.46779683, 8.126026, -0.77203065, -0.11691475, 10.248625
773054319493737, 6.1651077, -0.9846465, 7.8687973, 0.6659435, 0.085962296, 10.022234
773054329133633, 6.1627145, 0.09332009, 8.109276, -0.3815192, -0.16130114, 10.177256
773054338773529, 6.270392, -0.7405786, 7.9800634, 0.422537, 0.09047222, 10.166661
773054348413529, 6.242874, -0.2416751, 8.042277, -0.059185594, -0.020477295, 10.183624
773054358053424, 6.4199433, -0.05383851, 8.069795, -0.26688036, 0.08316374, 10.308348
773054367693320, 5.9952173, -0.62452674, 7.926225, 0.3418006, -0.098370075, 9.951444
773054377333216, 6.1244297, 0.4139583, 8.096115, -0.68060136, -0.2039156, 10.1352005
773054386973112, 5.8564334, -0.9020941, 7.7790666, 0.64023185, -0.07482481, 9.757559
773054396613008, 5.983253, 0.47856453, 7.9501534, -0.71722746, -0.22147322, 9.933269
773054406252904, 5.953343, -0.95353985, 7.55773, 0.70201695, 0.15544128, 9.641257
773054415892904, 6.099305, 0.30149564, 7.797013, -0.54924405, -0.0013237, 9.888588
773054425532799, 6.2261243, -0.6017949, 7.7216387, 0.32689813, 0.22692251, 9.929358
773054435172695, 6.2057858, -0.14476576, 8.085348, -0.120405525, -0.061766148, 10.192512
773054444812591, 6.413961, -0.11964113, 8.072187, -0.16490552, 0.108956814, 10.308947
773054454452487, 6.113662, -0.58624154, 7.847262, 0.31686395, 0.053371906, 9.959761
773054464092383, 6.3625154, 0.32303107, 8.281559, -0.59562427, -0.08637762, 10.431105
773054473732279, 6.070591, -0.9762716, 7.881958, 0.7190788, 0.042372704, 9.970536
773054483372279, 6.192625, 0.37208393, 8.10808, -0.6374565, -0.11103153, 10.188687
773054493012174, 6.0167527, -1.0588241, 7.9070826, 0.81148994, -0.023635387, 9.959182
773054502652070, 5.9174504, 0.26919255, 8.015956, -0.5103971, -0.27073383, 9.950399
773054512291966, 5.9473605, -0.70229346, 7.8723865, 0.45919323, -0.08113575, 9.880352
773054521931862, 5.986842, -0.15672988, 8.049456, -0.09078452, -0.20720959, 10.030423
773054531571758, 6.3074803, -0.2620141, 8.049456, -0.009751007, 0.052603245, 10.229557
773054541211654, 6.263213, -0.57547385, 7.8221374, 0.30097654, 0.17262697, 10.031175
773054550851654, 6.4941206, 0.27038896, 8.029117, -0.55807114, 0.1624732, 10.313854
773054560491549, 6.2309103, -0.9236295, 7.780263, 0.6461102, 0.18639326, 9.987874
773054570131445, 6.3601227, 0.4642076, 8.049456, -0.7372559, 0.009156227, 10.242888
773054579771341, 6.101698, -0.9942178, 7.6797643, 0.72870237, 0.13984251, 9.830942
773054589411237, 5.9676995, 0.39361933, 7.832905, -0.63618916, -0.14274406, 9.833498
773054599051133, 5.9784675, -0.6329016, 7.6678, 0.39716908, 0.03209257, 9.735453
773054608691029, 6.017949, 0.046660043, 7.836494, -0.28588104, -0.08663273, 9.876199
773054618331029, 6.285945, -0.23330021, 7.9166536, -0.021946356, 0.09469128, 10.11096
773054627970924, 6.270392, -0.47377887, 7.91785, 0.21870357, 0.097248554, 10.10828
773054637610820, 6.524031, 0.2656033, 8.148758, -0.5403899, 0.09954071, 10.427553
773054647250716, 6.2117677, -0.84825563, 7.9477606, 0.58760566, 0.059868813, 10.105624
773054656890612, 6.2201424, 0.5180461, 8.207381, -0.7578352, -0.1964674, 10.281378
773054666530508, 6.0215383, -0.95353985, 7.88794, 0.7076843, -0.035271168, 9.944128
773054676170404, 6.0514483, 0.40438703, 8.048259, -0.6257461, -0.22655678, 10.055603
773054685810404, 6.067002, -0.72023964, 7.85444, 0.47641423, -0.0035133362, 9.939442
773054695450299, 6.0514483, 0.1268196, 7.9094753, -0.35840014, -0.118765354, 9.952556
773054705090195, 6.2883377, -0.19740787, 7.879565, -0.05072075, 0.116956234, 10.0823345
773054714730091, 6.0370917, -0.37806597, 7.800602, 0.14686391, -0.01651907, 9.870004
773054724369987, 6.2033925, 0.2213361, 7.989635, -0.45626205, -0.0525136, 10.107147
773054734009883, 5.9820566, -0.83748794, 7.7946196, 0.6066224, -0.015758991, 9.842472
773054743649779, 6.282356, 0.47258246, 8.117651, -0.7043729, -0.098229885, 10.250942
773054753289779, 6.206982, -1.0217353, 7.861619, 0.7674241, 0.13699007, 10.038322
773054762929674, 6.29432, 0.37208393, 8.054241, -0.62218755, -0.053988457, 10.209686
773054772569570, 6.259624, -0.8530413, 7.844869, 0.5905921, 0.17422247, 10.053527
773054782209466, 6.1232333, 0.008374879, 8.000402, -0.23531926, -0.11603546, 10.07133
773054791849362, 6.233303, -0.45942193, 7.9968133, 0.21747865, 0.0030531883, 10.147258
773054801489258, 6.0394845, -0.45822555, 7.8592257, 0.22719342, -0.06433725, 9.919527
773054811129258, 6.3290157, 0.15194423, 7.946564, -0.4068039, 0.057487965, 10.151779
773054820769154, 6.1603217, -0.7322037, 7.698907, 0.4832883, 0.1302371, 9.874631
773054830409049, 6.309873, 0.50368917, 7.995617, -0.74808645, -0.011243343, 10.170464
773054840048945, 6.081359, -0.9559326, 7.745567, 0.709328, 0.05759287, 9.868338
773054849688841, 6.15434, 0.43070808, 8.031509, -0.67246693, -0.1425252, 10.104159
773054859328737, 6.1435723, -0.90329057, 7.830512, 0.66750026, 0.061658382, 9.97131
773054868968737, 5.983253, 0.13280165, 8.026724, -0.34680617, -0.26121712, 10.002836
773054878608633, 6.13759, -0.37088752, 8.066205, 0.13556728, -0.121679306, 10.14091
773054888248529, 6.0454664, -0.32422748, 8.039884, 0.10288635, -0.17844439, 10.062311
773054897888424, 6.411568, 0.10767702, 8.099705, -0.3573879, 0.028863907, 10.324557
773054907528320, 6.2871413, -0.6795616, 7.8460655, 0.42515218, 0.16550732, 10.066904
773054917168216, 6.5168524, 0.48933223, 7.972885, -0.74219215, 0.14585018, 10.281225
773054926808216, 6.242874, -0.91166544, 7.7120676, 0.6635763, 0.21701622, 9.939476
773054936448112, 6.216553, 0.5192425, 7.969296, -0.7355886, -0.08223629, 10.093412
773054946088008, 6.09093, -0.84347, 7.737192, 0.61597836, 0.057591915, 9.863684
773054955727904, 6.046663, 0.21894327, 7.9094753, -0.43561718, -0.15932131, 9.947599
773054965367799, 6.263213, -0.42831525, 7.786245, 0.19730638, 0.13081932, 9.999043
773054975007695, 6.1292152, -0.17108682, 7.776674, -0.04959905, 0.012503147, 9.903059
773054984647695, 6.300302, 0.061016977, 7.873583, -0.2945714, 0.068768024, 10.079651
773054994287591, 5.99761, -0.79441714, 7.6917286, 0.57954884, 0.010138512, 9.768784
773055003927487, 6.206982, 0.3278167, 8.036295, -0.5429312, -0.12959433, 10.144188
773055013567383, 6.0981083, -1.0253245, 7.8400836, 0.7958882, 0.027114868, 9.95344
773055023207279, 6.2344995, 0.41994038, 8.166703, -0.63380325, -0.18738604, 10.261753
773055032847279, 6.198607, -0.92482597, 7.960921, 0.698588, 0.041144848, 10.107649
773055042487174, 6.125626, 0.19621146, 8.098508, -0.4183139, -0.20452833, 10.145481
773055052127070, 6.2440705, -0.5240282, 7.9716887, 0.29262322, 0.029334068, 10.135303
773055061766966, 6.1902323, -0.16749759, 7.9369926, -0.06433797, -0.024793148, 10.066684
773055071406862, 6.4797635, 0.0, 8.12124, -0.24918991, 0.0728755, 10.386263
773055081046758, 6.218946, -0.6855437, 7.9369926, 0.4494593, 0.040322304, 10.096409
773055090686758, 6.3278193, 0.3924229, 8.045866, -0.6209217, -0.053673267, 10.224619
773055100326654, 6.053841, -0.8865408, 7.6390862, 0.65416163, 0.11163807, 9.764741
773055109966549, 6.151947, 0.6029913, 7.82453, -0.81078637, -0.094451904, 9.938159
773055119606445, 6.1639113, -0.7932207, 7.587641, 0.5569185, 0.21128225, 9.789817
773055129246341, 6.13759, 0.38404804, 7.877172, -0.58543056, -0.09747219, 9.975726
773055138886341, 6.2309103, -0.5096712, 7.9154572, 0.30026552, 0.042654037, 10.081988
773055148526237, 6.0921264, -0.12562318, 7.958528, -0.068136334, -0.12902308, 10.022309
773055158166133, 6.337391, -0.021535404, 8.035098, -0.19084266, 0.0113220215, 10.231775
773055167806029, 6.161518, -0.56829536, 7.920243, 0.36829257, -0.0040011406, 10.043997
773055177445924, 6.3110695, 0.36610186, 8.182257, -0.5554552, -0.12868595, 10.324141
773055187085924, 6.078966, -0.94396853, 7.925029, 0.75387955, -0.052854538, 10.003992
773055196725820, 6.1878395, 0.45822555, 8.12124, -0.630903, -0.19000006, 10.199006
773055206365716, 6.242874, -0.9499506, 7.7216387, 0.74979746, 0.22256613, 9.944238
773055216005612, 6.320641, 0.37567315, 7.8400836, -0.57237124, 0.08752489, 10.060979
773055225645612, 6.3804617, -0.5694918, 7.9513497, 0.36456865, 0.14475965, 10.203171
773055235285508, 6.0717874, -0.05623133, 7.91785, -0.122692615, -0.12092447, 9.976594
773055244925404, 6.172286, -0.11844472, 7.9094753, -0.07279089, -0.031892776, 10.033176
773055254565299, 5.9437714, -0.5766702, 7.7001033, 0.39902574, -0.041840553, 9.736097
773055264205195, 6.1651077, 0.35653058, 7.8317084, -0.5364052, -0.019286156, 9.959078
773055273845195, 5.9952173, -0.87936234, 7.623533, 0.70649266, 0.09698582, 9.712139
773055283485091, 6.2201424, 0.4761717, 8.042277, -0.6456077, -0.095650196, 10.157224
773055293124987, 6.2237315, -0.99661064, 7.895118, 0.8147986, 0.12020874, 10.068894
773055302764883, 6.3541408, 0.39840496, 8.203793, -0.5876825, -0.09157705, 10.367367
773055312404883, 6.431907, -0.5407779, 8.181061, 0.3513234, 0.0646801, 10.414606
773055322044779, 6.181857, 0.104087785, 8.29113, -0.2700281, -0.24876165, 10.336065
773055331684674, 6.270392, -0.04546363, 8.182257, -0.12948537, -0.10980797, 10.307299
773055341324570, 6.020342, -0.3684947, 7.8783684, 0.21953407, -0.09307194, 9.919282
773055350964466, 6.209375, 0.43669012, 7.861619, -0.59775627, -0.017260075, 10.009719
773055360604466, 6.0011992, -0.7082755, 7.503892, 0.5425858, 0.15148783, 9.618061
773055370244362, 6.227321, 0.65922266, 7.7706914, -0.8125577, 0.028728962, 9.946692
773055379884258, 6.1830535, -0.7788638, 7.5469627, 0.6018241, 0.26122046, 9.765399
773055389524154, 6.1435723, 0.5587241, 7.880761, -0.70317113, -0.092288494, 9.98294
773055399164154, 6.1902323, -0.64845496, 7.879565, 0.48189965, 0.033682823, 10.029638
773055408804049, 6.1005015, 0.010767702, 8.045866, -0.15387422, -0.19678354, 10.094048
773055418443945, 6.35773, -0.2009971, 8.033902, 0.027603686, 0.030857563, 10.247096
773055428083841, 6.189036, -0.42831525, 7.9034934, 0.2618904, 1.7261505E-4, 10.044114
773055437723841, 6.385247, 0.25962126, 8.045866, -0.43233865, 0.001270771, 10.265857
773055447363737, 6.142376, -0.80877405, 7.8628154, 0.6400759, 0.019578934, 9.98983
773055457003633, 6.2237315, 0.5312066, 8.159525, -0.6808824, -0.21082067, 10.251186
773055466643529, 6.117251, -0.9559326, 7.8424764, 0.78871834, 0.01462841, 9.96076
773055476283529, 6.172286, 0.45702913, 7.9944205, -0.61955994, -0.1433053, 10.090211
773055485923424, 6.2141604, -0.70229346, 7.7407813, 0.5276623, 0.12211037, 9.936568
773055495563320, 6.155536, 0.13998012, 7.847262, -0.29846874, -0.04264784, 9.969895
773055505203216, 6.3684974, -0.18065812, 7.8460655, -0.00272654, 0.14015055, 10.106013
773055514843216, 6.1603217, -0.30388847, 7.8687973, 0.13417126, -0.041561127, 9.997007
773055524483112, 6.3397837, 0.2213361, 8.032705, -0.396755, -0.03369713, 10.227789
773055534123008, 6.111269, -0.7896315, 7.7910304, 0.61718476, -0.0017290115, 9.91415
773055543763008, 6.2883377, 0.5455636, 8.025527, -0.70931697, -0.113997936, 10.1849785
773055553402904, 6.1675005, -0.9056834, 7.7096744, 0.72457135, 0.10311699, 9.887455
773055563042799, 6.239285, 0.51445687, 7.9561353, -0.6869886, -0.11625385, 10.099898
773055572682695, 6.2955165, -0.77407813, 7.8053875, 0.5950855, 0.1332593, 10.039169
773055582322695, 6.24766, 0.15792629, 7.999206, -0.33290046, -0.11333513, 10.1450405
773055591962591, 6.3996043, -0.33260235, 7.9800634, 0.14306495, 0.058891296, 10.233428
773055601602487, 6.186643, -0.30987054, 7.8723865, 0.13757956, -0.04440689, 10.016193
773055611242383, 6.430711, 0.15553348, 7.899904, -0.3493236, 0.07852316, 10.181283
773055620882383, 6.2380886, -0.7704889, 7.6809607, 0.5853009, 0.14433765, 9.906622
773055630522279, 6.381658, 0.4833502, 7.9908314, -0.6722478, -0.054106712, 10.215563
773055640162174, 6.157929, -0.94277215, 7.7383885, 0.7556309, 0.05807686, 9.905414
773055649802174, 6.186643, 0.5312066, 8.032705, -0.70065266, -0.24926662, 10.125614
773055659442070, 6.215357, -0.7573284, 7.88794, 0.5840903, -0.0055332184, 10.053986
773055669081966, 6.1794643, 0.22851457, 8.021938, -0.38586533, -0.22024775, 10.118898
773055678721966, 6.4534426, -0.36370903, 7.8484583, 0.17104405, 0.15144444, 10.164906
773055688361862, 6.337391, -0.2428715, 7.728817, 0.05386716, 0.11788845, 9.996965
773055698001758, 6.546763, 0.12083755, 7.834101, -0.32129347, 0.18162537, 10.203512
773055707641654, 6.1914287, -0.72741807, 7.685746, 0.5453754, 0.064370155, 9.880893
773055717281654, 6.263213, 0.45104706, 8.060223, -0.6155973, -0.21260262, 10.19678
773055726921549, 6.064609, -0.9379865, 7.8317084, 0.76368785, -0.13089323, 9.919406
773055736561445, 6.192625, 0.51445687, 7.984849, -0.6908356, -0.22405481, 10.09176
773055746201445, 6.314659, -0.8003992, 7.5613194, 0.6150521, 0.218297, 9.862209
773055755841341, 6.3421764, 0.28115666, 7.676175, -0.46254387, 0.10474682, 9.949924
773055765481237, 6.5228343, -0.41874397, 7.631908, 0.2120259, 0.30769825, 10.041369
773055775121237, 6.236892, -0.17826529, 7.737192, -0.002744466, 0.0027804375, 9.939553
773055784761133, 6.4127645, 0.10049855, 7.8963146, -0.29647696, 0.018916607, 10.16844
773055794401029, 6.1627145, -0.6364908, 7.8687973, 0.4580577, -0.11164713, 10.003993
773055804041029, 6.390033, 0.46899325, 8.143971, -0.6577074, -0.18255901, 10.33977
773055813680924, 6.2991056, -0.89730847, 7.844869, 0.7018217, 0.035346508, 10.076312
773055823320820, 6.410372, 0.59700924, 8.1020975, -0.7837537, -0.15423393, 10.317715
773055832960820, 6.3804617, -0.8135597, 7.763513, 0.6273493, 0.14909315, 10.061238
773055842600716, 6.253642, 0.32542387, 7.9130645, -0.49344766, -0.13297653, 10.078161
773055852240612, 6.344569, -0.44626144, 7.765906, 0.25634193, 0.08184767, 10.034421
773055861880612, 6.141179, -0.10887343, 7.8197446, -0.05789092, -0.13191032, 9.942514
773055871520508, 6.430711, 0.021535404, 7.879565, -0.21393415, 0.042503834, 10.168307
773055881160404, 6.2033925, -0.634098, 7.7994056, 0.45618182, -0.042261124, 9.97522
773055890800404, 6.4199433, 0.3505485, 8.072187, -0.53223693, -0.11143017, 10.305488
773055900440299, 6.166304, -0.9822537, 7.732406, 0.79791987, -0.00540781, 9.906641
773055910080195, 6.2644095, 0.54436713, 7.8891363, -0.7128328, -0.13597059, 10.062357
773055919720195, 6.273981, -0.80877405, 7.5409803, 0.631223, 0.19215965, 9.820793
773055929360091, 6.1998034, 0.37447673, 7.7994056, -0.53445935, -0.117641926, 9.955352
773055939000091, 6.3421764, -0.5479564, 7.8113694, 0.3745984, 0.05894184, 10.069614
773055948639987, 6.1902323, -0.05503492, 7.87119, -0.108038396, -0.1407237, 10.0123005
773055958279883, 6.448657, 0.043070808, 7.867601, -0.22671935, 0.059657574, 10.1701145
773055967919883, 6.216553, -0.4869394, 7.7623167, 0.3171044, -0.012151718, 9.951658
773055977559779, 6.4271216, 0.3696911, 8.084151, -0.546744, -0.12920856, 10.319033
773055987199674, 6.2380886, -0.9870393, 7.8053875, 0.8169361, 0.02017498, 10.007212
773055996839674, 6.4259253, 0.46779683, 8.035098, -0.6374512, -0.1076355, 10.278921
773056006479570, 6.437889, -0.9284152, 7.7120676, 0.7244934, 0.22221231, 10.060323
773056016119466, 6.385247, 0.37447673, 7.8987074, -0.55098224, -0.04794693, 10.148659
773056025759466, 6.3804617, -0.5838487, 7.7623167, 0.39853698, 0.113096714, 10.056495
773056035399362, 6.108876, -0.013160525, 7.8233337, -0.14385793, -0.186759, 9.9230795
773056045039362, 6.3158555, -0.08973085, 7.8257265, -0.089390606, -0.020644665, 10.056425
773056054679258, 6.1304116, -0.5072784, 7.6462646, 0.33795568, -0.012011528, 9.807664
773056064319154, 6.463014, 0.34217364, 7.952546, -0.51847124, -0.015452862, 10.240194
773056073959154, 6.381658, -0.86141616, 7.746763, 0.6817264, 0.15360594, 10.049458
773056083599049, 6.4965134, 0.587438, 8.031509, -0.7567623, -0.07491112, 10.318751
773056093239049, 6.3278193, -0.8602197, 7.7407813, 0.6910143, 0.10863781, 10.010578
773056102878945, 6.262017, 0.5084748, 7.9190464, -0.6679863, -0.17882204, 10.084866
773056112518841, 6.3122663, -0.506082, 7.725228, 0.34339786, 0.07070112, 9.982838
773056122158841, 6.1591253, 0.15792629, 7.739585, -0.30783167, -0.10621977, 9.887108
773056131798737, 6.3565335, -0.101694964, 7.780263, -0.066180885, 0.037725925, 10.047017
773056141438737, 6.202196, -0.47018966, 7.698907, 0.31395343, -2.3460388E-4, 9.89257
773056151078633, 6.5850477, 0.357727, 7.8723865, -0.5342916, 0.10516024, 10.255183
773056160718529, 6.3182483, -0.69152576, 7.672586, 0.52594435, 0.11607075, 9.948716
773056170358529, 6.4067826, 0.64606214, 7.972885, -0.801674, -0.11396551, 10.216433
773056179998424, 6.296713, -0.86261255, 7.6510506, 0.7028552, 0.13052607, 9.920698
773056189638424, 6.262017, 0.4881358, 7.944171, -0.62899935, -0.19121313, 10.10588
773056199278320, 6.391229, -0.6436693, 7.8053875, 0.48037633, 0.096756935, 10.096834
773056208918320, 6.3194447, 0.10289137, 7.897511, -0.25895804, -0.09375906, 10.111419
773056218558216, 6.539584, -0.17347965, 7.8592257, -2.6136637E-4, 0.12929153, 10.224821
773056228198112, 6.2512493, -0.34576288, 7.7276206, 0.18968093, 0.0029716492, 9.943732
773056237838112, 6.4438715, 0.35533416, 7.8556366, -0.522122, 0.008975506, 10.153231
773056247478008, 6.229714, -0.6652047, 7.6809607, 0.51297957, 0.045659542, 9.898676
773056257118008, 6.418747, 0.587438, 8.05783, -0.73396444, -0.15075874, 10.291386
773056266757904, 6.29432, -0.93320084, 7.7001033, 0.7673895, 0.104459286, 9.958972
773056276397904, 6.361319, 0.50129634, 7.8520474, -0.65942496, -0.06743622, 10.096185
773056286037799, 6.375676, -0.6855437, 7.5900335, 0.5147145, 0.20082283, 9.920815
773056295677799, 6.195018, 0.13878371, 7.7754774, -0.2818816, -0.10740423, 9.938036
773056305317695, 6.4235325, -0.27756742, 7.836494, 0.109736055, 0.0561738, 10.135791
773056314957591, 6.229714, -0.37567315, 7.84128, 0.2209726, -0.09238434, 10.018921
773056324597591, 6.445068, 0.18065812, 7.9908314, -0.34751248, -0.06092882, 10.261602
773056334237487, 6.196214, -0.7501499, 7.7204423, 0.5825643, -0.01795578, 9.910667
773056343877487, 6.418747, 0.5838487, 7.9633136, -0.7484718, -0.0956192, 10.216955
773056353517383, 6.2787666, -0.8805587, 7.6331043, 0.7007173, 0.109921455, 9.8974495
773056363157383, 6.3254266, 0.5419743, 7.8436728, -0.6992463, -0.10026932, 10.066229
773056372797279, 6.32423, -0.76689965, 7.629515, 0.590518, 0.16003847, 9.920646
773056382437279, 6.2464633, 0.13519448, 7.832905, -0.3052844, -0.11374664, 10.014233
773056392077174, 6.4498534, -0.39720857, 7.9011, 0.21249199, 0.044524193, 10.204834
773056401717174, 6.245267, -0.34097722, 7.8556366, 0.16504946, -0.08637953, 10.039719
773056411357070, 6.526424, 0.15194423, 7.928618, -0.3471296, 0.034129143, 10.264435
773056420997070, 6.256035, -0.75254273, 7.725228, 0.56525177, 0.03655958, 9.953019
773056430636966, 6.3972116, 0.46181476, 8.007581, -0.6553757, -0.13785696, 10.237696
773056440276966, 6.2380886, -0.95353985, 7.7407813, 0.7684388, 0.017385006, 9.957503
773056449916862, 6.355337, 0.45104706, 7.9597244, -0.64635485, -0.13519716, 10.174229
773056459556862, 6.4259253, -0.86261255, 7.668997, 0.6524434, 0.18907833, 10.019415
773056469196758, 6.385247, -0.022731815, 7.759924, -0.17044733, 0.05056572, 10.047724
773056478836758, 6.285945, -0.2727818, 7.690532, 0.07189715, 0.029388905, 9.936083
773056488476654, 6.2177496, -0.18664017, 7.765906, -0.011792898, -0.07625198, 9.949804
773056498116654, 6.227321, -0.22013968, 7.7814593, 0.021827266, -0.07683754, 9.968587
773056507756549, 6.3541408, -0.15074782, 7.9334035, -0.058328286, -0.08423662, 10.164952
773056517396549, 6.4199433, -0.1268196, 7.9657063, -0.08482599, -0.056921005, 10.231022
773056527036445, 6.4199433, -0.13280165, 7.9106717, -0.07904568, -0.024075031, 10.188486
773056536676445, 6.413961, -0.14356937, 7.7886376, -0.06914139, 0.049828053, 10.090348
773056546316341, 6.3996043, -0.16630118, 7.6893353, -0.04728654, 0.10372639, 10.004772
773056555956341, 6.3493547, -0.23808585, 7.655836, 0.027989388, 0.09290171, 9.948537
773056565596237, 6.3086767, -0.26679972, 7.682157, 0.06106609, 0.047966957, 9.943848
773056575236237, 6.2979093, -0.2213361, 7.806584, 0.019621193, -0.043957233, 10.0326
773056584876133, 6.34098, -0.20578274, 7.946564, -0.0028963983, -0.10499382, 10.167951
773056594516133, 6.378069, -0.2105684, 7.9776707, -0.0018462241, -0.09634256, 10.215578
773056604156029, 6.3996043, -0.14955142, 7.9070826, -0.06688684, -0.039715767, 10.173161
773056613796029, 6.3601227, -0.14356937, 7.7886376, -0.07306492, 0.004719734, 10.056307
773056623435924, 6.2931237, -0.2105684, 7.690532, 0.0018962026, 0.022482395, 9.939393
773056633075924, 6.2847486, -0.22492532, 7.661818, 0.01622796, 0.0363698, 9.91214
773056642715820, 6.306284, -0.21535404, 7.696514, 0.0036488175, 0.032281876, 9.952432
773056652355820, 6.37089, -0.2009971, 7.763513, -0.0167761, 0.04004526, 10.044844
773056661995716, 6.3290157, -0.18903299, 7.806584, -0.025054961, -0.02014494, 10.051561
773056671635716, 6.3720865, -0.17467605, 7.8352976, -0.0493719, -0.0061802864, 10.100664
773056681275716, 6.458228, -0.13998012, 7.982456, -0.08985612, -0.034893513, 10.268332
773056690915612, 6.393622, -0.19262223, 7.920243, -0.033534795, -0.043566227, 10.180508
773056700555612, 6.3792653, -0.21655045, 7.881958, -0.011465877, -0.027085304, 10.142303
773056710195508, 6.3326054, -0.27756742, 7.8436728, 0.051703423, -0.033510208, 10.084559
773056719835508, 6.2715883, -0.35413775, 7.704889, 0.12386876, 0.015158176, 9.94022
773056729475404, 6.350551, -0.34097722, 7.726424, 0.10452247, 0.061913013, 10.006432
773056739115404, 6.3828545, -0.33260235, 7.735996, 0.08764848, 0.07885218, 10.0341015
773056748755299, 6.413961, -0.33379877, 7.776674, 0.08104348, 0.07649279, 10.085363
773056758395299, 6.4259253, -0.30029923, 7.9226356, 0.042303234, -0.012209892, 10.205338
773056768035299, 6.3864436, -0.3278167, 7.995617, 0.07510567, -0.08694935, 10.237717
773056777675195, 6.3290157, -0.31585258, 7.952546, 0.06672239, -0.106295586, 10.167764
773056787315195, 6.3397837, -0.24047868, 7.797013, -0.010904431, -0.005115986, 10.052063
773056796955091, 6.3792653, -0.12323037, 7.6570325, -0.12986453, 0.107794285, 9.965534
773056806595091, 6.2955165, -0.076570325, 7.6666036, -0.1582289, 0.036135674, 9.919166
773056816235091, 6.224928, -0.1363909, 7.7611203, -0.09147042, -0.07375145, 9.949347
773056825874987, 6.2464633, -0.19621146, 7.810173, -0.027688995, -0.08590746, 10.002373
773056835514987, 6.3122663, -0.22372891, 7.783852, -0.0062933266, -0.015170574, 10.024113
773056845154883, 6.430711, -0.20817557, 7.7814593, -0.034757823, 0.079217434, 10.096584
773056854794883, 6.5048885, -0.15553348, 7.881958, -0.097328454, 0.06812763, 10.220025
773056864434779, 6.413961, -0.19142582, 8.056634, -0.046218902, -0.11324644, 10.299025
773056874074779, 6.285945, -0.25124636, 8.020741, 0.023127854, -0.18404007, 10.191866
773056883714779, 6.2416778, -0.25962126, 7.8759756, 0.039601505, -0.123167515, 10.051875
773056893354674, 6.273981, -0.25004998, 7.665407, 0.017242849, 0.033325195, 9.908704
773056902994674, 6.3828545, -0.22612174, 7.5637126, -0.015814006, 0.18113136, 9.897912
773056912634570, 6.3720865, -0.22971097, 7.682157, -0.0056631863, 0.09425354, 9.9831295
773056922274570, 6.3218374, -0.3182454, 7.7647095, 0.090699464, 0.011987209, 10.017448
773056931914570, 6.289534, -0.31465617, 7.8029947, 0.087504506, -0.0359087, 10.026715
773056941554466, 6.32423, -0.2536392, 7.8376904, 0.024977744, -0.037208557, 10.074106
773056951194466, 6.3421764, -0.21296121, 7.87119, -0.020923972, -0.037784576, 10.110506
773056960834466, 6.3158555, -0.20817557, 7.925029, -0.02222988, -0.0921793, 10.135605
773056970474362, 6.326623, -0.18424734, 7.96451, -0.044989735, -0.106592655, 10.17252
773056980114362, 6.390033, -0.20817557, 7.9716887, -0.019794792, -0.05780363, 10.218608
773056989754258, 6.4175506, -0.18783657, 7.88794, -0.045297235, 0.014397144, 10.170427
773056999394258, 6.439086, -0.12323037, 7.739585, -0.111551374, 0.11993456, 10.067341
773057009034258, 6.442675, -0.062213387, 7.7826557, -0.16599983, 0.08994341, 10.101784
773057018674154, 6.34098, -0.09810573, 7.8484583, -0.11340305, -0.03082323, 10.089705
773057028314154, 6.283552, -0.16390835, 7.830512, -0.03631425, -0.06315899, 10.040992
773057037954154, 6.300302, -0.15314065, 7.732406, -0.044594735, 0.009960175, 9.975234
773057047594049, 6.326623, -0.11844472, 7.6271224, -0.08487302, 0.09429312, 9.909445
773057057234049, 6.40439, -0.13998012, 7.587641, -0.07251608, 0.18112135, 9.928245
773057066873945, 6.4343, -0.18783657, 7.6606216, -0.024353027, 0.16348362, 10.004664
773057076513945, 6.3924255, -0.22253251, 7.8352976, 0.023680449, 0.022410393, 10.114516
773057086153945, 6.3254266, -0.25722843, 7.8987074, 0.067448944, -0.0677824, 10.122136
773057095793841, 6.3290157, -0.23330021, 7.891529, 0.041795045, -0.06240654, 10.118374
773057105433841, 6.361319, -0.2117648, 7.8233337, 0.012955457, 0.0069470406, 10.085413
773057115073841, 6.334998, -0.19860429, 7.813762, 0.0026412904, -0.0048041344, 10.061138
773057124713737, 6.285945, -0.22372891, 7.8556366, 0.036156952, -0.06421232, 10.063238
773057134353737, 6.2285175, -0.22013968, 7.90469, 0.040593356, -0.13823032, 10.065103
773057143993737, 6.2440705, -0.19142582, 7.9657063, 0.01328823, -0.16606665, 10.121748
773057153633633, 6.29432, -0.18305093, 7.941778, -0.0010195673, -0.11144018, 10.134664
773057163273633, 6.302695, -0.17108682, 7.847262, -0.018768758, -0.046774864, 10.066292
773057172913633, 6.3182483, -0.12562318, 7.732406, -0.06962347, 0.03424692, 9.985998
773057182553529, 6.309873, -0.14117654, 7.6570325, -0.05487913, 0.07710314, 9.922479
773057192193529, 6.236892, -0.19860429, 7.6833534, 0.009434074, 0.008023739, 9.898082
773057201833529, 6.2261243, -0.26799613, 7.678568, 0.079214424, 0.008706093, 9.888907
773057211473424, 6.367301, -0.22372891, 7.696514, 0.021101087, 0.10219908, 9.990898
773057221113424, 6.559923, -0.11964113, 7.746763, -0.10820326, 0.20996046, 10.149063
773057230753424, 6.512067, -0.051445685, 7.8293157, -0.16991621, 0.11500692, 10.181637
773057240393320, 6.3338017, -0.09092726, 7.9477606, -0.11395648, -0.09639454, 10.162182
773057250033320, 6.235696, -0.15672988, 7.948957, -0.038879365, -0.16551971, 10.102748
773057259673320, 6.2584276, -0.13399807, 7.8927255, -0.06581071, -0.11472654, 10.07291
773057269313216, 6.32423, -0.15314065, 7.853244, -0.055117577, -0.03590107, 10.084068
773057278953216, 6.3960147, -0.1902294, 7.786245, -0.033500254, 0.06302023, 10.077981
773057288593216, 6.472585, -0.20937198, 7.7946196, -0.023902416, 0.11541319, 10.133134
773057298233112, 6.468996, -0.25962126, 7.8029947, 0.026483595, 0.11137962, 10.138489
773057307873112, 6.38764, -0.34337005, 7.8281193, 0.10619637, 0.032764435, 10.108755
773057317513112, 6.3314085, -0.35174492, 7.8029947, 0.110877946, 0.005987644, 10.054096
773057327153008, 6.2668023, -0.38404804, 7.780263, 0.14708057, -0.027738571, 9.99652
773057336793008, 6.2105713, -0.40677986, 7.751549, 0.1657039, -0.05172491, 9.939468
773057346433008, 6.224928, -0.40558344, 7.810173, 0.1469878, -0.07705784, 9.994272
773057356073008, 6.290731, -0.39720857, 7.8628154, 0.12580286, -0.05973816, 10.076485
773057365712904, 6.302695, -0.4223332, 7.8723865, 0.15065905, -0.05386114, 10.092135
773057375352904, 6.3421764, -0.43429732, 7.8759756, 0.15250322, -0.022437572, 10.120232
773057384992904, 6.367301, -0.43788654, 7.8891363, 0.14845169, -0.010128498, 10.146458
773057394632799, 6.4163537, -0.465404, 7.8891363, 0.16691768, 0.027959824, 10.178211
773057404272799, 6.4498534, -0.4223332, 7.867601, 0.12016976, 0.06505203, 10.181327
773057413912799, 6.4366927, -0.36131623, 7.836494, 0.061763287, 0.06742811, 10.14711
773057423552695, 6.4031935, -0.26919255, 7.7587276, -0.029630274, 0.082202435, 10.062981
773057433192695, 6.4055862, -0.18783657, 7.7347994, -0.10861251, 0.09038973, 10.043604
