timestamp_acc,device_acc_x,device_acc_y,device_acc_z,earth_acc_x,earth_acc_y,earth_acc_z
777349318355691, 1.3471591, 5.710471, 8.006385, -0.07008815, -0.040739775, 9.925721
777349327995691, 1.3208381, 5.6949177, 8.033902, -0.030018091, -0.030572653, 9.935717
777349337635691, 1.314856, 5.669793, 8.068598, -0.0032429695, 0.0011930466, 9.948753
777349347275639, 1.3076776, 5.6817575, 8.096115, 0.009021997, 0.0011281967, 9.976942
777349356915587, 1.3076776, 5.682954, 8.135597, 0.023070812, 0.018232346, 10.009649
777349366555587, 1.2969099, 5.672186, 8.124829, 0.03197646, 0.016398668, 9.99336
777349376195535, 1.3016955, 5.6709895, 8.090134, 0.015235662, 0.0038342476, 9.965168
777349385835483, 1.3100704, 5.6709895, 8.054241, -0.0054256916, -0.008138895, 9.937159
777349395475483, 1.3016955, 5.6685967, 8.025527, -0.0070700645, -0.022485733, 9.911406
777349405115483, 1.3399807, 5.6877394, 8.020741, -0.048434734, -0.020818233, 9.923481
777349414755431, 1.3256238, 5.692525, 8.054241, -0.02402091, -0.016487837, 9.951487
777349424395378, 1.3208381, 5.676972, 8.080562, -0.004925251, 0.0047826767, 9.963336
777349434035378, 1.3196417, 5.6913285, 8.09133, -0.0044486523, -0.0020799637, 9.980094
777349443675326, 1.3280165, 5.6913285, 8.084151, -0.0144639015, -0.0019769669, 9.975376
777349453315274, 1.3076776, 5.672186, 8.093722, 0.01320672, 0.0065209866, 9.969546
777349462955274, 1.2993027, 5.6745787, 8.085348, 0.016825914, -0.003128767, 9.963011
777349472595274, 1.2861422, 5.6853466, 8.063812, 0.016327143, -0.027084112, 9.9499445
777349482235222, 1.288535, 5.6997037, 8.038688, -0.0011072159, -0.04624653, 9.938073
777349491875170, 1.3040884, 5.6793647, 8.043473, -0.0058760643, -0.021246672, 9.932412
777349501515170, 1.3100704, 5.6650076, 8.049456, -0.0041794777, -0.0038368702, 9.929869
777349511155118, 1.3244274, 5.663811, 8.066205, -0.010067701, 0.011702299, 9.944662
777349520795066, 1.3232309, 5.6650076, 8.068598, -0.008647203, 0.010702133, 9.947126
777349530435066, 1.3184453, 5.666204, 8.090134, 0.0031371117, 0.017101288, 9.964643
777349540075066, 1.3339987, 5.656633, 8.099705, -0.0031921864, 0.03490424, 9.969004
777349549715014, 1.3064811, 5.6650076, 8.10449, 0.019593, 0.017307997, 9.9740305
777349559354962, 1.3076776, 5.6650076, 8.099705, 0.017477274, 0.015122652, 9.970306
777349568994962, 1.3256238, 5.692525, 8.090134, -0.010581255, -9.305477E-4, 9.980594
777349578634962, 1.3040884, 5.6877394, 8.065009, -9.346008E-5, -0.017432928, 9.954654
777349588274910, 1.288535, 5.6781683, 8.038688, 0.0064127445, -0.029742718, 9.925801
777349597914858, 1.3016955, 5.704489, 7.999206, -0.029966354, -0.058336258, 9.910529
777349607554858, 1.3220345, 5.686543, 7.993224, -0.043328285, -0.03609538, 9.89813
777349617194806, 1.3184453, 5.676972, 8.026724, -0.023495197, -0.015356541, 9.919365
777349626834753, 1.3124632, 5.6733823, 8.066205, -0.0012133121, 0.0012857914, 9.948544
777349636474753, 1.3232309, 5.666204, 8.070991, -0.00557971, 0.01259613, 9.949749
777349646114701, 1.3268201, 5.682954, 8.088937, -0.007568836, 0.009971619, 9.974324
777349655754649, 1.3256238, 5.682954, 8.115258, 0.004181862, 0.019415617, 9.995512
777349665394649, 1.3196417, 5.692525, 8.118847, 0.0068855286, 0.010047674, 10.00309
777349675034649, 1.3172488, 5.690132, 8.130812, 0.014172792, 0.015966415, 10.011113
777349684674597, 1.3052847, 5.692525, 8.099705, 0.011223316, -0.004834652, 9.985676
777349694314545, 1.3172488, 5.656633, 8.066205, 0.0013833046, 0.014450073, 9.939623
777349703954545, 1.3220345, 5.676972, 8.023134, -0.02683568, -0.015956163, 9.916929
777349713594493, 1.3387842, 5.68415, 8.003992, -0.050625324, -0.019846678, 9.907718
777349723234441, 1.3375878, 5.686543, 8.013563, -0.0465436, -0.018527985, 9.916682
777349732874441, 1.3100704, 5.6853466, 8.031509, -0.013941526, -0.02512312, 9.926923
777349742514441, 1.3016955, 5.672186, 8.069795, 0.013314486, -0.003720045, 9.9493475
777349752154389, 1.2382857, 5.669793, 8.118847, 0.087109566, -0.012969732, 9.97937
777349761794337, 1.3651053, 5.7152567, 8.118847, -0.03616643, 0.016415358, 10.022066
777349771434337, 1.3052847, 5.6997037, 8.106883, 0.015660286, -0.0075876713, 9.995583
777349781074337, 1.2897314, 5.6506505, 8.09133, 0.041513205, 0.01511693, 9.952934
777349790714285, 1.2921243, 5.6733823, 8.014759, 0.0016579628, -0.033552647, 9.904144
777349800354233, 1.3160524, 5.7080784, 7.9501534, -0.054991007, -0.07645917, 9.874726
777349809994233, 1.3004991, 5.6793647, 7.993224, -0.015188932, -0.042344093, 9.891214
777349819634181, 1.3232309, 5.6793647, 8.02792, -0.020897865, -0.015436888, 9.922346
777349829274128, 1.3603196, 5.672186, 8.053044, -0.041044235, 0.019534826, 9.943522
777349838914128, 1.3579268, 5.6793647, 8.090134, -0.027482986, 0.028233528, 9.977369
777349848554128, 1.3627125, 5.6685967, 8.129615, -0.011867046, 0.053028584, 10.003882
777349858194076, 1.3304094, 5.6745787, 8.155936, 0.024210691, 0.044667244, 10.024349
777349867834024, 1.3423735, 5.663811, 8.133204, 0.009399414, 0.047194242, 10.001371
777349877474024, 1.3280165, 5.6614184, 8.086544, 0.005005121, 0.021114826, 9.960272
777349887113972, 1.329213, 5.672186, 8.026724, -0.022172928, -0.012308359, 9.918073
777349896753920, 1.3232309, 5.6733823, 7.9836526, -0.03422737, -0.033405304, 9.883047
777349906393920, 1.3040884, 5.6781683, 7.9980097, -0.0137319565, -0.038669586, 9.894885
777349916033868, 1.2993027, 5.680561, 8.019546, -0.0019874573, -0.032298326, 9.913073
777349925673816, 1.3064811, 5.690132, 8.035098, -0.005543709, -0.02875185, 9.932092
777349935313816, 1.2981063, 5.692525, 8.073383, 0.01596713, -0.018482685, 9.963375
777349944953764, 1.2921243, 5.692525, 8.10449, 0.03294301, -0.00808835, 9.987795
777349954593712, 1.2981063, 5.6853466, 8.106883, 0.031121492, 9.6488E-4, 9.986433
777349964233712, 1.3136597, 5.6781683, 8.097312, 0.016085625, 0.009955406, 9.976643
777349973873712, 1.3328022, 5.6745787, 8.059027, -0.0138168335, 0.005373478, 9.9461
777349983513660, 1.3435699, 5.6877394, 8.033902, -0.036823034, -0.008971691, 9.934671
777349993153608, 1.3351951, 5.6817575, 8.007581, -0.0371449, -0.019611835, 9.90882
777350002793608, 1.329213, 5.686543, 8.017152, -0.029968739, -0.021924496, 9.918514
777350012433556, 1.3328022, 5.6781683, 8.02792, -0.025651693, -0.008751154, 9.922941
777350022073503, 1.3232309, 5.669793, 8.043473, -0.00848937, 2.7894974E-5, 9.929495
777350031713503, 1.3220345, 5.6650076, 8.065009, 0.0022950172, 0.011912584, 9.944059
777350041353503, 1.3495519, 5.6877394, 8.060223, -0.031220198, 0.005290985, 9.956801
777350050993451, 1.3387842, 5.686543, 8.072187, -0.016988277, 0.0065715313, 9.964388
777350060633399, 1.3160524, 5.6793647, 8.088937, 0.011459112, 0.008504152, 9.970852
777350070273399, 1.3076776, 5.6949177, 8.098508, 0.016966343, -0.0027668476, 9.986372
777350079913347, 1.2981063, 5.7009, 8.070991, 0.012243271, -0.023871899, 9.966218
777350089553295, 1.308874, 5.690132, 8.055437, 7.200241E-5, -0.016937733, 9.948896
777350099193295, 1.2933207, 5.6709895, 8.062616, 0.022650242, -0.006710291, 9.941732
777350108833243, 1.2909278, 5.672186, 8.032705, 0.013473749, -0.021094322, 9.91786
777350118473191, 1.3112668, 5.6482577, 7.9860454, -0.012690544, -0.013344049, 9.869084
777350128113191, 1.3399807, 5.6506505, 7.966903, -0.045480967, -0.009059668, 9.858744
777350137753139, 1.375873, 5.7200427, 7.945368, -0.10730052, -0.05275607, 9.885671
777350147393087, 1.3387842, 5.7152567, 8.003992, -0.051163197, -0.04218769, 9.925523
777350157033087, 1.3040884, 5.709275, 8.10449, 0.017658472, -0.010170698, 9.9989395
777350166673087, 1.2921243, 5.7188463, 8.152347, 0.04115796, -0.0025408268, 10.041607
777350176313035, 1.2789637, 5.7020965, 8.175078, 0.06543708, 0.013310909, 10.048737
777350185952983, 1.2777673, 5.663811, 8.193025, 0.0861814, 0.049422264, 10.041277
777350195592983, 1.2933207, 5.6410794, 8.16431, 0.06981206, 0.059797764, 10.007096
777350205232931, 1.3256238, 5.6374903, 8.065009, 0.0060169697, 0.034761667, 9.928832
777350214872878, 1.3507484, 5.6470613, 7.975278, -0.053312063, 6.155968E-4, 9.864889
777350224512878, 1.3423735, 5.6877394, 7.9274216, -0.077733755, -0.053563118, 9.848222
777350234152826, 1.3555341, 5.706882, 7.926225, -0.09363294, -0.062369347, 9.859937
777350243792774, 1.3363914, 5.706882, 7.96451, -0.062337637, -0.051793814, 9.888443
777350253432774, 1.3172488, 5.6961145, 8.035098, -0.01571393, -0.021310568, 9.936949
777350263072722, 1.3064811, 5.6877394, 8.096115, 0.01941514, 0.006676674, 9.980175
777350272712670, 1.2861422, 5.6817575, 8.148758, 0.058755398, 0.022835016, 10.016726
777350282352670, 1.3040884, 5.669793, 8.1679, 0.054172516, 0.046187878, 10.027798
777350291992618, 1.3076776, 5.6614184, 8.153543, 0.04869604, 0.046902657, 10.011863
777350301632566, 1.3064811, 5.6745787, 8.10449, 0.026386738, 0.014487267, 9.979459
777350311272566, 1.3112668, 5.697311, 8.045866, -0.0095460415, -0.024601698, 9.945553
777350320912514, 1.2921243, 5.669793, 7.9680996, -0.014500618, -0.046374083, 9.8643
777350330552462, 1.3184453, 5.6877394, 7.908279, -0.066149235, -0.0679667, 9.829577
777350340192462, 1.3280165, 5.686543, 7.9346, -0.06192994, -0.0508852, 9.85149
777350349832410, 1.3052847, 5.6614184, 8.013563, -0.0029201508, -0.009343386, 9.898108
777350359472358, 1.3040884, 5.548956, 8.055437, 0.056340694, 0.08867979, 9.867655
777350369112358, 1.457229, 6.1842504, 8.181061, -0.25283432, -0.24644041, 10.352468
777350378752306, 1.1880364, 5.0620165, 7.993224, 0.3001871, 0.36784053, 9.523743
777350388392253, 1.4452649, 6.320641, 8.269595, -0.2548287, -0.32473803, 10.500244
777350398032253, 1.1760724, 5.1457653, 8.051848, 0.30181623, 0.3267846, 9.617506
777350407672201, 1.4285151, 6.013163, 8.112865, -0.18851471, -0.16822696, 10.19576
777350417312149, 1.2729816, 5.5836515, 8.018349, 0.05090189, 0.029541254, 9.853331
777350426952149, 1.2801601, 5.503492, 7.9190464, 0.03789854, 0.052346945, 9.728019
777350436592097, 1.3483555, 6.038288, 8.082955, -0.13698888, -0.24366999, 10.175215
777350446232045, 1.2131611, 5.1182475, 7.864012, 0.19718218, 0.28735995, 9.454599
777350455872045, 1.4787644, 6.375676, 8.153543, -0.3292551, -0.40142655, 10.442543
777350465511993, 1.180858, 4.9567323, 7.9106717, 0.29697013, 0.42064285, 9.3955965
777350475151941, 1.4799608, 6.3481584, 8.184649, -0.31669664, -0.37082767, 10.4517975
777350484791941, 1.174876, 5.1326046, 7.982456, 0.27119327, 0.30710697, 9.553832
777350494431889, 1.4333007, 6.068198, 8.135597, -0.2029419, -0.20302391, 10.246117
777350504071837, 1.2717853, 5.5477595, 8.099705, 0.09752178, 0.09220958, 9.898598
777350513711837, 1.3244274, 5.5633125, 7.9968133, 0.012080193, 0.063994646, 9.83104
777350523351785, 1.3591232, 6.0167527, 8.100901, -0.13525558, -0.21171474, 10.178901
777350532991733, 1.2239288, 5.1409793, 7.877172, 0.1967423, 0.27995563, 9.479475
777350542631681, 1.4548361, 6.35773, 8.147561, -0.31861806, -0.39686632, 10.424061
777350552271628, 1.1365907, 4.959125, 7.853244, 0.32321882, 0.3670137, 9.344465
777350561911628, 1.4380864, 6.391229, 8.1344, -0.31054473, -0.44384336, 10.43029
777350571551576, 1.1377872, 5.130212, 7.928618, 0.29147935, 0.2749381, 9.503478
777350581191524, 1.396212, 6.1160545, 8.129615, -0.17862701, -0.25358748, 10.264012
777350590831524, 1.2251252, 5.508278, 8.078169, 0.14466572, 0.09982419, 9.852308
777350600471472, 1.3244274, 5.6374903, 8.032705, -0.003246069, 0.02669549, 9.902476
777350610111420, 1.3794622, 5.9712887, 8.117651, -0.12641382, -0.16111255, 10.169244
777350619751420, 1.2562319, 5.139783, 7.895118, 0.16503954, 0.30775356, 9.497706
777350629391368, 1.4668003, 6.3050876, 8.1738825, -0.28912282, -0.3495505, 10.41692
777350639031316, 1.2047862, 4.942375, 7.899904, 0.2842648, 0.43496013, 9.381741
777350648671264, 1.5002998, 6.3541408, 8.152347, -0.3416946, -0.37042665, 10.432295
777350658311212, 1.1724831, 5.0548377, 7.9597244, 0.2894838, 0.35764313, 9.490607
777350667951212, 1.4213367, 6.142376, 8.190632, -0.19320273, -0.24100685, 10.331507
777350677591160, 1.2191432, 5.4484572, 8.1020975, 0.17438555, 0.14717984, 9.836866
777350687231108, 1.3196417, 5.6757755, 8.048259, -0.005609274, 1.1610985E-4, 9.936312
777350696871056, 1.3172488, 5.930611, 8.078169, -0.07341218, -0.17978692, 10.105761
777350706511003, 1.2131611, 5.21755, 7.893922, 0.18017197, 0.22472787, 9.535492
777350716151003, 1.416551, 6.303891, 8.140383, -0.24890256, -0.38681388, 10.382673
777350725790951, 1.166501, 4.9698925, 7.865208, 0.2806146, 0.39234662, 9.364261
777350735430899, 1.4763715, 6.4031935, 8.143971, -0.31059694, -0.44361687, 10.450436
777350745070899, 1.1712867, 5.029713, 7.9070826, 0.25508928, 0.38088942, 9.433012
777350754710847, 1.4656038, 6.1710896, 8.127222, -0.23684382, -0.28192067, 10.302742
777350764350795, 1.2358929, 5.3886366, 8.055437, 0.14395857, 0.1948731, 9.767098
777350773990743, 1.3686945, 5.7750773, 8.093722, -0.06030345, -0.03665209, 10.036345
777350783630691, 1.3423735, 5.8672013, 8.158329, -0.03837776, -0.08765054, 10.13781
777350793270691, 1.2669996, 5.2534423, 7.9513497, 0.12696457, 0.25816703, 9.609638
777350802910639, 1.4751751, 6.250053, 8.181061, -0.25612783, -0.31257582, 10.392582
777350812550587, 1.2023934, 4.9866424, 7.891529, 0.26740384, 0.3977499, 9.3999405
777350822190535, 1.5122639, 6.407979, 8.130812, -0.37773514, -0.42489457, 10.446817
777350831830483, 1.1916257, 4.999803, 7.8424764, 0.2595229, 0.35863972, 9.366241
777350841470483, 1.4620147, 6.2081785, 8.072187, -0.29693198, -0.31731844, 10.278635
777350851110431, 1.2035898, 5.3515477, 8.000402, 0.18998098, 0.162637, 9.696989
777350860750378, 1.329213, 5.81097, 8.053044, -0.054362297, -0.09345007, 10.018684
777350870390326, 1.2729816, 5.8061843, 8.13799, 0.028199196, -0.08007598, 10.077299
777350880030274, 1.2550355, 5.3144593, 8.000402, 0.16136384, 0.21737051, 9.6825485
777350889670274, 1.4141582, 6.2237315, 8.228917, -0.19833684, -0.2808802, 10.408242
777350899310222, 1.174876, 5.0129633, 7.954939, 0.3168733, 0.3842671, 9.462722
777350908950170, 1.4691931, 6.398408, 8.203793, -0.31704926, -0.4006939, 10.494727
777350918590118, 1.1653047, 4.9734817, 7.885547, 0.30357766, 0.3758812, 9.383063
777350928230066, 1.4715859, 6.263213, 8.07458, -0.31291342, -0.35178566, 10.313612
777350937870014, 1.2155539, 5.2833524, 7.9429746, 0.17544079, 0.19828033, 9.613122
777350947509962, 1.3830515, 5.85763, 8.018349, -0.1216023, -0.11636424, 10.024484
777350957149962, 1.294517, 5.7667027, 8.048259, -0.008818626, -0.07827258, 9.984934
777350966789910, 1.253839, 5.380262, 7.938189, 0.111142635, 0.1475687, 9.669544
777350976429858, 1.4045869, 6.2033925, 8.175078, -0.19266057, -0.29794574, 10.351858
777350986069806, 1.1844472, 4.999803, 7.948957, 0.2882588, 0.40965867, 9.45177
777350995709753, 1.4715859, 6.3768725, 8.2348995, -0.27940798, -0.37190604, 10.508436
777351005349701, 1.1988041, 4.9567323, 7.9166536, 0.28199553, 0.42742872, 9.403059
777351014989649, 1.477568, 6.2679987, 8.140383, -0.29331923, -0.33699512, 10.370015
777351024629649, 1.2047862, 5.2426744, 7.993224, 0.21816802, 0.25270915, 9.628983
777351034269597, 1.39023, 5.9174504, 8.093722, -0.122484446, -0.13203073, 10.120518
777351043909545, 1.2717853, 5.7080784, 8.10449, 0.052495718, -0.020602703, 9.993957
777351053549493, 1.2658032, 5.4185467, 7.9633136, 0.098103285, 0.13134813, 9.713413
777351063189441, 1.3866407, 6.168697, 8.165507, -0.17449045, -0.28508735, 10.321792
777351072829389, 1.1772687, 5.0536413, 7.9154572, 0.27584767, 0.3406248, 9.4545
777351082469337, 1.4464613, 6.3888364, 8.166703, -0.30253005, -0.42181277, 10.456342
777351092109337, 1.1581261, 4.9495535, 7.85444, 0.2981639, 0.38582706, 9.343116
777351101749285, 1.5002998, 6.32423, 8.096115, -0.35000443, -0.38356733, 10.36939
777351111389233, 1.2287145, 5.194818, 7.948957, 0.19526482, 0.27499056, 9.569119
777351121029181, 1.4285151, 5.953343, 8.096115, -0.16131592, -0.13341427, 10.148211
777351130669128, 1.2909278, 5.65424, 8.100901, 0.05219245, 0.030160427, 9.962824
777351140309076, 1.3016955, 5.483153, 8.005188, 0.059538126, 0.121019125, 9.788984
777351149949024, 1.3674982, 6.101698, 8.16431, -0.13420033, -0.24703407, 10.279966
777351159588972, 1.1772687, 5.0679984, 7.9477606, 0.27676082, 0.35033607, 9.488843
777351169228920, 1.4452649, 6.3696938, 8.22772, -0.26703882, -0.3761909, 10.494967
777351178868920, 1.1497513, 4.95075, 7.9022965, 0.32933164, 0.40640616, 9.381072
777351188508868, 1.4703895, 6.3385873, 8.110473, -0.32277012, -0.39225006, 10.385637
777351198148816, 1.1653047, 5.1529436, 7.9130645, 0.25111413, 0.269073, 9.507465
777351207788764, 1.4285151, 6.0215383, 8.067402, -0.19887853, -0.19354272, 10.163934
777351217428712, 1.2921243, 5.6123657, 8.050652, 0.045210123, 0.039937496, 9.898362
777351227068660, 1.3495519, 5.5334024, 7.9800634, -0.0046958923, 0.09476113, 9.803686
777351236708608, 1.4045869, 6.0227346, 8.165507, -0.14407134, -0.16680932, 10.240757
777351246348556, 1.2227324, 5.0847483, 7.9597244, 0.24111056, 0.36117816, 9.514114
777351255988503, 1.4476577, 6.381658, 8.254042, -0.2657888, -0.37132335, 10.5234
777351265628451, 1.1210374, 4.9734817, 7.9477606, 0.3610766, 0.38770247, 9.427538
777351275268399, 1.4321043, 6.367301, 8.148758, -0.2895174, -0.41206932, 10.427948
777351284908347, 1.1521441, 5.111069, 7.914261, 0.28133154, 0.29058933, 9.482741
777351294548295, 1.4081762, 6.078966, 8.031509, -0.22185135, -0.2638011, 10.164799
777351304188243, 1.262214, 5.534599, 7.9776707, 0.069295645, 0.053442, 9.79084
777351313828191, 1.3471591, 5.5872407, 7.9716887, -0.025298834, 0.050611258, 9.827345
777351323468191, 1.3806586, 6.020342, 8.130812, -0.14123893, -0.18447065, 10.208177
777351333108139, 1.2382857, 5.1720862, 7.98126, 0.2061727, 0.31472802, 9.583464
777351342748087, 1.4656038, 6.3397837, 8.274381, -0.26273632, -0.32751584, 10.518077
777351352388035, 1.1617154, 4.955536, 7.9740815, 0.34204173, 0.44214702, 9.443538
777351362027983, 1.457229, 6.385247, 8.196614, -0.29845786, -0.40389156, 10.479847
777351371667931, 1.146162, 5.099105, 7.9298143, 0.28813434, 0.31057644, 9.487731
777351381307878, 1.4069797, 6.1208405, 8.078169, -0.21415758, -0.27867723, 10.226317
777351390947826, 1.2143575, 5.483153, 8.001599, 0.1353972, 0.080697775, 9.774476
777351400587774, 1.2957134, 5.666204, 7.969296, -0.00615263, -0.034049034, 9.863733
777351410227722, 1.3579268, 5.9700923, 8.079366, -0.12201762, -0.18449807, 10.134752
777351419867670, 1.2502499, 5.194818, 7.893922, 0.16062093, 0.26402593, 9.527212
777351429507618, 1.4584254, 6.3314085, 8.240881, -0.26836562, -0.33786488, 10.485213
777351439147566, 1.1641082, 4.941179, 7.975278, 0.3542328, 0.44750166, 9.436617
777351448787514, 1.4668003, 6.361319, 8.224132, -0.2988851, -0.36147165, 10.48972
777351458427462, 1.1676974, 5.029713, 7.9501534, 0.31291866, 0.36929965, 9.467426
777351468067462, 1.442872, 6.1627145, 8.132008, -0.24046326, -0.2700007, 10.298531
777351477707410, 1.2502499, 5.4185467, 8.029117, 0.13041043, 0.15308857, 9.764734
777351487347358, 1.3734802, 5.686543, 7.999206, -0.07052493, -2.014637E-4, 9.909873
777351496987306, 1.3651053, 5.895915, 8.085348, -0.10184026, -0.1241467, 10.09814
777351506627253, 1.2311072, 5.2199426, 7.9226356, 0.17760277, 0.24898529, 9.562325
777351516267201, 1.4213367, 6.2847486, 8.206185, -0.23696876, -0.33505583, 10.425514
777351525907149, 1.1318051, 4.971089, 7.962117, 0.3541727, 0.4050038, 9.439203
777351535547097, 1.4333007, 6.418747, 8.224132, -0.2812729, -0.42712045, 10.518055
777351545187045, 1.1330016, 5.0416775, 7.9597244, 0.3319695, 0.34570408, 9.477853
777351554826993, 1.4404793, 6.195018, 8.13799, -0.24907279, -0.2910695, 10.321499
777351564466941, 1.2251252, 5.3682976, 7.9920278, 0.15578532, 0.16080213, 9.702677
777351574106889, 1.396212, 5.7607207, 7.9980097, -0.1198864, -0.04442215, 9.95425
777351583746837, 1.3459628, 5.8504515, 8.059027, -0.08340263, -0.10907698, 10.0483055
777351593386785, 1.2909278, 5.2606206, 7.9130645, 0.107820034, 0.24097443, 9.585798
777351603026733, 1.457229, 6.2524457, 8.208578, -0.2505095, -0.2905619, 10.413941
777351612666681, 1.1653047, 4.989035, 7.9513497, 0.32457137, 0.4027264, 9.44483
777351622306628, 1.4668003, 6.4151573, 8.2253275, -0.31208944, -0.40539002, 10.521408
777351631946576, 1.154537, 5.0213385, 7.9310107, 0.31530023, 0.36444426, 9.4453945
777351641586524, 1.4500505, 6.2261243, 8.135597, -0.26418233, -0.31475186, 10.338586
777351651226472, 1.2215359, 5.3407803, 8.014759, 0.17671323, 0.19891977, 9.704723
777351660866420, 1.3926228, 5.8337016, 8.047063, -0.121041775, -0.08209133, 10.035204
777351670506368, 1.3160524, 5.779863, 8.085348, -0.019375324, -0.059327126, 10.025357
777351680146316, 1.262214, 5.302495, 7.952546, 0.13094187, 0.21555567, 9.637895
777351689786264, 1.4033905, 6.216553, 8.203793, -0.19362283, -0.2921257, 10.382409
777351699426212, 1.1760724, 5.009374, 7.9513497, 0.29813313, 0.40044022, 9.457892
777351709066160, 1.4691931, 6.4091754, 8.224132, -0.3033054, -0.40686202, 10.517361
777351718706108, 1.1497513, 4.979464, 7.9070826, 0.3195722, 0.38723207, 9.401428
777351728346056, 1.43689, 6.2691956, 8.116454, -0.27591443, -0.36014104, 10.345939
777351737986003, 1.2000005, 5.2845488, 7.954939, 0.18871975, 0.19767737, 9.621477
777351747626003, 1.39023, 5.8731833, 8.012366, -0.1452074, -0.1274569, 10.029343
777351757265951, 1.308874, 5.753542, 8.045866, -0.023504257, -0.061025858, 9.977378
777351766905899, 1.2837493, 5.373083, 7.9597244, 0.09555316, 0.17439175, 9.686883
777351776545847, 1.4344971, 6.155536, 8.210971, -0.20613313, -0.22729778, 10.357329
777351786185795, 1.2047862, 5.0273204, 8.005188, 0.2950747, 0.41178918, 9.515874
777351795825743, 1.4691931, 6.3924255, 8.301898, -0.2780764, -0.34312582, 10.571098
777351805465691, 1.1246266, 4.9579287, 7.98126, 0.3705144, 0.41682458, 9.446444
777351815105639, 1.4273187, 6.2751775, 8.155936, -0.2616434, -0.34948754, 10.379971
777351824745587, 1.180858, 5.2331033, 7.954939, 0.22673965, 0.2301631, 9.589393
777351834385535, 1.3866407, 5.933004, 8.026724, -0.15905714, -0.16789222, 10.074627
777351844025483, 1.2957134, 5.6913285, 8.024331, -0.0010561943, -0.031392336, 9.922651
777351853665431, 1.3016955, 5.4149575, 7.90469, 0.04356289, 0.12789536, 9.6686125
777351863305378, 1.4297116, 6.1591253, 8.136793, -0.22682285, -0.2642944, 10.298787
777351872945326, 1.2203395, 5.081159, 7.944171, 0.23649478, 0.35589266, 9.499194
777351882585274, 1.4524434, 6.3864436, 8.254042, -0.27411819, -0.37041092, 10.526781
777351892225222, 1.1353943, 4.9459643, 7.9860454, 0.37490535, 0.4379773, 9.444375
777351901865170, 1.4392828, 6.3385873, 8.187042, -0.27212834, -0.3841014, 10.442955
777351911505118, 1.1760724, 5.1756754, 7.995617, 0.25884247, 0.2947955, 9.588887
777351921145066, 1.3854443, 5.9557357, 8.110473, -0.13015723, -0.15327191, 10.155273
777351930785014, 1.2921243, 5.6147585, 8.050652, 0.03825569, 0.03879881, 9.899754
777351940424962, 1.329213, 5.4927244, 7.928618, -5.8460236E-4, 0.09199262, 9.736086
777351950064910, 1.4081762, 6.088537, 8.106883, -0.19063091, -0.24508595, 10.231246
777351959704858, 1.2059826, 5.0799623, 7.945368, 0.24458814, 0.35223413, 9.497652
777351969344806, 1.4536397, 6.3768725, 8.271988, -0.2668922, -0.3665681, 10.535548
777351978984753, 1.1557333, 4.965107, 7.960921, 0.33343935, 0.41691613, 9.438182
777351988624701, 1.4811572, 6.337391, 8.210971, -0.30590916, -0.34964323, 10.467119
777351998264649, 1.1976078, 5.130212, 7.9980097, 0.25658846, 0.32740378, 9.568097
777352007904597, 1.4261223, 6.033502, 8.115258, -0.1958251, -0.18622541, 10.208885
777352017544545, 1.2789637, 5.5800624, 8.035098, 0.057687044, 0.048277617, 9.865598
777352027184493, 1.314856, 5.5310097, 7.940582, 0.0082707405, 0.060116053, 9.76576
777352036824441, 1.3603196, 6.033502, 8.115258, -0.1370604, -0.21668911, 10.200261
777352046464389, 1.1844472, 5.1206403, 7.926225, 0.2579329, 0.29460716, 9.5023985
777352056104337, 1.4045869, 6.363712, 8.239685, -0.24449682, -0.3784876, 10.495669
777352065744285, 1.1330016, 4.965107, 7.9477606, 0.36247802, 0.38645172, 9.42455
777352075384233, 1.4620147, 6.355337, 8.210971, -0.30360866, -0.35420942, 10.47522
777352085024181, 1.1796615, 5.0979085, 7.982456, 0.28671956, 0.32650065, 9.534729
777352094664128, 1.4273187, 6.0777693, 8.122437, -0.20908594, -0.20799851, 10.240289
777352104304128, 1.2191432, 5.505885, 8.068598, 0.14600873, 0.0883379, 9.842471
777352113944076, 1.314856, 5.623133, 7.969296, -0.0139968395, 0.0040438175, 9.841642
777352123584024, 1.4117653, 6.0119667, 8.105687, -0.17950273, -0.18008447, 10.186968
777352133223972, 1.2765709, 5.1493545, 7.932207, 0.16274118, 0.32137442, 9.536016
777352142863920, 1.4859428, 6.3385873, 8.236095, -0.30232, -0.33476496, 10.488829
777352152503868, 1.1497513, 4.9722853, 7.9513497, 0.33704638, 0.3993845, 9.433792
777352162143816, 1.4261223, 6.38764, 8.219346, -0.26683712, -0.41486144, 10.495243
777352171783764, 1.1042876, 5.0476594, 7.9561353, 0.3462255, 0.32756233, 9.47477
777352181423712, 1.3998013, 6.1244297, 8.10808, -0.20793653, -0.2731278, 10.2514
777352191063660, 1.2346965, 5.474778, 8.018349, 0.118413925, 0.09393835, 9.786152
777352200703608, 1.3244274, 5.686543, 7.9920278, -0.03860259, -0.031331062, 9.897522
777352210343556, 1.3423735, 5.953343, 8.098508, -0.10416794, -0.17452621, 10.138479
777352219983503, 1.2526426, 5.2008, 7.925029, 0.16563678, 0.2677393, 9.556379
777352229623451, 1.4739788, 6.3158555, 8.244471, -0.2886963, -0.31687498, 10.480944
777352239263399, 1.2095718, 4.948357, 8.005188, 0.31850386, 0.46428037, 9.471819
777352248903347, 1.5146568, 6.3589263, 8.276773, -0.32826304, -0.31566954, 10.536968
777352258543295, 1.1952149, 5.0129633, 7.98126, 0.30096865, 0.3940544, 9.487517
777352268183295, 1.4500505, 6.168697, 8.145168, -0.25922012, -0.2619772, 10.313265
777352277823243, 1.2203395, 5.400601, 8.024331, 0.16265464, 0.1360662, 9.746828
777352287463191, 1.3280165, 5.704489, 7.999206, -0.042591333, -0.03953266, 9.914068
777352297103139, 1.2873386, 5.881558, 8.0614195, -0.04904008, -0.16557956, 10.060151
777352306743087, 1.2227324, 5.2486563, 7.9274216, 0.173908, 0.21868396, 9.581723
777352316383035, 1.3998013, 6.2787666, 8.221739, -0.22090769, -0.33630466, 10.4315605
777352326022983, 1.1222339, 4.9842496, 7.9740815, 0.36515188, 0.38374233, 9.455557
777352335662931, 1.4500505, 6.3972116, 8.256434, -0.280859, -0.38384986, 10.5342045
777352345302878, 1.166501, 5.009374, 7.984849, 0.31100678, 0.39740062, 9.484605
777352354942826, 1.4548361, 6.189036, 8.143971, -0.25577736, -0.27995038, 10.324785
777352364582774, 1.2227324, 5.3156557, 8.020741, 0.17389297, 0.2106061, 9.695822
777352374222774, 1.3674982, 5.7583275, 8.029117, -0.08662796, -0.054087877, 9.974199
777352383862722, 1.3519448, 5.832505, 8.039884, -0.09083152, -0.11089349, 10.023224
777352393502670, 1.2933207, 5.302495, 7.899904, 0.07649684, 0.20197701, 9.599528
777352403142618, 1.4416757, 6.245267, 8.178668, -0.24907804, -0.32081556, 10.383037
777352412782566, 1.1796615, 4.983053, 7.945368, 0.2943728, 0.40728974, 9.439214
777352422422514, 1.4703895, 6.4008007, 8.267202, -0.29972434, -0.38185692, 10.547193
777352432062462, 1.1688938, 5.0105705, 7.9884386, 0.31047106, 0.40755892, 9.488138
777352441702410, 1.4524434, 6.2512493, 8.220542, -0.251055, -0.30117297, 10.421674
777352451342358, 1.1784651, 5.302495, 8.0817585, 0.24773693, 0.22755337, 9.731748
777352460982306, 1.3435699, 5.814559, 8.106883, -0.0523417, -0.06912565, 10.066196
777352470622253, 1.3172488, 5.7631135, 8.07458, -0.02683115, -0.05852866, 10.007164
777352480262253, 1.2873386, 5.3539405, 7.8963146, 0.06108427, 0.15877724, 9.625214
777352489902201, 1.416551, 6.2177496, 8.153543, -0.22739911, -0.32342768, 10.343645
777352499542149, 1.14018, 4.9902315, 7.9429746, 0.31675982, 0.3895433, 9.436164
777352509182097, 1.4440684, 6.3804617, 8.1942215, -0.28274608, -0.4216187, 10.472973
777352518822045, 1.134198, 4.9770713, 7.9094753, 0.32665277, 0.3680725, 9.400812
777352528461993, 1.451247, 6.2775702, 8.16431, -0.2815981, -0.3443172, 10.3909645
777352538101941, 1.1880364, 5.2546387, 8.02792, 0.2347672, 0.2356658, 9.6622715
777352547741889, 1.3878372, 5.9042897, 8.092526, -0.12867975, -0.1175797, 10.111645
777352557381837, 1.3124632, 5.7260246, 8.09133, -0.0056364536, -0.024491072, 9.998943
777352567021837, 1.2897314, 5.4125648, 7.9704924, 0.077812195, 0.14317918, 9.719128
777352576661785, 1.402194, 6.1399827, 8.19781, -0.18465543, -0.2405622, 10.333327
777352586301733, 1.1940185, 4.991428, 7.954939, 0.29614043, 0.40125728, 9.453695
777352595941681, 1.4703895, 6.378069, 8.230113, -0.31246853, -0.37882566, 10.504067
777352605581628, 1.1724831, 4.948357, 7.938189, 0.31029606, 0.42065167, 9.412893
777352615221576, 1.4679967, 6.290731, 8.189436, -0.2850752, -0.33155346, 10.421322
777352624861524, 1.2047862, 5.224728, 8.035098, 0.23068428, 0.2774372, 9.653078
777352634501524, 1.3890336, 5.9760747, 8.126026, -0.14012551, -0.16820574, 10.179748
777352644141472, 1.2658032, 5.6937213, 8.10808, 0.050843, -0.01977396, 9.987929
777352653781420, 1.2658032, 5.4484572, 7.9800634, 0.08663678, 0.10842085, 9.744233
777352663421368, 1.3698909, 6.1100726, 8.154739, -0.15834713, -0.25915432, 10.27702
777352673061316, 1.2227324, 5.06082, 7.938189, 0.23523092, 0.36474633, 9.483326
777352682701264, 1.4548361, 6.3804617, 8.2456665, -0.2907548, -0.37380457, 10.51635
777352692341212, 1.1533405, 4.9375896, 7.9537425, 0.34600973, 0.42901778, 9.416381
777352701981212, 1.4644074, 6.343373, 8.159525, -0.3201673, -0.39004278, 10.42622
777352711621160, 1.1880364, 5.1828537, 7.9657063, 0.23680973, 0.2678504, 9.570688
777352721261108, 1.4045869, 5.9916277, 8.1020975, -0.17247248, -0.1780622, 10.171284
777352730901056, 1.268196, 5.593223, 8.068598, 0.06941247, 0.04242277, 9.898895
777352740541003, 1.3052847, 5.5202417, 7.993224, 0.031266212, 0.07968259, 9.80108
777352750181003, 1.3830515, 6.078966, 8.16431, -0.15161014, -0.22920847, 10.268745
777352759820951, 1.2167503, 5.1014977, 7.962117, 0.22318244, 0.34377313, 9.525392
777352769460899, 1.4691931, 6.346962, 8.26122, -0.27210116, -0.34812808, 10.51166
777352779100847, 1.1653047, 4.941179, 7.9537425, 0.3167734, 0.43398643, 9.420536
777352788740795, 1.4991034, 6.3397837, 8.193025, -0.3208344, -0.36006665, 10.456254
777352798380743, 1.1964114, 5.103891, 7.995617, 0.25396824, 0.34134936, 9.551437
777352808020691, 1.4285151, 6.0227346, 8.155936, -0.17149353, -0.18168998, 10.2357645
777352817660691, 1.2454642, 5.5465627, 8.087741, 0.11109424, 0.07362652, 9.884803
777352827300639, 1.2813566, 5.5633125, 7.989635, 0.036483526, 0.03166175, 9.819587
777352836940587, 1.3208381, 6.0574307, 8.116454, -0.1046288, -0.26862764, 10.209349
777352846580535, 1.2191432, 5.156533, 7.9226356, 0.1950736, 0.28513312, 9.524963
777352856220483, 1.463211, 6.3314085, 8.244471, -0.27350998, -0.3515284, 10.488117
777352865860483, 1.1688938, 4.9268217, 7.9274216, 0.31013298, 0.43377924, 9.391462
777352875500431, 1.4991034, 6.346962, 8.172686, -0.33876657, -0.379812, 10.44342
777352885140378, 1.1976078, 5.0979085, 7.9680996, 0.26039958, 0.3320012, 9.52552
777352894780378, 1.4404793, 6.09093, 8.181061, -0.2028048, -0.20883179, 10.296575
777352904420326, 1.2550355, 5.474778, 8.117651, 0.13871956, 0.14257264, 9.869396
777352914060274, 1.308874, 5.6279187, 8.062616, 0.01851654, 0.025778532, 9.919245
777352923700222, 1.3387842, 5.994021, 8.1344, -0.10003066, -0.20379615, 10.190073
777352933340170, 1.2155539, 5.180461, 7.941778, 0.2038424, 0.26582432, 9.553764
777352942980170, 1.4333007, 6.317052, 8.2253275, -0.25895715, -0.360394, 10.460333
777352952620118, 1.1581261, 4.9519463, 7.9369926, 0.33059978, 0.4077685, 9.411871
777352962260066, 1.4536397, 6.391229, 8.175078, -0.31570268, -0.43407583, 10.464449
777352971900014, 1.1485549, 5.081159, 7.9274216, 0.29575872, 0.2978046, 9.476562
777352981539962, 1.4261223, 6.1363935, 8.139186, -0.22974443, -0.26347542, 10.286559
777352991179962, 1.2370893, 5.444868, 8.072187, 0.15102077, 0.13023949, 9.813126
777353000819910, 1.3746766, 5.68415, 8.070991, -0.050626993, 0.02034688, 9.966806
777353010459858, 1.4081762, 5.9090757, 8.166703, -0.12168932, -0.09191537, 10.177029
777353020099858, 1.2610176, 5.1625147, 7.972885, 0.18610239, 0.31038785, 9.574844
777353029739806, 1.4691931, 6.2548385, 8.243274, -0.25511956, -0.28957295, 10.444337
777353039379753, 1.1916257, 4.9316072, 7.9800634, 0.3259256, 0.4542396, 9.439785
777353049019701, 1.4859428, 6.3661046, 8.263613, -0.30057406, -0.3529501, 10.526524
777353058659649, 1.134198, 5.0045886, 7.982456, 0.35041785, 0.37326956, 9.475748
777353068299649, 1.4093726, 6.192625, 8.161918, -0.21515536, -0.3058393, 10.33499
777353077939597, 1.2011969, 5.4089756, 8.035098, 0.17570543, 0.12669039, 9.757857
777353087579545, 1.3304094, 5.736792, 8.043473, -0.040540457, -0.055330038, 9.968628
777353097219545, 1.3220345, 5.8564334, 8.075776, -0.060213566, -0.13709974, 10.061876
777353106859493, 1.2490535, 5.2570314, 7.9190464, 0.13742709, 0.21392226, 9.583485
777353116499441, 1.430908, 6.2584276, 8.202596, -0.24513078, -0.3300116, 10.408122
777353126139441, 1.2035898, 4.975875, 7.962117, 0.28640366, 0.42450547, 9.45204
777353135779389, 1.5206388, 6.385247, 8.257631, -0.33254647, -0.35899782, 10.537208
777353145419337, 1.1904292, 4.999803, 7.9836526, 0.29591775, 0.41041684, 9.481448
777353155059285, 1.4799608, 6.215357, 8.175078, -0.2743113, -0.28702235, 10.367991
777353164699233, 1.253839, 5.343173, 8.037491, 0.1510992, 0.20270538, 9.729283
777353174339233, 1.3890336, 5.779863, 8.093722, -0.08735132, -0.042419434, 10.04167
777353183979181, 1.3184453, 5.8097734, 8.109276, -0.02871275, -0.09071708, 10.061961
777353193619128, 1.2610176, 5.3144593, 7.945368, 0.12494111, 0.17969775, 9.639221
777353203259128, 1.4117653, 6.2261243, 8.191829, -0.22142577, -0.31606793, 10.378576
777353212899076, 1.1736795, 4.9938207, 7.962117, 0.3158934, 0.38169575, 9.458626
777353222539024, 1.4560326, 6.3948183, 8.254042, -0.2845435, -0.39519024, 10.531181
777353232179024, 1.1473584, 4.983053, 7.975278, 0.34161472, 0.38517332, 9.45977
777353241818972, 1.4859428, 6.2440705, 8.189436, -0.29187512, -0.30130005, 10.396505
777353251458920, 1.2299109, 5.288138, 8.013563, 0.18865299, 0.21803713, 9.675285
777353261098920, 1.3986049, 5.8636117, 8.051848, -0.13283825, -0.1173048, 10.056785
777353270738868, 1.3064811, 5.7762737, 8.050652, -0.028327942, -0.098186255, 9.993737
777353280378816, 1.282553, 5.3623157, 7.9106717, 0.07354522, 0.144799, 9.641149
777353290018816, 1.4177474, 6.1902323, 8.169097, -0.21185613, -0.30647326, 10.340421
777353299658764, 1.154537, 5.0141597, 7.9597244, 0.3139894, 0.36768746, 9.465631
777353309298712, 1.4488541, 6.37089, 8.286345, -0.25061464, -0.37040758, 10.542812
777353318938712, 1.160519, 4.9663033, 8.000402, 0.3413031, 0.4279585, 9.471948
777353328578660, 1.4835501, 6.2991056, 8.237292, -0.28490376, -0.3292837, 10.466281
777353338218608, 1.1784651, 5.1900325, 8.02792, 0.266567, 0.27604342, 9.624212
777353347858608, 1.3830515, 5.875576, 8.088937, -0.11448312, -0.11368084, 10.091587
777353357498556, 1.3196417, 5.5980086, 8.01117, 0.004093647, 0.026461601, 9.861912
777353367138503, 1.3603196, 5.6961145, 8.043473, -0.052616358, -0.011544466, 9.949409
777353376778503, 1.3411771, 5.649454, 8.051848, -0.016389608, 0.016733646, 9.927073
777353386418451, 1.3447664, 5.6889358, 8.072187, -0.02480936, -0.0016319752, 9.966543
777353396058399, 1.4967105, 5.5166526, 8.187042, -0.047045708, 0.25511956, 9.981681
777353405698399, 1.3459628, 5.8217373, 8.026724, -0.094507694, -0.116568804, 10.005501
777353415338399, 1.2047862, 5.753542, 8.087741, 0.07398081, -0.11489415, 9.997381
777353424978347, 1.2083755, 5.6075797, 8.163115, 0.15309596, 0.032485962, 9.975824
777353434618295, 1.3064811, 5.6757755, 8.118847, 0.026327372, 0.012337446, 9.991805
777353444258295, 1.3268201, 5.703293, 8.117651, -9.543896E-4, 0.0011601448, 10.00921
777353453898243, 1.2849457, 5.6889358, 8.012366, 4.901886E-4, -0.054179907, 9.910103
777353463538191, 1.2646067, 5.6853466, 7.9740815, 0.0046839714, -0.07626462, 9.874338
777353473178191, 1.2765709, 5.6757755, 7.98126, -6.1798096E-4, -0.05806732, 9.876294
777353482818139, 1.3375878, 5.68415, 8.020741, -0.041804314, -0.015956402, 9.921139
777353492458087, 1.3351951, 5.6889358, 8.065009, -0.024209976, -0.0021617413, 9.959443
777353502098087, 1.329213, 5.663811, 8.106883, 0.0057325363, 0.031112432, 9.978282
777353511738087, 1.3363914, 5.6781683, 8.163115, 0.015473127, 0.047297478, 10.033023
777353521378035, 1.3519448, 5.663811, 8.183454, 0.014577389, 0.073406935, 10.043396
777353531017983, 1.3435699, 5.65424, 8.177471, 0.023459673, 0.0735178, 10.031982
777353540657983, 1.3220345, 5.669793, 8.139186, 0.02169013, 0.03319621, 10.006952
777353550297931, 1.3208381, 5.6614184, 8.092526, 0.008214474, 0.019129276, 9.964178
777353559937878, 1.3160524, 5.6877394, 8.018349, -0.026357174, -0.0349679, 9.918386
777353569577878, 1.3196417, 5.7056856, 7.98126, -0.049761534, -0.06145549, 9.899017
777353579217826, 1.2957134, 5.6997037, 7.9860454, -0.024916887, -0.06560254, 9.896337
777353588857774, 1.3016955, 5.68415, 7.9980097, -0.019937992, -0.04365015, 9.89797
777353598497774, 1.3016955, 5.6853466, 8.036295, -0.0053150654, -0.027931452, 9.929693
777353608137774, 1.2969099, 5.680561, 8.115258, 0.030971289, 0.0057780743, 9.990354
777353617777722, 1.3064811, 5.6650076, 8.169097, 0.049781084, 0.04553604, 10.026405
777353627417670, 1.3387842, 5.6757755, 8.177471, 0.021246672, 0.054762125, 10.043623
777353637057670, 1.3555341, 5.666204, 8.172686, 0.008144617, 0.06767058, 10.036507
777353646697670, 1.3411771, 5.669793, 8.122437, -3.0493736E-4, 0.03549528, 9.9959
777353656337618, 1.3280165, 5.680561, 8.070991, -0.013037443, -8.85725E-4, 9.9585705
777353665977566, 1.2981063, 5.6853466, 8.035098, -0.0035305023, -0.035542965, 9.928232
777353675617566, 1.2957134, 5.669793, 8.008778, -0.0053806305, -0.03488803, 9.897713
777353685257566, 1.2957134, 5.680561, 7.9980097, -0.013687372, -0.047023058, 9.895119
777353694897514, 1.308874, 5.704489, 8.006385, -0.03020811, -0.054027557, 9.917294
777353704537462, 1.3040884, 5.6889358, 8.04467, -0.0055491924, -0.028363943, 9.938839
777353714177462, 1.3256238, 5.690132, 8.094919, -0.005192995, 0.0033621788, 9.983114
777353723817410, 1.3471591, 5.6877394, 8.118847, -0.014212608, 0.025932312, 10.004
777353733457358, 1.3435699, 5.676972, 8.13799, -1.1610985E-4, 0.040455103, 10.012913
777353743097358, 1.329213, 5.6446686, 8.128419, 0.018811464, 0.05176592, 9.984852
777353752737358, 1.3387842, 5.6470613, 8.124829, 0.008620262, 0.053206205, 9.984568
777353762377306, 1.3399807, 5.6506505, 8.079366, -0.012425423, 0.030289173, 9.949899
777353772017253, 1.3387842, 5.6614184, 8.0817585, -0.013563156, 0.021301508, 9.957821
777353781657253, 1.3184453, 5.6578293, 8.111669, 0.016968012, 0.02683258, 9.97735
777353791297253, 1.3100704, 5.6745787, 8.124829, 0.02342534, 0.016101837, 9.996458
777353800937201, 1.302892, 5.680561, 8.099705, 0.017948627, -0.0031909943, 9.978537
777353810577149, 1.2765709, 5.692525, 8.065009, 0.023646593, -0.03992319, 9.953728
777353820217149, 1.2993027, 5.692525, 8.055437, -1.9788742E-5, -0.030999899, 9.9489765
777353829857149, 1.2813566, 5.6889358, 8.056634, 0.01718092, -0.03644252, 9.945532
777353839497097, 1.294517, 5.697311, 8.039884, -0.0034677982, -0.042783737, 9.93846
777353849137045, 1.3016955, 5.6817575, 8.033902, -0.0063636303, -0.02959013, 9.925696
777353858777045, 1.3375878, 5.68415, 8.042277, -0.03473711, -0.010488033, 9.938593
777353868417045, 1.3304094, 5.6674004, 8.066205, -0.014185429, 0.00958395, 9.947502
777353878057045, 1.3339987, 5.686543, 8.0817585, -0.017239809, 0.0025849342, 9.9715
777353887696993, 1.3483555, 5.6949177, 8.093722, -0.027946234, 0.008704901, 9.987874
777353897336941, 1.3316058, 5.690132, 8.112865, -0.0044350624, 0.012228966, 9.998461
777353906976941, 1.3208381, 5.6757755, 8.094919, 0.0030589104, 0.0092663765, 9.974299
777353916616941, 1.3124632, 5.6817575, 8.094919, 0.00795126, 7.636547E-4, 9.976601
777353926256889, 1.3184453, 5.690132, 8.078169, -0.006813526, -0.008812189, 9.96858
777353935896837, 1.3256238, 5.6674004, 8.070991, -0.00784421, 0.008593082, 9.950752
777353945536837, 1.3328022, 5.6709895, 8.068598, -0.015862703, 0.009350061, 9.951803
777353955176837, 1.3244274, 5.676972, 8.067402, -0.010968685, 3.504753E-4, 9.953137
777353964816785, 1.3351951, 5.682954, 8.0614195, -0.024227858, -0.0013275146, 9.953121
777353974456733, 1.3112668, 5.682954, 8.073383, 0.0012874603, -0.008523226, 9.95966
777353984096733, 1.3004991, 5.68415, 8.073383, 0.010107756, -0.014765024, 9.958919
777353993736733, 1.3208381, 5.686543, 8.065009, -0.011560202, -0.010404825, 9.956179
777354003376733, 1.302892, 5.6961145, 8.056634, -0.0026180744, -0.030162811, 9.952471
777354013016681, 1.3208381, 5.6937213, 8.09133, -0.0035951138, -0.004385948, 9.981617
777354022656628, 1.2777673, 5.6709895, 8.084151, 0.038568735, -0.011726379, 9.957144
777354032296628, 1.2933207, 5.6757755, 8.068598, 0.017563343, -0.014226437, 9.949316
777354041936628, 1.294517, 5.6877394, 8.072187, 0.01299715, -0.0203228, 9.959207
777354051576628, 1.3256238, 5.6757755, 8.078169, -0.008030176, 0.0071077347, 9.961347
777354061216576, 1.314856, 5.6685967, 8.085348, 0.0060372353, 0.010430336, 9.961654
777354070856524, 1.3351951, 5.666204, 8.090134, -0.008489609, 0.024006844, 9.966856
777354080496524, 1.3160524, 5.656633, 8.094919, 0.01345396, 0.022869587, 9.962757
777354090136524, 1.3268201, 5.663811, 8.097312, 0.002811432, 0.023314953, 9.970212
777354099776472, 1.3172488, 5.6685967, 8.076973, 0.0014410019, 0.005984783, 9.955179
777354109416420, 1.308874, 5.6709895, 8.063812, 0.0029501915, -0.006232977, 9.944762
777354119056420, 1.3076776, 5.6937213, 8.048259, -0.010225296, -0.030288935, 9.944944
777354128696420, 1.3100704, 5.6877394, 8.051848, -0.008746862, -0.021990776, 9.944764
777354138336420, 1.3208381, 5.676972, 8.062616, -0.009955406, -0.0034561157, 9.948784
777354147976368, 1.3208381, 5.6745787, 8.076973, -0.003434658, 0.004638195, 9.959062
777354157616316, 1.3112668, 5.680561, 8.084151, 0.004647732, -0.0014727116, 9.96703
777354167256316, 1.3196417, 5.6949177, 8.098508, -0.0020000935, -0.0015175343, 9.987961
777354176896316, 1.314856, 5.6997037, 8.103293, 0.0019073486, -0.0053007603, 9.993938
777354186536316, 1.2933207, 5.68415, 8.0817585, 0.017347336, -0.01423192, 9.964767
777354196176264, 1.2993027, 5.669793, 8.063812, 0.011027575, -0.0077266693, 9.942817
777354205816212, 1.3112668, 5.6793647, 8.042277, -0.010540962, -0.018092632, 9.93239
777354215456212, 1.3136597, 5.6913285, 8.04108, -0.017148018, -0.026355743, 9.938557
777354225096212, 1.3375878, 5.6745787, 8.075776, -0.018243074, 0.013292313, 9.960302
777354234736212, 1.3268201, 5.6674004, 8.073383, -0.007261753, 0.0125072, 9.9528475
777354244376212, 1.3387842, 5.663811, 8.063812, -0.020214796, 0.016535282, 9.944621
777354254016160, 1.3399807, 5.682954, 8.060223, -0.029426336, 0.0011632442, 9.95278
777354263656108, 1.3268201, 5.682954, 8.090134, -0.006307125, 0.0072848797, 9.975299
777354273296108, 1.302892, 5.6757755, 8.096115, 0.018699408, 0.0029585361, 9.972897
777354282936108, 1.2789637, 5.682954, 8.099705, 0.03733945, -0.012948751, 9.976741
777354292576108, 1.3004991, 5.697311, 8.079366, 0.0052559376, -0.020963669, 9.971274
777354302216056, 1.3208381, 5.6937213, 8.060223, -0.01819992, -0.015421867, 9.95639
777354311856003, 1.2981063, 5.6781683, 8.0614195, 0.007137537, -0.015456915, 9.945495
