timestamp_acc,device_acc_x,device_acc_y,device_acc_z,earth_acc_x,earth_acc_y,earth_acc_z
777594394786537, -0.24885355, 3.6681972, 9.327223, 0.017229557, 0.024708033, 10.025657
777594404426537, -0.2656033, 3.6861434, 9.337991, 0.027294159, 0.0057253838, 10.042683
777594414066433, -0.25722843, 3.6993039, 9.298509, 0.008854151, -0.016647339, 10.010641
777594423706433, -0.25124636, 3.6933217, 9.230313, -0.0046851635, -0.03293705, 9.944915
777594433346329, -0.2727818, 3.6681972, 9.186047, 0.017737746, -0.035494566, 9.895048
777594442986329, -0.28115666, 3.676572, 9.188439, 0.022099853, -0.044478893, 9.900565
777594452626329, -0.28235307, 3.65384, 9.237492, 0.0393641, -0.00784421, 9.937803
777594462266225, -0.25124636, 3.6406796, 9.268599, 0.020501614, 0.026766777, 9.961097
777594471906225, -0.22731815, 3.6550367, 9.276974, -0.005337596, 0.026615858, 9.973589
777594481546121, -0.22971097, 3.6634114, 9.274581, -0.0064696074, 0.01695919, 9.974511
777594491186121, -0.23330021, 3.6981075, 9.286545, -0.014906049, -0.009873152, 9.998501
777594500826121, -0.23330021, 3.7064822, 9.328419, -0.012420058, -0.0033187866, 10.040502
777594510466016, -0.2321038, 3.7088752, 9.326026, -0.0139222145, -0.0061695576, 10.039132
777594520106016, -0.22731815, 3.7005002, 9.255438, -0.024223328, -0.021397829, 9.970329
777594529745912, -0.22013968, 3.6885362, 9.199206, -0.03411019, -0.027126312, 9.913488
777594539385912, -0.22612174, 3.6789649, 9.193225, -0.02671218, -0.022422075, 9.90455
777594549025808, -0.21774685, 3.6849468, 9.241081, -0.029838681, -0.007107258, 9.951025
777594558665808, -0.22731815, 3.6801612, 9.284152, -0.013492823, 0.007941008, 9.98952
777594568305808, -0.24047868, 3.6598222, 9.286545, 0.007971287, 0.020212173, 9.984567
777594577945704, -0.26081768, 3.6335013, 9.2793665, 0.035634518, 0.030673742, 9.968691
777594587585704, -0.317049, 3.6275191, 9.286545, 0.08974576, 0.013725519, 9.974522
777594597225600, -0.30029923, 3.644269, 9.268599, 0.06435776, 2.2745132E-4, 9.963617
777594606865600, -0.27996024, 3.662215, 9.235099, 0.031175017, -0.017473936, 9.93861
777594616505600, -0.2428715, 3.682554, 9.19801, -0.01568079, -0.030799627, 9.910722
777594626145496, -0.22492532, 3.7124643, 9.200403, -0.042760372, -0.047143936, 9.923527
777594635785496, -0.2105684, 3.7220356, 9.235099, -0.05231273, -0.037682295, 9.958956
777594645425391, -0.2105684, 3.7196429, 9.32124, -0.039869785, -0.0066080093, 10.038125
777594655065391, -0.20578274, 3.7088752, 9.357133, -0.03297472, 0.01710558, 10.067406
777594664705391, -0.19860429, 3.6885362, 9.3104725, -0.035918474, 0.021307945, 10.016382
777594674345287, -0.19980069, 3.6861434, 9.200403, -0.04896629, -0.014302492, 9.913244
777594683985287, -0.21894327, 3.6801612, 9.148957, -0.035920143, -0.034861088, 9.863693
777594693625183, -0.24047868, 3.696911, 9.172886, -0.020330906, -0.04979968, 9.89262
777594703265183, -0.2416751, 3.6789649, 9.26142, -0.0014398098, -0.004846573, 9.968303
777594712905183, -0.27158538, 3.662215, 9.32483, 0.040870905, 0.018562317, 10.021779
777594722545079, -0.28594232, 3.6550367, 9.346365, 0.06024003, 0.024914026, 10.039491
777594732185079, -0.28115666, 3.6598222, 9.329616, 0.05128777, 0.017699242, 10.025574
777594741824975, -0.26919255, 3.6394832, 9.275777, 0.03915572, 0.021692991, 9.967766
777594751464975, -0.25124636, 3.662215, 9.247063, 0.010049343, 1.8310547E-4, 9.949021
777594761104871, -0.24526432, 3.6598222, 9.211171, -3.8015842E-4, -0.008008242, 9.9146385
777594770744871, -0.2213361, 3.656233, 9.175279, -0.026363015, -0.0077388287, 9.879373
777594780384871, -0.22731815, 3.676572, 9.190832, -0.025446415, -0.021685362, 9.901471
777594790024766, -0.25722843, 3.694518, 9.239884, 0.0037001371, -0.031929493, 9.954399
777594799664766, -0.22731815, 3.696911, 9.266206, -0.021078944, -0.012942791, 9.979016
777594809304662, -0.26081768, 3.6717863, 9.24467, 0.017560005, -0.011757612, 9.950555
777594818944662, -0.28713873, 3.6382868, 9.257831, 0.056475878, 0.010340214, 9.951067
777594828584662, -0.29910284, 3.629912, 9.282955, 0.07374716, 0.021336317, 9.971615
777594838224558, -0.22492532, 3.6263227, 9.326026, 0.012760401, 0.06604028, 10.008549
777594847864558, -0.20219351, 3.6646078, 9.303294, -0.023855448, 0.03362727, 10.00099
777594857504454, -0.22971097, 3.6849468, 9.26142, -0.009198189, -0.008803606, 9.970222
777594867144454, -0.30029923, 3.7052858, 9.229117, 0.046816945, -0.06299162, 9.949361
777594876784350, -0.23330021, 3.7064822, 9.219545, -0.016837358, -0.042098522, 9.939336
777594886424350, -0.21774685, 3.743571, 9.208778, -0.04565215, -0.06966472, 9.942655
777594896064350, -0.24526432, 3.7507496, 9.203992, -0.02303493, -0.08675361, 9.941513
777594905704246, -0.17706887, 3.7268212, 9.205189, -0.07592559, -0.038682938, 9.93221
777594915344246, -0.16869399, 3.7016966, 9.29133, -0.06113565, 0.015939951, 10.002793
777594924984141, -0.18664017, 3.6610186, 9.309277, -0.025405765, 0.049633026, 10.00487
777594934624141, -0.18903299, 3.6550367, 9.266206, -0.025411963, 0.0383296, 9.962706
777594944264141, -0.20338993, 3.656233, 9.245867, -0.014155388, 0.02409172, 9.94458
777594953904037, -0.19860429, 3.6753755, 9.255438, -0.024471879, 0.013028383, 9.960432
777594963544037, -0.21415763, 3.6993039, 9.26142, -0.017489076, -0.012523413, 9.975178
777594973183933, -0.2117648, 3.7172499, 9.237492, -0.030673385, -0.035122156, 9.959511
777594982823933, -0.22372891, 3.749553, 9.225528, -0.032530546, -0.07196307, 9.960589
777594992463829, -0.21535404, 3.7411783, 9.280562, -0.030771613, -0.042914152, 10.00844
777595002103829, -0.21415763, 3.6885362, 9.340384, -0.005346298, 0.02332592, 10.044571
777595011743829, -0.22013968, 3.644269, 9.340384, 0.014953375, 0.058044672, 10.028377
777595021383725, -0.26919255, 3.60718, 9.2590275, 0.06392074, 0.04246664, 9.940218
777595031023725, -0.2883351, 3.6263227, 9.165708, 0.06115222, -0.013939142, 9.861014
777595040663621, -0.2440679, 3.6526437, 9.134601, 0.0030943155, -0.03132844, 9.840799
777595050303621, -0.20219351, 3.7304106, 9.239884, -0.0521127, -0.046714544, 9.966314
777595059943516, -0.22013968, 3.7124643, 9.257831, -0.029686093, -0.032257557, 9.97679
777595069583516, -0.30029923, 3.6658044, 9.340384, 0.07130933, 0.005163908, 10.038225
777595079223516, -0.357727, 3.6047873, 9.387043, 0.15000117, 0.050741434, 10.060515
777595088863412, -0.30029923, 3.566502, 9.314062, 0.09904575, 0.08012223, 9.977258
777595098503412, -0.24047868, 3.6011982, 9.220742, 0.017003775, 0.041647673, 9.901843
777595108143308, -0.17467605, 3.6610186, 9.196814, -0.06797588, 0.0087172985, 9.900013
777595117783308, -0.14596218, 3.7208393, 9.196814, -0.11474705, -0.03172517, 9.921349
777595127423204, -0.15672988, 3.772285, 9.2075815, -0.12157595, -0.07570076, 9.950566
777595137063204, -0.16151553, 3.7770705, 9.220742, -0.117411375, -0.07685208, 9.964675
777595146703204, -0.18903299, 3.7591243, 9.26142, -0.08011687, -0.05776143, 9.996546
777595156343100, -0.18664017, 3.7256248, 9.306884, -0.06421459, -0.011327982, 10.026413
777595165983100, -0.24646074, 3.6801612, 9.286545, 0.005272031, -0.0030164719, 9.992208
777595175622996, -0.25842485, 3.641876, 9.189635, 0.016828656, -0.008843899, 9.888331
777595185262996, -0.28115666, 3.5437703, 9.159725, 0.06831491, 0.05437088, 9.824985
777595194902891, -0.35413775, 3.5940197, 9.24826, 0.1210438, 0.010194778, 9.927636
777595204542891, -0.3278167, 3.6526437, 9.312865, 0.08255398, -0.005968094, 10.008591
777595214182891, -0.3278167, 3.7064822, 9.377472, 0.066465974, -0.029044151, 10.088469
777595223822787, -0.29192436, 3.7040894, 9.316455, 0.025182128, -0.031517982, 10.029965
777595233462787, -0.26799613, 3.6753755, 9.226724, 0.0027036667, -0.02910471, 9.935382
777595243102683, -0.2536392, 3.6514473, 9.202796, -0.006186962, -0.009983063, 9.903975
777595252742683, -0.27038896, 3.615555, 9.190832, 0.019616723, 0.011172533, 9.880094
777595262382579, -0.2009971, 3.6634114, 9.18485, -0.06337702, -0.0065362453, 9.890318
777595272022579, -0.1591227, 3.6753755, 9.201599, -0.10685122, 0.0034811497, 9.909173
777595281662475, -0.19860429, 3.6957145, 9.24467, -0.071621895, -0.0149104595, 9.9577265
777595291302475, -0.2117648, 3.7016966, 9.337991, -0.049502492, 0.0076687336, 10.047037
777595300942371, -0.21535404, 3.6849468, 9.352347, -0.0379138, 0.026002169, 10.054327
777595310582371, -0.27038896, 3.6490545, 9.286545, 0.017677784, 0.011880636, 9.981392
777595320222371, -0.27996024, 3.6335013, 9.206385, 0.019250631, -0.0057370663, 9.901405
777595329862266, -0.29790643, 3.629912, 9.192028, 0.032805204, -0.014855623, 9.887218
777595339502266, -0.29312077, 3.65384, 9.221938, 0.02058506, -0.023734808, 9.923691
777595349142162, -0.27158538, 3.6550367, 9.270991, 0.0066313744, 9.2864037E-4, 9.969166
777595358782162, -0.28594232, 3.650251, 9.287741, 0.021857858, 0.004496813, 9.983373
777595368422058, -0.28115666, 3.621537, 9.254242, 0.022761822, 0.01907587, 9.941564
777595378062058, -0.2847459, 3.6203406, 9.21476, 0.021752715, 0.0044362545, 9.904508
777595387701954, -0.30867413, 3.6287155, 9.229117, 0.041734338, -0.007272482, 9.9215765
777595397341954, -0.31106696, 3.6574295, 9.257831, 0.03674853, -0.022201777, 9.958873
777595406981850, -0.2835495, 3.6514473, 9.269794, 0.016401768, -0.0012438297, 9.967061
777595416621850, -0.27158538, 3.6670008, 9.257831, -0.0030356646, -0.013036728, 9.961322
777595426261746, -0.24047868, 3.6993039, 9.208778, -0.05038905, -0.044149637, 9.926723
777595435901746, -0.31345975, 3.2793634, 9.156136, 0.17507517, 0.260808, 9.72567
777595445541746, -0.16510476, 4.2652063, 9.402596, -0.32158017, -0.4271779, 10.312234
777595455181641, -0.27756742, 3.0149565, 9.120243, 0.22851908, 0.48672223, 9.59462
777595464821641, -0.20817557, 4.26401, 9.449257, -0.2538743, -0.43090868, 10.356808
777595474461537, -0.29192436, 3.2015967, 9.127422, 0.16819012, 0.3267913, 9.670068
777595484101537, -0.3074777, 3.8775692, 9.4229355, -0.024430037, -0.14750242, 10.193109
777595493741433, -0.23808585, 3.629912, 9.189635, -0.028752923, 0.0066730976, 9.883393
777595503381433, -0.3589234, 3.4301112, 9.235099, 0.15973091, 0.14873457, 9.855656
777595513021329, -0.16151553, 4.0905304, 9.256635, -0.26142287, -0.33953428, 10.112377
777595522661329, -0.36131623, 3.042474, 9.09153, 0.28936464, 0.4217863, 9.580266
777595532301225, -0.20578274, 4.3130627, 9.359526, -0.29662752, -0.49841595, 10.29122
777595541941225, -0.37088752, 2.932404, 9.103494, 0.34551173, 0.5111377, 9.551414
777595551581121, -0.2632105, 4.229314, 9.507881, -0.20277393, -0.40318942, 10.399639
777595561221121, -0.30867413, 3.1226335, 9.162118, 0.22548431, 0.40396857, 9.673493
777595570861016, -0.30987054, 3.906283, 9.408579, -0.038300157, -0.17738819, 10.190362
777595580501016, -0.25244278, 3.583252, 9.127422, -0.007507205, 0.016721487, 9.808819
777595590140912, -0.36370903, 3.4600215, 9.164511, 0.14918327, 0.091468096, 9.8011055
777595599780912, -0.1591227, 4.0677986, 9.139386, -0.2734151, -0.35006094, 9.995169
777595609420808, -0.33260235, 3.129812, 9.072387, 0.22871614, 0.3547275, 9.593561
777595619060808, -0.14117654, 4.418347, 9.517452, -0.36631322, -0.51827, 10.4747715
777595628700704, -0.28235307, 3.001796, 9.336794, 0.26769865, 0.5727241, 9.791146
777595638340704, -0.15433706, 4.3298125, 9.644272, -0.29653502, -0.39529872, 10.561197
777595647980600, -0.2536392, 3.1477582, 9.090333, 0.16398162, 0.38292623, 9.614226
777595657620600, -0.2943172, 3.9948175, 9.238688, -0.10319257, -0.30734658, 10.064465
777595667260496, -0.2428715, 3.5449667, 8.957532, -0.0145356655, 0.002398491, 9.63654
777595676900496, -0.3397808, 3.5473595, 9.105886, 0.09041762, 0.013596058, 9.777936
777595686540391, -0.17228323, 4.058227, 9.174082, -0.24975705, -0.32998562, 10.02454
777595696180391, -0.39960137, 3.121437, 9.209974, 0.31468618, 0.39590287, 9.719616
777595705820287, -0.24646074, 4.334598, 9.594023, -0.22467577, -0.45818305, 10.518287
777595715460287, -0.41754755, 2.906083, 9.359526, 0.42809105, 0.61625624, 9.780458
777595725100183, -0.23808585, 4.2352962, 9.58804, -0.19910955, -0.37068272, 10.476062
777595734740183, -0.29910284, 2.975475, 8.968299, 0.25236875, 0.4721582, 9.438573
777595744380079, -0.26919255, 3.9625144, 9.073584, -0.12227166, -0.3235762, 9.898701
777595754019975, -0.20937198, 3.5030923, 8.880961, -0.042736888, 0.020364523, 9.549069
777595763659975, -0.30269206, 3.6430724, 9.256635, 0.04338646, -0.0038044453, 9.952235
777595773299871, -0.12921242, 4.048656, 9.404989, -0.24740446, -0.23225498, 10.234597
777595782939871, -0.317049, 3.2279177, 9.413364, 0.24166524, 0.4021318, 9.9454155
777595792579766, -0.13040884, 4.3645086, 9.584451, -0.33933818, -0.43570948, 10.51773
777595802219766, -0.3278167, 2.9862428, 9.217153, 0.32438445, 0.536453, 9.674089
777595811859662, -0.18783657, 4.2975097, 9.525827, -0.26078618, -0.41459942, 10.440563
777595821499662, -0.2632105, 3.0065815, 9.11785, 0.24559617, 0.4994781, 9.588234
777595831139558, -0.2440679, 4.121637, 9.141779, -0.2023251, -0.4261465, 10.019833
777595840779558, -0.20937198, 3.4683964, 8.721839, -0.042161703, -0.001529932, 9.388413
777595850419454, -0.29910284, 3.702893, 9.0747795, -0.0041246414, -0.10614133, 9.805163
777595860059454, -0.19142582, 3.9744785, 9.224331, -0.18929899, -0.23900771, 10.041337
777595869699350, -0.39840496, 3.2039895, 9.316455, 0.3209893, 0.35918903, 9.848278
777595879339350, -0.23569304, 4.2568316, 9.572487, -0.21384454, -0.37794542, 10.469962
777595888979246, -0.4223332, 2.8881369, 9.268599, 0.45861173, 0.5911236, 9.688492
777595898619141, -0.2428715, 4.2795634, 9.492328, -0.20761824, -0.42815924, 10.4044
777595908259141, -0.29192436, 2.9587252, 8.967103, 0.2645355, 0.48196363, 9.431116
777595917899037, -0.18903299, 4.125226, 9.274581, -0.23146284, -0.35265994, 10.143625
777595927539037, -0.18424734, 3.4492538, 9.044869, -0.011260271, 0.14132881, 9.680955
777595937178933, -0.2739782, 3.804588, 9.345169, -0.023517728, -0.091989756, 10.093223
777595946818933, -0.13040884, 3.9840498, 9.317652, -0.21767604, -0.204113, 10.1301155
777595956458829, -0.2835495, 3.3164523, 9.309277, 0.15938711, 0.31022453, 9.880297
777595966098829, -0.11844472, 4.3202415, 9.436096, -0.33171546, -0.44096065, 10.36407
777595975738725, -0.34217364, 3.010171, 9.134601, 0.30954427, 0.4970584, 9.606054
777595985378621, -0.18424734, 4.341777, 9.413364, -0.28383207, -0.485955, 10.352763
777595995018621, -0.2943172, 2.9718857, 8.993423, 0.26272988, 0.4863212, 9.460172
777596004658516, -0.24047868, 4.1671004, 9.298509, -0.18998659, -0.39776897, 10.182855
777596014298516, -0.27158538, 3.3702908, 8.989835, 0.08911759, 0.15367842, 9.603031
777596023938412, -0.33499518, 3.7770705, 9.232706, 0.026545763, -0.1295414, 9.980175
777596033578412, -0.1902294, 3.8261235, 9.129815, -0.13902688, -0.14693475, 9.89889
777596043218308, -0.36251262, 3.2745779, 9.193225, 0.23276532, 0.27728295, 9.7590275
777596052858204, -0.18185452, 4.1443686, 9.458828, -0.22093153, -0.30696678, 10.321594
777596062498204, -0.40558344, 2.879762, 9.334401, 0.43013197, 0.64666176, 9.746046
777596072138100, -0.23569304, 4.274778, 9.5964155, -0.20410478, -0.39773774, 10.498602
777596081778100, -0.34456646, 2.9240294, 9.067601, 0.32148886, 0.54345894, 9.512694
777596091417996, -0.26919255, 4.210171, 9.3104725, -0.1795007, -0.4476378, 10.210302
777596101057996, -0.2739782, 3.333202, 9.018549, 0.104634404, 0.20024753, 9.616052
777596110697891, -0.2847459, 3.897908, 9.323633, -0.04955852, -0.18546247, 10.107821
777596120337787, -0.13040884, 3.879962, 9.203992, -0.19801617, -0.14911246, 9.986147
777596129977787, -0.28594232, 3.4049866, 9.2075815, 0.12184334, 0.20330358, 9.818302
777596139617683, -0.10767702, 4.2257247, 9.357133, -0.3206998, -0.3802426, 10.255578
777596149257683, -0.2847459, 3.0233314, 9.190832, 0.26150215, 0.5188346, 9.662063
777596158897579, -0.106480606, 4.3836513, 9.474381, -0.3705765, -0.46164966, 10.423111
777596168537475, -0.25842485, 2.9539394, 9.008977, 0.24735701, 0.52881026, 9.4664345
777596178177475, -0.21655045, 4.229314, 9.309277, -0.24308991, -0.4409802, 10.214846
777596187817371, -0.27517462, 3.2673993, 9.036494, 0.14762086, 0.25394487, 9.608515
777596197457371, -0.30149564, 3.879962, 9.396614, -0.012592316, -0.14438415, 10.16958
777596207097266, -0.21774685, 3.7124643, 9.245867, -0.0458287, -0.025692701, 9.965597
777596216737162, -0.3493521, 3.3846476, 9.293723, 0.21313143, 0.21463776, 9.8924055
777596226377162, -0.15194423, 4.125226, 9.317652, -0.25827098, -0.31578946, 10.182965
777596236017058, -0.37088752, 2.9706893, 9.119047, 0.36321056, 0.50391626, 9.577771
777596245657058, -0.2105684, 4.3070807, 9.408579, -0.2551428, -0.46458578, 10.336134
777596255296954, -0.3481557, 2.9252257, 9.067601, 0.34750426, 0.5255909, 9.513283
777596264936954, -0.2009971, 4.273581, 9.385847, -0.24831486, -0.44509006, 10.302342
777596274576850, -0.22851457, 3.2422748, 9.0544405, 0.11235309, 0.3086567, 9.614551
777596284216746, -0.25842485, 4.001996, 9.407382, -0.09643662, -0.2280879, 10.2235155
777596293856746, -0.19142582, 3.7387853, 9.251849, -0.07947469, -0.03702116, 9.98019
777596303496641, -0.34456646, 3.495914, 9.270991, 0.157673, 0.12346482, 9.91218
777596313136537, -0.13399807, 4.1228333, 9.21476, -0.2750926, -0.35256863, 10.086007
777596322776537, -0.317049, 3.0388846, 9.006584, 0.26971185, 0.42783093, 9.49727
777596332416433, -0.13160525, 4.325027, 9.340384, -0.34503806, -0.47681046, 10.277137
777596342056433, -0.31465617, 2.9276185, 9.110672, 0.32312655, 0.5567403, 9.553005
777596351696329, -0.19501504, 4.284349, 9.540184, -0.24666023, -0.400527, 10.449285
777596361336225, -0.2644069, 3.158526, 9.209974, 0.20550239, 0.41087103, 9.729275
777596370976225, -0.2943172, 3.9673, 9.44806, -0.043944716, -0.2032032, 10.249327
777596380616121, -0.2117648, 3.5988052, 9.110672, -0.023064613, 0.029590845, 9.797918
777596390256121, -0.3290131, 3.5150564, 9.153743, 0.12238419, 0.067778826, 9.809959
777596399896016, -0.148355, 4.098905, 9.215957, -0.2584641, -0.3355856, 10.078564
777596409535912, -0.317049, 3.1633115, 9.158528, 0.24606675, 0.3696897, 9.684444
777596419175912, -0.104087785, 4.4004006, 9.401401, -0.3934065, -0.5079932, 10.360883
777596428815808, -0.2955136, 2.9874392, 9.086744, 0.28976095, 0.5097699, 9.551819
777596438455704, -0.18664017, 4.322634, 9.4432745, -0.27816296, -0.46324706, 10.373207
777596448095704, -0.2644069, 3.0999017, 9.09153, 0.2200833, 0.42710996, 9.597101
777596457735600, -0.27996024, 3.9720855, 9.355937, -0.068015695, -0.22462177, 10.165349
777596467375600, -0.25004998, 3.4767714, 9.093923, 0.055792212, 0.10918498, 9.738319
777596477015496, -0.37088752, 3.5234313, 9.26142, 0.16869879, 0.08536863, 9.914145
777596486655391, -0.2213361, 4.0127635, 9.30808, -0.14643097, -0.25970626, 10.134236
777596496295391, -0.39840496, 3.141776, 9.262616, 0.33086324, 0.39724636, 9.775391
777596505935287, -0.2009971, 4.3537407, 9.510274, -0.2601354, -0.47196317, 10.447504
777596515575183, -0.3397808, 2.969493, 9.141779, 0.33357555, 0.51834893, 9.598204
777596525215183, -0.17347965, 4.334598, 9.379865, -0.30552733, -0.49092746, 10.318253
777596534855079, -0.23449662, 3.0604203, 8.974281, 0.17390245, 0.42912126, 9.473357
777596544494975, -0.19381863, 4.068995, 9.334401, -0.18136072, -0.2847345, 10.178968
777596554134975, -0.15314065, 3.542574, 9.126225, -0.053889394, 0.101708174, 9.7902
777596563774871, -0.27517462, 3.6550367, 9.306884, 0.04289937, 0.021895647, 10.002541
777596573414871, -0.124426775, 3.9960139, 9.268599, -0.22813857, -0.22223806, 10.089058
777596583054766, -0.32422748, 3.1800613, 9.205189, 0.25475192, 0.376055, 9.733813
777596592694662, -0.13758731, 4.3070807, 9.431311, -0.30725694, -0.4324429, 10.355583
777596602334662, -0.33020952, 2.9192436, 9.135797, 0.331042, 0.5733886, 9.573686
777596611974558, -0.18544376, 4.314259, 9.45165, -0.26029015, -0.46528554, 10.377701
777596621614454, -0.30269206, 2.9886355, 9.049655, 0.27193052, 0.48947716, 9.518734
777596631254454, -0.28235307, 4.0773697, 9.366704, -0.09515941, -0.32779288, 10.213878
777596640894350, -0.28713873, 3.4133615, 9.119047, 0.11178714, 0.1628201, 9.739174
777596650534246, -0.36490545, 3.662215, 9.363115, 0.12648559, 0.0047626495, 10.059666
777596660174246, -0.2105684, 3.932604, 9.273384, -0.12388873, -0.2047391, 10.072145
777596669814141, -0.38404804, 3.2602208, 9.1669035, 0.2630576, 0.270813, 9.729651
777596679454141, -0.1698904, 4.328616, 9.316455, -0.30487406, -0.5048156, 10.257405
777596689094037, -0.29312077, 2.9862428, 9.078369, 0.27907228, 0.5125389, 9.543571
777596698733933, -0.12562318, 4.388437, 9.470792, -0.3544556, -0.48573136, 10.421541
777596708373933, -0.22492532, 3.0472596, 9.098708, 0.20558119, 0.49124384, 9.583281
777596718013829, -0.17826529, 4.152744, 9.428918, -0.221686, -0.31852078, 10.2971325
777596727653725, -0.19381863, 3.3894334, 9.142975, 0.056419373, 0.22619557, 9.750153
777596737293725, -0.26799613, 3.743571, 9.348758, 0.012125611, -0.03517413, 10.073927
777596746933621, -0.15074782, 3.9290147, 9.211171, -0.18344402, -0.19166493, 10.011751
777596756573516, -0.31944183, 3.3092737, 9.116654, 0.1960985, 0.23748899, 9.699065
777596766213516, -0.12921242, 4.2831526, 9.288938, -0.31980884, -0.4570861, 10.214462
777596775853412, -0.317049, 2.9922247, 9.105886, 0.30499017, 0.51156116, 9.571647
777596785493308, -0.14955142, 4.365705, 9.48156, -0.30568635, -0.46566892, 10.424561
777596795133308, -0.2943172, 2.9766715, 9.134601, 0.28287673, 0.53784204, 9.592644
777596804773204, -0.23808585, 4.1635113, 9.492328, -0.1441108, -0.33747983, 10.361523
777596814413100, -0.23808585, 3.339184, 9.169296, 0.10340452, 0.2603655, 9.757273
777596824053100, -0.29790643, 3.7710886, 9.3200445, 0.03204894, -0.07604766, 10.058145
777596833692996, -0.20458634, 3.8153558, 9.114262, -0.0943653, -0.15668249, 9.881048
777596843332996, -0.36490545, 3.3224342, 9.142975, 0.22173226, 0.2262733, 9.729612
777596852972891, -0.17587246, 4.2341, 9.352347, -0.23456347, -0.4231341, 10.25626
777596862612787, -0.3361916, 2.993421, 9.176475, 0.31545764, 0.5258949, 9.638734
777596872252787, -0.16151553, 4.3728833, 9.479167, -0.27535582, -0.49215508, 10.4251995
777596881892683, -0.2847459, 2.9862428, 9.056833, 0.2585795, 0.5069144, 9.523712
777596891532579, -0.2117648, 4.213761, 9.399008, -0.19835043, -0.40237856, 10.292752
777596901172579, -0.23090738, 3.266203, 9.107083, 0.11776602, 0.30370784, 9.672345
777596910812475, -0.27517462, 3.839284, 9.382257, -0.0068831444, -0.10313821, 10.140607
777596920452371, -0.15553348, 3.7914274, 9.199206, -0.12479842, -0.086063385, 9.949952
777596930092371, -0.32422748, 3.3786657, 9.208778, 0.18245411, 0.20729399, 9.810496
777596939732266, -0.11844472, 4.2041893, 9.332008, -0.28525984, -0.3851161, 10.22477
777596949372162, -0.30508488, 3.062813, 9.148957, 0.27450418, 0.46959662, 9.637503
777596959012162, -0.14117654, 4.4135613, 9.437292, -0.32484865, -0.52668476, 10.400915
777596968652058, -0.29790643, 2.9994032, 9.065208, 0.27263892, 0.49186397, 9.536609
777596978291954, -0.2105684, 4.2975097, 9.408579, -0.22230542, -0.4619999, 10.333026
777596987931954, -0.25842485, 3.278167, 9.080762, 0.14409125, 0.27853894, 9.652724
777596997571850, -0.27038896, 3.9110687, 9.393025, -0.040497303, -0.16297579, 10.1769495
777597007211746, -0.18664017, 3.6897326, 9.23151, -0.05518043, 0.0036230087, 9.943172
777597016851746, -0.30149564, 3.3834512, 9.265009, 0.16872215, 0.23190951, 9.863913
777597026491641, -0.12203395, 4.1024942, 9.318848, -0.25128567, -0.2963457, 10.17523
777597036131641, -0.3182454, 3.0197423, 9.140582, 0.2896061, 0.5017767, 9.614296
777597045771537, -0.13758731, 4.345366, 9.455238, -0.30500925, -0.46265388, 10.392093
777597055411433, -0.31944183, 2.9671001, 9.108279, 0.3014257, 0.5264542, 9.565484
777597065051433, -0.23928227, 4.290331, 9.438489, -0.19094813, -0.46106434, 10.358583
777597074691329, -0.26919255, 3.2039895, 9.052048, 0.16358745, 0.32016706, 9.599392
777597084331225, -0.25842485, 3.9565322, 9.366704, -0.06618619, -0.20723867, 10.169009
777597093971225, -0.21535404, 3.67059, 9.164511, -0.03649342, -0.020308733, 9.874517
777597103611121, -0.30867413, 3.493521, 9.254242, 0.1204139, 0.13601685, 9.894846
777597113251016, -0.13280165, 4.1144586, 9.24826, -0.24881762, -0.34558177, 10.114118
777597122891016, -0.317049, 3.0556345, 9.119047, 0.25600296, 0.4630928, 9.608042
777597132530912, -0.16749759, 4.3322053, 9.426525, -0.27157044, -0.47916126, 10.361087
777597142170808, -0.3469593, 2.934797, 9.134601, 0.32454938, 0.5601096, 9.578898
777597151810808, -0.19381863, 4.29392, 9.485149, -0.22450376, -0.43644333, 10.402043
777597161450704, -0.30987054, 3.141776, 9.080762, 0.22233129, 0.36897945, 9.604241
777597171090600, -0.32542387, 3.9744785, 9.403793, -0.0054552555, -0.23480678, 10.211688
777597180730600, -0.18903299, 3.583252, 9.226724, -0.021566868, 0.084558964, 9.8995075
777597190370496, -0.27158538, 3.4947174, 9.311669, 0.099437356, 0.16153646, 9.947763
777597200010391, -0.10767702, 4.066602, 9.245867, -0.27132356, -0.28656435, 10.093521
777597209650391, -0.29072794, 3.1489546, 9.131011, 0.21929753, 0.3896854, 9.652763
777597219290287, -0.14237295, 4.402794, 9.372686, -0.34326315, -0.5515866, 10.335862
777597228930183, -0.31226337, 2.9970105, 9.075976, 0.29044974, 0.4821849, 9.54652
777597238570183, -0.19980069, 4.365705, 9.431311, -0.27335417, -0.51738334, 10.378176
777597248210079, -0.29790643, 3.1190443, 9.093923, 0.24059641, 0.39916205, 9.607257
777597257850079, -0.30508488, 4.01396, 9.468399, -0.03463304, -0.23663783, 10.285832
777597267489975, -0.24885355, 3.495914, 9.218349, 0.06817925, 0.1378541, 9.860915
777597277129871, -0.32303107, 3.554538, 9.30808, 0.12446487, 0.08787227, 9.96776
777597286769871, -0.14237295, 3.979264, 9.2590275, -0.20695925, -0.22350645, 10.074306
777597296409766, -0.31585258, 3.103491, 9.164511, 0.26640797, 0.42790437, 9.66776
777597306049662, -0.12323037, 4.302295, 9.437292, -0.3177235, -0.42637038, 10.358798
777597315689662, -0.317049, 2.9718857, 9.12144, 0.31441534, 0.526016, 9.579025
777597325329558, -0.1902294, 4.3645086, 9.462418, -0.28272665, -0.4992826, 10.406405
777597334969454, -0.2739782, 3.0915267, 9.065208, 0.22562826, 0.41056323, 9.570327
777597344609454, -0.22731815, 4.113262, 9.413364, -0.15603387, -0.3072946, 10.26953
777597354249350, -0.20338993, 3.528217, 9.139386, 0.011377335, 0.100930214, 9.798355
777597363889246, -0.2620141, 3.662215, 9.280562, 0.03055489, 0.012513399, 9.980392
777597373529246, -0.13399807, 3.9756749, 9.1872425, -0.2257328, -0.22977877, 10.006279
777597383169141, -0.31944183, 3.1932218, 9.145369, 0.25281107, 0.33650565, 9.6829405
777597392809141, -0.16271193, 4.29392, 9.407382, -0.29222786, -0.43164015, 10.329149
777597402449037, -0.35533416, 2.952743, 9.177671, 0.3704964, 0.53743815, 9.625408
777597412088933, -0.20578274, 4.3465624, 9.513863, -0.25902665, -0.46650743, 10.44815
777597421728933, -0.3074777, 3.0364919, 9.122637, 0.2940476, 0.4718914, 9.603551
777597431368829, -0.2644069, 4.1204405, 9.432507, -0.12262392, -0.3201344, 10.290899
777597441008725, -0.22612174, 3.4229329, 9.120243, 0.06674647, 0.17474103, 9.74225
777597450648725, -0.29910284, 3.6957145, 9.296116, 0.051985025, -0.02551055, 10.008106
777597460288621, -0.15792629, 3.926622, 9.201599, -0.17915511, -0.1986587, 10.00206
777597469928516, -0.30269206, 3.2626138, 9.138189, 0.20099008, 0.2830181, 9.701663
777597479568516, -0.11485548, 4.31067, 9.3511505, -0.34306633, -0.4494872, 10.281991
777597489208412, -0.31226337, 2.993421, 9.182457, 0.31528747, 0.52478313, 9.643693
777597498848412, -0.15672988, 4.371687, 9.553345, -0.29290056, -0.4604063, 10.493086
777597508488308, -0.27876383, 3.022135, 9.139386, 0.2588308, 0.5033195, 9.613482
777597518128204, -0.21655045, 4.165904, 9.412168, -0.1783644, -0.35833788, 10.287386
777597527768204, -0.21655045, 3.3726835, 9.083155, 0.06550729, 0.20691061, 9.689092
777597537408100, -0.25962126, 3.802195, 9.302098, -0.01750803, -0.09591651, 10.052046
777597547047996, -0.1363909, 3.906283, 9.177671, -0.18581927, -0.18459177, 9.971895
777597556687996, -0.30269206, 3.3260236, 9.172886, 0.1777215, 0.25156236, 9.757102
777597566327891, -0.10767702, 4.274778, 9.357133, -0.31627882, -0.43415475, 10.273886
777597575967891, -0.31585258, 3.03051, 9.171689, 0.2850321, 0.49960065, 9.647425
777597585607787, -0.17587246, 4.398008, 9.506684, -0.28145218, -0.50070953, 10.460426
777597595247683, -0.32183465, 2.9922247, 9.12503, 0.31083423, 0.5148418, 9.589654
777597604887683, -0.24765715, 4.1958146, 9.440882, -0.16252184, -0.38482785, 10.32579
777597614527579, -0.22492532, 3.3020952, 9.090333, 0.09986514, 0.27220678, 9.669773
777597624167579, -0.2943172, 3.792624, 9.3308115, 0.011975765, -0.09477639, 10.075989
777597633807475, -0.19621146, 3.7854455, 9.175279, -0.09572017, -0.10509324, 9.926412
777597643447371, -0.33140594, 3.3260236, 9.165708, 0.19392705, 0.23552632, 9.751379
777597653087371, -0.17467605, 4.206582, 9.298509, -0.26117432, -0.41445017, 10.195497
777597662727266, -0.35174492, 2.981457, 9.139386, 0.34269118, 0.51075506, 9.600151
777597672367162, -0.14117654, 4.3645086, 9.4839525, -0.31900585, -0.48002028, 10.425068
777597682007162, -0.276371, 2.9826534, 9.107083, 0.2609638, 0.52101374, 9.569326
777597691647058, -0.17706887, 4.2257247, 9.45165, -0.24426115, -0.3833778, 10.344812
777597701287058, -0.23928227, 3.2889347, 9.109476, 0.120755315, 0.27850246, 9.683222
777597710926954, -0.29671, 3.8847475, 9.379865, -0.016388416, -0.16262722, 10.155514
777597720566850, -0.20338993, 3.7818563, 9.226724, -0.08381522, -0.09004569, 9.97302
777597730206850, -0.3481557, 3.4193435, 9.318848, 0.19329464, 0.19650126, 9.928648
777597739846746, -0.15553348, 4.1694937, 9.466006, -0.23625875, -0.32058692, 10.337097
777597749486746, -0.33738798, 3.01376, 9.302098, 0.3314591, 0.5378735, 9.763527
777597759126641, -0.13998012, 4.3070807, 9.52822, -0.28958642, -0.4084289, 10.445422
777597768766537, -0.27158538, 2.902494, 9.049655, 0.27510858, 0.5789151, 9.485971
777597778406537, -0.1698904, 4.2161536, 9.3104725, -0.26025546, -0.41758752, 10.210172
777597788046433, -0.22612174, 3.2147572, 8.957532, 0.10809946, 0.28520417, 9.514734
777597797686329, -0.28713873, 3.938586, 9.282955, -0.058134794, -0.23702884, 10.085068
777597807326329, -0.21655045, 3.760321, 9.159725, -0.07475877, -0.10274291, 9.903096
777597816966225, -0.3505485, 3.5102708, 9.309277, 0.15733016, 0.11312938, 9.95339
777597826606225, -0.18305093, 4.1611185, 9.382257, -0.21707284, -0.35717654, 10.256729
777597836246121, -0.3912265, 3.0197423, 9.215957, 0.35723388, 0.48844004, 9.687083
777597845886121, -0.21296121, 4.281956, 9.428918, -0.22196281, -0.45160913, 10.345617
777597855526016, -0.37088752, 2.845066, 9.006584, 0.37227207, 0.5814097, 9.427293
777597865165912, -0.23449662, 4.2221355, 9.342776, -0.19624686, -0.43741536, 10.243975
777597874805912, -0.23688944, 3.1429725, 9.072387, 0.13948983, 0.38872218, 9.595418
777597884445808, -0.23808585, 3.970889, 9.518648, -0.08619535, -0.16485548, 10.314781
777597894085808, -0.1591227, 3.7088752, 9.439685, -0.07585049, 0.05423999, 10.142979
777597903725704, -0.2632105, 3.5688949, 9.512667, 0.087181926, 0.16391087, 10.161823
777597913365600, -0.078963146, 4.125226, 9.334401, -0.3057518, -0.30823278, 10.196385
777597923005600, -0.31345975, 3.103491, 8.939586, 0.23596442, 0.346287, 9.458886
777597932645496, -0.19262223, 4.3609195, 9.122637, -0.3293656, -0.61897945, 10.088885
777597942285496, -0.34337005, 2.9790642, 8.897711, 0.29417694, 0.4232545, 9.375304
777597951925391, -0.20338993, 4.348955, 9.456435, -0.2673546, -0.50020576, 10.395059
777597961565287, -0.27038896, 3.1740792, 9.26142, 0.20630896, 0.41866803, 9.78284
777597971205287, -0.27517462, 4.0187454, 9.638289, -0.04619503, -0.1830461, 10.444474
777597980845183, -0.20458634, 3.5389848, 9.376275, 0.028736115, 0.16854, 10.0225525
777597990485183, -0.3469593, 3.4564323, 9.397811, 0.19117498, 0.19534707, 10.01556
777598000125079, -0.19621146, 3.9493537, 9.236296, -0.14067996, -0.23248649, 10.043467
777598009765079, -0.33738798, 3.056831, 8.980264, 0.2647844, 0.3952117, 9.480342
777598019404975, -0.11006984, 4.3334017, 9.123833, -0.3841759, -0.56143713, 10.078294
777598029044871, -0.29192436, 3.0197423, 8.912068, 0.23492217, 0.40980005, 9.402441
777598038684871, -0.15672988, 4.429115, 9.538987, -0.32500613, -0.5152397, 10.500608
777598048324766, -0.23688944, 3.17049, 9.373882, 0.20368546, 0.4687848, 9.885168
777598057964766, -0.21894327, 4.061816, 9.65504, -0.11230457, -0.19187307, 10.474571
777598067604662, -0.18185452, 3.4887354, 9.199206, 0.01114428, 0.15248418, 9.839023
777598077244662, -0.2943172, 3.5676985, 9.1669035, 0.080429554, 0.034743547, 9.840708
777598086884558, -0.15433706, 3.9720855, 9.081959, -0.22029018, -0.2851677, 9.907241
777598096524454, -0.33140594, 3.1776686, 9.059227, 0.2383815, 0.31233168, 9.598052
777598106164454, -0.13399807, 4.3609195, 9.409775, -0.3393104, -0.49250507, 10.354793
777598115804350, -0.35533416, 3.01376, 9.200403, 0.34206808, 0.4858334, 9.669716
777598125444350, -0.23688944, 4.3992043, 9.594023, -0.2344253, -0.49889874, 10.542796
777598135084246, -0.34097722, 3.0592237, 9.239884, 0.32443303, 0.47484922, 9.722132
777598144724246, -0.2883351, 4.061816, 9.553345, -0.059949636, -0.24733591, 10.3818655
777598154364141, -0.26679972, 3.4229329, 9.172886, 0.10508168, 0.16944051, 9.79233
777598164004037, -0.34456646, 3.5904303, 9.171689, 0.10688269, -0.006126642, 9.854864
777598173644037, -0.17347965, 3.8823547, 9.05803, -0.17435586, -0.22468781, 9.852401
777598183283933, -0.3397808, 3.1716864, 9.049655, 0.2497108, 0.31170177, 9.587065
777598192923933, -0.11485548, 4.2831526, 9.38824, -0.3330809, -0.4325714, 10.305318
777598202563829, -0.25842485, 2.9467611, 9.287741, 0.29755616, 0.6201141, 9.723129
777598212203829, -0.09092726, 4.368098, 9.641879, -0.34348857, -0.4140663, 10.571895
777598221843725, -0.24885355, 3.048456, 9.212367, 0.24322653, 0.49958038, 9.690923
777598231483725, -0.21296121, 4.15394, 9.444471, -0.17518389, -0.33538938, 10.312879
777598241123621, -0.20458634, 3.4157543, 9.069994, 0.04521513, 0.16318583, 9.692541
777598250763621, -0.28713873, 3.7268212, 9.232706, 0.019411206, -0.080571175, 9.960303
777598260403516, -0.17347965, 3.9254255, 9.131011, -0.17393982, -0.23665404, 9.936205
777598270043412, -0.34217364, 3.278167, 9.113065, 0.22876751, 0.23503733, 9.685238
777598279683412, -0.17706887, 4.2795634, 9.346365, -0.27411783, -0.46070623, 10.267092
777598289323308, -0.37208393, 2.9790642, 9.213564, 0.39364892, 0.5166104, 9.668567
777598298963308, -0.21415763, 4.362116, 9.619147, -0.22600543, -0.46175766, 10.551664
777598308603204, -0.28594232, 2.975475, 9.217153, 0.29699147, 0.556664, 9.669179
777598318243204, -0.22013968, 4.1551366, 9.486345, -0.16187751, -0.33390522, 10.352135
777598327883100, -0.20338993, 3.3499517, 9.122637, 0.071406126, 0.23472166, 9.717298
777598337523100, -0.25603202, 3.8201413, 9.305687, -0.026970387, -0.12246299, 10.061766
777598347162996, -0.11246266, 3.9086757, 9.15135, -0.20921206, -0.19890523, 9.947576
777598356802996, -0.2536392, 3.3547373, 9.135797, 0.122972846, 0.21774578, 9.732361
777598366442891, -0.038285162, 4.267599, 9.311669, -0.3909557, -0.40955114, 10.227437
777598376082787, -0.26679972, 3.010171, 9.174082, 0.2654342, 0.5216651, 9.641239
777598385722787, -0.14356937, 4.3812585, 9.568898, -0.29706705, -0.4681461, 10.510588
777598395362683, -0.29192436, 2.9706893, 9.230313, 0.31097877, 0.56429505, 9.679554
777598405002683, -0.2428715, 4.1790648, 9.501899, -0.13679826, -0.3594401, 10.376019
777598414642579, -0.28594232, 3.298506, 9.107083, 0.16760957, 0.2504642, 9.685559
777598424282579, -0.28235307, 3.739982, 9.180064, 0.010422587, -0.10633397, 9.916116
777598433922475, -0.26679972, 3.6490545, 9.108279, 0.02051568, -0.047876596, 9.81554
777598443562475, -0.2428715, 3.690929, 9.176475, -0.008587837, -0.04875183, 9.893796
777598453202371, -0.25244278, 3.6430724, 9.281759, 0.03394842, 0.024490833, 9.974216
777598462842371, -0.25842485, 3.662215, 9.390633, 0.046352744, 0.043360233, 10.082587
777598472482266, -0.2632105, 3.6311083, 9.456435, 0.0731554, 0.09049845, 10.132367
777598482122266, -0.27038896, 3.6454654, 9.415757, 0.07077241, 0.06146002, 10.100012
777598491762162, -0.27517462, 3.676572, 9.287741, 0.0451293, -0.010967493, 9.9926405
777598501402162, -0.20219351, 3.696911, 9.175279, -0.04335594, -0.037908554, 9.89396
777598511042058, -0.16151553, 3.7555351, 9.122637, -0.11057079, -0.08956456, 9.865719
777598520682058, -0.124426775, 3.7806597, 9.116654, -0.15368211, -0.09957957, 9.868573
777598530321954, -0.10049855, 3.7950168, 9.15494, -0.17188096, -0.086150646, 9.908997
777598539961954, -0.14237295, 3.751946, 9.225528, -0.10889268, -0.04076886, 9.959629
777598549601850, -0.20578274, 3.7016966, 9.326026, -0.015667677, 0.014446735, 10.035897
777598559241850, -0.26919255, 3.635894, 9.432507, 0.08345783, 0.08339596, 10.111895
777598568881746, -0.31106696, 3.5880375, 9.450453, 0.14168763, 0.11237788, 10.111833
777598578521746, -0.29790643, 3.586841, 9.390633, 0.1189754, 0.09666014, 10.055579
777598588161641, -0.28953153, 3.611966, 9.243474, 0.0794816, 0.02676177, 9.927988
777598597801641, -0.25842485, 3.6789649, 9.108279, 0.0058521032, -0.06440687, 9.8264
777598607441537, -0.21655045, 3.7292142, 9.037691, -0.059698105, -0.11407614, 9.778406
777598617081537, -0.18305093, 3.804588, 9.108279, -0.108885646, -0.14126658, 9.871036
777598626721433, -0.10887343, 3.8584266, 9.265009, -0.16857922, -0.101593256, 10.034987
777598636361433, -0.13280165, 3.851248, 9.4636135, -0.11981237, -0.0349977, 10.217346
777598646001329, -0.21296121, 3.7411783, 9.518648, 0.009009957, 0.049925566, 10.229559
777598655641329, -0.21655045, 3.650251, 9.428918, 0.033985376, 0.09507108, 10.112641
777598665281225, -0.2428715, 3.5617166, 9.250652, 0.06644392, 0.098386765, 9.914902
777598674921225, -0.2847459, 3.5844483, 9.141779, 0.07323778, 0.02188158, 9.823219
777598684561121, -0.30508488, 3.6227336, 9.108279, 0.07340133, -0.030361414, 9.806718
777598694201121, -0.2835495, 3.6382868, 9.104691, 0.041427255, -0.03712988, 9.8086605
777598703841016, -0.28235307, 3.6634114, 9.1465645, 0.036166906, -0.043441772, 9.856812
777598713481016, -0.2727818, 3.696911, 9.260223, 0.03164518, -0.028640032, 9.974541
777598723120912, -0.27517462, 3.6885362, 9.391829, 0.054585814, 0.022319794, 10.0937605
777598732760912, -0.22731815, 3.6921253, 9.436096, 0.019085169, 0.054581165, 10.13509
777598742400808, -0.24526432, 3.6777685, 9.339187, 0.028951526, 0.025917053, 10.040171
777598752040808, -0.25962126, 3.6789649, 9.230313, 0.026085854, -0.018562317, 9.939812
777598761680808, -0.21894327, 3.67059, 9.177671, -0.01633346, -0.013012648, 9.886881
777598771320704, -0.20458634, 3.6849468, 9.147761, -0.040434837, -0.028421164, 9.864067
777598780960704, -0.21774685, 3.7184465, 9.19801, -0.03158045, -0.04418969, 9.923443
777598790600600, -0.15314065, 3.7531424, 9.341579, -0.08471823, 0.0021767616, 10.068141
777598800240600, -0.16151553, 3.7555351, 9.385847, -0.06802297, 0.01284647, 10.110363
777598809880496, -0.16031912, 3.735196, 9.360723, -0.06117916, 0.02309513, 10.079497
777598819520496, -0.2105684, 3.7124643, 9.281759, -0.016302109, -0.004324436, 9.998876
777598829160391, -0.2620141, 3.676572, 9.208778, 0.03307438, -0.019849539, 9.918968
777598838800391, -0.26081768, 3.67059, 9.153743, 0.026779652, -0.033687115, 9.865618
777598848440287, -0.27517462, 3.676572, 9.18485, 0.03906393, -0.03331566, 9.897058
777598858080287, -0.24047868, 3.6753755, 9.225528, 0.013164878, -0.0038378239, 9.9335985
777598867720183, -0.22492532, 3.6514473, 9.196814, 0.0043652058, 0.013457537, 9.89772
777598877360183, -0.2536392, 3.67059, 9.142975, 0.017333388, -0.032862186, 9.855463
777598887000079, -0.25962126, 3.6670008, 9.24826, 0.040163755, 0.0040133, 9.952034
777598896640079, -0.24646074, 3.6849468, 9.424132, 0.04394722, 0.05533147, 10.121703
777598906279975, -0.23569304, 3.6873398, 9.493524, 0.04553187, 0.07878208, 10.186792
777598915919975, -0.25124636, 3.739982, 9.430114, 0.03165555, 0.006204605, 10.1477375
777598925559975, -0.25842485, 3.7411783, 9.347562, 0.026888013, -0.026136875, 10.071679
777598935199871, -0.20578274, 3.7447674, 9.265009, -0.033539772, -0.037290573, 9.995173
777598944839871, -0.15553348, 3.7686956, 9.156136, -0.10446334, -0.07210493, 9.901816
777598954479766, -0.16031912, 3.7663028, 9.092726, -0.10862219, -0.091584206, 9.842167
777598964119766, -0.1471586, 3.760321, 9.126225, -0.111903906, -0.0677979, 9.870793
777598973759662, -0.14476576, 3.7387853, 9.174082, -0.09870517, -0.031704187, 9.907196
777598983399662, -0.19860429, 3.7064822, 9.306884, -0.018577576, 0.019579649, 10.019722
777598993039558, -0.22492532, 3.674179, 9.4432745, 0.035915375, 0.08297086, 10.134961
777599002679558, -0.22492532, 3.6598222, 9.466006, 0.04324782, 0.103503466, 10.150743
777599012319558, -0.2727818, 3.6394832, 9.318848, 0.074319124, 0.04974222, 10.007656
777599021959454, -0.29790643, 3.6454654, 9.195618, 0.071777105, -0.008960247, 9.896075
777599031599454, -0.28594232, 3.6478581, 9.12144, 0.051189303, -0.031825066, 9.827801
777599041239350, -0.2620141, 3.6813576, 9.132208, 0.013742328, -0.047950506, 9.849659
777599050879350, -0.23569304, 3.723232, 9.205189, -0.016920209, -0.048563004, 9.932313
777599060519246, -0.22731815, 3.7304106, 9.266206, -0.019588947, -0.02925706, 9.991446
777599070159246, -0.2009971, 3.7172499, 9.303294, -0.034677267, 0.004850626, 10.0204
777599079799141, -0.20817557, 3.6981075, 9.2997055, -0.02115202, 0.01786685, 10.010149
777599089439141, -0.23449662, 3.6753755, 9.2590275, 0.0055924654, 0.012750626, 9.964575
777599099079141, -0.2548356, 3.6658044, 9.236296, 0.025112748, 0.0052661896, 9.940399
777599108719037, -0.2428715, 3.650251, 9.219545, 0.015530705, 0.016978025, 9.918811
777599118359037, -0.25004998, 3.6729827, 9.227921, 0.014492512, -0.0027110577, 9.935171
777599127998933, -0.25842485, 3.6849468, 9.286545, 0.024792314, 0.003689766, 9.994245
777599137638933, -0.26919255, 3.7100716, 9.327223, 0.02976787, -0.007846355, 10.041576
777599147278829, -0.23090738, 3.7124643, 9.316455, -0.007695079, 0.001288414, 10.03155
777599156918829, -0.21415763, 3.6957145, 9.297313, -0.02009666, 0.015828371, 10.007174
777599166558829, -0.19142582, 3.6957145, 9.230313, -0.05068016, 0.0020854473, 9.944398
777599176198725, -0.2105684, 3.676572, 9.183653, -0.03391409, -0.0053761005, 9.894434
777599185838725, -0.22492532, 3.6753755, 9.241081, -0.012809753, 0.009828091, 9.9476795
777599195478621, -0.25722843, 3.6777685, 9.3104725, 0.025225759, 0.018142223, 10.013794
777599205118621, -0.26799613, 3.6813576, 9.309277, 0.033998013, 0.010527611, 10.01427
777599214758516, -0.27517462, 3.6897326, 9.270991, 0.03248906, -0.012528896, 9.98198
777599224398516, -0.27756742, 3.7292142, 9.24826, 0.015058875, -0.054406643, 9.97553
777599234038516, -0.28713873, 3.737589, 9.217153, 0.018183708, -0.075843334, 9.949966
777599243678412, -0.2620141, 3.7280176, 9.213564, -0.004720211, -0.057338238, 9.942495
777599253318412, -0.2847459, 3.7172499, 9.245867, 0.02415967, -0.044492006, 9.969079
777599262958308, -0.2632105, 3.7076788, 9.266206, 0.010091782, -0.02058816, 9.983898
777599272598308, -0.22013968, 3.714857, 9.269794, -0.03194487, -0.009903669, 9.988824
777599282238204, -0.19980069, 3.7196429, 9.238688, -0.055570364, -0.016873598, 9.961207
777599291878204, -0.16869399, 3.7160535, 9.245867, -0.0812186, 0.0010306835, 9.96579
777599301518204, -0.17587246, 3.7064822, 9.262616, -0.06763363, 0.012180567, 9.977991
777599311158100, -0.20219351, 3.6801612, 9.272188, -0.03095162, 0.0286026, 9.977784
777599320798100, -0.23569304, 3.6406796, 9.24826, 0.011590838, 0.04070115, 9.941761
777599330437996, -0.27517462, 3.644269, 9.24826, 0.046803474, 0.021252394, 9.944049
777599340077996, -0.2727818, 3.6550367, 9.274581, 0.0438236, 0.02227974, 9.972419
777599349717996, -0.25842485, 3.6873398, 9.317652, 0.024072528, 0.013691902, 10.024028
777599359357891, -0.22971097, 3.7244284, 9.327223, -0.014944673, -0.003259182, 10.045944
777599368997891, -0.19980069, 3.7339997, 9.263813, -0.052646637, -0.020933151, 9.98988
777599378637787, -0.18305093, 3.694518, 9.189635, -0.061875343, -0.0042841434, 9.905985
777599388277787, -0.17347965, 3.6646078, 9.1465645, -0.06346309, 0.010179043, 9.854692