timestamp_acc,device_acc_x,device_acc_y,device_acc_z,earth_acc_x,earth_acc_y,earth_acc_z
699646313483760, 0.3684947, 4.930411, 8.581859, 0.071976066, 0.01910019, 9.9039135
699646323122093, 0.3684947, 4.9842496, 8.58784, 0.075675845, 0.06122923, 9.935797
699646332760426, 0.317049, 4.965107, 8.647661, 0.018206716, 0.021088123, 9.976677
699646342398760, 0.2536392, 4.880162, 8.766106, -0.060739875, -0.10450697, 10.035452
699646352037093, 0.25124636, 4.8885365, 8.830712, -0.063691735, -0.12774944, 10.095644
699646361675426, 0.2632105, 4.9698925, 8.835498, -0.04542476, -0.060014725, 10.140488
699646371313760, 0.2440679, 4.995017, 8.760123, -0.05842966, -8.6164474E-4, 10.086929
699646380952093, 0.21535404, 4.9519463, 8.718249, -0.089122355, -0.017495155, 10.028347
699646390590426, 0.25722843, 4.9136615, 8.626125, -0.043260038, -0.009749413, 9.9306755
699646400228760, 0.31226337, 4.941179, 8.56152, 0.019793332, 0.035372734, 9.889932
699646409867093, 0.32662028, 4.9375896, 8.612965, 0.031615973, 0.0023627281, 9.933208
699646419505426, 0.2847459, 4.8969116, 8.665607, -0.010426104, -0.060186863, 9.9574
699646429143760, 0.2632105, 4.9172506, 8.545966, -0.015314102, 0.012770653, 9.8631525
699646438782093, 0.317049, 4.907679, 8.419147, 0.04783398, 0.06045723, 9.749971
699646448420426, 0.3696911, 4.924429, 8.159525, 0.12563723, 0.18792295, 9.534853
699646458058760, 0.41994038, 4.9878387, 7.9704924, 0.2008757, 0.31344628, 9.404521
699646467697093, 0.4426722, 5.0644093, 8.287541, 0.20565403, 0.2163744, 9.717943
699646477335426, 0.30867413, 5.0440702, 8.811569, 0.035647094, -0.04338789, 10.157683
699646486973760, 0.16390835, 5.0751767, 8.776874, -0.10251784, 0.017514706, 10.139378
699646496612093, 0.11964113, 4.981857, 9.031709, -0.15947169, -0.18451023, 10.312396
699646506250426, 0.05503492, 4.6564326, 9.337991, -0.25969425, -0.62013435, 10.413043
699646515888760, 0.06580263, 4.392026, 7.548159, -0.13146591, 0.026153803, 8.73218
699646525527093, 0.2117648, 5.231907, 8.244471, 0.033438087, 0.3690467, 9.759697
699646535165426, 0.41156548, 5.447261, 7.190432, 0.3136282, 1.0235167, 8.966515
699646544803760, 0.46301118, 5.3479586, 7.007381, 0.37173027, 1.0245702, 8.759594
699646554442093, 0.29312077, 5.1673007, 8.669196, 0.07160115, 0.062856674, 10.096177
699646564080426, 0.148355, 5.2570314, 9.425328, -0.118091166, -0.22510338, 10.7903
699646573718760, 0.12801601, 5.157729, 9.424132, -0.121026546, -0.2513256, 10.740347
699646583357093, 0.13519448, 4.9926243, 9.409775, -0.12967217, -0.38560343, 10.645325
699646592995426, 0.0741775, 4.944768, 9.293723, -0.1767179, -0.34223795, 10.520513
699646602633760, -0.019142581, 4.9064827, 9.2075815, -0.26457936, -0.3029256, 10.425532
699646612272093, 0.011964113, 4.855037, 9.049655, -0.22265956, -0.25722122, 10.264115
699646621910426, 0.124426775, 4.8095737, 8.810373, -0.09745669, -0.19149637, 10.036136
699646631548760, 0.23569304, 4.814359, 8.55793, 0.031373084, -0.0733161, 9.82168
699646641187093, 0.3062813, 4.895715, 8.359326, 0.1132949, 0.08611441, 9.69123
699646650825426, 0.38644084, 4.9232326, 8.311469, 0.1925124, 0.124572754, 9.66517
699646660463760, 0.40438703, 4.853841, 8.391629, 0.19652325, 0.020828247, 9.700705
699646670102093, 0.39960137, 4.7688956, 8.493324, 0.17660832, -0.09922266, 9.74667
699646679740426, 0.3290131, 4.79402, 8.60459, 0.10108912, -0.12141514, 9.854182
699646689378760, 0.25722843, 4.8526444, 8.699107, 0.032111347, -0.10686064, 9.963751
699646699017093, 0.18664017, 4.8287163, 8.720642, -0.040831685, -0.13154602, 9.96905
699646708655426, 0.11365908, 4.831109, 8.573483, -0.09712559, -0.051295757, 9.840991
699646718293760, 0.029910283, 4.8693943, 8.364112, -0.15764648, 0.08968735, 9.676641
699646727932093, 0.014356935, 4.877769, 8.236095, -0.15151727, 0.14999914, 9.5697775
699646737570426, 0.069391854, 4.9112687, 8.283952, -0.094742626, 0.14441633, 9.629091
699646747208760, 0.15553348, 4.9603214, 8.429914, -0.014935195, 0.10799551, 9.781644
699646756847093, 0.22971097, 4.9375896, 8.550752, 0.054956406, 0.020131111, 9.876462
699646766485322, 0.25722843, 4.8993044, 8.664411, 0.07717514, -0.07287645, 9.95641
699646776123656, 0.2620141, 4.928018, 8.775677, 0.07958689, -0.10331917, 10.067249
699646785762093, 0.25842485, 4.965107, 8.816355, 0.07817724, -0.089280605, 10.120924
699646795400322, 0.2548356, 4.95075, 8.790034, 0.08462229, -0.08801079, 10.090822
699646805038656, 0.2428715, 4.9459643, 8.733803, 0.08195305, -0.06523371, 10.039416
699646814676989, 0.17228323, 4.942375, 8.6548395, 0.023191512, -0.025929451, 9.968039
699646824315322, 0.011964113, 4.9639106, 8.534002, -0.12831849, 0.06635237, 9.87162
699646833953656, -0.19262223, 4.971089, 8.456235, -0.31145614, 0.11910629, 9.805384
699646843591989, -0.21415763, 4.9399824, 8.459825, -0.33416948, 0.09509516, 9.792712
699646853230322, -0.0741775, 4.922036, 8.463413, -0.18718755, 0.06185341, 9.788895
699646862868656, 0.09332009, 4.9232326, 8.559127, -0.01603821, 0.0019578934, 9.874478
699646872506989, 0.1902294, 4.900501, 8.663215, 0.072672725, -0.07853317, 9.954444
699646882145322, 0.28115666, 4.9579287, 8.7015, 0.16386876, -0.04801464, 10.017338
699646891783656, 0.29671, 5.0129633, 8.679964, 0.18476859, 0.008717537, 10.026237
699646901421989, 0.22253251, 4.991428, 8.644072, 0.11059803, 0.020095825, 9.983547
699646911060322, 0.16271193, 4.968696, 8.598608, 0.05189565, 0.028689384, 9.932117
699646920698656, 0.14596218, 4.9639106, 8.628518, 0.041166723, 0.013440132, 9.955461
699646930336989, 0.1160519, 4.9160542, 8.709874, 0.00809294, -0.06477785, 10.001934
699646939975322, 0.076570325, 4.92084, 8.772088, -0.028828949, -0.086892605, 10.057916
699646949613656, 0.0634098, 4.9340005, 8.730213, -0.038043708, -0.05380249, 10.027994
699646959251989, 0.032303106, 4.9232326, 8.642876, -0.05096394, -0.018802643, 9.946638
699646968890322, 0.06819545, 4.861019, 8.523234, -0.0059369802, -0.0185318, 9.812202
699646978528656, 0.1052842, 4.8681974, 8.413164, 0.044084072, 0.037837505, 9.720514
699646988166989, 0.07178468, 4.8849473, 8.353344, 0.014574349, 0.08522844, 9.676712
699646997805322, 0.062213387, 4.941179, 8.395218, 0.01666215, 0.11723852, 9.740882
699647007443656, 0.02871387, 4.996214, 8.547162, -0.020279735, 0.092850685, 9.899896
699647017081989, -0.038285162, 5.0141597, 8.769695, -0.09576416, 0.009671688, 10.101563
699647026720322, -0.1160519, 5.0213385, 9.010174, -0.18716106, -0.08882904, 10.313469
699647036358656, -0.07058827, 4.9782677, 9.038888, -0.14837, -0.1408453, 10.317352
699647045996989, 0.08733802, 4.959125, 8.930014, 0.0133527815, -0.11509466, 10.214317
699647055635322, 0.21655045, 4.9579287, 8.82114, 0.14549577, -0.0710845, 10.119992
699647065273656, 0.23090738, 4.9399824, 8.786445, 0.15951568, -0.07214689, 10.081058
699647074911989, 0.17587246, 4.922036, 8.748159, 0.10453978, -0.065758705, 10.038547
699647084550322, 0.09930214, 4.935197, 8.657232, 0.03321123, -0.0033659935, 9.9655695
699647094188656, 0.021535404, 4.941179, 8.566305, -0.037199914, 0.051333427, 9.889049
699647103826989, -0.033499517, 4.932804, 8.49811, -0.0817132, 0.077261925, 9.825422
699647113465322, -0.033499517, 4.9172506, 8.4682, -0.08123699, 0.07878494, 9.791736
699647123103656, -0.0071784677, 4.877769, 8.467003, -0.047870964, 0.042738914, 9.77132
699647132741989, 0.0, 4.8083773, 8.504091, -0.045704663, -0.036182404, 9.76917
699647142380322, 0.031106694, 4.7629137, 8.514859, -0.013888091, -0.080895424, 9.756148
699647152018656, 0.02751746, 4.7653065, 8.585447, -0.014825016, -0.10380888, 9.818748
699647161656989, 0.0035892338, 4.84068, 8.672786, -0.037469804, -0.0739274, 9.931896
699647171295322, -0.04426722, 4.9160542, 8.713464, -0.08237383, -0.021687508, 10.004335
699647180933656, -0.12203395, 4.959125, 8.670393, -0.15609968, 0.04263544, 9.987861
699647190571989, -0.08015956, 4.9926243, 8.580662, -0.108576685, 0.11311865, 9.926526
699647200210218, 0.061016977, 4.9986067, 8.505288, 0.03924623, 0.13873339, 9.86453
699647209848551, 0.19142582, 4.981857, 8.482556, 0.16883913, 0.12467766, 9.836933
699647219486885, 0.16869399, 4.9603214, 8.500503, 0.14455989, 0.09632778, 9.841831
699647229125218, 0.12203395, 4.9375896, 8.517252, 0.09723094, 0.07042217, 9.844992
699647238763551, 0.11724831, 4.9088755, 8.496913, 0.09569171, 0.05481434, 9.813063
699647248401885, 0.11485548, 4.9088755, 8.476574, 0.09961641, 0.06542063, 9.795322
699647258040218, 0.08015956, 4.87418, 8.469396, 0.07150403, 0.041982174, 9.771788
699647267678551, 0.0526421, 4.861019, 8.493324, 0.042075545, 0.021128178, 9.786041
699647277316885, 0.021535404, 4.881358, 8.5220375, 0.014111936, 0.029545307, 9.821008
699647286955218, 0.043070808, 4.9052863, 8.541181, 0.039271504, 0.04237461, 9.849474
699647296593551, 0.09212367, 4.9232326, 8.555537, 0.0917702, 0.050257683, 9.870815
699647306231885, 0.08973085, 4.9052863, 8.584251, 0.08916646, 0.024309635, 9.886896
699647315870218, 0.06580263, 4.938786, 8.606983, 0.06884852, 0.05215311, 9.923138
699647325508551, 0.03708875, 4.9734817, 8.650054, 0.040893078, 0.06328106, 9.977709
699647335146885, -0.034695927, 4.9531426, 8.662018, -0.030800194, 0.04861307, 9.978081
699647344785218, -0.0741775, 4.9495535, 8.656036, -0.06839648, 0.054882526, 9.971101
699647354423551, -0.07776674, 4.9292145, 8.6548395, -0.07118037, 0.040520668, 9.960058
699647364061885, -0.062213387, 4.914858, 8.683554, -0.054378927, 0.016962528, 9.978004
699647373700218, -0.05503492, 4.766503, 8.641679, -0.05317813, -0.08845425, 9.868665
699647383338551, 0.12921242, 4.999803, 8.595019, 0.1559338, 0.13062143, 9.942219
699647392976885, -0.09451649, 4.54397, 8.459825, -0.092025965, -0.17802715, 9.601305
699647402615218, 0.10887343, 5.279763, 8.633304, 0.1702728, 0.36711502, 10.112267
699647412253551, -0.21894327, 4.1491547, 8.514859, -0.23459573, -0.52754974, 9.456899
699647421891885, -0.038285162, 5.395815, 8.852247, 0.032702148, 0.3746581, 10.360365
699647431530114, -0.14476576, 4.1228333, 8.671589, -0.1529463, -0.6202483, 9.581601
699647441168447, -0.17587246, 5.271388, 8.940782, -0.098066956, 0.2632885, 10.376757
699647450806781, -0.104087785, 4.412365, 8.69791, -0.076582536, -0.37760568, 9.746025
699647460445114, -0.21894327, 4.965107, 8.681161, -0.14977627, 0.12766027, 10.001202
699647470083447, 0.11844472, 4.944768, 8.541181, 0.19150263, 0.14918613, 9.866994
699647479721781, -0.09571291, 4.5822554, 8.423932, -0.043810666, -0.09605074, 9.589458
699647489360114, 0.23688944, 5.3814583, 8.609376, 0.34303704, 0.48635054, 10.138213
699647498998447, 0.0011964113, 4.2867417, 8.559127, 0.030738562, -0.42757654, 9.563004
699647508636781, 0.2213361, 5.581259, 9.017352, 0.33840388, 0.4495306, 10.5922365
699647518275114, 0.0741775, 4.1922255, 8.810373, 0.07285181, -0.63542366, 9.736216
699647527913447, 0.010767702, 5.3419766, 9.048459, 0.11037964, 0.2526679, 10.504068
699647537551781, -0.008374879, 4.377669, 8.768498, 0.022929877, -0.4408033, 9.790598
699647547190114, -0.22971097, 4.959125, 8.823533, -0.14879292, 0.06136942, 10.122971
699647556828447, -0.038285162, 4.81077, 8.706285, 0.05022937, -0.029307842, 9.94691
699647566466781, -0.3505485, 4.4339004, 8.534002, -0.2874535, -0.244699, 9.616083
699647576105114, -0.059820566, 5.2235317, 8.639286, 0.073808074, 0.36078358, 10.089129
699647585743447, -0.31345975, 4.1982074, 8.452646, -0.25255895, -0.42128372, 9.430225
699647595381781, -0.1160519, 5.511867, 8.786445, 0.057614803, 0.53810024, 10.358709
699647605020114, -0.2620141, 4.150351, 8.52802, -0.20563301, -0.50716543, 9.472154
699647614658447, -0.1698904, 5.428118, 8.775677, 0.0049270988, 0.47328854, 10.309307
699647624296676, -0.05623133, 4.4434714, 8.585447, 0.024587244, -0.29297113, 9.66287
699647633935010, -0.15314065, 5.081159, 8.738588, -0.008728713, 0.19519997, 10.1077385
699647643573343, 0.09212367, 4.831109, 8.737391, 0.21014297, -0.04771614, 9.982168
699647653211676, -0.22731815, 4.5535417, 8.6345005, -0.12670784, -0.20699453, 9.761256
699647662850010, 0.019142581, 5.2462635, 8.796016, 0.19096726, 0.29526854, 10.235716
699647672488343, -0.3589234, 4.1874394, 8.583055, -0.27452204, -0.48537517, 9.54051
699647682126676, -0.16031912, 5.4999027, 8.882157, 0.038906574, 0.49174356, 10.436667
699647691765010, -0.35533416, 4.1575294, 8.57468, -0.25309876, -0.51178694, 9.518953
699647701403343, -0.26799613, 5.491528, 8.82473, -0.07371883, 0.51547194, 10.384287
699647711041676, -0.17108682, 4.4638104, 8.712267, -0.037683904, -0.33157015, 9.785046
699647720680010, -0.2739782, 5.2235317, 8.924032, -0.08948377, 0.22743559, 10.34113
699647730318343, -0.07776674, 4.9064827, 8.963513, 0.08251619, -0.08312464, 10.218143
699647739956676, -0.34576288, 4.666004, 8.836694, -0.1986939, -0.20910645, 9.994755
699647749595010, -0.05742774, 5.2869415, 8.939586, 0.13584186, 0.25710964, 10.382036
699647759233343, -0.35653058, 4.2915273, 8.62134, -0.23294294, -0.42666125, 9.624735
699647768871676, -0.11485548, 5.5453663, 8.841479, 0.11170587, 0.5304308, 10.423158
699647778510010, -0.2536392, 4.15394, 8.488539, -0.13963318, -0.50567484, 9.4392605
699647788148343, -0.07298109, 5.4664035, 8.732606, 0.15031911, 0.49839544, 10.289525
699647797786572, 0.023928227, 4.342973, 8.508878, 0.16231504, -0.37216377, 9.544535
699647807424906, -0.11246266, 5.1457653, 8.577073, 0.08016084, 0.2980919, 9.998121
699647817063239, 0.05383851, 4.733003, 8.502895, 0.21676494, -0.04702711, 9.729041
699647826701572, -0.25962126, 4.634897, 8.451449, -0.1016161, -0.08223486, 9.641556
699647836339906, -0.008374879, 5.174479, 8.6548395, 0.1820885, 0.2703781, 10.078456
699647845978239, -0.3397808, 4.26401, 8.483752, -0.20845263, -0.41121435, 9.489929
699647855616572, -0.14237295, 5.5262237, 8.82114, 0.07731846, 0.4999652, 10.397882
699647865254906, -0.36131623, 4.1814575, 8.487342, -0.23560414, -0.48718476, 9.452898
699647874893239, -0.21894327, 5.538188, 8.683554, 0.031101495, 0.58564377, 10.284922
699647884531572, -0.17467605, 4.3836513, 8.414361, -0.019812837, -0.28891444, 9.484962
699647894169906, -0.26919255, 5.265406, 8.59143, -0.032321602, 0.3952794, 10.072356
699647903808239, -0.0849452, 4.7748775, 8.618947, 0.09658292, -0.065461636, 9.852883
699647913446572, -0.29072794, 4.7138605, 8.696713, -0.11658025, -0.1356535, 9.894737
699647923084906, 0.038285162, 5.1385865, 8.986245, 0.23965825, 0.07392073, 10.34873
699647932723239, -0.25962126, 4.2628136, 8.8701935, -0.12558703, -0.6044774, 9.825382
699647942361572, -0.046660043, 5.447261, 9.113065, 0.1746172, 0.29004574, 10.611697
699647951999801, -0.31345975, 4.085745, 8.699107, -0.18765569, -0.65834427, 9.591528
699647961638135, -0.23090738, 5.4628143, 8.800801, 0.012556046, 0.4827838, 10.349713
699647971276468, -0.2739782, 4.2711883, 8.347362, -0.104071364, -0.3419168, 9.3738365
699647980914801, -0.4139583, 5.2079782, 8.353344, -0.16056512, 0.48523092, 9.839286
699647990553135, -0.27038896, 4.6492543, 8.133204, -0.060688764, 0.09526706, 9.371497
699648000191468, -0.49052864, 4.738985, 8.069795, -0.26092437, 0.22196889, 9.364978
699648009829801, -0.09930214, 5.12423, 8.2456665, 0.16066071, 0.42469692, 9.698063
699648019468135, -0.31585258, 4.3154554, 8.181061, -0.13550407, -0.21971178, 9.251273
699648029106468, 0.104087785, 5.453243, 8.668, 0.37802783, 0.4857173, 10.222725
699648038744801, -0.0526421, 4.06062, 8.575876, 0.09453973, -0.64073277, 9.466658
699648048383135, 0.13519448, 5.4113684, 9.016156, 0.3775322, 0.32240152, 10.50456
699648058021468, 0.086141616, 4.15394, 8.898908, 0.2282194, -0.7055001, 9.793026
699648067659801, -0.10887343, 5.1924253, 9.160921, 0.10689329, 0.08847237, 10.529785
699648077298135, -0.10887343, 4.587041, 8.99821, 0.086797304, -0.34424973, 10.094282
699648086936468, -0.47018966, 4.814359, 8.863015, -0.25871363, -0.057497025, 10.093658
699648096574801, -0.27517462, 5.1553364, 8.756535, -0.024056002, 0.28335285, 10.161164
699648106213135, -0.64606214, 4.479364, 8.4347, -0.40833542, -0.14051032, 9.562415
699648115851364, -0.37806597, 5.599205, 8.626125, -0.038477823, 0.73138475, 10.264875
699648125489697, -0.526421, 4.2520456, 8.27797, -0.29301348, -0.26470852, 9.312674
699648135128031, -0.2620141, 5.5896335, 8.57468, 0.0770855, 0.73502207, 10.212326
699648144766364, -0.1794617, 4.2352962, 8.35454, 0.05938662, -0.3506925, 9.361718
699648154404697, -0.09930214, 5.2773705, 8.693125, 0.21239184, 0.40182972, 10.159938
699648164043031, 0.10289137, 4.5427737, 8.734999, 0.35759693, -0.27503133, 9.835856
699648173681364, -0.20937198, 4.738985, 8.938389, 0.054026023, -0.16424704, 10.117644
699648183319697, -0.022731815, 4.9340005, 9.02812, 0.25303316, -0.04919195, 10.285202
699648192958031, -0.4833502, 4.273581, 8.810373, -0.24389113, -0.48353243, 9.789101
699648202596364, -0.30269206, 5.2833524, 8.991031, -0.002401337, 0.3024888, 10.428449
699648212234697, -0.57427746, 4.0498524, 8.636893, -0.35027888, -0.5838945, 9.532229
699648221873031, -0.34456646, 5.523831, 8.833105, -0.009311363, 0.60296726, 10.406321
699648231511364, -0.37686956, 4.2329035, 8.427522, -0.1396935, -0.33658147, 9.431322
699648241149697, -0.37567315, 5.325227, 8.633304, -0.061172195, 0.5261588, 10.136691
699648250788031, -0.20697916, 4.5858445, 8.530413, 0.053716794, -0.082973, 9.686639
699648260426364, -0.43429732, 4.8490553, 8.7984085, -0.15850843, 0.042049885, 10.054207
699648270064697, -0.13040884, 4.9435716, 9.029316, 0.14875026, -0.011536598, 10.293795
699648279703031, -0.4319045, 4.342973, 9.099904, -0.20454581, -0.5303223, 10.076365
699648289341364, -0.11006984, 5.2977095, 9.391829, 0.19412708, 0.1514492, 10.780708
699648298979593, -0.4331009, 4.061816, 9.038888, -0.23165374, -0.7373667, 9.8888855
699648308617926, -0.3074777, 5.4843497, 9.116654, 0.019806564, 0.46744013, 10.633304
699648318256260, -0.4235296, 4.1467614, 8.568698, -0.20344748, -0.44134545, 9.516376
699648327894593, -0.43070808, 5.2845488, 8.664411, -0.113913625, 0.5063834, 10.144681
699648337532926, -0.2955136, 4.476971, 8.482556, -0.040013134, -0.11865473, 9.595242
699648347171260, -0.45104706, 4.87418, 8.597412, -0.16273779, 0.17679548, 9.890341
699648356809593, -0.078963146, 4.8909297, 8.678768, 0.20529392, 0.12451887, 9.959458
699648366447926, -0.26081768, 4.3908296, 8.708678, -0.018337347, -0.31151533, 9.751469
699648376086260, 0.033499517, 5.2462635, 8.937193, 0.33325675, 0.30516863, 10.3534355
699648385724593, -0.32303107, 3.9816568, 8.709874, -0.12182387, -0.65889645, 9.55881
699648395362926, 0.025124637, 5.428118, 9.019745, 0.3238933, 0.4292221, 10.513409
699648405001260, -0.0741775, 4.0354953, 8.572288, 0.1299992, -0.5733099, 9.456705
699648414639593, -0.18185452, 5.229514, 8.71466, 0.112276815, 0.4106493, 10.15603
699648424277926, -0.14117654, 4.453043, 8.477771, 0.09801221, -0.15409541, 9.575424
699648433916260, -0.45822555, 4.935197, 8.46461, -0.17455259, 0.28401375, 9.803298
699648443554593, -0.2656033, 4.88734, 8.392825, 0.014718145, 0.2634797, 9.712185
699648453192926, -0.50009996, 4.5152564, 8.3174515, -0.23958287, -0.014616489, 9.474176
699648462831260, -0.12921242, 5.3096733, 8.571091, 0.20506519, 0.5253258, 10.067518
699648472469593, -0.4331009, 4.113262, 8.486146, -0.21343483, -0.45379686, 9.427073
699648482107926, -0.1902294, 5.4867425, 8.898908, 0.15727785, 0.5199795, 10.442029
699648491746260, -0.2835495, 4.0534415, 8.575876, -0.06399492, -0.5618551, 9.472943
699648501384489, -0.24047868, 5.2869415, 8.829515, 0.07209276, 0.40152407, 10.286083
699648511022926, -0.083748795, 4.3441696, 8.616554, 0.15962303, -0.33167243, 9.643047
699648520661156, -0.21535404, 4.9471607, 8.748159, 0.06547187, 0.14310455, 10.051184
699648530299489, 0.02632105, 4.82752, 8.737391, 0.2946835, 0.027419567, 9.97798
699648539937822, -0.2727818, 4.5188456, 8.700303, -0.029838517, -0.2026484, 9.805493
699648549576156, -0.047856454, 5.2737813, 8.874979, 0.25121406, 0.36268282, 10.3143425
699648559214489, -0.4438686, 4.1180477, 8.659625, -0.24103788, -0.509969, 9.5826025
699648568852822, -0.2835495, 5.4053864, 8.91805, 0.034807548, 0.47070026, 10.421491
699648578491156, -0.4833502, 3.9696927, 8.566305, -0.28747222, -0.5944903, 9.430673
699648588129489, -0.48215377, 5.24746, 8.781659, -0.16354546, 0.41993904, 10.231459
699648597767822, -0.3696911, 4.29392, 8.687142, -0.13590804, -0.37258983, 9.689353
699648607406156, -0.4869394, 4.983053, 8.878569, -0.19461569, 0.15320635, 10.189975
699648617044489, -0.31106696, 4.682754, 8.87139, -0.04758559, -0.124173164, 10.035378
699648626682822, -0.4833502, 4.526024, 8.932407, -0.2322157, -0.27384686, 10.018858
699648636321156, -0.101694964, 5.2139606, 9.044869, 0.20094836, 0.24587488, 10.435735
699648645959489, -0.39481574, 4.0534415, 8.801998, -0.16733497, -0.62995243, 9.676601
699648655597822, -0.062213387, 5.4592247, 9.038888, 0.26224223, 0.46075058, 10.546443
699648665236156, -0.25004998, 4.0642095, 8.590233, -0.0065650716, -0.5376203, 9.491226
699648674874489, -0.28115666, 5.316852, 8.792427, 0.04360757, 0.46992922, 10.268009
699648684512822, -0.2620141, 4.2723846, 8.523234, -0.01135065, -0.3172207, 9.532402
699648694151156, -0.4534399, 5.0045886, 8.647661, -0.14324158, 0.27180004, 9.996959
699648703789489, -0.2632105, 4.735396, 8.60459, 0.028371446, 0.037023544, 9.824971
699648713427822, -0.47856453, 4.5834517, 8.605786, -0.19850259, -0.08087778, 9.7596445
699648723066156, -0.08015956, 5.1661043, 8.737391, 0.2451509, 0.33422995, 10.142252
699648732704489, -0.39720857, 4.1383867, 8.547162, -0.15622225, -0.45338368, 9.492525
699648742342822, -0.106480606, 5.45085, 8.861818, 0.23674949, 0.5204129, 10.388842
699648751981156, -0.2213361, 4.089334, 8.567501, 0.0059256554, -0.51212335, 9.482164
699648761619489, -0.111266255, 5.4257255, 8.860622, 0.22564064, 0.49735594, 10.376091
699648771257822, -0.11365908, 4.298706, 8.583055, 0.12199594, -0.3513348, 9.592826
699648780896156, -0.2883351, 5.1696935, 8.770891, 0.011097766, 0.3325286, 10.17972
699648790534489, -0.13998012, 4.738985, 8.672786, 0.12318778, -0.0027666092, 9.883301
699648800172822, -0.5192425, 4.6289153, 8.6141615, -0.2654978, -0.048415184, 9.789148
699648809811156, -0.24526432, 5.198407, 8.685946, 0.051680513, 0.39461613, 10.117848
699648819449489, -0.5694918, 4.23051, 8.581859, -0.35115182, -0.37366962, 9.571148
699648829087822, -0.2632105, 5.400601, 8.995817, 0.05117382, 0.4196787, 10.487218
699648838726156, -0.39601216, 3.9900317, 8.800801, -0.19407544, -0.699605, 9.6438675
699648848364489, -0.17826529, 5.355137, 9.120243, 0.12851478, 0.3307066, 10.571766
699648858002822, -0.10289137, 4.182654, 8.879765, 0.09496041, -0.5926728, 9.79771
699648867641156, -0.20458634, 5.0955157, 9.036494, 0.076123014, 0.14065933, 10.37491
699648877279489, -0.03589234, 4.6492543, 8.868998, 0.20608021, -0.17679739, 10.010108
699648886917822, -0.41754755, 4.6899323, 8.763713, -0.17240539, -0.06466198, 9.946788
699648896556156, -0.19381863, 5.1086764, 8.718249, 0.086213514, 0.30446482, 10.101676
699648906194489, -0.52283174, 4.2341, 8.482556, -0.31128454, -0.32122183, 9.484442
699648915832822, -0.24885355, 5.4233327, 8.800801, 0.06480354, 0.5311923, 10.326772
699648925471156, -0.45104706, 4.089334, 8.520842, -0.2514291, -0.48129463, 9.44648
699648935109489, -0.25244278, 5.4819565, 8.780462, 0.057586595, 0.58127356, 10.337838
699648944747822, -0.15194423, 4.2460637, 8.53161, 0.049601823, -0.38108134, 9.523278
699648954386156, -0.14476576, 5.2163534, 8.749356, 0.13866732, 0.35614586, 10.180199
699648964024489, 0.031106694, 4.6301117, 8.639286, 0.25608024, -0.125144, 9.797701
699648973662926, -0.3290131, 4.712664, 8.624929, -0.094326675, -0.011424065, 9.833506
699648983301260, -0.08255238, 5.029713, 8.641679, 0.17664, 0.23551655, 9.994838
699648992939593, -0.3912265, 4.2568316, 8.444271, -0.18631788, -0.32511115, 9.457218
699649002577926, -0.09571291, 5.3946185, 8.780462, 0.19640602, 0.4911914, 10.29212
699649012216260, -0.39720857, 4.066602, 8.601001, -0.21023595, -0.5640497, 9.503151
699649021854593, -0.3290131, 5.3982077, 8.944371, -0.035109356, 0.42625713, 10.44355
699649031492926, -0.36490545, 4.15394, 8.713464, -0.15451694, -0.5383887, 9.643605
699649041131260, -0.3696911, 5.198407, 8.933603, -0.08864662, 0.26238775, 10.338891
699649050769593, -0.11485548, 4.558327, 8.7469635, 0.12562397, -0.22129607, 9.86084
699649060407926, -0.3290131, 4.7605205, 8.719446, -0.07903918, -0.016303062, 9.939468
699649070046260, -0.031106694, 5.0273204, 8.717052, 0.23719189, 0.19410467, 10.05823
699649079684593, -0.33738798, 4.331009, 8.57468, -0.12948625, -0.32388902, 9.605985
699649089322926, -0.08015956, 5.4616175, 8.925228, 0.21832375, 0.4782257, 10.450791
699649098961260, -0.36131623, 4.180261, 8.779266, -0.16885927, -0.5530853, 9.713198
699649108599593, -0.26679972, 5.564509, 9.183653, 0.026637003, 0.45397854, 10.731616
699649118237926, -0.32183465, 4.220939, 8.924032, -0.12924244, -0.57994556, 9.859272
699649127876260, -0.38883367, 5.265406, 9.085547, -0.116569534, 0.254879, 10.50449
699649137514593, -0.20338993, 4.4841495, 8.774481, 0.019513283, -0.3028202, 9.8513155
699649147153031, -0.35294133, 4.7676992, 8.633304, -0.11126054, 0.021318436, 9.867961
699649156791364, -0.013160525, 4.9543395, 8.465807, 0.24239911, 0.23511362, 9.803137
699649166429697, -0.317049, 4.316652, 8.181061, -0.09686646, -0.16762161, 9.2534485
699649176068031, -0.032303106, 5.3419766, 8.398808, 0.24799912, 0.5963478, 9.932804
699649185706364, -0.30867413, 4.1491547, 8.224132, -0.1101738, -0.34041095, 9.209728
699649195344697, -0.11485548, 5.5393844, 8.65125, 0.1738296, 0.6423626, 10.251794
699649204983031, -0.21296121, 4.1551366, 8.435896, -0.029519796, -0.44351768, 9.395599
699649214621364, -0.25603202, 5.2845488, 8.751749, 0.012671724, 0.3947878, 10.219055
699649224259697, -0.14117654, 4.4925246, 8.647661, 0.053454414, -0.2552743, 9.742521
699649233898031, -0.37088752, 4.833502, 8.702696, -0.1442549, 0.031586647, 9.960692
699649243536364, -0.06819545, 4.9136615, 8.687142, 0.16579306, 0.0878911, 9.978976
699649253174697, -0.40438703, 4.398008, 8.580662, -0.21026592, -0.27860165, 9.644269
699649262813135, -0.13280165, 5.365905, 8.779266, 0.14145474, 0.44261265, 10.279599
699649272451468, -0.40917268, 4.156333, 8.567501, -0.2388432, -0.4829216, 9.516005
699649282089801, -0.16630118, 5.548956, 8.926425, 0.11883053, 0.5347085, 10.497601
699649291728135, -0.25244278, 4.2221355, 8.685946, -0.07991353, -0.48561168, 9.648504
699649301366468, -0.25722843, 5.3886366, 9.037691, 0.0035431087, 0.3563485, 10.519337
699649311004801, -0.1268196, 4.4949174, 8.913264, 0.059194073, -0.36597013, 9.976434
699649320643135, -0.35294133, 4.9375896, 9.040084, -0.12709819, -0.020998955, 10.305868
699649330281468, -0.076570325, 4.90409, 9.01137, 0.14624076, -0.053930283, 10.258482
699649339919801, -0.40917268, 4.4004006, 8.813962, -0.21405879, -0.37355638, 9.850457
699649349558239, -0.05503492, 5.2977095, 8.872586, 0.2122031, 0.35325527, 10.325781
699649359196572, -0.3493521, 4.1467614, 8.508878, -0.16347036, -0.46429658, 9.459197
699649368834906, -0.12203395, 5.4927244, 8.719446, 0.15180264, 0.6007185, 10.287358
699649378473239, -0.22851457, 4.150351, 8.440681, -0.051080212, -0.44028783, 9.398206
699649388111572, -0.22372891, 5.367101, 8.760123, 0.041736156, 0.4663639, 10.265298
699649397749906, -0.14356937, 4.4171505, 8.657232, 0.048911616, -0.31107783, 9.714956
699649407388239, -0.35413775, 4.928018, 8.815159, -0.12532838, 0.06867981, 10.104326
699649417026572, -0.07298109, 4.851448, 8.720642, 0.14902268, 0.025975227, 9.978405
699649426665010, -0.37328035, 4.479364, 8.575876, -0.18155959, -0.20255852, 9.67862
699649436303343, -0.062213387, 5.282156, 8.718249, 0.19300555, 0.40197468, 10.184011
699649445941676, -0.34456646, 4.1575294, 8.518449, -0.17515488, -0.45617032, 9.472539
699649455580010, -0.11844472, 5.51426, 8.79123, 0.14596355, 0.5710535, 10.36144
699649465218343, -0.23449662, 4.130012, 8.458628, -0.061896175, -0.47076154, 9.403986
699649474856676, -0.20937198, 5.4173503, 8.7266245, 0.03713195, 0.5312638, 10.259722
699649484495010, -0.16630118, 4.3992043, 8.562716, 0.028224561, -0.28194928, 9.623955
699649494133447, -0.35294133, 4.9974103, 8.796016, -0.12895706, 0.13055277, 10.121014
699649503771781, -0.09332009, 4.8083773, 8.810373, 0.119728304, -0.04777479, 10.0366955
699649513410114, -0.38524446, 4.503292, 8.796016, -0.19056238, -0.29128218, 9.883158
699649523048447, -0.061016977, 5.2498527, 9.010174, 0.17676619, 0.24470377, 10.423859
699649532686781, -0.3493521, 4.1587257, 8.720642, -0.18504706, -0.5557933, 9.650052
699649542325114, -0.078963146, 5.5166526, 8.895318, 0.1833072, 0.5248184, 10.452624
699649551963551, -0.19860429, 4.1671004, 8.489735, -0.032160714, -0.441118, 9.449028
699649561601885, -0.1363909, 5.4424753, 8.689535, 0.13265544, 0.5566206, 10.2381525
699649571240218, -0.12921242, 4.365705, 8.455039, 0.051793948, -0.26191783, 9.512753
699649580878551, -0.276371, 5.052445, 8.677571, -0.041741043, 0.23256207, 10.042311
699649590516885, -0.039481573, 4.7712884, 8.679964, 0.16714832, -0.029935837, 9.90352
699649600155218, -0.38285163, 4.5535417, 8.718249, -0.19800787, -0.20371771, 9.8391285
699649609793656, -0.14117654, 5.1960144, 8.895318, 0.09445983, 0.24837255, 10.29925
699649619431989, -0.46779683, 4.15394, 8.696713, -0.32052147, -0.5307081, 9.629252
699649629070322, -0.16031912, 5.4424753, 8.983852, 0.10058345, 0.4218049, 10.496086
699649638708656, -0.24765715, 4.106084, 8.615358, -0.09210138, -0.5487535, 9.530795
699649648346989, -0.11006984, 5.426922, 8.823533, 0.17105663, 0.47688103, 10.347061
699649657985426, -0.0526421, 4.2891345, 8.568698, 0.12317522, -0.38416457, 9.573886
699649667623760, -0.25722843, 5.0955157, 8.749356, -0.015875235, 0.24694681, 10.125238
699649677262093, -0.111266255, 4.7210393, 8.664411, 0.09696218, -0.05584669, 9.867122
699649686900426, -0.41515473, 4.618148, 8.624929, -0.2152834, -0.09597063, 9.789458
699649696538760, -0.08973085, 5.206782, 8.736196, 0.15150815, 0.3347869, 10.163894
699649706177197, -0.38404804, 4.2329035, 8.562716, -0.21106395, -0.40685654, 9.54856
699649715815531, -0.104087785, 5.471189, 8.895318, 0.15928863, 0.48494244, 10.431246
699649725453864, -0.31106696, 4.0869412, 8.628518, -0.13906065, -0.5723591, 9.534372
699649735092197, -0.2321038, 5.4556355, 8.927621, 0.02571433, 0.46574306, 10.454791
699649744730635, -0.22013968, 4.2711883, 8.703893, -0.03602609, -0.4592352, 9.686954
699649754368968, -0.35653058, 5.1493545, 8.940782, -0.10633603, 0.20442724, 10.321214
699649764007301, -0.12323037, 4.6875396, 8.7673025, 0.09211306, -0.12815619, 9.941273
699649773645635, -0.38763726, 4.6815577, 8.702696, -0.16928533, -0.081683636, 9.887814
699649783283968, -0.0526421, 5.144569, 8.738588, 0.209169, 0.2702794, 10.134866
699649792922406, -0.32422748, 4.2927237, 8.492127, -0.1350604, -0.32547402, 9.514444
699649802560739, -0.05623133, 5.4783673, 8.69791, 0.239866, 0.58021927, 10.260366
699649812199072, -0.276371, 4.1072803, 8.428718, -0.107281685, -0.46144176, 9.368298
699649821837406, -0.1591227, 5.4664035, 8.770891, 0.1346843, 0.534461, 10.321414
699649831475843, -0.18065812, 4.2556353, 8.629715, 0.007115841, -0.43846297, 9.613675
699649841114176, -0.2835495, 5.180461, 8.849854, -0.023710325, 0.26288033, 10.255138
699649850752510, -0.08015956, 4.644469, 8.69791, 0.14120694, -0.1390748, 9.858594
699649860390843, -0.40438703, 4.7078786, 8.606983, -0.16998918, -0.016181469, 9.817263
699649870029281, -0.1268196, 5.0859447, 8.665607, 0.13907608, 0.26494265, 10.044208
699649879667614, -0.42831525, 4.26401, 8.513663, -0.22600724, -0.35803533, 9.5219965
699649889305947, -0.11006984, 5.4029937, 8.79123, 0.18476559, 0.47337055, 10.30689
699649898944385, -0.35174492, 4.074977, 8.585447, -0.1735818, -0.55915546, 9.491907
699649908582718, -0.25722843, 5.4783673, 8.979067, 0.03697729, 0.47869778, 10.510556
699649918221051, -0.2620141, 4.2652063, 8.779266, -0.07578823, -0.48176932, 9.751837
699649927859385, -0.29790643, 5.278567, 9.030513, -0.019556567, 0.28691816, 10.460376
699649937497822, -0.111266255, 4.648058, 8.88455, 0.10917035, -0.21769142, 10.024608
699649947136156, -0.37328035, 4.8083773, 8.812766, -0.13130206, -0.016083717, 10.045257
699649956774489, -0.076570325, 5.058427, 8.740981, 0.19194898, 0.20644283, 10.095486
699649966412822, -0.44147578, 4.284349, 8.493324, -0.23366584, -0.31763816, 9.514809
699649976051260, -0.15792629, 5.3682976, 8.754142, 0.13414577, 0.4730811, 10.258497
699649985689593, -0.36610186, 4.054638, 8.55793, -0.17619704, -0.5634527, 9.4585285
699649995327926, -0.25603202, 5.4089756, 8.894122, 0.032594085, 0.4472251, 10.403217
699650004966364, -0.30867413, 4.1240296, 8.60459, -0.1157389, -0.5264838, 9.531594
699650014604697, -0.30149564, 5.2462635, 8.800801, -0.013777971, 0.3655615, 10.2437525
699650024243031, -0.104087785, 4.587041, 8.660822, 0.12900344, -0.16641712, 9.798842
699650033881468, -0.4211368, 4.843073, 8.683554, -0.16578215, 0.07373428, 9.950069
699650043519801, -0.148355, 5.0739803, 8.656036, 0.13395074, 0.2629919, 10.030311
699650053158135, -0.43070808, 4.4207397, 8.504091, -0.2084494, -0.20410919, 9.589729
699650062796572, -0.09212367, 5.430511, 8.751749, 0.21067859, 0.5205898, 10.284778
699650072434906, -0.34337005, 4.0941195, 8.543573, -0.15128139, -0.51894784, 9.464681
699650082073239, -0.14476576, 5.4520464, 8.924032, 0.16306932, 0.45318365, 10.447593
699650091711572, -0.19262223, 4.1443686, 8.682357, -0.010213047, -0.5590172, 9.606437
699650101350010, -0.2117648, 5.271388, 8.914461, 0.07475351, 0.32223225, 10.353287
699650110988343, -0.09212367, 4.517649, 8.69791, 0.12714405, -0.24634886, 9.797674
699650120626676, -0.37447673, 4.880162, 8.742178, -0.12157658, 0.07536745, 10.018055
699650130265114, -0.13280165, 4.9878387, 8.706285, 0.1275786, 0.16586351, 10.032538
699650139903447, -0.4953143, 4.3836513, 8.599805, -0.28729498, -0.27801538, 9.657047
699650149541885, -0.17347965, 5.3479586, 8.810373, 0.12339857, 0.4276104, 10.298319
699650159180218, -0.39720857, 4.1228333, 8.573483, -0.20731153, -0.49853683, 9.506242
699650168818551, -0.18903299, 5.4867425, 8.935996, 0.11742361, 0.48939848, 10.47563
699650178456885, -0.2428715, 4.121637, 8.647661, -0.051610544, -0.5531547, 9.566624
699650188095322, -0.23688944, 5.3072805, 8.892925, 0.0544053, 0.37243605, 10.352093
699650197733656, -0.12323037, 4.487739, 8.68475, 0.10047229, -0.25059724, 9.772768
699650207372093, -0.35174492, 4.9160542, 8.725428, -0.09440623, 0.115531445, 10.020087
699650217010426, -0.051445685, 4.9435716, 8.668, 0.2092821, 0.14604902, 9.975502
699650226648760, -0.38524446, 4.430311, 8.584251, -0.16327855, -0.234483, 9.663529
699650236287197, -0.08015956, 5.328816, 8.82473, 0.21727696, 0.4123764, 10.298608
699650245925531, -0.3684947, 4.126423, 8.641679, -0.17161098, -0.5235851, 9.567559
699650255563864, -0.18424734, 5.48076, 8.980264, 0.13246793, 0.4838543, 10.51029
699650265202301, -0.36011982, 4.1228333, 8.6548395, -0.16242166, -0.53584266, 9.577065
699650274840635, -0.33379877, 5.3216376, 8.85823, -0.03191006, 0.4118185, 10.330967
699650284479072, -0.18903299, 4.4051867, 8.5938225, 0.037799224, -0.2726078, 9.655024
699650294117406, -0.3696911, 4.907679, 8.705089, -0.10081096, 0.12832451, 9.998697
699650303755739, -0.043070808, 4.8849473, 8.702696, 0.22972457, 0.08364868, 9.977057
699650313394176, -0.37328035, 4.469793, 8.644072, -0.13573712, -0.2205658, 9.735053
699650323032510, -0.086141616, 5.291727, 8.860622, 0.22001061, 0.36682653, 10.312007
699650332670843, -0.42951167, 4.1108694, 8.635697, -0.21490687, -0.5283239, 9.556865
699650342309281, -0.24526432, 5.0823555, 8.935996, 0.041058823, 0.16257954, 10.281752
699650351947614, -0.27996024, 4.770092, 8.834301, -0.01871185, -0.04957819, 10.043615
699650361586051, -0.27756742, 4.8047876, 8.836694, -0.013502449, -0.019530296, 10.062287
699650371224385, -0.30388847, 4.7832522, 8.82114, -0.041296273, -0.028718472, 10.039016
699650380862822, -0.2656033, 4.7425747, 8.801998, -0.0049573854, -0.058471203, 10.001715
699650390501156, -0.22492532, 4.755735, 8.7469635, 0.04166533, -0.024649143, 9.958647
699650400139489, -0.2213361, 4.741378, 8.681161, 0.04493005, -0.005214691, 9.893946
699650409777926, -0.23928227, 4.7569313, 8.669196, 0.033257686, 0.012972832, 9.891376
699650419416260, -0.2416751, 4.7605205, 8.673982, 0.03103701, 0.014102936, 9.897361
699650429054697, -0.27158538, 4.802395, 8.7015, 0.0059612915, 0.03802395, 9.942404
699650438693031, -0.3397808, 4.8119664, 8.729017, -0.061287843, 0.03853464, 9.973014
699650448331468, -0.35174492, 4.790431, 8.707481, -0.073523365, 0.028651714, 9.944141
699650457969801, -0.29790643, 4.7988057, 8.715857, -0.018883593, 0.02668333, 9.954014
699650467608135, -0.24765715, 4.8251266, 8.705089, 0.03324105, 0.05002594, 9.955809
699650477246572, -0.22013968, 4.7880383, 8.672786, 0.0582882, 0.030748367, 9.908916
699650486884906, -0.21894327, 4.7653065, 8.696713, 0.05741228, -0.0032372475, 9.918951
699650496523343, -0.24526432, 4.7748775, 8.712267, 0.03290099, -2.0980835E-5, 9.937915
699650506161676, -0.26919255, 4.766503, 8.711071, 0.008344203, -0.0046510696, 9.933514
699650515800114, -0.3062813, 4.752146, 8.71466, -0.028081805, -0.015401363, 9.930811
699650525438447, -0.3182454, 4.7401814, 8.718249, -0.03931178, -0.026092052, 9.928557
699650535076885, -0.31345975, 4.7509494, 8.700303, -0.031000525, -0.008306026, 9.917862
699650544715218, -0.25603202, 4.784449, 8.708678, 0.031890497, 0.012136936, 9.939639
699650554353551, -0.24765715, 4.7808595, 8.707481, 0.039904684, 0.008798122, 9.9366255
699650563991989, -0.29072794, 4.790431, 8.773284, -0.004320137, -0.010560513, 10.000157
699650573630322, -0.3290131, 4.800002, 8.812766, -0.04400544, -0.01769209, 10.040463
699650583268760, -0.3481557, 4.8011985, 8.815159, -0.06199839, -0.016201496, 10.043687
699650592907093, -0.32422748, 4.7952166, 8.793623, -0.03829979, -0.0131549835, 10.021247
699650602545531, -0.3062813, 4.807181, 8.770891, -0.01753565, 0.0067448616, 10.006548
699650612183864, -0.276371, 4.7784667, 8.775677, 0.011397041, -0.023304462, 9.996098
699650621822301, -0.27158538, 4.772485, 8.739784, 0.016536921, -0.013309956, 9.961615
699650631460635, -0.26799613, 4.752146, 8.689535, 0.018984176, -0.0072135925, 9.90769
699650641099072, -0.27876383, 4.76411, 8.690732, 0.008598428, 0.0033288002, 9.914799
699650650737406, -0.31106696, 4.7784667, 8.703893, -0.022278927, 0.012268543, 9.934165
699650660375843, -0.34217364, 4.79402, 8.718249, -0.052445404, 0.02065134, 9.955121
699650670014176, -0.33260235, 4.7892346, 8.748159, -0.04230254, 0.0017561913, 9.978773
699650679652614, -0.3074777, 4.7772703, 8.725428, -0.018362284, 4.0626526E-4, 9.952368
699650689290947, -0.2955136, 4.7748775, 8.682357, -0.0063794963, 0.018410683, 9.91311
699650698929385, -0.27517462, 4.76411, 8.639286, 0.011905691, 0.027806282, 9.869592
699650708567718, -0.23449662, 4.7988057, 8.618947, 0.051320866, 0.06371164, 9.867275
699650718206156, -0.23090738, 4.786842, 8.658429, 0.05353124, 0.032861233, 9.896042
699650727844489, -0.23688944, 4.7832522, 8.68475, 0.04713953, 0.017549992, 9.91756
699650737482926, -0.24885355, 4.7784667, 8.685946, 0.03600933, 0.01358223, 9.916646
699650747121260, -0.30149564, 4.7712884, 8.640483, -0.013999619, 0.033514023, 9.874853
699650756759697, -0.31226337, 4.7653065, 8.616554, -0.019184828, 0.042599678, 9.851318
699650766398031, -0.32183465, 4.7449675, 8.675179, -0.030804072, -0.002861023, 9.893234
699650776036468, -0.3074777, 4.759324, 8.7015, -0.01431296, -0.0025043488, 9.922783
699650785674801, -0.31585258, 4.7425747, 8.76132, -0.024039723, -0.0432539, 9.96745
699650795313239, -0.31465617, 4.7653065, 8.811569, -0.02130191, -0.045559883, 10.022394
699650804951572, -0.32183465, 4.76411, 8.82473, -0.026696369, -0.0473876, 10.033604
699650814590010, -0.32183465, 4.782056, 8.810373, -0.024989143, -0.02481985, 10.02961
699650824228447, -0.31345975, 4.79402, 8.835498, -0.014338233, -0.025701046, 10.057137
699650833866781, -0.29312077, 4.7784667, 8.82473, 0.0084914155, -0.034196377, 10.039637
699650843505218, -0.25603202, 4.792824, 8.793623, 0.046526365, -0.00939703, 10.018098
699650853143551, -0.20219351, 4.8622155, 8.784052, 0.10672697, 0.052877903, 10.041285
699650862781989, -0.20937198, 4.84068, 8.810373, 0.096350946, 0.021836758, 10.0543
699650872420322, -0.27996024, 4.8215375, 8.841479, 0.024241589, -0.004743099, 10.07456
699650882058760, -0.33020952, 4.782056, 8.864211, -0.030059598, -0.046393394, 10.077117
699650891697093, -0.35174492, 4.772485, 8.782856, -0.050648615, -0.014598846, 10.001806
699650901335531, -0.3493521, 4.7676992, 8.720642, -0.04596684, 0.011110306, 9.944867
699650910973968, -0.34576288, 4.7712884, 8.676374, -0.038961165, 0.033655643, 9.907652
699650920612301, -0.35533416, 4.7832522, 8.668, -0.04666753, 0.049552917, 9.906329
699650930250739, -0.39481574, 4.784449, 8.7015, -0.0870399, 0.037232876, 9.937503
699650939889072, -0.3900301, 4.741378, 8.733803, -0.086574756, -0.015894413, 9.945066
699650949527510, -0.33260235, 4.7318068, 8.772088, -0.030643918, -0.047601223, 9.972307
699650959165843, -0.2835495, 4.741378, 8.772088, 0.020171948, -0.04186344, 9.975392
699650968804281, -0.29790643, 4.743771, 8.729017, 0.0074762404, -0.016699314, 9.939191
699650978442614, -0.27158538, 4.7114677, 8.671589, 0.032216102, -0.019767284, 9.872522
699650988081051, -0.26919255, 4.7605205, 8.702696, 0.03840933, 0.007955074, 9.923225
699650997719489, -0.2943172, 4.7880383, 8.723035, 0.013936691, 0.024137497, 9.955025
699651007357822, -0.32422748, 4.761717, 8.792427, -0.020371523, -0.030147552, 10.004226
699651016996260, -0.31944183, 4.782056, 8.883354, -0.016322091, -0.05589056, 10.093596
699651026634593, -0.2835495, 4.7976093, 8.9013, 0.01968984, -0.052000046, 10.115707
699651036273031, -0.30508488, 4.7772703, 8.88455, -0.0032222178, -0.05964899, 10.091931
699651045911468, -0.3290131, 4.770092, 8.817552, -0.026945826, -0.033058167, 10.030425
699651055549801, -0.32303107, 4.8011985, 8.740981, -0.013469409, 0.027215004, 9.977961
699651065188239, -0.317049, 4.7784667, 8.685946, -0.0062635243, 0.030429363, 9.918619
699651074826572, -0.33140594, 4.76411, 8.659625, -0.01983683, 0.029009819, 9.889107
699651084465010, -0.36011982, 4.749753, 8.688339, -0.048710704, 0.0030474663, 9.908316
699651094103447, -0.36490545, 4.7545385, 8.705089, -0.053187106, -8.049011E-4, 9.925449
699651103741781, -0.30508488, 4.7581277, 8.718249, 0.006014996, -0.007970333, 9.936833
699651113380218, -0.25124636, 4.7688956, 8.755338, 0.060473703, -0.019295216, 9.972835
699651123018551, -0.24526432, 4.807181, 8.745767, 0.06652636, 0.018054962, 9.982626
699651132656989, -0.23688944, 4.800002, 8.68475, 0.07187223, 0.039914608, 9.925436
699651142295426, -0.23090738, 4.786842, 8.668, 0.07544998, 0.033891678, 9.90427
699651151933760, -0.26799613, 4.816752, 8.662018, 0.03966111, 0.06386423, 9.914526
699651161572197, -0.31106696, 4.7784667, 8.685946, -0.0068825185, 0.021077633, 9.918453
699651171210635, -0.3278167, 4.8011985, 8.724232, -0.021893576, 0.022800922, 9.963443
699651180848968, -0.31106696, 4.8119664, 8.756535, -0.0026203096, 0.014649391, 9.996422
699651190487406, -0.3278167, 4.7988057, 8.781659, -0.020899445, -0.00734663, 10.012645
699651200125739, -0.33020952, 4.7856455, 8.763713, -0.023549885, -0.010962486, 9.990667
699651209764176, -0.357727, 4.74736, 8.734999, -0.053999126, -0.028198719, 9.947959
699651219402614, -0.34217364, 4.770092, 8.69791, -0.035545096, 0.007089615, 9.925886
699651229040947, -0.32183465, 4.784449, 8.691928, -0.012772173, 0.019765377, 9.926914
699651238679385, -0.33379877, 4.759324, 8.699107, -0.027460635, -0.005460739, 9.921507
699651248317822, -0.32542387, 4.770092, 8.713464, -0.01835449, -0.0036959648, 9.939005
699651257956156, -0.28235307, 4.776074, 8.738588, 0.02440102, -0.014220238, 9.962567
699651267594593, -0.25004998, 4.792824, 8.737391, 0.05776178, -0.0017066002, 9.968569
699651277233031, -0.2656033, 4.7688956, 8.760123, 0.040515926, -0.032843113, 9.977473
699651286871364, -0.3182454, 4.7712884, 8.782856, -0.012079164, -0.038090706, 10.000174
699651296509801, -0.3684947, 4.792824, 8.769695, -0.05925917, -0.009241581, 10.0005455
699651306148135, -0.37686956, 4.786842, 8.712267, -0.06490111, 0.012570858, 9.9476185
699651315786572, -0.3696911, 4.772485, 8.644072, -0.053043768, 0.02827692, 9.880772
