timestamp_acc,device_acc_x,device_acc_y,device_acc_z,earth_acc_x,earth_acc_y,earth_acc_z
699676395100218, -0.22492532, 4.900501, 8.63809, 0.023618445, 0.080964565, 9.933529
699676404738656, -0.26081768, 4.8849473, 8.626125, -0.01375711, 0.076238155, 9.9163885
699676414377197, -0.25722843, 4.87418, 8.656036, -0.012234032, 0.051986217, 9.937199
699676424015739, -0.25244278, 4.84068, 8.717052, -0.014120698, -0.0075263977, 9.974099
699676433654281, -0.25124636, 4.833502, 8.7577305, -0.015317723, -0.03295946, 10.006119
699676443292822, -0.23928227, 4.8191447, 8.732606, -0.004303992, -0.03382063, 9.976907
699676452931364, -0.2416751, 4.8263235, 8.679964, -0.004818529, -0.0017776489, 9.9344635
699676462569906, -0.2632105, 4.807181, 8.679964, -0.028422564, -0.016086102, 9.9256735
699676472208447, -0.27517462, 4.8119664, 8.709874, -0.040469974, -0.024891853, 9.954415
699676481846989, -0.29312077, 4.8382874, 8.736196, -0.053858414, -0.010819912, 9.990648
699676491485531, -0.27517462, 4.867001, 8.7266245, -0.03164439, 0.018909931, 9.995801
699676501124072, -0.25722843, 4.847859, 8.691928, -0.014721423, 0.017493248, 9.955752
699676510762614, -0.21655045, 4.8562336, 8.648857, 0.028373823, 0.042166233, 9.92119
699676520401051, -0.20338993, 4.871787, 8.640483, 0.043479994, 0.058787346, 9.921104
699676530039593, -0.24047868, 4.837091, 8.605786, 0.0035975873, 0.049047947, 9.874838
699676539678135, -0.25124636, 4.8035913, 8.627322, -0.009995386, 0.0111579895, 9.877657
699676549316676, -0.22372891, 4.814359, 8.660822, 0.018507004, 0.0032835007, 9.911488
699676558955218, -0.22612174, 4.8047876, 8.749356, 0.012923554, -0.047697544, 9.984283
699676568593760, -0.21774685, 4.7880383, 8.76132, 0.01905173, -0.06583357, 9.986428
699676578232301, -0.21296121, 4.8011985, 8.754142, 0.0250068, -0.05017519, 9.986427
699676587870843, -0.18783657, 4.834698, 8.703893, 0.05441764, 0.0010614395, 9.958132
699676597509385, -0.17108682, 4.8705907, 8.641679, 0.07486531, 0.06036377, 9.920751
699676607147926, -0.22013968, 4.9172506, 8.622537, 0.028917879, 0.11452389, 9.927839
699676616786468, -0.25722843, 4.9292145, 8.658429, -0.009639904, 0.110417366, 9.965914
699676626424906, -0.25603202, 4.8933225, 8.721839, -0.014767081, 0.047595978, 10.003905
699676636063447, -0.25842485, 4.867001, 8.781659, -0.021299735, -0.002931118, 10.043483
699676645701989, -0.26799613, 4.8526444, 8.813962, -0.03301643, -0.030228138, 10.064983
699676655340531, -0.26919255, 4.7856455, 8.784052, -0.039303258, -0.07287502, 10.006377
699676664979072, -0.25004998, 4.7712884, 8.736196, -0.020337284, -0.062015057, 9.957136
699676674617614, -0.26081768, 4.7712884, 8.696713, -0.029603839, -0.04230547, 9.922873
699676684256156, -0.28115666, 4.76411, 8.695518, -0.050959304, -0.045693398, 9.918829
699676693894697, -0.25962126, 4.76411, 8.677571, -0.029087007, -0.03676176, 9.902636
699676703533239, -0.24765715, 4.7808595, 8.730213, -0.016500935, -0.047662735, 9.956507
699676713171781, -0.2656033, 4.8095737, 8.745767, -0.032460093, -0.028656483, 9.984443
699676722810322, -0.2847459, 4.834698, 8.743374, -0.04908496, -0.003024578, 9.994976
699676732448864, -0.276371, 4.8586264, 8.711071, -0.037054047, 0.033167362, 9.978123
699676742087301, -0.2440679, 4.846662, 8.636893, -0.0031000078, 0.054399967, 9.906698
699676751725843, -0.2213361, 4.871787, 8.605786, 0.023948401, 0.086686134, 9.891148
699676761364385, -0.22372891, 4.8454657, 8.615358, 0.018418536, 0.05527544, 9.886839
699676771002926, -0.22851457, 4.8155556, 8.650054, 0.009823367, 0.0129265785, 9.902776
699676780641468, -0.17826529, 4.8179483, 8.703893, 0.058065593, -0.015815735, 9.949802
699676790280010, -0.18903299, 4.8179483, 8.736196, 0.045352325, -0.029145718, 9.978306
699676799918551, -0.19980069, 4.814359, 8.766106, 0.033717975, -0.045681953, 10.002968
699676809557093, -0.21894327, 4.8179483, 8.784052, 0.013780832, -0.04798603, 10.020861
699676819195635, -0.2440679, 4.831109, 8.770891, -0.010224417, -0.026563644, 10.016332
699676828834176, -0.27517462, 4.8239303, 8.721839, -0.040604234, -0.00586462, 9.970697
699676838472718, -0.30149564, 4.8215375, 8.7015, -0.06591424, 0.0038833618, 9.952381
699676848111156, -0.30508488, 4.82752, 8.675179, -0.06646477, 0.02001667, 9.932367
699676857749697, -0.2955136, 4.8299127, 8.695518, -0.056998312, 0.011911392, 9.951082
699676867388239, -0.26081768, 4.8622155, 8.712267, -0.02000083, 0.028226852, 9.98056
699676877026781, -0.21655045, 4.8562336, 8.715857, 0.022743136, 0.017092228, 9.979741
699676886665322, -0.17467605, 4.8490553, 8.736196, 0.062345803, -0.0029087067, 9.993052
699676896303864, -0.16151553, 4.84068, 8.734999, 0.07398896, -0.010442734, 9.987637
699676905942406, -0.1902294, 4.82752, 8.703893, 0.044843376, -0.004579544, 9.954741
699676915580947, -0.2428715, 4.814359, 8.678768, -0.008749723, -0.001185894, 9.927637
699676925219489, -0.28713873, 4.8263235, 8.646464, -0.049614817, 0.025986195, 9.906263
699676934858031, -0.27996024, 4.8490553, 8.581859, -0.038497686, 0.07481098, 9.860677
699676944496572, -0.24885355, 4.8394837, 8.550752, -0.0068282187, 0.07939386, 9.828098
699676954135010, -0.19621146, 4.8442693, 8.551949, 0.046138704, 0.076749325, 9.830221
699676963773551, -0.21296121, 4.8729835, 8.584251, 0.02743283, 0.08612394, 9.872819
699676973412093, -0.2321038, 4.8646083, 8.60459, 0.008191466, 0.07050657, 9.886973
699676983050635, -0.2321038, 4.8287163, 8.583055, 0.0043857694, 0.049942493, 9.85072
699676992689176, -0.18424734, 4.8215375, 8.630911, 0.050884783, 0.016544819, 9.887917
699677002327718, -0.19262223, 4.8119664, 8.720642, 0.039568543, -0.03252268, 9.961884
699677011966260, -0.20817557, 4.8083773, 8.784052, 0.02234894, -0.06282234, 10.015935
699677021604801, -0.2727818, 4.8011985, 8.837891, -0.04430592, -0.08825779, 10.061037
699677031243343, -0.27756742, 4.7856455, 8.835498, -0.050239205, -0.098658085, 10.051529
699677040881885, -0.25124636, 4.820341, 8.829515, -0.019616172, -0.068502426, 10.06251
699677050520426, -0.24765715, 4.8418765, 8.788837, -0.0139698535, -0.03002119, 10.0373125
699677060158864, -0.28713873, 4.8729835, 8.72782, -0.051574484, 0.028327465, 9.999991
699677069797406, -0.29790643, 4.85743, 8.724232, -0.06346536, 0.017306805, 9.989559
699677079435947, -0.2620141, 4.846662, 8.751749, -0.025388345, -0.010046482, 10.007554
699677089074489, -0.24526432, 4.837091, 8.72782, -0.00902912, -0.00801754, 9.981598
699677098713031, -0.25244278, 4.8179483, 8.706285, -0.014958113, -0.014298439, 9.953659
699677108351572, -0.2428715, 4.8191447, 8.662018, -0.0036632344, 0.006911278, 9.915323
699677117990114, -0.22013968, 4.837091, 8.599805, 0.021632977, 0.05047846, 9.869122
699677127628656, -0.21894327, 4.8251266, 8.566305, 0.021756366, 0.054318905, 9.83402
699677137267197, -0.24765715, 4.8358946, 8.566305, -0.0057506263, 0.06499004, 9.839948
699677146905635, -0.24526432, 4.807181, 8.583055, -0.005543098, 0.031713963, 9.840575
699677156544176, -0.20937198, 4.790431, 8.585447, 0.02905929, 0.012205124, 9.833668
699677166182718, -0.17347965, 4.800002, 8.566305, 0.06672816, 0.026540756, 9.820721
699677175821260, -0.16869399, 4.8191447, 8.579466, 0.072773084, 0.036598682, 9.841403
699677185459801, -0.1471586, 4.834698, 8.579466, 0.094980925, 0.047969818, 9.848445
699677195098343, -0.17587246, 4.863412, 8.592627, 0.06746538, 0.06943369, 9.874592
699677204736885, -0.18903299, 4.8909297, 8.662018, 0.052794352, 0.06282711, 9.948906
699677214375426, -0.1902294, 4.9088755, 8.750552, 0.05092013, 0.03723526, 10.03501
699677224013968, -0.22492532, 4.863412, 8.815159, 0.012151934, -0.03124857, 10.070217
699677233652510, -0.3062813, 4.837091, 8.853444, -0.07208983, -0.06576967, 10.092829
699677243290947, -0.34097722, 4.81077, 8.847462, -0.109098405, -0.08140898, 10.075655
699677252929489, -0.2847459, 4.807181, 8.786445, -0.051565364, -0.056850433, 10.019271
699677262568031, -0.27756742, 4.8035913, 8.706285, -0.0412672, -0.019806862, 9.947306
699677272206572, -0.2883351, 4.800002, 8.725428, -0.052721232, -0.030838013, 9.962557
699677281845114, -0.31585258, 4.7808595, 8.755338, -0.08126786, -0.05939579, 9.980089
699677291483656, -0.26919255, 4.7856455, 8.752945, -0.034341797, -0.05768156, 9.979198
699677301122197, -0.22971097, 4.813163, 8.729017, 0.010047406, -0.023919582, 9.970675
699677310760739, -0.22731815, 4.846662, 8.69791, 0.015521437, 0.020226479, 9.959659
699677320399176, -0.24526432, 4.851448, 8.659625, -0.0013801306, 0.043357372, 9.928944
699677330037718, -0.26081768, 4.834698, 8.632108, -0.018351845, 0.038412094, 9.8971615
699677339676260, -0.2536392, 4.853841, 8.608179, -0.00954929, 0.0662303, 9.885361
699677349314801, -0.22253251, 4.8394837, 8.578269, 0.020963788, 0.064273834, 9.851511
699677358953343, -0.20697916, 4.8299127, 8.556734, 0.03651967, 0.06350517, 9.827677
699677368591885, -0.19860429, 4.8047876, 8.545966, 0.04196249, 0.044093132, 9.805878
699677378230426, -0.17587246, 4.807181, 8.52443, 0.06376892, 0.05550909, 9.787681
699677387868968, -0.18065812, 4.807181, 8.538788, 0.059077986, 0.048552036, 9.800342
699677397507406, -0.16510476, 4.820341, 8.571091, 0.0736302, 0.044095993, 9.834591
699677407145947, -0.1902294, 4.8299127, 8.5938225, 0.047515385, 0.044331074, 9.859705
699677416784489, -0.23449662, 4.82752, 8.668, -1.5841424E-4, 0.012778282, 9.924416
699677426423031, -0.32542387, 4.766503, 8.7266245, -0.09669161, -0.05895853, 9.948196
699677436061572, -0.14237295, 4.8993044, 8.840283, 0.094710104, -0.012345314, 10.107669
699677445700114, -0.46660042, 4.597809, 8.810373, -0.2508844, -0.23223877, 9.9430065
699677455338656, -0.11964113, 5.2510495, 8.892925, 0.14703408, 0.2756939, 10.323486
699677464977093, -0.40917268, 4.2508492, 8.665607, -0.21903294, -0.4683385, 9.646896
699677474615635, -0.106480606, 5.528617, 8.895318, 0.18027183, 0.5183797, 10.45956
699677484254176, -0.25722843, 4.1407795, 8.535198, -0.07121053, -0.51462245, 9.475861
699677493892718, -0.2213361, 5.426922, 8.807981, 0.057372317, 0.47106457, 10.337109
699677503531260, -0.16749759, 4.347759, 8.549556, 0.034168214, -0.34403372, 9.586784
699677513169801, -0.37328035, 5.096712, 8.803194, -0.11783059, 0.21011972, 10.176148
699677522808343, -0.08853444, 4.7976093, 8.669196, 0.14178531, -0.011137009, 9.907554
699677532446781, -0.3804588, 4.6301117, 8.63809, -0.16447902, -0.118337154, 9.80603
699677542085322, 0.02632105, 5.2259245, 8.713464, 0.29191282, 0.33115578, 10.150888
699677551723864, -0.34337005, 4.211368, 8.548359, -0.15900037, -0.4415145, 9.52406
699677561362406, -0.11246266, 5.477171, 8.787642, 0.17672223, 0.516737, 10.341007
699677571000947, -0.3062813, 4.119244, 8.4705925, -0.12835638, -0.48695278, 9.410595
699677580639489, -0.26081768, 5.4185467, 8.740981, 0.024678364, 0.5096412, 10.274876
699677590278031, -0.19980069, 4.3094735, 8.477771, -0.0021502525, -0.33396173, 9.506448
699677599916468, -0.38285163, 5.131408, 8.737391, -0.12552038, 0.26338482, 10.1358185
699677609555010, -0.08135597, 4.7509494, 8.657232, 0.14637677, -0.044664383, 9.8743305
699677619193551, -0.39481574, 4.6504507, 8.694321, -0.17265566, -0.13101196, 9.865436
699677628832093, 0.008374879, 5.1900325, 8.756535, 0.2696125, 0.2789979, 10.171671
699677638470635, -0.33260235, 4.2711883, 8.59143, -0.1428712, -0.40904355, 9.590548
699677648109176, -0.08853444, 5.48076, 8.842676, 0.2033294, 0.50380707, 10.3896265
699677657747614, -0.34576288, 4.121637, 8.550752, -0.16886885, -0.51489806, 9.483099
699677667386156, -0.26799613, 5.4616175, 8.840283, 0.028919995, 0.5095482, 10.382255
699677677024697, -0.21535404, 4.298706, 8.548359, -0.020733267, -0.37285423, 9.563486
699677686663239, -0.38285163, 5.1361938, 8.846265, -0.120384425, 0.23632908, 10.232942
699677696301781, -0.17587246, 4.6552362, 8.773284, 0.042948157, -0.1663208, 9.931925
699677705940218, -0.5192425, 4.65404, 8.853444, -0.30057067, -0.17352962, 10.009632
699677715578760, -0.08255238, 5.1254263, 8.829515, 0.17868163, 0.21000099, 10.2059355
699677725217301, -0.4127619, 4.2759743, 8.632108, -0.22008328, -0.4076593, 9.630836
699677734855843, -0.09092726, 5.45085, 8.822337, 0.21438858, 0.49701834, 10.356672
699677744494385, -0.3182454, 4.112066, 8.516056, -0.14934891, -0.5024843, 9.447687
699677754132926, -0.1698904, 5.4843497, 8.823533, 0.13299346, 0.525959, 10.376289
699677763771364, -0.11724831, 4.269992, 8.508878, 0.066658944, -0.3754034, 9.513267
699677773409906, -0.2440679, 5.206782, 8.752945, 0.035502106, 0.32703066, 10.18214
699677783048447, -0.04426722, 4.6803613, 8.605786, 0.17863175, -0.07500982, 9.7943735
699677792686989, -0.42831525, 4.772485, 8.646464, -0.19451356, 0.025547028, 9.883468
699677802325531, -0.08973085, 5.1266227, 8.623733, 0.18015674, 0.3061247, 10.026609
699677811963968, -0.45702913, 4.28076, 8.474181, -0.27694, -0.3174374, 9.495687
699677821602510, -0.06580263, 5.4089756, 8.758927, 0.22331285, 0.4818101, 10.280962
699677831241051, -0.29192436, 4.091727, 8.584251, -0.13482237, -0.5539918, 9.496932
699677840879593, -0.15672988, 5.4496536, 8.933603, 0.13484532, 0.44217062, 10.455565
699677850518135, -0.19860429, 4.2077785, 8.670393, -0.028206125, -0.50050664, 9.626486
699677860156572, -0.34337005, 5.2223353, 8.924032, -0.074739635, 0.28320694, 10.341339
699677869795114, -0.11844472, 4.5894337, 8.69791, 0.09289777, -0.18775368, 9.83294
699677879433656, -0.4127619, 4.7856455, 8.734999, -0.18093014, -0.0038495064, 9.966957
699677889072197, -0.049052864, 5.0883374, 8.717052, 0.20712093, 0.23500109, 10.088731
699677898710739, -0.42951167, 4.341777, 8.616554, -0.24418223, -0.3326161, 9.649366
699677908349281, -0.0849452, 5.395815, 8.833105, 0.20257793, 0.4501381, 10.33935
699677917987718, -0.36011982, 4.0845485, 8.608179, -0.19066465, -0.5642953, 9.51626
699677927626260, -0.19262223, 5.4628143, 8.902496, 0.09352346, 0.49005985, 10.434797
699677937264801, -0.23928227, 4.2017965, 8.519645, -0.053946167, -0.42114854, 9.492966
699677946903343, -0.34337005, 5.255835, 8.677571, -0.0720164, 0.42135572, 10.141953
699677956541781, -0.12801601, 4.5523453, 8.423932, 0.09041935, -0.088358164, 9.575326
699677966180322, -0.41994038, 4.8323054, 8.523234, -0.17733632, 0.13404655, 9.804266
699677975818864, -0.06819545, 5.0165524, 8.519645, 0.18545105, 0.2677455, 9.881736
699677985457406, -0.4103691, 4.3334017, 8.499306, -0.20869228, -0.29017735, 9.542391
699677995095947, -0.047856454, 5.326423, 8.857033, 0.23137026, 0.37946796, 10.325823
699678004734385, -0.33499518, 4.0977087, 8.760123, -0.16217028, -0.62425065, 9.655423
699678014372926, -0.16749759, 5.4388857, 9.062816, 0.116953954, 0.38380146, 10.563294
699678024011468, -0.20817557, 4.135994, 8.705089, -0.023578197, -0.56438684, 9.623372
699678033650010, -0.25722843, 5.3096733, 8.921639, 0.014097504, 0.36173725, 10.378989
699678043288551, -0.07058827, 4.5655055, 8.691928, 0.14732736, -0.1981237, 9.815165
699678052926989, -0.4031906, 4.932804, 8.8187475, -0.15807165, 0.0861454, 10.1110325
699678062565531, -0.07537391, 5.0368915, 8.782856, 0.17664818, 0.17115068, 10.121958
699678072204072, -0.41156548, 4.4721856, 8.695518, -0.20334503, -0.2583878, 9.781294
699678081842614, -0.008374879, 5.3766723, 8.895318, 0.26145217, 0.40696287, 10.382744
699678091481051, -0.30269206, 4.119244, 8.685946, -0.12566753, -0.57219386, 9.600119
699678101119593, -0.15074782, 5.474778, 8.963513, 0.12569463, 0.4758191, 10.492775
699678110758135, -0.27517462, 4.125226, 8.606983, -0.09064272, -0.5226612, 9.5337305
699678120396676, -0.30508488, 5.271388, 8.836694, -0.039118752, 0.37000465, 10.287338
699678130035114, -0.12083755, 4.4374895, 8.575876, 0.08292912, -0.24655437, 9.653181
699678139673656, -0.38883367, 4.898108, 8.682357, -0.15225142, 0.11842537, 9.974405
699678149312197, -0.12323037, 4.9292145, 8.556734, 0.11793856, 0.18694067, 9.873257
699678158950739, -0.49292147, 4.415954, 8.459825, -0.28884906, -0.19389892, 9.54941
699678168589176, -0.09930214, 5.304888, 8.678768, 0.17797263, 0.44323015, 10.160934
699678178227718, -0.38404804, 4.1228333, 8.530413, -0.2086021, -0.49111843, 9.467231
699678187866260, -0.19740787, 5.454439, 8.913264, 0.095481426, 0.47653294, 10.440306
699678197504801, -0.2632105, 4.104887, 8.611769, -0.0881384, -0.54795194, 9.5275345
699678207143239, -0.22612174, 5.3336015, 8.866604, 0.056356445, 0.38815117, 10.342209
699678216781781, -0.050249275, 4.475775, 8.635697, 0.15191257, -0.2581017, 9.722173
699678226420322, -0.3397808, 5.026124, 8.775677, -0.08501461, 0.17736053, 10.116877
699678236058864, -0.020338992, 4.9543395, 8.694321, 0.22341165, 0.12390041, 10.003592
699678245697406, -0.3361916, 4.5451665, 8.6548395, -0.13226655, -0.18251967, 9.778907
699678255335843, 0.013160525, 5.343173, 8.848659, 0.29632825, 0.3783393, 10.325574
699678264974385, -0.3481557, 4.186243, 8.664411, -0.1956043, -0.4994619, 9.6140585
699678274612926, -0.11485548, 5.477171, 8.969496, 0.17772391, 0.45347977, 10.498915
699678284251364, -0.24526432, 4.091727, 8.519645, -0.09041774, -0.5187168, 9.439782
699678293889906, -0.26799613, 5.349155, 8.690732, 0.012002528, 0.484344, 10.197028
699678303528447, -0.18664017, 4.3704906, 8.435896, 0.013202161, -0.25398183, 9.499248
699678313166989, -0.4211368, 4.95075, 8.671589, -0.1791715, 0.15437984, 9.991387
699678322805531, -0.09212367, 4.7784667, 8.62134, 0.14115423, 0.007949352, 9.856458
699678332443968, -0.465404, 4.5044885, 8.592627, -0.25208625, -0.18823385, 9.707795
699678342082510, -0.09451649, 5.2426744, 8.717052, 0.1706708, 0.37361574, 10.164293
699678351721051, -0.40917268, 4.1778684, 8.554341, -0.21613547, -0.45625472, 9.515455
699678361359489, -0.1052842, 5.5477595, 8.877372, 0.17520677, 0.5673294, 10.451981
699678370998031, -0.23808585, 4.135994, 8.538788, -0.057090774, -0.49325585, 9.4777355
699678380636572, -0.17228323, 5.456832, 8.811569, 0.09641284, 0.51543856, 10.352559
699678390275114, -0.06819545, 4.395615, 8.548359, 0.13596097, -0.28404045, 9.60736
699678399913551, -0.30867413, 5.048856, 8.815159, -0.062335536, 0.1730814, 10.161663
699678409552093, -0.04546363, 4.7916274, 8.805588, 0.18214613, -0.06919861, 10.023083
699678419190635, -0.38763726, 4.536792, 8.813962, -0.18009745, -0.26671362, 9.915399
699678428829176, -0.046660043, 5.157729, 8.913264, 0.20869112, 0.20071936, 10.294018
699678438467614, -0.47377887, 4.1491547, 8.713464, -0.29531965, -0.5421033, 9.642786
699678448106156, -0.26799613, 5.4125648, 8.952746, 0.012074426, 0.42168236, 10.456642
699678457744697, -0.46660042, 4.0570307, 8.595019, -0.30697444, -0.5549302, 9.494704
699678467383239, -0.35653058, 5.4113684, 8.82832, -0.053563923, 0.49649906, 10.348907
699678477021676, -0.2213361, 4.331009, 8.538788, -0.025130644, -0.31848478, 9.571597
699678486660218, -0.3924229, 5.1050873, 8.819944, -0.1229569, 0.22797203, 10.19511
699678496298760, -0.12921242, 4.759324, 8.756535, 0.10628109, -0.06308317, 9.966418
699678505937197, -0.39960137, 4.6600223, 8.737391, -0.17302266, -0.11382866, 9.908312
699678515575739, 0.0011964113, 5.1900325, 8.754142, 0.28373197, 0.29432154, 10.168791
699678525214281, -0.3481557, 4.197011, 8.579466, -0.16458082, -0.45517588, 9.545107
699678534852822, -0.09451649, 5.4257255, 8.835498, 0.20252019, 0.46494246, 10.35646
699678544491260, -0.3062813, 4.0701914, 8.469396, -0.12871769, -0.5119002, 9.386816
699678554129801, -0.17347965, 5.383851, 8.693125, 0.123503625, 0.5001011, 10.213768
699678563768343, -0.09810573, 4.269992, 8.408379, 0.10165179, -0.33181286, 9.424587
699678573406885, -0.29072794, 5.160122, 8.678768, -0.008514583, 0.3268509, 10.095814
699678583045322, -0.08255238, 4.770092, 8.611769, 0.15861362, -0.0043349266, 9.843677
699678592683864, -0.40438703, 4.7162533, 8.687142, -0.16826151, -0.059342384, 9.89147
699678602322406, -0.03589234, 5.235496, 8.755338, 0.24842355, 0.3223443, 10.193236
699678611960843, -0.3900301, 4.334598, 8.605786, -0.1955537, -0.35671782, 9.635089
699678621599385, -0.086141616, 5.495117, 8.845069, 0.21341258, 0.51250887, 10.398595
699678631237926, -0.27876383, 4.1001015, 8.514859, -0.09779067, -0.5246706, 9.439626
699678640876468, -0.16151553, 5.413761, 8.830712, 0.13941729, 0.45171547, 10.348571
699678650514906, -0.19501504, 4.2185464, 8.583055, -0.010432079, -0.4693253, 9.5541935
699678660153447, -0.38404804, 5.133801, 8.840283, -0.12207915, 0.22692537, 10.226809
699678669791989, -0.1363909, 4.6468616, 8.688339, 0.087848485, -0.14896727, 9.852374
699678679430426, -0.4881358, 4.698307, 8.743374, -0.2587849, -0.100171566, 9.93388
699678689068968, -0.14117654, 5.139783, 8.71466, 0.1285929, 0.26834297, 10.114052
699678698707510, -0.5132605, 4.325027, 8.565108, -0.31031334, -0.33277225, 9.598091
699678708346051, -0.1698904, 5.4783673, 8.803194, 0.14612654, 0.5204778, 10.355933
699678717984489, -0.38644084, 4.1467614, 8.500503, -0.1916118, -0.47082424, 9.452254
699678727623031, -0.19860429, 5.4891353, 8.8187475, 0.11519852, 0.52597904, 10.375473
699678737261572, -0.13998012, 4.254439, 8.526823, 0.058470562, -0.41860938, 9.520919
699678746900010, -0.22372891, 5.224728, 8.823533, 0.05532427, 0.2894411, 10.252597
699678756538551, 0.0071784677, 4.636094, 8.656036, 0.23638187, -0.15710211, 9.815286
699678766177093, -0.31465617, 4.773681, 8.732606, -0.07684827, -0.044425488, 9.956785
699678775815635, -0.014356935, 5.103891, 8.712267, 0.24871327, 0.22992945, 10.091522
699678785454072, -0.46301118, 4.331009, 8.590233, -0.2568245, -0.35325408, 9.621506
699678795092614, -0.21415763, 5.419743, 8.851051, 0.07342191, 0.44976187, 10.370771
699678804731156, -0.45822555, 4.1288157, 8.589037, -0.27607197, -0.52358174, 9.522514
699678814369697, -0.25722843, 5.4795637, 8.847462, 0.057994872, 0.5041299, 10.397686
699678824008135, -0.2835495, 4.241278, 8.544769, -0.09265435, -0.41199064, 9.53434
699678833646676, -0.34456646, 5.278567, 8.851051, -0.043650776, 0.34726238, 10.305368
699678843285218, -0.06460621, 4.587041, 8.676374, 0.15868926, -0.20629954, 9.811058
699678852923656, -0.32303107, 4.8179483, 8.7577305, -0.07768756, -0.012444496, 10.000431
699678862562197, 0.008374879, 5.0548377, 8.745767, 0.2767397, 0.16409683, 10.096354
699678872200739, -0.39481574, 4.3645086, 8.6345005, -0.19377548, -0.3422935, 9.674953
699678881839281, -0.09571291, 5.3994045, 8.82114, 0.19949475, 0.44582462, 10.331346
699678891477718, -0.3900301, 4.1180477, 8.565108, -0.19428399, -0.523582, 9.495244
699678901116260, -0.20338993, 5.4999027, 8.841479, 0.10090715, 0.5337367, 10.400335
699678910754801, -0.26919255, 4.1982074, 8.499306, -0.06623104, -0.42998648, 9.4734535
699678920393239, -0.35413775, 5.2737813, 8.7673025, -0.073032774, 0.37449455, 10.230259
699678930031781, -0.15433706, 4.520042, 8.569894, 0.07437236, -0.19431567, 9.687847
699678939670322, -0.40079778, 4.8909297, 8.723035, -0.14409916, 0.072677135, 10.007353
699678949308760, -0.043070808, 5.005785, 8.718249, 0.22226632, 0.14286757, 10.049766
699678958947301, -0.41874397, 4.4195433, 8.606983, -0.20656513, -0.28215075, 9.6781
699678968585843, -0.06460621, 5.4017973, 8.768498, 0.2342995, 0.4607849, 10.2860565
699678978224385, -0.3385844, 4.1587257, 8.547162, -0.14524885, -0.48415017, 9.497796
699678987862822, -0.1591227, 5.5250273, 8.879765, 0.13928856, 0.52242947, 10.445533
699678997501364, -0.25124636, 4.1718864, 8.567501, -0.062876895, -0.49598885, 9.519446
699679007139906, -0.3361916, 5.304888, 8.866604, -0.04964176, 0.35230446, 10.331745
699679016778447, -0.18065812, 4.4805603, 8.711071, 0.0357247, -0.2991581, 9.792856
699679026416885, -0.44506502, 4.9052863, 8.880961, -0.19224852, 0.012281418, 10.153536
699679036055426, -0.06819545, 4.9674997, 8.772088, 0.191663, 0.087316036, 10.078983
699679045693968, -0.39361933, 4.4518466, 8.648857, -0.18122599, -0.26806164, 9.729949
699679055332406, -0.07298109, 5.363512, 8.780462, 0.22743079, 0.4255271, 10.277952
699679064970947, -0.37806597, 4.156333, 8.543573, -0.20391577, -0.4730513, 9.494491
699679074609489, -0.13519448, 5.49751, 8.851051, 0.17632735, 0.51400137, 10.40609
699679084248031, -0.22971097, 4.1276193, 8.559127, -0.053808197, -0.53358006, 9.490051
699679093886468, -0.26799613, 5.334798, 8.85823, 0.021864355, 0.3836198, 10.336948
699679103525010, -0.12801601, 4.4350967, 8.623733, 0.078578904, -0.2997942, 9.693254
699679113163551, -0.37806597, 4.9363933, 8.732606, -0.124685615, 0.09970522, 10.037125
699679122801989, -0.06460621, 4.9112687, 8.620144, 0.18732287, 0.10916853, 9.918903
699679132440531, -0.46061835, 4.4889355, 8.539984, -0.24263567, -0.19051528, 9.653956
699679142079072, -0.11964113, 5.3096733, 8.711071, 0.16050574, 0.42034435, 10.192509
699679151717614, -0.40438703, 4.186243, 8.537591, -0.2042824, -0.45511317, 9.504196
699679161356051, -0.14476576, 5.5262237, 8.878569, 0.15386015, 0.5220003, 10.4447565
699679170994593, -0.28235307, 4.130012, 8.572288, -0.09319855, -0.52503276, 9.504551
699679180633135, -0.28115666, 5.365905, 8.915657, 0.0070133656, 0.3775463, 10.402804
699679190271676, -0.18424734, 4.4279184, 8.774481, 0.030917928, -0.3753488, 9.822937
699679199910114, -0.4139583, 5.0129633, 8.933603, -0.15425198, 0.07508135, 10.250902
699679209548656, -0.10887343, 4.8729835, 8.812766, 0.14361478, -0.006207466, 10.069857
699679219187197, -0.46660042, 4.5008993, 8.679964, -0.2353518, -0.24504352, 9.782747
699679228825635, -0.12562318, 5.2809596, 8.809176, 0.16592355, 0.3459339, 10.264439
699679238464176, -0.4833502, 4.156333, 8.585447, -0.2783329, -0.49392176, 9.534004
699679248102718, -0.16749759, 5.5513487, 8.955139, 0.14759609, 0.51684046, 10.523836
699679257741260, -0.25603202, 4.1288157, 8.551949, -0.05209247, -0.5292411, 9.485025
699679267379697, -0.1698904, 5.386244, 8.79482, 0.12836547, 0.44925547, 10.303932
699679277018239, -0.06580263, 4.415954, 8.469396, 0.14851967, -0.25588346, 9.547152
699679286656781, -0.276371, 5.0943193, 8.60459, -0.0050016195, 0.2880726, 9.999222
699679296295218, -0.0047856453, 4.831109, 8.457432, 0.24605027, 0.10819149, 9.736301
699679305933760, -0.36729828, 4.6002016, 8.414361, -0.13546179, -0.042673588, 9.595731
699679315572301, -0.033499517, 5.2642097, 8.678768, 0.25034827, 0.38210487, 10.140285
699679325210843, -0.46660042, 4.197011, 8.657232, -0.26792473, -0.5021899, 9.615419
699679334849281, -0.2644069, 5.440082, 9.078369, 0.025596723, 0.3596568, 10.580698
699679344487822, -0.5024927, 3.9541395, 8.920443, -0.3087405, -0.8391423, 9.729467
699679354126364, -0.5383851, 5.278567, 9.439685, -0.26092, 0.067371845, 10.825348
699679363764906, -0.5599205, 4.150351, 9.183653, -0.3598439, -0.7724726, 10.057446
699679373403343, -0.76570326, 4.912465, 9.2793665, -0.4925769, -0.14369631, 10.514845
699679383041885, -0.15314065, 4.800002, 9.09153, 0.12160136, -0.20203018, 10.279289
699679392680426, -0.2117648, 4.82752, 8.656036, 0.07896468, 0.02560997, 9.913115
699679402318968, 0.22013968, 5.4484572, 8.409575, 0.5616141, 0.6369004, 9.986694
699679411957406, -0.17587246, 4.551149, 7.8987074, 0.08306138, 0.10088992, 9.116819
699679421595947, 0.05623133, 5.7403817, 8.27797, 0.41213593, 0.9276452, 10.022452
699679431234489, -0.124426775, 4.2951164, 8.070991, 0.097076744, -0.23250294, 9.140073
699679440873031, -0.04426722, 5.582455, 8.487342, 0.29369462, 0.6725378, 10.132235
699679450511468, -0.06580263, 4.3908296, 8.285149, 0.1649085, -0.2519703, 9.372124
699679460150010, -0.3074777, 5.156533, 8.4682, -0.017913453, 0.33659172, 9.913686
699679469788551, -0.078963146, 4.703093, 8.293523, 0.17597127, 0.017755508, 9.53292
699679479426989, -0.39481574, 4.6672006, 8.325827, -0.14221048, -0.0064430237, 9.5518465
699679489065531, -0.058624156, 5.178068, 8.453842, 0.22351092, 0.36534405, 9.904535
699679498704072, -0.45104706, 4.2628136, 8.334201, -0.23438984, -0.34373474, 9.362738
699679508342614, -0.16630118, 5.4520464, 8.740981, 0.122994564, 0.47366428, 10.291634
699679517981156, -0.37447673, 4.112066, 8.606983, -0.17754, -0.59774256, 9.52579
699679527619593, -0.34576288, 5.416154, 9.008977, -0.061205097, 0.33787823, 10.511806
699679537258135, -0.29910284, 4.2364926, 8.750552, -0.09560086, -0.54812884, 9.710814
699679546896676, -0.42831525, 5.160122, 9.022138, -0.15472232, 0.14648294, 10.400188
699679556535114, -0.17347965, 4.682754, 8.908479, 0.06569172, -0.2318902, 10.062861
699679566173656, -0.4881358, 4.7569313, 8.938389, -0.24582808, -0.14940453, 10.13305
699679575812197, -0.08733802, 5.1852465, 8.979067, 0.18826936, 0.17162418, 10.36596
699679585450739, -0.46779683, 4.3034916, 8.763713, -0.25958297, -0.460526, 9.760229
699679595089281, -0.17108682, 5.4927244, 9.041281, 0.12527972, 0.41951084, 10.5713005
699679604727718, -0.36370903, 4.1635113, 8.738588, -0.17484222, -0.5649283, 9.668522
699679614366260, -0.20937198, 5.4759746, 9.008977, 0.08339137, 0.42925692, 10.535681
699679624004801, -0.23688944, 4.219743, 8.744571, -0.0421734, -0.52486134, 9.698072
699679633643343, -0.41515473, 5.1756754, 8.976674, -0.1347675, 0.21474409, 10.367081
699679643281781, -0.124426775, 4.575077, 8.699107, 0.106113166, -0.20881224, 9.826822
699679652920322, -0.39601216, 4.7210393, 8.602198, -0.15021734, -0.008405685, 9.81938
699679662558864, -0.0035892338, 5.072784, 8.562716, 0.27260202, 0.27966547, 9.944884
699679672197406, -0.39720857, 4.3274198, 8.440681, -0.18660697, -0.28287792, 9.487603
699679681835843, -0.09930214, 5.444868, 8.733803, 0.18793498, 0.5334153, 10.276962
699679691474385, -0.33260235, 4.1288157, 8.480164, -0.13980994, -0.4756117, 9.424711
699679701112926, -0.16630118, 5.505885, 8.792427, 0.13740006, 0.5495181, 10.359939
699679710751468, -0.21655045, 4.220939, 8.496913, -0.0100444555, -0.41315246, 9.481031
699679720389906, -0.3278167, 5.2606206, 8.805588, -0.055717647, 0.3438697, 10.256637
699679730028447, -0.09810573, 4.587041, 8.720642, 0.12695226, -0.21318293, 9.850819
699679739666989, -0.38404804, 4.8323054, 8.82832, -0.14290471, -0.031895638, 10.070575
699679749305531, -0.043070808, 5.078766, 8.834301, 0.2139431, 0.15943289, 10.186727
699679758944072, -0.43908295, 4.3609195, 8.693125, -0.23385128, -0.36678505, 9.725822
699679768582510, -0.11365908, 5.3814583, 8.919247, 0.17939249, 0.3789029, 10.409143
699679778221051, -0.43070808, 4.0881376, 8.681161, -0.26255935, -0.59732175, 9.583069
699679787859593, -0.26679972, 5.4592247, 8.987442, 0.032938957, 0.4301443, 10.510105
699679797498135, -0.29790643, 4.1515474, 8.648857, -0.11741863, -0.5312598, 9.582838
699679807136572, -0.31465617, 5.2462635, 8.840283, -0.02831906, 0.33023882, 10.279253
699679816775114, -0.09332009, 4.554738, 8.595019, 0.12922141, -0.17310524, 9.725331
699679826413656, -0.35533416, 4.9160542, 8.675179, -0.10322167, 0.118302345, 9.976368
699679836052197, -0.010767702, 5.078766, 8.611769, 0.2501931, 0.2618804, 9.991264
699679845690739, -0.3696911, 4.4745784, 8.489735, -0.15086356, -0.18025136, 9.600983
699679855329176, -0.04546363, 5.436493, 8.733803, 0.23776811, 0.5169172, 10.271957
699679864967718, -0.35294133, 4.126423, 8.534002, -0.1640324, -0.5065963, 9.4708805
699679874606260, -0.14476576, 5.4640107, 8.827123, 0.142011, 0.5021272, 10.369289
699679884244801, -0.20817557, 4.113262, 8.4909315, -0.018686391, -0.5076003, 9.423386
699679893883343, -0.3182454, 5.2462635, 8.79123, -0.053988338, 0.33440733, 10.236968
699679903521781, -0.17706887, 4.4518466, 8.6345005, 0.029645652, -0.28360343, 9.712034
699679913160322, -0.4426722, 4.8658047, 8.780462, -0.20137827, 0.029082775, 10.04625
699679922798864, -0.12562318, 4.965107, 8.745767, 0.12367633, 0.10495758, 10.056352
699679932437406, -0.46779683, 4.486542, 8.626125, -0.2529581, -0.22781277, 9.7284155
699679942075947, -0.10289137, 5.4460645, 8.815159, 0.18938841, 0.49153423, 10.348903
699679951714385, -0.4019942, 4.2352962, 8.583055, -0.20299506, -0.42786765, 9.567858
699679961352926, -0.19262223, 5.5226345, 8.892925, 0.10212289, 0.5277252, 10.456184
699679970991468, -0.20817557, 4.139583, 8.601001, -0.0157879, -0.53588533, 9.532537
699679980630010, -0.19860429, 5.355137, 8.938389, 0.084526226, 0.36211014, 10.41506
699679990268551, -0.10767702, 4.4243293, 8.733803, 0.10953915, -0.36120605, 9.783821
699679999906989, -0.3792624, 4.9052863, 8.831908, -0.13027908, 0.035212994, 10.10891
699680009545531, -0.034695927, 4.901697, 8.719446, 0.21484688, 0.058565617, 10.000349
699680019184072, -0.39840496, 4.465007, 8.602198, -0.18433274, -0.23895645, 9.695449
699680028822614, -0.016749758, 5.3587265, 8.7577305, 0.26877323, 0.43231583, 10.254509
699680038461156, -0.36131623, 4.240082, 8.577073, -0.17124134, -0.42090988, 9.563918
699680048099593, -0.18305093, 5.569295, 8.895318, 0.11207244, 0.55775833, 10.481105
699680057738135, -0.31226337, 4.1635113, 8.578269, -0.12811856, -0.504925, 9.526156
699680067376676, -0.28594232, 5.3910294, 8.833105, 0.004652947, 0.4457841, 10.342627
699680077015218, -0.17706887, 4.429115, 8.568698, 0.03777288, -0.2729776, 9.6433935
699680086653760, -0.43908295, 4.9567323, 8.694321, -0.18347359, 0.13658047, 10.015034
699680096292301, -0.14476576, 4.8263235, 8.585447, 0.10362596, 0.058706284, 9.84937
699680105930739, -0.45942193, 4.4721856, 8.537591, -0.23225948, -0.20707345, 9.643919
699680115569281, -0.047856454, 5.227121, 8.695518, 0.22951788, 0.35138178, 10.13711
699680125207822, -0.34576288, 4.141976, 8.541181, -0.14797537, -0.5057478, 9.484177
699680134846364, -0.11485548, 5.4963136, 8.87139, 0.1728997, 0.5111928, 10.422715
699680144484906, -0.25004998, 4.135994, 8.538788, -0.04180757, -0.50836945, 9.477324
699680154123447, -0.22253251, 5.424529, 8.823533, 0.06228189, 0.4694891, 10.349177
699680163761885, -0.14476576, 4.426722, 8.581859, 0.07437909, -0.27954674, 9.653054
699680173400426, -0.38883367, 5.0823555, 8.800801, -0.12940973, 0.20103216, 10.1675205
699680183038968, -0.11724831, 4.875376, 8.736196, 0.13445556, 0.036603928, 10.004235
699680192677510, -0.4761717, 4.5798626, 8.709874, -0.24197915, -0.18817043, 9.847325
699680202316051, -0.07298109, 5.2689953, 8.894122, 0.20583168, 0.30694532, 10.331336
699680211954593, -0.38285163, 4.186243, 8.756535, -0.18044291, -0.5553591, 9.695726
699680221593031, -0.14596218, 5.487939, 9.116654, 0.14757517, 0.40044975, 10.633438
699680231231572, -0.3493521, 4.1072803, 8.799605, -0.1569493, -0.63633466, 9.695116
699680240870114, -0.276371, 5.40419, 9.02812, 0.014886767, 0.37169027, 10.519043
699680250508656, -0.18065812, 4.3537407, 8.682357, 0.027676225, -0.37669134, 9.7071295
699680260147197, -0.39481574, 5.1050873, 8.800801, -0.120695025, 0.23454237, 10.178524
699680269785739, -0.09332009, 4.8119664, 8.640483, 0.15572678, 0.027089596, 9.889221
699680279424281, -0.43908295, 4.615755, 8.603394, -0.20653524, -0.09969044, 9.770556
699680289062718, -0.078963146, 5.2402816, 8.705089, 0.20606717, 0.36205244, 10.152428
699680298701260, -0.4211368, 4.2484565, 8.513663, -0.2101168, -0.3815508, 9.5141735
699680308339801, -0.12801601, 5.4687963, 8.774481, 0.1744696, 0.5333462, 10.324762
699680317978343, -0.30388847, 4.112066, 8.447861, -0.09829704, -0.4789574, 9.387691
699680327616885, -0.19142582, 5.460421, 8.736196, 0.09788572, 0.55034685, 10.288902
699680337255426, -0.10887343, 4.3058844, 8.4682, 0.10161364, -0.33402658, 9.494261
699680346893864, -0.2955136, 5.1206403, 8.754142, -0.031508595, 0.24311876, 10.143136
699680356532406, -0.078963146, 4.738985, 8.733803, 0.15533607, -0.08956623, 9.93536
699680366170947, -0.4211368, 4.6372905, 8.748159, -0.19516833, -0.15878677, 9.907008
699680375809489, -0.040677983, 5.197211, 8.79482, 0.23602527, 0.2705655, 10.209436
699680385448031, -0.4139583, 4.258028, 8.569894, -0.21359242, -0.40063596, 9.567608
699680395086572, -0.13878371, 5.473582, 8.796016, 0.1684649, 0.52269554, 10.346383
699680404725114, -0.34576288, 4.1575294, 8.458628, -0.15354261, -0.4400866, 9.419965
699680414363656, -0.22253251, 5.218746, 8.720642, 0.048785143, 0.3470168, 10.159312
699680424002093, -0.30029923, 4.7688956, 8.645268, -0.059248798, -0.0038933754, 9.877737
699680433640635, -0.276371, 4.90409, 8.79482, -0.028764203, 0.036550045, 10.073389
699680443279176, -0.23449662, 4.7808595, 8.866604, 0.0035336167, -0.104540825, 10.0755825
699680452917718, -0.18424734, 4.800002, 8.88814, 0.05427321, -0.10162735, 10.102463
699680462556260, -0.19381863, 4.7976093, 8.861818, 0.042021573, -0.087940216, 10.078539
699680472194801, -0.20937198, 4.8095737, 8.792427, 0.02543655, -0.041330814, 10.023985
699680481833343, -0.20458634, 4.8191447, 8.73141, 0.02765888, -0.0039482117, 9.975106
699680491471885, -0.22013968, 4.8251266, 8.675179, 0.012814924, 0.028853416, 9.929152
699680501110426, -0.2416751, 4.847859, 8.609376, -0.0038045645, 0.08229494, 9.883052
699680510748864, -0.22253251, 4.837091, 8.575876, 0.01479961, 0.084531784, 9.84811
699680520387406, -0.23928227, 4.8035913, 8.60459, -0.0057579726, 0.04308462, 9.857426
699680530025947, -0.24526432, 4.79402, 8.63809, -0.01289472, 0.018195152, 9.882253
699680539664489, -0.27158538, 4.7832522, 8.668, -0.04099886, -0.0033025742, 9.903828
699680549303031, -0.25004998, 4.7832522, 8.687142, -0.018793836, -0.012286186, 9.920078
699680558941572, -0.23090738, 4.773681, 8.76132, -0.0022886842, -0.05652094, 9.979923
699680568580114, -0.25603202, 4.772485, 8.800801, -0.028603584, -0.07182789, 10.014505
699680578218656, -0.23330021, 4.7832522, 8.811569, -0.0046868026, -0.06862879, 10.028606
699680587857197, -0.2321038, 4.790431, 8.751749, -0.0014198422, -0.033623695, 9.979685
699680597495739, -0.25962126, 4.796413, 8.725428, -0.027043343, -0.012304306, 9.96018
699680607134176, -0.2727818, 4.8263235, 8.723035, -0.03697574, 0.015859127, 9.972838
699680616772718, -0.2739782, 4.846662, 8.723035, -0.03499478, 0.034282207, 9.982693
699680626411260, -0.2656033, 4.8502517, 8.744571, -0.026678517, 0.026563168, 10.003078
699680636049801, -0.25124636, 4.8502517, 8.779266, -0.013269961, 0.009523392, 10.033112
699680645688343, -0.22731815, 4.833502, 8.800801, 0.0076851696, -0.016809464, 10.043316
699680655326885, -0.19980069, 4.796413, 8.804391, 0.031723544, -0.053311348, 10.027908
699680664965426, -0.20817557, 4.8119664, 8.805588, 0.022066548, -0.0372777, 10.036676
699680674603968, -0.2428715, 4.8191447, 8.805588, -0.012552053, -0.02747202, 10.040947
699680684242510, -0.29312077, 4.7892346, 8.79123, -0.06487392, -0.04232502, 10.01511
699680693881051, -0.29671, 4.7569313, 8.769695, -0.0710679, -0.059560776, 9.980751
699680703519489, -0.2739782, 4.7748775, 8.745767, -0.044265583, -0.035748005, 9.967936
699680713158031, -0.22971097, 4.8083773, 8.705089, 0.0056014955, 0.008243561, 9.947449
699680722796572, -0.2213361, 4.8263235, 8.65125, 0.016558453, 0.045761585, 9.908791
699680732435114, -0.18305093, 4.8526444, 8.6141615, 0.05828692, 0.082829475, 9.888133
699680742073656, -0.15553348, 4.8454657, 8.589037, 0.0811449, 0.08096647, 9.862106
699680751712197, -0.16271193, 4.8382874, 8.583055, 0.073467985, 0.07832098, 9.853567
699680761350739, -0.22253251, 4.8047876, 8.602198, 0.006634414, 0.04387331, 9.855524
699680770989281, -0.26679972, 4.786842, 8.652447, -0.040480763, 0.008801937, 9.891825
699680780627822, -0.29312077, 4.7485566, 8.734999, -0.07083754, -0.06143236, 9.946161
699680790266364, -0.31465617, 4.7365923, 8.750552, -0.09180921, -0.0754199, 9.954515
699680799904906, -0.276371, 4.752146, 8.730213, -0.05158046, -0.05587864, 9.943345
699680809543447, -0.2440679, 4.8011985, 8.653643, -0.008430406, 0.02098322, 9.899299
699680819181989, -0.22612174, 4.82752, 8.615358, 0.012704626, 0.060748577, 9.878089
699680828820531, -0.23330021, 4.843073, 8.633304, 0.006793946, 0.06514835, 9.901487
699680838459072, -0.2428715, 4.8598228, 8.669196, -0.002944231, 0.062080383, 9.941226
699680848097614, -0.23449662, 4.8586264, 8.678768, 0.00453344, 0.0558033, 9.948827
699680857736051, -0.24047868, 4.8454657, 8.720642, -0.0045824796, 0.025597095, 9.979242
699680867374593, -0.25124636, 4.822734, 8.768498, -0.018822938, -0.014912128, 10.010389
699680877013135, -0.19142582, 4.8011985, 8.813962, 0.03735307, -0.061434746, 10.038372
699680886651676, -0.19262223, 4.790431, 8.877372, 0.0345176, -0.09959221, 10.088703
699680896290218, -0.17826529, 4.776074, 8.82832, 0.04956384, -0.08800173, 10.038511
699680905928760, -0.2009971, 4.813163, 8.76132, 0.03224875, -0.020878315, 9.998308
699680915567301, -0.23090738, 4.8287163, 8.694321, 0.004750654, 0.027050495, 9.947878
699680925205843, -0.2416751, 4.82752, 8.642876, -0.0059400722, 0.04823494, 9.90254
699680934844385, -0.23569304, 4.8382874, 8.639286, 2.9033422E-4, 0.057356358, 9.904472
699680944482926, -0.22013968, 4.8251266, 8.645268, 0.01393114, 0.04077339, 9.902985
699680954121468, -0.22253251, 4.8263235, 8.711071, 0.008932576, 0.009963989, 9.961201
699680963760010, -0.22851457, 4.8059845, 8.739784, -3.5777688E-5, -0.021060467, 9.976627
699680973398551, -0.20937198, 4.8011985, 8.720642, 0.019320875, -0.017503262, 9.957119
699680983037093, -0.20817557, 4.833502, 8.668, 0.025032297, 0.035377502, 9.926653
699680992675635, -0.25603202, 4.822734, 8.623733, -0.022612348, 0.05154085, 9.883821
699681002314176, -0.3074777, 4.7988057, 8.656036, -0.0734963, 0.017860413, 9.901732
699681011952718, -0.32422748, 4.8155556, 8.676374, -0.08920592, 0.023927689, 9.928022
699681021591260, -0.2656033, 4.8059845, 8.736196, -0.030121192, -0.016942978, 9.974365
699681031229801, -0.22372891, 4.796413, 8.768498, 0.010885209, -0.04357338, 9.997009
699681040868343, -0.26081768, 4.82752, 8.801998, -0.026457667, -0.025878906, 10.04225
699681050506885, -0.25124636, 4.82752, 8.797213, -0.016751796, -0.02444315, 10.037837
699681060145426, -0.19501504, 4.8287163, 8.772088, 0.039323077, -0.01483345, 10.015104
699681069783864, -0.17706887, 4.807181, 8.773284, 0.0544955, -0.035577774, 10.005331
699681079422510, -0.22971097, 4.8418765, 8.738588, 0.004974976, 0.015352726, 9.992956
699681089060947, -0.24047868, 4.820341, 8.732606, -0.0066934675, -8.401871E-4, 9.97757
699681098699489, -0.22492532, 4.8263235, 8.732606, 0.009269774, 0.0032081604, 9.980095
699681108338031, -0.19980069, 4.8526444, 8.73141, 0.03640344, 0.024034977, 9.991182
699681117976572, -0.20817557, 4.847859, 8.738588, 0.027598947, 0.017006874, 9.995347
699681127615114, -0.2416751, 4.837091, 8.745767, -0.008094445, 0.0055761337, 9.997208
699681137253656, -0.25722843, 4.814359, 8.706285, -0.027025372, 0.0056939125, 9.952027
699681146892197, -0.23090738, 4.816752, 8.720642, -0.0010526478, -0.0019555092, 9.965141
699681156530739, -0.26081768, 4.8035913, 8.720642, -0.03267175, -0.0098695755, 9.959466
699681166169281, -0.28953153, 4.7988057, 8.740981, -0.06309208, -0.019826412, 9.975609
699681175807822, -0.2656033, 4.7976093, 8.758927, -0.039696425, -0.031686783, 9.990189
699681185446364, -0.2440679, 4.807181, 8.721839, -0.016097963, -0.007774353, 9.961864
699681195084906, -0.19860429, 4.8191447, 8.683554, 0.031091541, 0.01563406, 9.933101
699681204723447, -0.18664017, 4.8119664, 8.689535, 0.041928828, 0.006345749, 9.93459
699681214361989, -0.22253251, 4.816752, 8.694321, 0.0058046207, 0.00931406, 9.941917
699681224000531, -0.2632105, 4.792824, 8.678768, -0.03628315, -0.0011663437, 9.917667
699681233639072, -0.27517462, 4.792824, 8.671589, -0.045671083, 0.0012011528, 9.911673
699681243277614, -0.24526432, 4.784449, 8.678768, -0.015531734, -0.012009621, 9.91321
699681252916156, -0.25842485, 4.816752, 8.703893, -0.026688233, 0.0051374435, 9.951124
699681262554697, -0.25962126, 4.822734, 8.687142, -0.027276903, 0.018446445, 9.939393
699681272193239, -0.2213361, 4.8287163, 8.695518, 0.010741174, 0.01542902, 9.948727
699681281831781, -0.17587246, 4.8394837, 8.666803, 0.056940407, 0.034502983, 9.927769
699681291470322, -0.17587246, 4.8502517, 8.629715, 0.058422238, 0.06184721, 9.900536
699681301108864, -0.17467605, 4.8358946, 8.645268, 0.05792971, 0.040897846, 9.907169
699681310747406, -0.19621146, 4.831109, 8.662018, 0.035991535, 0.029798508, 9.920004
699681320385947, -0.2213361, 4.8251266, 8.677571, 0.011323214, 0.019551754, 9.931292
699681330024489, -0.24646074, 4.8119664, 8.708678, -0.014873564, -0.0040512085, 9.952718
699681339663031, -0.24885355, 4.773681, 8.760123, -0.020337671, -0.06232834, 9.979249
699681349301572, -0.2739782, 4.7653065, 8.848659, -0.04604715, -0.10954332, 10.05325
699681358940114, -0.29312077, 4.776074, 8.9013, -0.06672022, -0.12090826, 10.104992
699681368578656, -0.2656033, 4.7916274, 8.8701935, -0.03599839, -0.092182636, 10.084681
699681378217197, -0.22492532, 4.831109, 8.784052, 0.010851279, -0.019261837, 10.027426
699681387855739, -0.2644069, 4.846662, 8.685946, -0.025377348, 0.04494381, 9.950027