timestamp_acc,device_acc_x,device_acc_y,device_acc_z,earth_acc_x,earth_acc_y,earth_acc_z
97905439265341, -2.0733807, 5.528617, 8.045866, -0.02585569, -0.03182316, 9.9799185
97905448904924, -2.0638096, 5.5190454, 8.013563, -0.019224107, -0.023866177, 9.946628
97905458544612, -2.0733807, 5.51426, 8.013563, -0.029901564, -0.023713589, 9.945938
97905468184299, -2.0685952, 5.477171, 7.9800634, -0.037350774, -0.032016277, 9.897347
97905477823883, -2.0841484, 5.4783673, 7.914261, -0.040361255, 0.013440609, 9.848346
97905487463570, -2.0494525, 5.4927244, 7.874779, -7.8976154E-4, 0.034054756, 9.817396
97905497103258, -2.0374885, 5.535795, 7.838887, 0.032373875, 0.080020905, 9.81005
97905506742841, -2.0195422, 5.548956, 7.844869, 0.052904874, 0.077487946, 9.818484
97905516382528, -2.0410776, 5.538188, 7.856833, 0.028168172, 0.07063675, 9.826574
97905526022216, -2.024328, 5.5298133, 7.88794, 0.036267728, 0.03831482, 9.843452
97905535661799, -2.0458634, 5.521438, 7.90469, 0.010622799, 0.029438972, 9.856724
97905545301487, -2.0614166, 5.505885, 7.940582, -0.014669657, 0.0030822754, 9.880123
97905554941174, -2.0697916, 5.485546, 7.952546, -0.03174305, -0.0145196915, 9.880133
97905564580758, -2.065006, 5.49751, 7.9704924, -0.023394525, -0.017077446, 9.900243
97905574220445, -2.0745773, 5.505885, 7.999206, -0.030360222, -0.02438116, 9.9299755
97905583860133, -2.0614166, 5.5106707, 8.017152, -0.018476427, -0.0346632, 9.944349
97905593499716, -2.0602202, 5.5429735, 8.043473, -0.00618428, -0.027311325, 9.9832735
97905603139403, -2.044667, 5.54417, 8.038688, 0.008892238, -0.029733658, 9.976875
97905612779091, -2.0745773, 5.552545, 8.065009, -0.017509818, -0.027750969, 10.008894
97905622418674, -2.0638096, 5.548956, 8.080562, -0.012479126, -0.04449272, 10.017164
97905632058362, -2.0350957, 5.5657053, 8.033902, 0.023649156, -0.016133785, 9.983058
97905641698049, -2.0207388, 5.5716877, 7.9944205, 0.041080177, 0.004211426, 9.95169
97905651337633, -2.012364, 5.5573306, 7.972885, 0.04386455, 0.0020718575, 9.924641
97905660977320, -2.032703, 5.532206, 7.96451, 0.015643895, -0.0038995743, 9.908095
97905670617008, -2.0350957, 5.5046883, 7.9633136, 0.0026835501, -0.023259163, 9.892271
97905680256591, -2.032703, 5.5226345, 7.932207, 0.014295757, 0.007003784, 9.876793
97905689896278, -2.0219352, 5.5501523, 7.891529, 0.038126826, 0.04312849, 9.857248
97905699535966, -2.0063818, 5.558527, 7.873583, 0.0572232, 0.053465843, 9.844286
97905709175549, -2.003989, 5.554938, 7.8699937, 0.05665517, 0.049654007, 9.838925
97905718815237, -2.015953, 5.5633125, 7.877172, 0.046805054, 0.052399635, 9.851873
97905728454924, -2.0291135, 5.552545, 7.8723865, 0.031121492, 0.0515337, 9.84474
97905738094508, -2.0554347, 5.5465627, 7.834101, 0.009279132, 0.07932234, 9.816106
97905747734195, -2.0781665, 5.51426, 7.8604226, -0.026853085, 0.04954338, 9.823895
97905757373883, -2.12363, 5.5046883, 7.8987074, -0.07304394, 0.03691864, 9.858717
97905767013466, -2.132005, 5.4592247, 7.938189, -0.10035312, -0.015901566, 9.866766
97905776653153, -2.1248264, 5.4616175, 7.9573317, -0.0940806, -0.028038025, 9.881987
97905786292841, -2.120041, 5.473582, 7.9633136, -0.08503014, -0.025062561, 9.892481
97905795932424, -2.1332014, 5.4819565, 7.945368, -0.092317164, -0.0035381317, 9.885481
97905805572112, -2.1068804, 5.474778, 7.9369926, -0.06991267, -0.013328552, 9.869293
97905815211799, -2.0673988, 5.508278, 7.9513497, -0.019271433, -0.012262344, 9.891345
97905824851383, -2.0602202, 5.5166526, 7.966903, -0.008716106, -0.017493248, 9.907025
97905834491070, -2.0841484, 5.511867, 7.993224, -0.03275749, -0.026813507, 9.9304695
97905844130758, -2.0733807, 5.5310097, 7.9716887, -0.012742937, -0.0038967133, 9.921626
97905853770341, -2.0350957, 5.581259, 7.958528, 0.043613702, 0.026040077, 9.931145
97905863410028, -2.0051854, 5.599205, 7.982456, 0.07408926, 0.01314497, 9.954186
97905873049716, -1.995614, 5.613562, 7.9836526, 0.086194426, 0.017723083, 9.961201
97905882689403, -1.975275, 5.6099725, 7.9633136, 0.10418686, 0.020256996, 9.9386425
97905892328987, -1.9992033, 5.582455, 7.9298143, 0.06966406, 0.027243137, 9.901363
97905901968674, -2.003989, 5.5800624, 7.9166536, 0.06510332, 0.034755707, 9.890452
97905911608362, -2.03031, 5.5465627, 7.91785, 0.027500719, 0.019142628, 9.878145
97905921247945, -2.0554347, 5.528617, 7.899904, -9.67592E-4, 0.02550459, 9.858917
97905930887633, -2.0638096, 5.521438, 7.879565, -0.010310888, 0.035600662, 9.840313
97905940527320, -2.0614166, 5.51426, 7.8699937, -0.011401355, 0.033676624, 9.828125
97905950166903, -2.0590239, 5.538188, 7.85444, 0.0010641217, 0.05840206, 9.828526
97905959806591, -2.0458634, 5.521438, 7.8723865, 0.003582716, 0.0302639, 9.830837
97905969446278, -2.0685952, 5.511867, 7.911868, -0.023658633, 0.008790493, 9.861885
97905979085862, -2.0805593, 5.511867, 7.9633136, -0.038918972, -0.016342163, 9.905656
97905988725549, -2.1068804, 5.4759746, 7.9920278, -0.079239786, -0.047852993, 9.914091
97905998365237, -2.0949163, 5.491528, 8.005188, -0.062402576, -0.049446106, 9.930874
97906008004820, -2.070988, 5.5106707, 7.975278, -0.029501557, -0.025415897, 9.91262
97906017644508, -2.07697, 5.5513487, 7.958528, -0.015208006, 0.01659441, 9.923152
97906027284195, -2.097309, 5.5274205, 7.972885, -0.04422, -0.0011143684, 9.925525
97906036923778, -2.1080768, 5.5070815, 7.9800634, -0.0628005, -0.016301155, 9.922154
97906046563466, -2.0901306, 5.501099, 7.962117, -0.047371447, -0.017287731, 9.9006815
97906056203153, -2.0554347, 5.528617, 7.954939, -0.0032675862, -0.006251812, 9.903102
97906065842737, -2.0195422, 5.5513487, 7.938189, 0.04019603, 0.006231308, 9.894909
97906075482424, -2.0207388, 5.568098, 7.9357963, 0.045285285, 0.018927574, 9.902605
97906085122112, -2.0207388, 5.5740805, 7.945368, 0.047257096, 0.017441273, 9.913633
97906094761695, -2.0195422, 5.575277, 7.91785, 0.049911797, 0.033399105, 9.891966
97906104401383, -2.0279171, 5.569295, 7.881958, 0.041113496, 0.05167818, 9.861561
97906114041070, -2.0063818, 5.578866, 7.87119, 0.06484538, 0.05577278, 9.853813
97906123680653, -2.0087745, 5.5716877, 7.8891363, 0.057966888, 0.039702892, 9.864706
97906133320341, -2.0171494, 5.5393844, 7.865208, 0.037854612, 0.033319473, 9.829172
97906142960028, -2.0518453, 5.5369916, 7.85444, 0.0058626533, 0.051128864, 9.826389
97906152599612, -2.0458634, 5.5250273, 7.8699937, 0.0053105056, 0.030676365, 9.830936
97906162239299, -2.0458634, 5.515456, 7.884351, 6.4879656E-4, 0.015260696, 9.837102
97906171878987, -2.065006, 5.5106707, 7.921439, -0.021050006, -0.0030021667, 9.868156
97906181518570, -2.056631, 5.5250273, 7.9597244, -0.01026696, -0.01677847, 9.905174
97906191158258, -2.0937197, 5.5202417, 7.993224, -0.0479092, -0.026072025, 9.937071
97906200797945, -2.0961127, 5.521438, 8.006385, -0.049302876, -0.029726505, 9.9488125
97906210437528, -2.091327, 5.508278, 7.9800634, -0.047455728, -0.024999619, 9.919338
97906220077216, -2.0793629, 5.4999027, 7.966903, -0.039405346, -0.027711391, 9.901609
97906229716903, -2.0817556, 5.5250273, 7.948957, -0.028385878, 0.0018434525, 9.901752
97906239356487, -2.0697916, 5.517849, 7.9573317, -0.020030558, -0.012580872, 9.901983
97906248996174, -2.0638096, 5.511867, 7.9633136, -0.017526746, -0.022405624, 9.902199
97906258635758, -2.0338993, 5.538188, 7.958528, 0.021096826, -0.012565613, 9.906858
97906268275445, -2.032703, 5.556134, 7.9429746, 0.031121314, 0.009239674, 9.904155
97906277915133, -2.0207388, 5.5872407, 7.9513497, 0.05416289, 0.022353172, 9.925784
97906287554716, -2.0027926, 5.595616, 7.9393854, 0.07444602, 0.028396606, 9.917137
97906297194403, -1.98365, 5.6147585, 7.9022965, 0.10125166, 0.054270267, 9.894114
97906306834091, -1.9669002, 5.6147585, 7.8664045, 0.117037475, 0.068318844, 9.861854
97906316473674, -2.0135603, 5.5908303, 7.865208, 0.06352693, 0.06863308, 9.85721
97906326113362, -2.0195422, 5.534599, 7.885547, 0.032137096, 0.018469334, 9.843313
97906335753049, -2.0434706, 5.5334024, 7.928618, 0.007153094, 0.0012965202, 9.882169
97906345392633, -2.0877378, 5.48076, 7.9238324, -0.053727925, -0.016005516, 9.858062
97906355032320, -2.1044874, 5.4676, 7.9094753, -0.07203299, -0.010107517, 9.842663
97906364672008, -2.1104696, 5.4903316, 7.91785, -0.06820333, 0.004108906, 9.863341
97906374311591, -2.111666, 5.505885, 7.9357963, -0.06245631, 0.004327774, 9.886701
97906383951278, -2.1092732, 5.4999027, 7.921439, -0.060770452, 0.008636475, 9.871342
97906393590966, -2.0817556, 5.5046883, 7.9310107, -0.0340876, -0.0050706863, 9.875984
97906403230549, -2.091327, 5.508278, 7.9477606, -0.041836977, -0.0086894035, 9.893425
97906412870237, -2.085345, 5.5070815, 7.9657063, -0.037725747, -0.022301674, 9.905915
97906422509924, -2.103291, 5.5106707, 7.98126, -0.053474426, -0.021902561, 9.924137
97906432149508, -2.0961127, 5.5022955, 7.969296, -0.04844892, -0.02232027, 9.90837
97906441789195, -2.0865414, 5.5106707, 7.9561353, -0.035300612, -0.012372494, 9.900497
97906451428778, -2.062613, 5.535795, 7.9716887, -0.0021157265, -0.011931896, 9.92205
97906461068466, -2.0398812, 5.5453663, 7.940582, 0.024944603, 0.004659176, 9.897697
97906470708153, -2.036292, 5.5453663, 7.9393854, 0.028041601, 0.0032954216, 9.895989
97906480347737, -1.9920249, 5.820541, 8.001599, 0.18147528, 0.14532089, 10.090509
97906489987424, -2.1068804, 5.003392, 7.6666036, -0.25020644, -0.19429636, 9.388788
97906499627112, -1.995614, 6.1639113, 8.0817585, 0.3136832, 0.34844446, 10.347527
97906509266695, -1.9800607, 4.9986067, 7.600801, -0.12827057, -0.20948887, 9.30691
97906518906383, -2.1260228, 5.986842, 8.111669, 0.117869675, 0.24807596, 10.299806
97906528545966, -1.9094725, 5.3682976, 7.795816, 0.07516077, -0.08749008, 9.655369
97906538185653, -2.2277179, 5.511867, 7.9034934, -0.16172972, 0.064319134, 9.888291
97906547825341, -1.8305093, 5.8097734, 7.895118, 0.32494006, 0.13610125, 9.965592
97906557464924, -2.1762722, 5.1218367, 7.7671022, -0.2703267, -0.150424, 9.549951
97906567104612, -1.875973, 6.175875, 8.2145605, 0.4180829, 0.22771263, 10.436144
97906576744299, -2.1978076, 4.8215375, 7.756335, -0.4150696, -0.3499751, 9.377823
97906586383883, -2.0614166, 6.1675005, 8.252846, 0.24557662, 0.25647068, 10.500996
97906596023570, -2.1092732, 4.8825545, 7.696514, -0.30873024, -0.29631853, 9.345674
97906605663153, -2.2157538, 5.9138613, 8.190632, 0.0025462508, 0.17742157, 10.341098
97906615302841, -2.0219352, 5.2163534, 7.826923, -0.08942801, -0.17216349, 9.618818
97906624942528, -2.32702, 5.483153, 7.999206, -0.26290196, 0.030305386, 9.969816
97906634582112, -1.9190438, 5.7080784, 7.9070826, 0.20535117, 0.09335327, 9.936597
97906644221799, -2.2492533, 5.072784, 7.682157, -0.34502363, -0.106809616, 9.469814
97906653861383, -1.8735801, 6.1005015, 8.079366, 0.4011933, 0.24810791, 10.284945
97906663501070, -2.1559331, 4.8526444, 7.6343007, -0.35092756, -0.27042294, 9.288836
97906673140758, -1.9848464, 6.2309103, 8.191829, 0.3530073, 0.31992388, 10.471054
97906682780341, -2.0398812, 4.918447, 7.643872, -0.22452086, -0.26625156, 9.30912
97906692420028, -2.1020947, 6.0526447, 8.16431, 0.17653412, 0.24166584, 10.373991
97906702059612, -1.902294, 5.3132625, 7.856833, 0.05777037, -0.16735744, 9.672021
97906711699299, -2.1750758, 5.6781683, 8.093722, -0.050717175, 0.054275036, 10.123013
97906721338987, -1.8233309, 5.7690954, 7.9764743, 0.3111658, 0.051086903, 10.006584
97906730978570, -2.201397, 5.1828537, 7.7682986, -0.2715878, -0.0985446, 9.5901575
97906740618258, -1.847259, 6.1304116, 8.106883, 0.4326976, 0.24589968, 10.318342
97906750257841, -2.1655045, 4.8681974, 7.6977105, -0.35997057, -0.2982812, 9.350132
97906759897528, -1.9561325, 6.236892, 8.191829, 0.37187475, 0.3167119, 10.468654
97906769537216, -2.065006, 4.8789654, 7.5625157, -0.25147694, -0.25000238, 9.226832
97906779176799, -2.1020947, 6.0514483, 8.069795, 0.16465881, 0.30081654, 10.297709
97906788816487, -1.9537396, 5.174479, 7.708478, -0.04348904, -0.1688838, 9.485913
97906798456070, -2.2169502, 5.642276, 7.9944205, -0.09981018, 0.09562445, 10.032039
97906808095758, -1.8939191, 5.662615, 7.884351, 0.2078309, 0.05150509, 9.887835
97906817735445, -2.2671995, 5.17089, 7.7671022, -0.3318221, -0.083118916, 9.59631
97906827375028, -1.8951155, 6.046663, 8.066205, 0.3659895, 0.21367025, 10.248789
97906837014716, -2.2468605, 4.8418765, 7.7144604, -0.44829416, -0.2923584, 9.365822
97906846654299, -2.024328, 6.2033925, 8.237292, 0.3061396, 0.27868223, 10.500554
97906856293987, -2.1511476, 4.8059845, 7.655836, -0.37916481, -0.31805992, 9.278568
97906865933570, -2.1595225, 6.005985, 8.16431, 0.10279474, 0.23592043, 10.359785
97906875573258, -1.995614, 5.113462, 7.7419777, -0.10269916, -0.2149334, 9.487436
97906885212945, -2.2360928, 5.6913285, 8.072187, -0.09583351, 0.093914986, 10.125886
97906894852528, -1.902294, 5.595616, 7.925029, 0.17487463, -0.008810997, 9.884587
97906904492216, -2.2995026, 5.1876397, 7.853244, -0.35015222, -0.11908388, 9.681734
97906914131799, -1.8987048, 5.98086, 8.111669, 0.32960755, 0.1566248, 10.248989
97906923771487, -2.2205393, 4.912465, 7.7587276, -0.39063257, -0.27966166, 9.435579
97906933411070, -1.9369899, 6.256035, 8.195417, 0.40460578, 0.3185873, 10.478052
97906943050758, -2.0817556, 4.8789654, 7.576873, -0.26647308, -0.24890423, 9.241972
97906952690445, -2.053042, 6.135197, 8.082955, 0.25086662, 0.33181047, 10.34489
97906962330028, -1.9669002, 5.113462, 7.661818, -0.07141504, -0.175663, 9.417202
97906971969716, -2.2073789, 5.7607207, 8.037491, -0.04060796, 0.14933491, 10.13093
97906981609299, -1.869991, 5.5740805, 7.8281193, 0.1997546, 0.013676167, 9.788086
97906991248987, -2.213361, 5.319245, 7.786245, -0.21902192, -0.016980171, 9.683526
97907000888570, -1.7922242, 6.023931, 8.009974, 0.44636273, 0.20399809, 10.169495
97907010528258, -2.1870399, 4.9519463, 7.7036924, -0.3409781, -0.23933268, 9.406288
97907020167945, -1.9369899, 6.212964, 8.22772, 0.38131142, 0.2634673, 10.4801445
97907029807528, -2.1355941, 4.814359, 7.661818, -0.35392487, -0.3343835, 9.284676
97907039447216, -2.1104696, 6.088537, 8.215756, 0.1707288, 0.25110102, 10.436993
97907049086799, -2.0410776, 5.020142, 7.786245, -0.18801051, -0.28913355, 9.480216
97907058726487, -2.2301106, 5.7894344, 8.182257, -0.056726784, 0.09871292, 10.26778
97907068366070, -1.9046868, 5.521438, 7.905886, 0.14412281, -0.044712067, 9.828245
97907078005758, -2.2576282, 5.369494, 7.8233337, -0.23522672, 0.020970345, 9.750751
97907087645341, -1.8496519, 5.960521, 7.969296, 0.372543, 0.20444775, 10.113264
97907097285028, -2.201397, 4.9603214, 7.706085, -0.3505543, -0.2216444, 9.416086
97907106924612, -1.8771694, 6.216553, 8.2145605, 0.4313758, 0.2572422, 10.459256
97907116564299, -2.1164517, 4.8299127, 7.6594253, -0.3258141, -0.31857777, 9.287979
97907126203987, -2.0410776, 6.1698933, 8.183454, 0.27145243, 0.29369736, 10.442342
97907135843570, -2.0183458, 5.0189457, 7.7036924, -0.16321671, -0.24123812, 9.408803
97907145483258, -2.2301106, 5.849255, 8.133204, -0.024457097, 0.17287636, 10.261856
97907155122841, -1.9405792, 5.42094, 7.864012, 0.068829715, -0.08177853, 9.745956
97907164762528, -2.2624137, 5.3706903, 7.8556366, -0.24186265, 0.009855747, 9.778305
97907174402112, -1.8544376, 5.8839507, 7.921439, 0.3429876, 0.17234898, 10.0330305
97907184041799, -2.231307, 4.962714, 7.664211, -0.38679373, -0.16963339, 9.389836
97907193681383, -1.9130617, 6.166304, 8.17149, 0.4051407, 0.2356677, 10.403685
97907203321070, -2.1164517, 4.8095737, 7.6343007, -0.33999056, -0.3097334, 9.256478
97907212960653, -2.0458634, 6.181857, 8.1344, 0.28283358, 0.32789707, 10.410662
97907222600341, -2.009971, 4.979464, 7.665407, -0.17739731, -0.24950838, 9.354133
97907232239924, -2.1870399, 5.899504, 8.182257, 0.033408523, 0.15904331, 10.320377
97907241879612, -1.9369899, 5.4173503, 7.941778, 0.06613171, -0.12923574, 9.805631
97907251519195, -2.2791636, 5.473582, 8.021938, -0.22316092, -0.0055909157, 9.97278
97907261158883, -1.875973, 5.8683977, 8.006385, 0.31391704, 0.13006687, 10.096738
97907270798570, -2.2576282, 4.971089, 7.7180495, -0.39571524, -0.19203758, 9.443698
97907280438153, -1.9357935, 6.1328044, 8.185846, 0.36626357, 0.23369837, 10.400861
97907290077841, -2.1870399, 4.776074, 7.7156568, -0.42348588, -0.3501315, 9.317911
97907299717424, -2.0662024, 6.1124654, 8.188239, 0.23629045, 0.2633686, 10.4189
97907309357112, -2.07697, 4.871787, 7.615158, -0.2689364, -0.2688775, 9.267909
97907318996695, -2.1762722, 5.889933, 8.090134, 0.056465328, 0.21334553, 10.2386055
97907328636383, -1.9250258, 5.3515477, 7.797013, 0.06387246, -0.093308926, 9.650151
97907338275966, -2.254039, 5.4699926, 7.9346, -0.19142461, 0.036639214, 9.895523
97907347915653, -1.8783658, 5.790631, 7.9477606, 0.28658038, 0.11104393, 10.006602
97907357555237, -2.2707887, 5.0440702, 7.7682986, -0.37802255, -0.1582861, 9.527729
97907367194924, -1.9154545, 6.1495543, 8.228917, 0.38628024, 0.20942593, 10.440687
97907376834508, -2.1798615, 4.843073, 7.7144604, -0.38567734, -0.30458546, 9.352995
97907386474195, -1.9740787, 6.2608204, 8.254042, 0.38475114, 0.30212307, 10.534929
97907396113778, -2.0027926, 4.965107, 7.635497, -0.17221892, -0.23805046, 9.320833
97907405753466, -2.105684, 5.9952173, 8.098508, 0.15175343, 0.25431108, 10.289541
97907415393049, -1.8831514, 5.3180485, 7.771888, 0.08529717, -0.11484909, 9.602587
97907425032737, -2.1822543, 5.5716877, 7.9776707, -0.08835161, 0.057857513, 9.971862
97907434672320, -1.8317057, 5.770292, 7.946564, 0.31672978, 0.085018635, 9.984576
97907444312008, -2.2420747, 5.058427, 7.7946196, -0.35062352, -0.17872047, 9.550697
97907453951591, -1.896312, 6.1184473, 8.213364, 0.3848451, 0.20164204, 10.406824
97907463591278, -2.181058, 4.8454657, 7.7443705, -0.3792243, -0.32727194, 9.378695
97907473230862, -1.9920249, 6.218946, 8.236095, 0.33470407, 0.30067968, 10.501156
97907482870549, -2.062613, 4.8658047, 7.6127653, -0.25331995, -0.26910114, 9.260023
97907492510133, -2.1511476, 5.9904313, 8.122437, 0.1115562, 0.26540947, 10.315221
97907502149820, -1.9704895, 5.227121, 7.7826557, -0.025789112, -0.14662933, 9.578789
97907511789403, -2.2959132, 5.5393844, 7.9908314, -0.20094994, 0.06913376, 9.988203
97907521429091, -1.9250258, 5.649454, 7.920243, 0.18943885, 0.054336548, 9.915314
97907531068674, -2.2827528, 5.0656056, 7.7790666, -0.37579617, -0.14799833, 9.551025
97907540708362, -1.9106688, 6.0346985, 8.142776, 0.3508483, 0.19768476, 10.305866
97907550347945, -2.2085752, 4.8287163, 7.733603, -0.40321913, -0.31384706, 9.367062
97907559987633, -1.9501505, 6.236892, 8.287541, 0.3933849, 0.2714448, 10.543095
97907569627216, -2.053042, 4.8909297, 7.631908, -0.23450604, -0.26762342, 9.287388
97907579266903, -2.1188445, 6.04427, 8.140383, 0.16857523, 0.2757759, 10.352976
97907588906487, -1.989632, 5.176872, 7.810173, -0.06140268, -0.18886757, 9.576952
97907598546174, -2.2959132, 5.633901, 8.114061, -0.15548068, 0.07425785, 10.1400385
97907608185758, -1.9334008, 5.602794, 7.932207, 0.17430222, 0.018986702, 9.900431
97907617825445, -2.3186452, 5.1122656, 7.752745, -0.3784446, -0.06023884, 9.563973
97907627465028, -1.8951155, 6.000003, 8.020741, 0.38413823, 0.2210207, 10.184665
97907637104716, -2.1774685, 4.816752, 7.6259255, -0.3734377, -0.26248026, 9.267624
97907646744299, -1.9286151, 6.202196, 8.142776, 0.42319125, 0.3079443, 10.402772
97907656383987, -2.0470598, 4.853841, 7.5792656, -0.23705494, -0.25878477, 9.223465
97907666023570, -2.0673988, 6.07418, 8.124829, 0.24410099, 0.28485394, 10.3461075
97907675663258, -1.9369899, 5.174479, 7.7479596, -0.005725324, -0.17288494, 9.514626
97907685302841, -2.201397, 5.741578, 8.082955, -0.019114375, 0.13685846, 10.155144
97907694942528, -1.875973, 5.6506505, 7.920243, 0.24395573, 0.04151106, 9.905459
97907704582112, -2.2648067, 5.24746, 7.850851, -0.278844, -0.05286169, 9.706724
97907714221799, -1.8664017, 6.023931, 8.116454, 0.40125585, 0.18114138, 10.269091
97907723861383, -2.2205393, 4.8729835, 7.8077803, -0.401981, -0.305768, 9.454264
97907733501070, -1.9680966, 6.1734824, 8.316256, 0.3581738, 0.21303701, 10.534311
97907743140653, -2.120041, 4.7485566, 7.7096744, -0.34502956, -0.3769822, 9.2855425
97907752780341, -2.1092732, 6.0227346, 8.23131, 0.17083567, 0.21636152, 10.4115715
97907762419924, -2.0087745, 5.038088, 7.7826557, -0.12553921, -0.251081, 9.482006
97907772059612, -2.2456641, 5.7224355, 8.147561, -0.077594995, 0.10743523, 10.205609
97907781699195, -1.9106688, 5.5310097, 7.995617, 0.15918934, -0.05698204, 9.906767
97907791338883, -2.3054845, 5.265406, 7.9597244, -0.30734354, -0.08796024, 9.81299
97907800978466, -1.9118652, 5.9545393, 8.1738825, 0.32870153, 0.14775467, 10.285633
97907810618153, -2.28036, 4.8646083, 7.812566, -0.4402719, -0.29181862, 9.466871
97907820257737, -1.9645073, 6.1567326, 8.299505, 0.36449075, 0.23438978, 10.509932
97907829897320, -2.1284158, 4.7688956, 7.692925, -0.33648086, -0.3515501, 9.285301
97907839537008, -2.1104696, 6.056234, 8.181061, 0.19359729, 0.27793455, 10.38976
97907849176695, -2.0135603, 4.996214, 7.713264, -0.14396667, -0.23752308, 9.403929
97907858816278, -2.2337, 5.7726846, 8.114061, -0.030450195, 0.1650281, 10.204075
97907868455862, -1.9130617, 5.4795637, 7.8759756, 0.14692491, -0.025605679, 9.782341
97907878095549, -2.2695923, 5.288138, 7.8376904, -0.25372374, -0.0056762695, 9.720105
97907887735133, -1.8687944, 5.919843, 8.007581, 0.36670026, 0.19137621, 10.123595
97907897374820, -2.2337, 4.9052863, 7.7503524, -0.3757665, -0.24447727, 9.429647
97907907014403, -1.9357935, 6.1603217, 8.276773, 0.3883357, 0.22940588, 10.488012
97907916654091, -2.103291, 4.796413, 7.7503524, -0.30829117, -0.36694813, 9.341718
97907926293674, -2.03031, 6.172286, 8.263613, 0.31161043, 0.28642988, 10.503686
97907935933362, -1.9908284, 5.0249276, 7.725228, -0.10733199, -0.23188972, 9.424816
97907945572945, -2.219343, 5.844469, 8.132008, 0.008247107, 0.19590378, 10.255457
97907955212633, -1.9274186, 5.4376893, 7.893922, 0.113422394, -0.066988945, 9.7765045
97907964852216, -2.2767708, 5.377869, 7.881958, -0.22630805, 0.031258583, 9.807049
97907974491903, -1.8652053, 5.892326, 7.9513497, 0.36239636, 0.20188808, 10.062325
97907984131487, -2.2671995, 4.930411, 7.6462646, -0.39292267, -0.15159559, 9.36681
97907993771174, -1.969293, 6.1028943, 8.165507, 0.34578964, 0.2622428, 10.373553
97908003410758, -2.2205393, 4.6935215, 7.6749787, -0.45099172, -0.36151218, 9.248305
97908013050445, -2.0865414, 6.070591, 8.222935, 0.22158414, 0.25287294, 10.426377
97908022690028, -2.0518453, 4.9028935, 7.704889, -0.21260959, -0.29510927, 9.35315
97908032329716, -2.2289143, 5.828916, 8.178668, -0.0127210915, 0.15307856, 10.286463
97908041969299, -1.9513469, 5.3647084, 7.9130645, 0.0675098, -0.11774111, 9.756331
97908051608987, -2.2624137, 5.4436717, 7.9980097, -0.18882409, 0.002318859, 9.934011
97908061248570, -1.8329022, 5.9007006, 8.02792, 0.38970995, 0.15579414, 10.121717
97908070888258, -2.219343, 5.0165524, 7.7383885, -0.32016683, -0.17077494, 9.478516
97908080527841, -1.881955, 6.1770716, 8.228917, 0.4470638, 0.2456913, 10.447621
97908090167528, -2.1667008, 4.81077, 7.759924, -0.3640621, -0.3498702, 9.370142
97908099807112, -2.050649, 6.1675005, 8.282756, 0.28984988, 0.27680492, 10.520771
97908109446799, -2.0602202, 4.9052863, 7.706085, -0.21985441, -0.2831564, 9.357435
97908119086383, -2.172683, 5.9114685, 8.159525, 0.08347806, 0.20793295, 10.30503
97908128726070, -1.9310079, 5.326423, 7.8281193, 0.07115787, -0.10741091, 9.662423
97908138365653, -2.2791636, 5.4592247, 7.9298143, -0.19402489, 0.056586266, 9.89135
97908148005341, -1.8520447, 5.757131, 7.926225, 0.32107323, 0.10734606, 9.964189
97908157644924, -2.2384856, 5.0165524, 7.7216387, -0.33312464, -0.14542055, 9.46933
97908167284612, -1.9046868, 6.1124654, 8.183454, 0.40978664, 0.22398233, 10.379831
97908176924195, -2.2121646, 4.766503, 7.7204423, -0.41783702, -0.3314066, 9.323842
97908186563883, -2.070988, 6.168697, 8.254042, 0.28629422, 0.27931786, 10.502907
97908196203466, -2.0925233, 4.8789654, 7.688139, -0.26718503, -0.27638674, 9.335024
97908205843153, -2.201397, 5.933004, 8.177471, 0.07887864, 0.2189393, 10.337482
97908215482737, -2.0087745, 5.2426744, 7.865208, -0.038114905, -0.15708303, 9.662099
97908225122424, -2.2959132, 5.508278, 8.04467, -0.18866152, 0.03243351, 10.014609
97908234762008, -1.9238294, 5.710471, 7.945368, 0.24072301, 0.09121895, 9.968611
97908244401695, -2.2875385, 5.020142, 7.719246, -0.37280673, -0.12713528, 9.479783
97908254041278, -1.9094725, 6.056234, 8.130812, 0.39782757, 0.21704006, 10.306736
97908263680966, -2.2265215, 4.796413, 7.735996, -0.412098, -0.31570244, 9.3562355
97908273320549, -2.0315065, 6.1794643, 8.252846, 0.32818007, 0.27573204, 10.4994545
97908282960237, -2.0877378, 4.8490553, 7.643872, -0.26774967, -0.27599382, 9.281858
97908292599820, -2.1427727, 5.9952173, 8.189436, 0.15378976, 0.2275405, 10.369453
97908302239508, -1.969293, 5.227121, 7.844869, -0.0033156276, -0.17334604, 9.628752
97908311879091, -2.28036, 5.581259, 8.069795, -0.14321423, 0.06229067, 10.0721245
97908321518674, -1.8855443, 5.7009, 7.952546, 0.2718079, 0.055618286, 9.961002
97908331158362, -2.2265215, 5.15414, 7.783852, -0.26513547, -0.08658743, 9.59339
97908340798049, -1.8388842, 6.1064835, 8.151151, 0.47035593, 0.2137208, 10.336584
97908350437633, -2.2085752, 4.867001, 7.7383885, -0.37008172, -0.28663397, 9.393031
97908360077320, -2.0135603, 6.206982, 8.249256, 0.35181862, 0.30303288, 10.507886
97908369716903, -2.1272194, 4.8239303, 7.62114, -0.2961128, -0.27851915, 9.25807
97908379356591, -2.1571295, 5.9880385, 8.110473, 0.14135808, 0.28020334, 10.304907
97908388996174, -1.98365, 5.117051, 7.7180495, -0.051365614, -0.17377472, 9.468608
97908398635862, -2.2552354, 5.6123657, 8.024331, -0.10671294, 0.09522486, 10.047596
97908408275445, -1.8903298, 5.619544, 7.8759756, 0.2347753, 0.056408405, 9.855218
97908417915133, -2.2743778, 5.133801, 7.7814593, -0.32015455, -0.08941555, 9.590063
97908427554716, -1.8807586, 6.017949, 8.118847, 0.3992784, 0.18808126, 10.270046
97908437194403, -2.2241287, 4.833502, 7.795816, -0.4032302, -0.3272829, 9.424146
97908446833987, -2.015953, 6.216553, 8.335398, 0.34828648, 0.26208878, 10.582932
97908456473674, -2.1535404, 4.8179483, 7.7587276, -0.35001755, -0.33201456, 9.37099
97908466113258, -2.178665, 6.047859, 8.283952, 0.1339989, 0.23587179, 10.482055
97908475752945, -2.0350957, 5.1182475, 7.8628154, -0.10684839, -0.23338556, 9.596669
97908485392528, -2.2827528, 5.6745787, 8.184649, -0.11570296, 0.06223774, 10.216803
97908495032216, -1.942972, 5.562116, 7.984849, 0.15473384, -0.028213501, 9.921963
97908504671799, -2.2959132, 5.1816573, 7.865208, -0.32195824, -0.10108757, 9.68857
97908514311487, -1.869991, 6.000003, 8.090134, 0.3973421, 0.19259977, 10.234852
97908523951070, -2.2360928, 4.877769, 7.6893353, -0.389987, -0.23773432, 9.365364
97908533590758, -1.9788643, 6.1878395, 8.159525, 0.37388825, 0.33312416, 10.417887
97908543230341, -2.12363, 4.7892346, 7.584051, -0.3178565, -0.28172445, 9.207822
97908552870028, -2.097309, 6.070591, 8.152347, 0.2257163, 0.2800541, 10.372182
97908562509612, -2.0111675, 5.078766, 7.739585, -0.09736046, -0.20357847, 9.470425
97908572149299, -2.2468605, 5.716453, 8.10808, -0.060056597, 0.119240284, 10.171006
97908581788883, -1.9010975, 5.517849, 7.8831544, 0.1804055, -0.020852566, 9.806731
97908591428570, -2.248057, 5.312066, 7.8221374, -0.21740448, 0.0019469261, 9.716501
97908601068153, -1.861616, 6.0047884, 8.048259, 0.41163468, 0.21072006, 10.202143
97908610707841, -2.2169502, 4.9316072, 7.743174, -0.35683346, -0.23657608, 9.434462
97908620347528, -1.9477576, 6.2201424, 8.255239, 0.41091496, 0.2691803, 10.506741
97908629987112, -2.1224337, 4.8263235, 7.670193, -0.30253306, -0.31533718, 9.297258
97908639626799, -2.062613, 6.1232333, 8.191829, 0.26969045, 0.29252672, 10.425743
97908649266383, -1.9669002, 5.0739803, 7.7419777, -0.06574184, -0.23236275, 9.460119
97908658906070, -2.178665, 5.8169518, 8.16431, 0.0339126, 0.12684011, 10.257788
97908668545653, -1.9034904, 5.503492, 7.9561353, 0.1620009, -0.07118368, 9.858016
97908678185341, -2.3030918, 5.282156, 7.932207, -0.29169267, -0.074082375, 9.799732
97908687824924, -1.9166509, 5.899504, 8.09133, 0.3086083, 0.13217497, 10.189928
97908697464612, -2.2420747, 4.9316072, 7.826923, -0.37979028, -0.2819891, 9.507082
97908707104195, -1.9417756, 6.233303, 8.30788, 0.41505802, 0.25224924, 10.555073
97908716743883, -2.143969, 4.8358946, 7.7204423, -0.33322722, -0.3157792, 9.347564
97908726383570, -2.0841484, 6.148358, 8.207381, 0.26552254, 0.3063221, 10.456709
97908736023153, -2.0422742, 5.0081778, 7.7276206, -0.16179338, -0.2418046, 9.427843
97908745662841, -2.2444677, 5.8265233, 8.147561, -0.021790415, 0.16900778, 10.263514
97908755302424, -1.9549361, 5.4029937, 7.880761, 0.0777204, -0.08464289, 9.752298
97908764942112, -2.3078775, 5.332405, 7.9034934, -0.27116653, -0.016400814, 9.805726
97908774581695, -1.8999012, 5.8600225, 7.9968133, 0.31914467, 0.14777708, 10.08835
97908784221383, -2.2815564, 4.942375, 7.7443705, -0.40458402, -0.20946693, 9.455173
97908793860966, -1.9932213, 6.1292152, 8.199007, 0.33757997, 0.2554598, 10.420401
97908803500653, -2.2085752, 4.7569313, 7.6678, -0.40028802, -0.329041, 9.275391
97908813140237, -2.1092732, 6.1328044, 8.2014, 0.23699236, 0.2988329, 10.448818
97908822779924, -2.0662024, 4.948357, 7.6594253, -0.19230604, -0.23478317, 9.345059
97908832419612, -2.210968, 5.9042897, 8.128419, 0.048045605, 0.22004318, 10.28443
97908842059195, -1.9262222, 5.3970113, 7.8376904, 0.1125755, -0.07199144, 9.708224
97908851698883, -2.2648067, 5.4460645, 7.9334035, -0.1821433, 0.02644825, 9.884026
97908861338466, -1.881955, 5.8420763, 8.001599, 0.33031985, 0.13143444, 10.078234
97908870978153, -2.2839491, 4.971089, 7.7946196, -0.38881728, -0.22295094, 9.512274
97908880617737, -1.9561325, 6.1304116, 8.273184, 0.36819226, 0.19704485, 10.472802
97908890257424, -2.2181466, 4.779663, 7.7551384, -0.41792926, -0.3548379, 9.3598585
97908899897112, -2.085345, 6.141179, 8.26122, 0.26113752, 0.26966238, 10.49617
97908909536695, -2.0889342, 4.881358, 7.7096744, -0.2534512, -0.30508232, 9.352705
97908919176383, -2.2097716, 5.8935223, 8.200203, 0.046245873, 0.17432785, 10.335737
97908928815966, -1.9776679, 5.339584, 7.90469, 0.03391552, -0.13644648, 9.74098
97908938455653, -2.2707887, 5.4999027, 7.9920278, -0.1657578, 0.038518906, 9.962378
97908948095341, -1.8723837, 5.790631, 7.966903, 0.31845382, 0.11193895, 10.019723
97908957734924, -2.2660031, 5.0368915, 7.7850485, -0.3435337, -0.17494392, 9.537474
97908967374612, -1.8975084, 6.1328044, 8.184649, 0.42502546, 0.23729277, 10.390541
97908977014195, -2.1906292, 4.8191447, 7.6953177, -0.35743678, -0.3091154, 9.328323
97908986653883, -2.0183458, 6.2177496, 8.210971, 0.36315727, 0.320539, 10.484253
97908996293466, -2.0482562, 4.9363933, 7.6127653, -0.179905, -0.22342539, 9.297056
97909005933153, -2.1463618, 5.979664, 8.084151, 0.14891437, 0.27497196, 10.277109
97909015572841, -1.9178474, 5.312066, 7.7611203, 0.09001288, -0.09292364, 9.597628
97909025212424, -2.2265215, 5.56092, 7.946564, -0.098465234, 0.08601904, 9.950478
97909034852112, -1.8987048, 5.757131, 7.938189, 0.27961606, 0.11439991, 9.983648
97909044491695, -2.2863421, 5.0715876, 7.7551384, -0.34668577, -0.13434458, 9.536892
97909054131383, -1.9082761, 6.1028943, 8.207381, 0.3987552, 0.20176315, 10.394625
97909063771070, -2.2181466, 4.8119664, 7.783852, -0.39390853, -0.35900068, 9.401037
97909073410653, -2.053042, 6.1794643, 8.29113, 0.29544973, 0.25805283, 10.535167
97909083050341, -2.1020947, 4.871787, 7.682157, -0.26495284, -0.2880373, 9.328209
97909092689924, -2.1547368, 6.026324, 8.212168, 0.15324831, 0.23031807, 10.407816
97909102329612, -2.0003998, 5.2259245, 7.8520474, -0.029313594, -0.17574501, 9.640268
97909111969299, -2.3258235, 5.581259, 8.066205, -0.18216765, 0.07825899, 10.0789
97909121608883, -1.9477576, 5.6817575, 7.9776707, 0.20532203, 0.04828787, 9.98373
97909131248570, -2.3138595, 5.109873, 7.789834, -0.36210644, -0.10003996, 9.59193
97909140888153, -1.9393828, 6.0550375, 8.133204, 0.3650459, 0.21538496, 10.31475
97909150527841, -2.2636101, 4.784449, 7.735996, -0.44877827, -0.31998634, 9.357176
97909160167528, -2.0590239, 6.151947, 8.228917, 0.29254487, 0.27422714, 10.470926
97909169807112, -2.1260228, 4.7892346, 7.609176, -0.31499118, -0.296443, 9.228716
97909179446799, -2.1451654, 6.009574, 8.103293, 0.18045181, 0.28271627, 10.308617
97909189086383, -1.9740787, 5.176872, 7.746763, -0.01941663, -0.16151667, 9.522757
97909198726070, -2.2456641, 5.6410794, 8.055437, -0.07614452, 0.08964825, 10.086676
97909208365758, -1.8915263, 5.6745787, 7.9429746, 0.26122075, 0.042045593, 9.939798
97909218005341, -2.2648067, 5.2163534, 7.813762, -0.27139628, -0.055371284, 9.660116
97909227645028, -1.8807586, 6.064609, 8.140383, 0.4263659, 0.18989468, 10.313327
97909237284716, -2.2588246, 4.8526444, 7.759924, -0.4173242, -0.28603983, 9.413336
97909246924299, -2.0350957, 6.178268, 8.292327, 0.3214863, 0.24500561, 10.531473
97909256563987, -2.1511476, 4.7880383, 7.7204423, -0.34065154, -0.35197115, 9.322985
97909266203570, -2.172683, 6.017949, 8.23131, 0.13063136, 0.22682762, 10.422198
97909275843258, -2.03031, 5.0859447, 7.8029947, -0.1042386, -0.23736429, 9.529351
97909285482945, -2.2743778, 5.6793647, 8.120044, -0.093489975, 0.09226704, 10.165915
97909295122528, -1.9465612, 5.576473, 7.928618, 0.17155305, 0.014685631, 9.885318
97909304762216, -2.309074, 5.229514, 7.813762, -0.29845127, -0.041360855, 9.6769705
97909314401903, -1.8879371, 6.023931, 8.054241, 0.4025998, 0.23788404, 10.222727
97909324041487, -2.2456641, 4.8646083, 7.719246, -0.39442977, -0.26544523, 9.384462
97909333681174, -2.0135603, 6.161518, 8.263613, 0.3321702, 0.25618887, 10.4942875
97909343320862, -2.178665, 4.773681, 7.6749787, -0.3610281, -0.32767868, 9.284513
97909352960445, -2.14038, 6.0658054, 8.1679, 0.19386104, 0.29533482, 10.390622
97909362600133, -2.0386848, 5.066802, 7.7108707, -0.11480251, -0.18520594, 9.446628
97909372239820, -2.248057, 5.7080784, 8.070991, -0.054044813, 0.13115454, 10.136898
97909381879403, -1.9046868, 5.5166526, 7.85444, 0.18911684, -0.0031924248, 9.783545
97909391519091, -2.2624137, 5.2642097, 7.813762, -0.241754, -0.030542374, 9.686379
97909401158778, -1.8652053, 5.983253, 8.039884, 0.40749428, 0.21794653, 10.18354
97909410798362, -2.225325, 4.90409, 7.7419777, -0.35599816, -0.2608447, 9.420489
97909420438049, -1.9788643, 6.204589, 8.316256, 0.37791267, 0.24954987, 10.553097
97909430077633, -2.1798615, 4.807181, 7.8053875, -0.35650894, -0.381917, 9.408076
97909439717320, -2.1535404, 6.1064835, 8.318648, 0.18625528, 0.24985027, 10.537062
97909449357008, -2.0662024, 5.0333023, 7.82453, -0.16482764, -0.26359224, 9.525227
97909458996591, -2.2301106, 5.8133626, 8.228917, 6.687045E-4, 0.11881733, 10.318408
97909468636278, -2.0015962, 5.355137, 7.893922, 0.027107298, -0.098772526, 9.746147
97909478275966, -2.053042, 5.602794, 7.941778, 0.085819185, 0.068199635, 9.933082
97909487915549, -2.0231316, 5.5130634, 7.899904, 0.07529682, 0.018395424, 9.843242
97909497555237, -2.0291135, 5.5573306, 7.9166536, 0.0869534, 0.039830208, 9.882585
97909507194924, -2.0374885, 5.515456, 7.834101, 0.06613636, 0.061131477, 9.794725
97909516834612, -2.0494525, 5.5190454, 7.864012, 0.054999292, 0.050634384, 9.823299
97909526474195, -2.105684, 5.483153, 7.914261, -0.013148069, 0.01840353, 9.855654
97909536113883, -2.1272194, 5.45085, 7.948957, -0.04894638, -0.016711712, 9.870163
97909545753466, -2.1595225, 5.4460645, 7.987242, -0.08078635, -0.02930355, 9.905141
97909555393153, -2.1547368, 5.447261, 7.9968133, -0.07432729, -0.03413248, 9.91251
97909565032841, -2.1176481, 5.4783673, 7.972885, -0.026158005, -0.01180315, 9.902677
97909574672528, -2.103291, 5.5202417, 7.966903, 0.004982859, 0.017128468, 9.918072
97909584312112, -2.0901306, 5.503492, 7.972885, 0.0073001385, -0.0019702911, 9.910797
97909593951799, -2.1260228, 5.4819565, 7.989635, -0.035270035, -0.013738155, 9.919912
97909603591487, -2.1248264, 5.4592247, 7.9968133, -0.043605834, -0.03155136, 9.912828
97909613231070, -2.1296122, 5.4843497, 8.050652, -0.040031105, -0.043979168, 9.971098
97909622870758, -2.1463618, 5.477171, 8.018349, -0.053253114, -0.019833088, 9.944695
97909632510445, -2.1619153, 5.45085, 8.000402, -0.07742423, -0.022340298, 9.918951
97909642150028, -2.160719, 5.4352965, 8.014759, -0.08227897, -0.041505814, 9.921646
97909651789716, -2.1248264, 5.454439, 7.9860454, -0.038607717, -0.023965359, 9.901548
97909661429403, -2.0757737, 5.4819565, 7.9704924, 0.019098997, -0.013350964, 9.893881
97909671069091, -2.0578275, 5.5226345, 7.9501534, 0.053688794, 0.020542145, 9.896251
97909680708674, -2.0231316, 5.5262237, 7.9310107, 0.08474624, 0.021272182, 9.875502
97909690348362, -2.0422742, 5.5202417, 7.944171, 0.06267214, 0.016602993, 9.886841
97909699988049, -2.062613, 5.528617, 8.012366, 0.043329924, -0.009062767, 9.95068
97909709627633, -2.065006, 5.541777, 8.043473, 0.044843853, -0.01776743, 9.98352
97909719267320, -2.1008983, 5.535795, 7.993224, 0.012777537, 0.021748066, 9.947352
97909728907008, -2.0757737, 5.523831, 7.9429746, 0.033357203, 0.032797337, 9.8949585
97909738546695, -2.056631, 5.54417, 7.946564, 0.05866027, 0.037860394, 9.905078
97909748186278, -2.062613, 5.5310097, 7.948957, 0.046953678, 0.028990746, 9.900976
97909757825966, -2.0781665, 5.483153, 7.9393854, 0.013032764, 0.006148815, 9.870024
97909767465653, -2.0817556, 5.4424753, 7.926225, -0.0066301823, -0.013976097, 9.837634
97909777105237, -2.120041, 5.4496536, 7.9226356, -0.037652284, 0.00803566, 9.846826
97909786744924, -2.099702, 5.456832, 7.938189, -0.0162234, -0.0023946762, 9.859024
97909796384612, -2.1044874, 5.48076, 7.9537425, -0.011313438, 0.0072231293, 9.88582
97909806024299, -2.1020947, 5.4903316, 7.984849, -0.0071811974, -0.0043554306, 9.915659
97909815663883, -2.0937197, 5.4927244, 8.006385, -6.042421E-4, -0.017625809, 9.93255
97909825303570, -2.1044874, 5.5130634, 8.026724, -0.0032109022, -0.008567333, 9.962478
97909834943258, -2.1224337, 5.5190454, 8.055437, -0.018499523, -0.014468193, 9.992703
97909844582841, -2.1308086, 5.4843497, 8.07458, -0.041320592, -0.04601574, 9.990669
97909854222528, -2.1224337, 5.48076, 8.039884, -0.030496478, -0.029901028, 9.958983
97909863862216, -2.1272194, 5.4819565, 7.9980097, -0.031971604, -0.0024061203, 9.926935
97909873501903, -2.097309, 5.4819565, 7.9597244, -0.002064079, 0.008863449, 9.889778
97909883141487, -2.1092732, 5.4759746, 7.9369926, -0.013382286, 0.021316051, 9.870692
97909892781174, -2.1176481, 5.4520464, 7.911868, -0.02907461, 0.021938324, 9.838983
97909902420862, -2.0985055, 5.4496536, 7.9022965, -0.012499362, 0.01841402, 9.825898
97909912060549, -2.0925233, 5.4592247, 7.928618, -0.0034967363, 0.007643223, 9.851126
97909921700133, -2.0781665, 5.460421, 7.9764743, 0.007486254, -0.02349329, 9.88729
97909931339820, -2.0961127, 5.4963136, 7.999206, 0.0046642423, -0.0036444664, 9.929271
97909940979508, -2.065006, 5.5070815, 8.014759, 0.03641951, -0.016904354, 9.9411745
97909950619195, -2.0673988, 5.5310097, 8.009974, 0.043952346, 0.0040555, 9.951077
97909960258778, -2.0602202, 5.548956, 8.01117, 0.056547374, 0.0140862465, 9.960466
97909969898466, -2.0662024, 5.5334024, 7.9920278, 0.042889, 0.015548229, 9.937715
97909979538153, -2.0602202, 5.5429735, 8.006385, 0.051591754, 0.011751175, 9.953316
97909989177841, -2.07697, 5.5190454, 8.005188, 0.025587559, 5.917549E-4, 9.942639
97909998817424, -2.0793629, 5.4783673, 8.007581, 0.0044803917, -0.029991627, 9.922535
97910008457112, -2.0721843, 5.4783673, 7.9908314, 0.012050301, -0.022745132, 9.907531
97910018096799, -2.0841484, 5.4843497, 7.982456, 0.0037230551, -0.009392738, 9.906628
97910027736487, -2.1104696, 5.4664035, 7.9310107, -0.025117636, 0.0172925, 9.860815
97910037376070, -2.1176481, 5.465207, 7.9393854, -0.031520814, 0.014084339, 9.868413
97910047015758, -2.1176481, 5.4580283, 7.962117, -0.035886973, -0.0042467117, 9.882739
97910056655445, -2.1092732, 5.474778, 7.995617, -0.02165407, -0.014807224, 9.91723
97910066295133, -2.1296122, 5.4616175, 7.9836526, -0.043358535, -0.009086132, 9.904609
97910075934820, -2.1332014, 5.4496536, 7.9884386, -0.050783664, -0.019164562, 9.9026
97910085574403, -2.12363, 5.4460645, 7.9836526, -0.043747544, -0.022516727, 9.8947315
97910095214091, -2.115255, 5.4723854, 7.954939, -0.023314059, 0.009489059, 9.8844185
97910104853778, -2.1260228, 5.477171, 7.9573317, -0.031553626, 0.015275955, 9.8912735
97910114493466, -2.1008983, 5.4699926, 7.966903, -0.012895465, -0.0058164597, 9.8896885
97910124133049, -2.1128623, 5.473582, 7.958528, -0.021405697, 0.0064663887, 9.887465
97910133772737, -2.1284158, 5.4676, 7.9836526, -0.039074183, -0.006210804, 9.90767
97910143412424, -2.1188445, 5.465207, 8.02792, -0.03388959, -0.037326336, 9.939968
97910153052112, -2.1128623, 5.477171, 8.032705, -0.023903012, -0.033159733, 9.949184
97910162691799, -2.0877378, 5.511867, 8.015956, 0.015471637, -0.0088477135, 9.949601
97910172331383, -2.07697, 5.511867, 7.987242, 0.02658695, 0.003830433, 9.924202
97910181971070, -2.0781665, 5.5094743, 7.9836526, 0.022818178, 0.0036888123, 9.920244
97910191610758, -2.0494525, 5.5262237, 7.9836526, 0.055918634, 0.004392147, 9.923456
97910201250445, -2.0398812, 5.535795, 7.9776707, 0.06804532, 0.009339809, 9.921928
97910210890028, -2.0434706, 5.5597234, 7.9393854, 0.07670474, 0.04864931, 9.905145
97910220529716, -2.0422742, 5.5453663, 7.914261, 0.07197535, 0.05043602, 9.876728
97910230169403, -2.0554347, 5.534599, 7.8783684, 0.055799603, 0.06772518, 9.844673
97910239809091, -2.0614166, 5.534599, 7.899904, 0.04850784, 0.055387497, 9.863279
97910249448778, -2.0733807, 5.517849, 7.9310107, 0.027618974, 0.02912426, 9.881544
97910259088362, -2.0877378, 5.4999027, 7.958528, 0.0055524707, 0.005309105, 9.896752
97910268728049, -2.1140587, 5.4699926, 7.9310107, -0.029676884, 0.0086236, 9.863571
97910278367737, -2.1343977, 5.4676, 7.9226356, -0.048378527, 0.0190835, 9.859805
97910288007424, -2.1260228, 5.4664035, 7.948957, -0.042336434, -3.247261E-4, 9.878546
97910297647112, -2.1451654, 5.4496536, 7.9716887, -0.0671829, -0.018189907, 9.891583
97910307286695, -2.1308086, 5.477171, 8.000402, -0.04381314, -0.019954681, 9.926926
97910316926383, -2.1308086, 5.474778, 8.015956, -0.045361906, -0.030939579, 9.938113
97910326566070, -2.120041, 5.483153, 8.006385, -0.03133768, -0.022969246, 9.932786
97910336205758, -2.1092732, 5.4927244, 8.021938, -0.01859951, -0.028762817, 9.948336
97910345845445, -2.1355941, 5.4999027, 8.038688, -0.03899318, -0.022602081, 9.971366
97910355485028, -2.1355941, 5.4927244, 8.02792, -0.040099293, -0.021331787, 9.958727
97910365124716, -2.1475582, 5.474778, 7.9704924, -0.053854704, 0.0036449432, 9.905104
97910374764403, -2.120041, 5.4556355, 7.920243, -0.03428912, 0.009191513, 9.848225
97910384404091, -2.0961127, 5.48076, 7.9022965, -3.722608E-4, 0.027093887, 9.842661
97910394043778, -2.0733807, 5.5070815, 7.874779, 0.031007588, 0.05079651, 9.830335
97910403683362, -2.0470598, 5.51426, 7.895118, 0.05511117, 0.03258276, 9.845118
97910413323049, -2.0757737, 5.528617, 7.911868, 0.03325391, 0.043289185, 9.872645
97910422962737, -2.082952, 5.5022955, 7.944171, 0.013217181, 0.008430004, 9.885522
97910432602424, -2.0793629, 5.5046883, 7.966903, 0.016143769, -0.0048151016, 9.904374
97910442242112, -2.085345, 5.505885, 7.9944205, 0.009954184, -0.01745081, 9.928433
