timestamp_acc,device_acc_x,device_acc_y,device_acc_z,earth_acc_x,earth_acc_y,earth_acc_z
97773783283326, 5.255835, -0.23808585, 8.550752, 0.021694183, -0.011423111, 10.039683
97773792922806, 5.278567, -0.22612174, 8.578269, 0.011143684, 1.7309189E-4, 10.074771
97773802562181, 5.2929235, -0.24047868, 8.611769, 0.020160675, -0.00967145, 10.111128
97773812201556, 5.312066, -0.22612174, 8.62134, 0.012091637, 0.007176876, 10.128992
97773821840931, 5.2869415, -0.21535404, 8.626125, -0.009259939, -0.008327246, 10.119684
97773831480410, 5.2893343, -0.19142582, 8.617751, -0.027806759, 0.007759571, 10.113284
97773841119785, 5.2833524, -0.18424734, 8.569894, -0.024904251, 0.028124332, 10.069234
97773850759160, 5.2833524, -0.1591227, 8.525627, -0.036272526, 0.05741644, 10.030994
97773860398639, 5.2773705, -0.17108682, 8.513663, -0.024808884, 0.05316043, 10.017931
97773870038014, 5.259424, -0.17826529, 8.49452, -0.020031214, 0.042384624, 9.992397
97773879677389, 5.2749777, -0.19501504, 8.487342, 0.0022537708, 0.050848484, 9.994789
97773889316764, 5.259424, -0.22013968, 8.513663, 0.013466597, 0.015347004, 10.009598
97773898956243, 5.258228, -0.23928227, 8.548359, 0.021082163, -0.009027481, 10.038931
97773908595618, 5.267799, -0.2416751, 8.595019, 0.015237331, -0.02457118, 10.083732
97773918234993, 5.261817, -0.2656033, 8.635697, 0.02307868, -0.05545187, 10.115775
97773927874472, 5.2666025, -0.2321038, 8.65125, -0.009170294, -0.04399419, 10.130798
97773937513847, 5.265406, -0.22612174, 8.653643, -0.016096592, -0.041661024, 10.132087
97773947153222, 5.2606206, -0.2105684, 8.641679, -0.0291121, -0.032200813, 10.119053
97773956792597, 5.258228, -0.20937198, 8.598608, -0.020157814, -0.014034033, 10.081085
97773966432076, 5.2642097, -0.18065812, 8.562716, -0.034834385, 0.019389391, 10.053012
97773976071451, 5.2606206, -0.19740787, 8.537591, -0.014877558, 0.018075943, 10.030105
97773985710826, 5.271388, -0.20338993, 8.5016985, 0.0038149357, 0.040129423, 10.005305
97773995350201, 5.265406, -0.2117648, 8.459825, 0.018303156, 0.048911333, 9.966707
97774004989681, 5.2869415, -0.18065812, 8.487342, -0.008690596, 0.06666827, 10.000742
97774014629056, 5.3144593, -0.18544376, 8.507681, -2.2172928E-4, 0.07574439, 10.032583
97774024268431, 5.304888, -0.19142582, 8.530413, -0.005434513, 0.054875135, 10.047059
97774033907910, 5.3108697, -0.20219351, 8.541181, 0.0030312538, 0.04967785, 10.059597
97774043547285, 5.2929235, -0.19142582, 8.602198, -0.028371334, 0.012773037, 10.101906
97774053186660, 5.2773705, -0.2105684, 8.611769, -0.019140959, -0.011981249, 10.102329
97774062826035, 5.2737813, -0.2428715, 8.601001, 0.011909008, -0.023622274, 10.091991
97774072465514, 5.2486563, -0.22253251, 8.597412, -0.0146045685, -0.032436132, 10.075323
97774082104889, 5.241478, -0.22013968, 8.6141615, -0.023239374, -0.044481754, 10.085773
97774091744264, 5.241478, -0.22971097, 8.578269, -0.005632639, -0.031952858, 10.055422
97774101383743, 5.252246, -0.23330021, 8.569894, 0.003601551, -0.019878387, 10.054014
97774111023118, 5.2773705, -0.2213361, 8.554341, 0.0048834085, 0.011978626, 10.053667
97774120662493, 5.3108697, -0.21296121, 8.545966, 0.009215832, 0.045260906, 10.0639
97774130301868, 5.2833524, -0.18424734, 8.5220375, -0.020885706, 0.04581213, 10.028477
97774139941347, 5.2869415, -0.17228323, 8.523234, -0.030618072, 0.05219841, 10.0311165
97774149580722, 5.282156, -0.19980069, 8.518449, -0.0061103106, 0.039286613, 10.025143
97774159220097, 5.279763, -0.2117648, 8.532805, 1.2397766E-4, 0.024077892, 10.036382
97774168859576, 5.267799, -0.21535404, 8.541181, -0.0026965141, 0.009335518, 10.037319
97774178498951, 5.2630134, -0.24047868, 8.553144, 0.015079021, -0.011011362, 10.04555
97774188138326, 5.276174, -0.2416751, 8.562716, 0.017647028, -0.0058088303, 10.060625
97774197777701, 5.271388, -0.23090738, 8.568698, 0.004616976, -0.0077233315, 10.062971
97774207417181, 5.2929235, -0.23928227, 8.583055, 0.0155546665, 1.5163422E-4, 10.086669
97774217056556, 5.312066, -0.24047868, 8.603394, 0.018584013, 0.004940748, 10.114044
97774226695931, 5.276174, -0.24047868, 8.632108, -0.0025823116, -0.035828114, 10.119677
97774236335410, 5.2941203, -0.21774685, 8.581859, -0.0048310757, 0.010464668, 10.085795
97774245974785, 5.271388, -0.18185452, 8.536395, -0.034169674, 0.028007746, 10.034376
97774255614160, 5.265406, -0.19980069, 8.499306, -0.011225462, 0.033156157, 10.000071
97774265253535, 5.259424, -0.19860429, 8.472985, -0.0077085495, 0.039997578, 9.974508
97774274893014, 5.2438707, -0.2105684, 8.484949, -0.004981041, 0.016253948, 9.976804
97774284532389, 5.2546387, -0.21415763, 8.518449, -0.0069895983, 0.007712364, 10.011042
97774294171764, 5.2773705, -0.22731815, 8.538788, 0.0070035458, 0.012108326, 10.040568
97774303811243, 5.296513, -0.22612174, 8.59143, 4.1294098E-4, 0.0025982857, 10.095386
97774313450618, 5.278567, -0.22492532, 8.602198, -0.010532618, -0.014539242, 10.095116
97774323089993, 5.285745, -0.21655045, 8.609376, -0.01759708, -0.008220673, 10.104798
97774332729368, 5.2869415, -0.22253251, 8.606983, -0.010939717, -0.00845623, 10.103527
97774342368847, 5.285745, -0.22612174, 8.589037, -0.0039669275, -0.002342701, 10.087704
97774352008222, 5.2773705, -0.25004998, 8.551949, 0.023751497, -8.93116E-4, 10.052284
97774361647597, 5.276174, -0.21535404, 8.553144, -0.008790016, 0.010977268, 10.051888
97774371286972, 5.261817, -0.19740787, 8.541181, -0.02769208, 0.01196003, 10.033771
97774380926451, 5.2462635, -0.19621146, 8.523234, -0.029300094, 0.008300304, 10.010315
97774390565826, 5.2737813, -0.19740787, 8.517252, -0.017299175, 0.031919003, 10.01968
97774400205201, 5.2773705, -0.21535404, 8.520842, 5.6648254E-4, 0.02541256, 10.025025
97774409844681, 5.2929235, -0.21894327, 8.52802, 0.0073052645, 0.032834053, 10.0393715
97774419484056, 5.282156, -0.21774685, 8.53161, 0.0029976368, 0.022780895, 10.036753
97774429123431, 5.285745, -0.22372891, 8.559127, 0.0044636726, 0.010379791, 10.062192
97774438762806, 5.2941203, -0.23688944, 8.563912, 0.018177032, 0.009160042, 10.07095
97774448402285, 5.282156, -0.23330021, 8.581859, 0.0066707134, -0.006673813, 10.079872
97774458041660, 5.271388, -0.21655045, 8.60459, -0.019010782, -0.018653393, 10.093201
97774467681035, 5.2737813, -0.2213361, 8.59143, -0.010768652, -0.01260972, 10.083359
97774477320410, 5.2845488, -0.24765715, 8.567501, 0.022465706, -0.0045113564, 10.069228
97774486959889, 5.259424, -0.22851457, 8.549556, 5.390644E-4, -0.0077319145, 10.04035
97774496599264, 5.2737813, -0.22013968, 8.5220375, 0.004288435, 0.01985693, 10.024269
97774506238639, 5.2666025, -0.22372891, 8.52802, 0.0037827492, 0.008964062, 10.025675
97774515878118, 5.271388, -0.22492532, 8.530413, 0.0055470467, 0.010515213, 10.030251
97774525517493, 5.2953167, -0.20697916, 8.520842, -4.953146E-4, 0.041093826, 10.034256
97774535156868, 5.296513, -0.20578274, 8.525627, -0.0031193495, 0.03962946, 10.038933
97774544796243, 5.2833524, -0.18424734, 8.526823, -0.02770698, 0.037730694, 10.032561
97774554435722, 5.2737813, -0.20219351, 8.537591, -0.017032027, 0.017866135, 10.037107
97774564075097, 5.272585, -0.22013968, 8.535198, -2.7275085E-4, 0.010884762, 10.034845
97774573714472, 5.259424, -0.23569304, 8.555537, 0.003765583, -0.015003443, 10.0456
97774583353847, 5.2773705, -0.22492532, 8.575876, -0.004930258, -0.0054216385, 10.0720825
97774592993326, 5.2701917, -0.22731815, 8.575876, -0.0050678253, -0.0114302635, 10.068371
97774602632701, 5.288138, -0.24047868, 8.569894, 0.014508963, -1.9598007E-4, 10.072989
97774612272076, 5.285745, -0.2105684, 8.569894, -0.013017178, 0.010855198, 10.07106
97774621911451, 5.2941203, -0.2213361, 8.566305, 0.0011200905, 0.013926029, 10.072641
97774631550931, 5.291727, -0.22731815, 8.547162, 0.01043582, 0.018414736, 10.055227
97774641190306, 5.278567, -0.21894327, 8.532805, 0.0018677711, 0.017759323, 10.035919
97774650829681, 5.272585, -0.20219351, 8.518449, -0.012499094, 0.025487661, 10.020189
97774660469160, 5.2689953, -0.21415763, 8.516056, -0.0023863316, 0.018336058, 10.01654
97774670108535, 5.2666025, -0.22612174, 8.492127, 0.013404608, 0.022366762, 9.99519
97774679747910, 5.2546387, -0.20937198, 8.514859, -0.011839628, 0.010159016, 10.007879
97774689387285, 5.267799, -0.21655045, 8.536395, -0.00657773, 0.007500887, 10.033272
97774699026764, 5.291727, -0.2213361, 8.566305, -0.0016713142, 0.011837244, 10.071385
97774708666139, 5.2869415, -0.22013968, 8.581859, -0.008892775, 0.002016306, 10.082085
97774718305514, 5.2833524, -0.20578274, 8.58784, -0.024846554, 0.0028791428, 10.084965
97774727944889, 5.2833524, -0.21894327, 8.596215, -0.014819145, -0.006696224, 10.092394
97774737584368, 5.278567, -0.22013968, 8.580662, -0.011654139, -0.003664732, 10.0766735
97774747223743, 5.2737813, -0.21415763, 8.565108, -0.014911652, 0.0025207996, 10.060789
97774756863118, 5.265406, -0.20338993, 8.548359, -0.02361536, 0.008467913, 10.041897
97774766502493, 5.2534423, -0.22612174, 8.55793, -0.009927034, -0.015601397, 10.044283
97774776141972, 5.267799, -0.22971097, 8.52802, 0.005795479, 0.007178068, 10.02644
97774785781347, 5.2833524, -0.22253251, 8.507681, 0.009291887, 0.031548023, 10.01713
97774795420722, 5.2905307, -0.20458634, 8.499306, -0.002629757, 0.048686743, 10.01336
97774805060097, 5.298906, -0.20338993, 8.504091, -0.0029232502, 0.05202532, 10.021808
97774814699472, 5.2929235, -0.21535404, 8.516056, 0.003087759, 0.03675556, 10.02912
97774824338951, 5.18405, -0.41515473, 8.499306, 0.15104508, -0.123961926, 9.962266
97774833978326, 5.456832, 0.13519448, 8.575876, -0.27645004, 0.28393173, 10.1579485
97774843617701, 5.127819, -0.38524446, 8.526823, 0.09240198, -0.1674385, 9.955556
97774853257076, 5.352744, -0.27517462, 8.483752, 0.08768368, 0.071305275, 10.034385
97774862896556, 5.241478, 0.10289137, 8.628518, -0.32816398, 0.08579254, 10.090588
97774872535931, 5.1732826, -0.8003992, 8.510074, 0.4931867, -0.30821943, 9.9742985
97774882175306, 5.393422, 0.49172506, 8.743374, -0.6392461, 0.33237743, 10.259546
97774891814681, 5.0679984, -1.0671989, 8.446664, 0.7051933, -0.4895234, 9.870802
97774901454160, 5.4963136, 0.5192425, 8.663215, -0.59587204, 0.46620965, 10.244899
97774911093535, 5.0344987, -0.9200403, 8.476574, 0.54540133, -0.470222, 9.875545
97774920732910, 5.4867425, 0.27756742, 8.632108, -0.38983798, 0.34904718, 10.218653
97774930372285, 5.117051, -0.4438686, 8.519645, 0.13975382, -0.19569016, 9.945239
97774940011764, 5.3982077, -0.21415763, 8.437093, 0.062936544, 0.15602756, 10.017122
97774949651139, 5.2749777, 0.111266255, 8.5220375, -0.2951417, 0.17197132, 10.017296
97774959290514, 5.231907, -0.71306115, 8.405986, 0.45688224, -0.18452883, 9.914591
97774968929889, 5.400601, 0.50009996, 8.671589, -0.623796, 0.37912202, 10.201969
97774978569264, 5.0859447, -1.0229317, 8.374879, 0.66879153, -0.43478322, 9.8191395
97774988208743, 5.508278, 0.54675996, 8.624929, -0.62271285, 0.50478053, 10.216991
97774997848118, 5.0416775, -0.95712906, 8.437093, 0.5894027, -0.4694066, 9.846391
97775007487493, 5.493921, 0.30149564, 8.652447, -0.40581346, 0.36137033, 10.239318
97775017126868, 5.1003013, -0.51565325, 8.569894, 0.1822052, -0.27801967, 9.980558
97775026766347, 5.3886366, -0.18065812, 8.545966, 0.004511595, 0.10896087, 10.104044
97775036405722, 5.231907, 0.021535404, 8.628518, -0.25864375, 0.05020237, 10.087379
97775046045097, 5.227121, -0.70947194, 8.472985, 0.42666507, -0.22347212, 9.969234
97775055684472, 5.3922257, 0.45822555, 8.715857, -0.6092775, 0.3186736, 10.236183
97775065323847, 5.09073, -0.9942178, 8.40479, 0.64754677, -0.41704154, 9.846382
97775074963326, 5.4927244, 0.5706882, 8.590233, -0.6399975, 0.49888325, 10.17985
97775084602701, 5.0165524, -0.96550393, 8.380861, 0.6023154, -0.44561362, 9.786494
97775094242076, 5.4759746, 0.33379877, 8.597412, -0.4429692, 0.3897426, 10.181606
97775103881451, 5.0799623, -0.5563313, 8.52443, 0.23104095, -0.28431225, 9.932132
97775113520826, 5.3994045, -0.13878371, 8.529217, -0.030192852, 0.14944291, 10.09441
97775123160306, 5.239085, -0.03589234, 8.601001, -0.20114255, 0.036361456, 10.069
97775132799681, 5.2570314, -0.6472585, 8.504091, 0.38095975, -0.17731476, 10.00991
97775142439056, 5.373083, 0.43669012, 8.754142, -0.6075827, 0.2827916, 10.258976
97775152078431, 5.1003013, -0.9954142, 8.4705925, 0.6331737, -0.43958068, 9.907608
97775161717806, 5.4903316, 0.57906306, 8.641679, -0.6605418, 0.48221087, 10.221977
97775171357285, 5.032106, -0.9726824, 8.368897, 0.62929296, -0.4351282, 9.783728
97775180996660, 5.493921, 0.39361933, 8.590233, -0.48553658, 0.4367087, 10.183504
97775190636035, 5.050052, -0.63170516, 8.475378, 0.3061154, -0.3140874, 9.876324
97775200275410, 5.416154, -0.09451649, 8.483752, -0.05284071, 0.20163155, 10.063513
97775209914785, 5.215157, -0.09451649, 8.513663, -0.13512015, 0.031332016, 9.983487
97775219554264, 5.2833524, -0.6221339, 8.445468, 0.37923217, -0.12051797, 9.973388
97775229193639, 5.365905, 0.38524446, 8.71466, -0.5571904, 0.26700115, 10.222765
97775238833014, 5.13739, -0.9762716, 8.489735, 0.6352899, -0.3960166, 9.94289
97775248472389, 5.487939, 0.57906306, 8.691928, -0.69454384, 0.4495592, 10.262449
97775258111764, 5.035695, -1.0037891, 8.420342, 0.6534622, -0.45940137, 9.830051
97775267751243, 5.5130634, 0.43429732, 8.664411, -0.5225326, 0.42857933, 10.256597
97775277390618, 5.0572305, -0.64845496, 8.539984, 0.29809332, -0.35576487, 9.9353895
97775287029993, 5.419743, -0.014356935, 8.559127, -0.13935447, 0.20645785, 10.1277075
97775296669368, 5.1960144, -0.12921242, 8.526823, -0.11332941, 1.5854836E-4, 9.985446
97775306308743, 5.316852, -0.54317075, 8.4012, 0.33648443, -0.04645109, 9.951319
97775315948118, 5.3814583, 0.37447673, 8.650054, -0.50881076, 0.32608914, 10.176373
97775325587597, 5.174479, -0.930808, 8.425129, 0.6119063, -0.34687114, 9.906043
97775335226972, 5.4819565, 0.57547385, 8.6141615, -0.6303098, 0.51136875, 10.194509
97775344866347, 5.048856, -1.0229317, 8.346166, 0.66310024, -0.45095515, 9.775108
97775354505722, 5.4843497, 0.44865423, 8.616554, -0.53145504, 0.43241286, 10.200733
97775364145097, 4.9986067, -0.721436, 8.536395, 0.3400309, -0.42421865, 9.903585
97775373784472, 5.3970113, -0.0035892338, 8.609376, -0.16681743, 0.1593144, 10.158539
97775383423951, 5.1589255, -0.2440679, 8.57468, -0.033890963, -0.10859561, 10.009309
97775393063326, 5.3144593, -0.5491528, 8.493324, 0.3186996, -0.082116365, 10.028623
97775402702701, 5.3479586, 0.27517462, 8.711071, -0.46299338, 0.20519972, 10.212868
97775412342076, 5.1673007, -0.92243314, 8.492127, 0.5959716, -0.3566177, 9.959204
97775421981451, 5.483153, 0.6017949, 8.694321, -0.7044041, 0.45188475, 10.262454
97775431620826, 5.063213, -1.0037891, 8.377272, 0.66688085, -0.43053532, 9.807767
97775441260306, 5.534599, 0.5096712, 8.577073, -0.5703242, 0.5239165, 10.191074
97775450899681, 5.0452666, -0.73100734, 8.427522, 0.38775253, -0.3461187, 9.835755
97775460539056, 5.4460645, 0.11246266, 8.512466, -0.22815931, 0.29281163, 10.099335
97775470178431, 5.1613183, -0.26081768, 8.465807, 0.008176804, -0.063277006, 9.91832
97775479817806, 5.3180485, -0.48215377, 8.40479, 0.28224778, -0.02237773, 9.953613
97775489457181, 5.2929235, 0.21296121, 8.658429, -0.41487956, 0.16805577, 10.140435
97775499096556, 5.1409793, -0.91166544, 8.519645, 0.55739665, -0.4073434, 9.968377
97775508736035, 5.4341, 0.52283174, 8.745767, -0.6578157, 0.38982248, 10.28137
97775518375410, 5.0476594, -1.0408778, 8.440681, 0.6490984, -0.50285363, 9.8556185
97775528014785, 5.51426, 0.53359944, 8.672786, -0.6178832, 0.488806, 10.261007
97775537654160, 5.0452666, -0.74895346, 8.535198, 0.3626914, -0.41003418, 9.92802
97775547293535, 5.456832, 0.1698904, 8.616554, -0.28603363, 0.29965353, 10.19212
97775556932910, 5.1206403, -0.317049, 8.52802, 0.03071475, -0.14696836, 9.951182
97775566572285, 5.3443694, -0.37088752, 8.443074, 0.18735337, 0.034650326, 9.997451
97775576211764, 5.2941203, 0.2213361, 8.60459, -0.39903986, 0.2091949, 10.0951805
97775585851139, 5.1696935, -0.86979103, 8.441878, 0.54771614, -0.34187865, 9.916184
97775595490514, 5.4293146, 0.50009996, 8.673982, -0.6074537, 0.4017048, 10.219353
97775605129889, 5.072784, -1.0612168, 8.382058, 0.70410585, -0.47444987, 9.818215
97775614769264, 5.5046883, 0.5276174, 8.636893, -0.60080945, 0.5027132, 10.225568
97775624408639, 5.042874, -0.8458628, 8.486146, 0.4785204, -0.43453002, 9.886502
97775634048014, 5.4795637, 0.2009971, 8.615358, -0.3075968, 0.33035398, 10.202287
97775643687493, 5.130212, -0.35294133, 8.5220375, 0.06327343, -0.1525333, 9.95196
97775653326868, 5.3539405, -0.3182454, 8.439486, 0.14227772, 0.07427788, 9.998257
97775662966243, 5.255835, 0.1902294, 8.605786, -0.39117432, 0.15584302, 10.0768175
97775672605618, 5.1613183, -0.7896315, 8.441878, 0.48359394, -0.3035462, 9.909694
97775682244993, 5.4089756, 0.55034924, 8.691928, -0.6775367, 0.4041853, 10.221891
97775691884368, 5.0656056, -1.0444671, 8.428718, 0.67941785, -0.4866264, 9.853738
97775701523743, 5.503492, 0.55513483, 8.663215, -0.6263243, 0.5096686, 10.24675
97775711163222, 5.042874, -0.8781659, 8.517252, 0.48572636, -0.46019197, 9.914516
97775720802597, 5.49751, 0.24885355, 8.706285, -0.37254858, 0.3338251, 10.287551
97775730441972, 5.099105, -0.46061835, 8.611769, 0.123191595, -0.25844836, 10.01467
97775740081347, 5.363512, -0.2955136, 8.5112705, 0.112971544, 0.05841136, 10.063804
97775749720722, 5.2630134, 0.08733802, 8.60459, -0.29160583, 0.12014556, 10.081987
97775759360097, 5.186443, -0.7956135, 8.432307, 0.5095041, -0.27247834, 9.914743
97775768999472, 5.3850474, 0.47018966, 8.646464, -0.599344, 0.3724134, 10.172672
97775778638847, 5.0548377, -1.0432707, 8.323434, 0.7062397, -0.44252157, 9.758318
97775788278222, 5.4867425, 0.5623133, 8.534002, -0.6137607, 0.54521537, 10.12797
97775797917701, 5.0165524, -0.91166544, 8.370093, 0.5611272, -0.43158007, 9.775187
97775807557076, 5.4676, 0.31106696, 8.622537, -0.42065644, 0.3747511, 10.199126
97775817196451, 5.087141, -0.4438686, 8.57468, 0.11639261, -0.250216, 9.976221
97775826835826, 5.413761, -0.19142582, 8.563912, 0.024694204, 0.12640548, 10.132596
97775836475201, 5.265406, 0.07298109, 8.696713, -0.30305767, 0.07589769, 10.161942
97775846114576, 5.258228, -0.72263247, 8.566305, 0.42650318, -0.25080776, 10.065184
97775855753951, 5.4221363, 0.47258246, 8.812766, -0.6257554, 0.33253717, 10.333712
97775865393326, 5.089534, -1.0253245, 8.4909315, 0.645458, -0.4852023, 9.919604
97775875032806, 5.4963136, 0.5599205, 8.642876, -0.6303179, 0.5022497, 10.226079
97775884672181, 5.011767, -0.96550393, 8.367701, 0.6028271, -0.47547603, 9.771333
97775894311556, 5.4616175, 0.3278167, 8.553144, -0.41582012, 0.40346527, 10.136929
97775903950931, 5.0344987, -0.54436713, 8.452646, 0.21084881, -0.28578424, 9.84701
97775913590306, 5.349155, -0.16271193, 8.438289, 0.00944519, 0.14075518, 9.991233
97775923229681, 5.1852465, 0.02632105, 8.513663, -0.24237227, 0.075081825, 9.965218
97775932869056, 5.235496, -0.6652047, 8.447861, 0.40257525, -0.18580437, 9.951014
97775942508431, 5.407779, 0.4546363, 8.723035, -0.58866525, 0.34258294, 10.250767
97775952147806, 5.1290154, -1.0013963, 8.474181, 0.6684387, -0.42146754, 9.9245615
97775961787285, 5.5022955, 0.57188463, 8.71466, -0.6697352, 0.44377327, 10.290876
97775971426660, 5.0309095, -0.95832545, 8.504091, 0.5936332, -0.48413062, 9.897537
97775981066035, 5.493921, 0.37567315, 8.705089, -0.49075973, 0.35822678, 10.282688
97775990705410, 5.0620165, -0.57427746, 8.572288, 0.23847818, -0.31286693, 9.964093
97776000344785, 5.3850474, -0.0741775, 8.550752, -0.09188032, 0.15725565, 10.103784
97776009984160, 5.1756754, -0.023928227, 8.544769, -0.20685017, 0.018582582, 9.9879
97776019623535, 5.2462635, -0.61854464, 8.427522, 0.38813305, -0.1250174, 9.937943
97776029262910, 5.3539405, 0.43788654, 8.653643, -0.5862973, 0.3136816, 10.163652
97776038902285, 5.119444, -0.9595219, 8.411968, 0.64506984, -0.38663816, 9.865342
97776048541764, 5.4867425, 0.61734825, 8.646464, -0.68824744, 0.51481795, 10.222919
97776058181139, 5.0416775, -0.9906286, 8.416754, 0.6245322, -0.46446633, 9.830353
97776067820514, 5.493921, 0.41994038, 8.645268, -0.5064299, 0.4334004, 10.230145
97776077459889, 5.0392847, -0.64965135, 8.553144, 0.29036856, -0.37986255, 9.937008
97776087099264, 5.4125648, -0.05503492, 8.581859, -0.09111428, 0.17257333, 10.144413
97776096738639, 5.1828537, -0.13998012, 8.565108, -0.10733175, -0.027770996, 10.011511
97776106378014, 5.271388, -0.58983076, 8.455039, 0.35595965, -0.12832355, 9.973964
97776116017389, 5.367101, 0.37328035, 8.696713, -0.51520777, 0.29674506, 10.209037
97776125656764, 5.148158, -0.93320084, 8.486146, 0.5982723, -0.39022708, 9.943784
97776135296139, 5.4783673, 0.6053841, 8.666803, -0.68941593, 0.4893422, 10.236099
97776144935618, 5.0512486, -0.991825, 8.392825, 0.64154696, -0.43793702, 9.815039
97776154574993, 5.4783673, 0.47856453, 8.608179, -0.557968, 0.46280527, 10.189052
97776164214368, 5.015356, -0.6831509, 8.517252, 0.32570815, -0.3782544, 9.895196
97776173853743, 5.386244, 0.015553347, 8.581859, -0.17036927, 0.18144083, 10.129079
97776183493118, 5.144569, -0.19142582, 8.580662, -0.08176446, -0.088733196, 10.005819
97776193132493, 5.278567, -0.5407779, 8.499306, 0.30372262, -0.10310054, 10.014541
97776202771868, 5.339584, 0.2943172, 8.713464, -0.47307742, 0.22047949, 10.210281
97776212411243, 5.144569, -0.951147, 8.525627, 0.6117139, -0.41040158, 9.975719
97776222050618, 5.4628143, 0.58504516, 8.715857, -0.6929407, 0.45448637, 10.269569
97776231690097, 5.042874, -1.0013963, 8.4012, 0.66367316, -0.43647385, 9.817461
97776241329472, 5.503492, 0.49292147, 8.618947, -0.5570296, 0.4814, 10.211543
97776250968847, 5.015356, -0.7393822, 8.477771, 0.39436078, -0.386343, 9.86247
97776260608222, 5.4484572, 0.08973085, 8.520842, -0.20094252, 0.2929976, 10.10803
97776270247597, 5.191229, -0.24047868, 8.4682, 0.009934187, -0.025395632, 9.93561
97776279886972, 5.3407803, -0.47856453, 8.382058, 0.29986, 0.02046609, 9.9459305
97776289526347, 5.319245, 0.25244278, 8.635697, -0.43016958, 0.22312999, 10.134029
97776299165722, 5.1361938, -0.9128618, 8.5423765, 0.5701909, -0.4043324, 9.9848585
97776308805097, 5.4496536, 0.5419743, 8.7673025, -0.66614294, 0.4165659, 10.307317
97776318444472, 5.042874, -1.0420742, 8.487342, 0.66034436, -0.513587, 9.891998
97776328083951, 5.4843497, 0.5288138, 8.718249, -0.6254586, 0.43938923, 10.285006
97776337723326, 5.005785, -0.7752745, 8.572288, 0.3694942, -0.45585394, 9.939755
97776347362701, 5.413761, 0.14476576, 8.62134, -0.28767848, 0.26648974, 10.173667
97776357002076, 5.0979085, -0.28713873, 8.538788, -0.008478165, -0.1462686, 9.947893
97776366641451, 5.308477, -0.40677986, 8.445468, 0.2052927, 6.9499016E-4, 9.981442
97776376280826, 5.278567, 0.23449662, 8.660822, -0.43053782, 0.1901679, 10.134425
97776385920201, 5.1673007, -0.8781659, 8.469396, 0.5599139, -0.3442607, 9.938351
97776395559576, 5.4496536, 0.53359944, 8.707481, -0.63881636, 0.42461753, 10.257451
97776405199056, 5.0799623, -1.0468599, 8.394022, 0.6893461, -0.44216037, 9.83315
97776414838431, 5.528617, 0.5371887, 8.639286, -0.59480786, 0.5142255, 10.240763
97776424477806, 5.042874, -0.83988076, 8.496913, 0.47397995, -0.42885566, 9.895702
97776434117181, 5.4616175, 0.19621146, 8.622537, -0.3237195, 0.31877208, 10.198505
97776443756556, 5.109873, -0.357727, 8.538788, 0.059788704, -0.17234015, 9.955723
97776453395931, 5.3144593, -0.3469593, 8.452646, 0.14996266, 0.027958155, 9.989386
97776463035306, 5.2426744, 0.15433706, 8.6141615, -0.3686583, 0.13004875, 10.077719
97776472674681, 5.174479, -0.8446664, 8.486146, 0.5282464, -0.32923794, 9.955698
97776482314056, 5.424529, 0.51565325, 8.744571, -0.64365566, 0.3804314, 10.276182
97776491953535, 5.069195, -1.0253245, 8.452646, 0.655895, -0.47989607, 9.875968
97776501592910, 5.5393844, 0.55513483, 8.685946, -0.6172037, 0.5127156, 10.28566
97776511232285, 5.066802, -0.8386843, 8.510074, 0.47298932, -0.4225676, 9.919422
97776520871660, 5.5022955, 0.26679972, 8.658429, -0.3662008, 0.36529493, 10.249258
97776530511035, 5.123033, -0.42951167, 8.519645, 0.12940335, -0.18094969, 9.948107
97776540150410, 5.3539405, -0.31944183, 8.439486, 0.14507008, 0.07851958, 9.998222
97776549789785, 5.2426744, 0.096909314, 8.559127, -0.29800165, 0.12943697, 10.032354
97776559429160, 5.1900325, -0.8243274, 8.455039, 0.5211029, -0.2927153, 9.937122
97776569068535, 5.3790655, 0.4438686, 8.719446, -0.60310006, 0.32136774, 10.231964
97776578708014, 5.069195, -1.0839486, 8.453842, 0.705848, -0.49286866, 9.8791685
97776588347389, 5.493921, 0.5491528, 8.673982, -0.6298237, 0.47508144, 10.251844
97776597986764, 5.038088, -0.8889336, 8.489735, 0.5146098, -0.43353248, 9.8891535
97776607626139, 5.505885, 0.34456646, 8.682357, -0.46489012, 0.3842249, 10.269035
97776617265514, 5.127819, -0.41754755, 8.563912, 0.1105926, -0.18819761, 9.988085
97776626904889, 5.40419, -0.16390835, 8.510074, 0.0041701794, 0.15478897, 10.081146
97776636544264, 5.2606206, 0.10289137, 8.627322, -0.3187964, 0.10804963, 10.099609
97776646183639, 5.229514, -0.7477571, 8.4705925, 0.47433066, -0.21454835, 9.969296
97776655823118, 5.3922257, 0.44865423, 8.691928, -0.5920284, 0.3270731, 10.216141
97776665462493, 5.0644093, -1.0456635, 8.407183, 0.6955085, -0.4428568, 9.835777
97776675101868, 5.485546, 0.5347959, 8.617751, -0.60424376, 0.48259234, 10.200238
97776684741243, 4.9902315, -0.96550393, 8.419147, 0.5944314, -0.48617077, 9.804435
97776694380618, 5.4699926, 0.33499518, 8.650054, -0.4414916, 0.3657143, 10.223885
97776704019993, 5.058427, -0.5288138, 8.578269, 0.18758225, -0.30743003, 9.966159
97776713659368, 5.380262, -0.20697916, 8.544769, 0.028414488, 0.10361266, 10.099091
97776723298847, 5.239085, -0.020338992, 8.579466, -0.20222759, 0.06396651, 10.050407
97776732938222, 5.2749777, -0.68195444, 8.482556, 0.42402864, -0.16794491, 10.001812
97776742577597, 5.40419, 0.47377887, 8.715857, -0.6159811, 0.3571093, 10.241531
97776752216972, 5.1254263, -0.9846465, 8.456235, 0.64238286, -0.40294194, 9.908199
97776761856347, 5.505885, 0.62452674, 8.658429, -0.67964196, 0.5318532, 10.243458
97776771495722, 5.0452666, -0.9451649, 8.4502535, 0.58429646, -0.45649028, 9.859263
97776781135097, 5.493921, 0.38404804, 8.678768, -0.47919285, 0.41740537, 10.259036
97776790774472, 5.040481, -0.61734825, 8.563912, 0.2555232, -0.3617561, 9.946457
97776800413951, 5.3850474, -0.12801601, 8.553144, -0.04053855, 0.14121914, 10.106918
97776810053326, 5.1852465, -0.0741775, 8.590233, -0.17712092, -2.593994E-4, 10.032597
97776819692701, 5.2570314, -0.6687939, 8.49811, 0.39759898, -0.19249654, 10.00532
97776829332076, 5.355137, 0.39361933, 8.733803, -0.5661237, 0.27816272, 10.232979
97776838971451, 5.1361938, -1.0085747, 8.440681, 0.66697836, -0.40692067, 9.90113
97776848610826, 5.515456, 0.58624154, 8.65125, -0.65343463, 0.5087893, 10.2431555
97776858250306, 5.0440702, -0.97507524, 8.43111, 0.6052952, -0.4519019, 9.844107
97776867889681, 5.495117, 0.43788654, 8.65125, -0.5291035, 0.42550182, 10.235778
97776877529056, 5.0548377, -0.60777694, 8.554341, 0.2609117, -0.33782244, 9.945619
97776887168431, 5.4029937, -0.021535404, 8.530413, -0.12175298, 0.20692086, 10.0947075
97776896807806, 5.1720862, -0.11006984, 8.525627, -0.13373327, -0.0019648075, 9.971512
97776906447181, 5.2534423, -0.6017949, 8.427522, 0.3569188, -0.13558197, 9.941739
97776916086556, 5.3503513, 0.3361916, 8.69791, -0.50074637, 0.2743857, 10.201319
97776925726035, 5.133801, -1.006182, 8.4682, 0.63465023, -0.4552405, 9.92314
97776935365410, 5.493921, 0.53599226, 8.682357, -0.6098294, 0.49846792, 10.258334
97776945004785, 5.0739803, -1.0289137, 8.429914, 0.6302581, -0.4984107, 9.860109
97776954644160, 5.5262237, 0.43908295, 8.676374, -0.5057558, 0.48397994, 10.272361
97776964283535, 5.0416775, -0.67836523, 8.559127, 0.2662077, -0.4036255, 9.945027
97776973922910, 5.416154, 0.029910283, 8.58784, -0.15484834, 0.23388815, 10.1492815
97776983562389, 5.160122, -0.12921242, 8.547162, -0.13181376, -0.013192177, 9.983987
97776993201764, 5.2929235, -0.506082, 8.463413, 0.2744949, -0.08956766, 9.990853
97777002841139, 5.3336015, 0.35294133, 8.695518, -0.5015216, 0.3007326, 10.190287
97777012480514, 5.1361938, -0.9296116, 8.502895, 0.54139495, -0.44724107, 9.952425
97777022119889, 5.4640107, 0.56590253, 8.743374, -0.64954436, 0.4677837, 10.294733
97777031759264, 5.0715876, -1.0396814, 8.467003, 0.6406536, -0.5222566, 9.889837
97777041398743, 5.5250273, 0.45104706, 8.660822, -0.5243025, 0.46599388, 10.259004
97777051038118, 5.0512486, -0.7645068, 8.52443, 0.39924622, -0.40045094, 9.921983
97777060677493, 5.440082, 0.039481573, 8.592627, -0.18165731, 0.23702693, 10.165634
97777070316868, 5.1649075, -0.25004998, 8.520842, -0.014318943, -0.06574011, 9.966897
97777079956243, 5.296513, -0.51445687, 8.415557, 0.30122113, -0.038544416, 9.952241
97777089595722, 5.3012986, 0.26799613, 8.636893, -0.45271802, 0.21286559, 10.1252775
97777099235097, 5.131408, -0.91405827, 8.4682, 0.5845442, -0.3714342, 9.919558
97777108874472, 5.4580283, 0.5563313, 8.683554, -0.67215264, 0.44822598, 10.239677
97777118513847, 5.0368915, -1.032503, 8.432307, 0.66119695, -0.48394918, 9.842192
97777128153222, 5.5130634, 0.53240305, 8.694321, -0.62199354, 0.4683764, 10.279217
97777137792597, 5.0512486, -0.75972116, 8.559127, 0.3931067, -0.4015596, 9.95164
97777147432076, 5.4699926, 0.12323037, 8.657232, -0.26244533, 0.2729249, 10.23427
97777157071451, 5.133801, -0.29072794, 8.616554, -0.01769805, -0.14658403, 10.033127
97777166710826, 5.326423, -0.4127619, 8.5220375, 0.1921103, -0.017547369, 10.056295
97777176350201, 5.2953167, 0.23090738, 8.681161, -0.43200946, 0.1838069, 10.160504
97777185989576, 5.160122, -0.89491564, 8.476574, 0.56838536, -0.33791232, 9.941973
97777195629056, 5.4257255, 0.50129634, 8.702696, -0.63718534, 0.39503837, 10.240345
97777205268431, 5.0368915, -1.0983056, 8.370093, 0.7444911, -0.47123337, 9.790746
97777214907806, 5.4927244, 0.47736812, 8.603394, -0.5543461, 0.47413278, 10.192358
97777224547181, 5.035695, -0.8446664, 8.455039, 0.47270465, -0.40429616, 9.85761
97777234186556, 5.4783673, 0.18783657, 8.608179, -0.3069613, 0.32976198, 10.195371
97777243826035, 5.157729, -0.33020952, 8.550752, 0.038862467, -0.11696768, 9.990564
97777253465410, 5.3539405, -0.36131623, 8.499306, 0.16075587, 0.03746581, 10.050184
97777263104785, 5.276174, 0.18185452, 8.678768, -0.39312387, 0.16198516, 10.14945
97777272744160, 5.1720862, -0.8279166, 8.519645, 0.49781823, -0.33333158, 9.983052
97777282383535, 5.419743, 0.5419743, 8.76132, -0.66809607, 0.42458296, 10.285984
97777292023014, 5.0548377, -1.0456635, 8.426325, 0.65566397, -0.48341346, 9.848055
97777301662389, 5.4999027, 0.53240305, 8.646464, -0.5893626, 0.5144229, 10.231411
97777311301764, 5.0536413, -0.8554341, 8.484949, 0.47975516, -0.4300332, 9.891933
97777320941139, 5.503492, 0.23449662, 8.650054, -0.33789992, 0.376189, 10.242615
97777330580514, 5.1326046, -0.424726, 8.569894, 0.11234617, -0.19558549, 9.9958105
97777340219993, 5.3742795, -0.31585258, 8.502895, 0.12972856, 0.074436665, 10.062778
97777349859368, 5.2642097, 0.11006984, 8.624929, -0.3202672, 0.13742375, 10.099108
97777359498743, 5.17089, -0.81834537, 8.475378, 0.5098686, -0.29876113, 9.944375
97777369138118, 5.369494, 0.4833502, 8.708678, -0.64211977, 0.34359717, 10.216448
97777378777597, 5.0452666, -1.0815558, 8.409575, 0.69819045, -0.4903307, 9.829423
97777388416972, 5.501099, 0.53359944, 8.620144, -0.60508907, 0.52160144, 10.208599
97777398056347, 5.0249276, -0.9236295, 8.465807, 0.54996777, -0.45672655, 9.862141
97777407695722, 5.4759746, 0.26919255, 8.685946, -0.3919077, 0.3372574, 10.2585125
97777417335097, 5.113462, -0.42951167, 8.598608, 0.10664487, -0.21908116, 10.010428
97777426974576, 5.395815, -0.19381863, 8.556734, 0.01423955, 0.12744284, 10.116997
97777436613951, 5.261817, 0.12323037, 8.659625, -0.34526277, 0.1239233, 10.127016
97777446253326, 5.2235317, -0.7405786, 8.502895, 0.4438436, -0.23867893, 9.993949
97777455892701, 5.40419, 0.47018966, 8.721839, -0.6187582, 0.35880327, 10.246229
97777465532181, 5.0799623, -1.0636097, 8.426325, 0.7105968, -0.45871758, 9.860267
97777475171556, 5.4843497, 0.5072784, 8.6141615, -0.58617663, 0.4754095, 10.1965475
97777484810931, 5.002196, -0.9762716, 8.429914, 0.591264, -0.47215223, 9.821712
97777494450306, 5.473582, 0.2847459, 8.645268, -0.40640998, 0.3677075, 10.221618
97777504089785, 5.050052, -0.5312066, 8.559127, 0.18350029, -0.29837584, 9.945913
97777513729160, 5.352744, -0.18305093, 8.532805, -0.002187252, 0.10417175, 10.073893
97777523368535, 5.2199426, 0.02751746, 8.612965, -0.26537025, 0.065351725, 10.067622
97777533007910, 5.2331033, -0.6939186, 8.5016985, 0.41747856, -0.19887424, 9.996595
97777542647389, 5.40419, 0.47856453, 8.772088, -0.63545394, 0.3328786, 10.289277
97777552286764, 5.1146584, -0.9882358, 8.486146, 0.63253856, -0.4122095, 9.928796
97777561926139, 5.523831, 0.6125626, 8.705089, -0.6941252, 0.5306301, 10.290924
97777571565514, 5.046463, -0.951147, 8.46461, 0.5972738, -0.43633842, 9.8728895
97777581204993, 5.4987063, 0.36370903, 8.676374, -0.48207116, 0.3979559, 10.259473
97777590844368, 5.063213, -0.5814559, 8.535198, 0.2526338, -0.29372215, 9.933465
97777600483743, 5.367101, -0.15792629, 8.506484, -0.012704849, 0.13817167, 10.058416
97777610123118, 5.17089, -0.0849452, 8.537591, -0.16007352, 0.008667231, 9.980486
97777619762597, 5.215157, -0.7046863, 8.456235, 0.42633963, -0.20747447, 9.948746
97777629401972, 5.343173, 0.34576288, 8.71466, -0.52736855, 0.26204133, 10.211148
97777639041347, 5.1026945, -1.0372887, 8.5112705, 0.66435885, -0.45973754, 9.944971
97777648680826, 5.5094743, 0.55393845, 8.729017, -0.6508136, 0.49002314, 10.30501
97777658320201, 5.0751767, -0.9762716, 8.4813595, 0.61107373, -0.4472146, 9.903058
97777667959576, 5.5202417, 0.4438686, 8.732606, -0.54583824, 0.45010376, 10.316393
97777677598951, 5.0644093, -0.5623133, 8.610572, 0.19346142, -0.3163309, 9.998444
97777687238431, 5.407779, -0.015553347, 8.581859, -0.13783836, 0.20636082, 10.140564
97777696877806, 5.1852465, -0.07537391, 8.551949, -0.16326952, 0.024448395, 10.0000515
97777706517181, 5.252246, -0.6029913, 8.400003, 0.37173414, -0.10765648, 9.91766
97777716156660, 5.343173, 0.3696911, 8.656036, -0.51104546, 0.31557536, 10.161319
97777725796035, 5.1062837, -1.0109676, 8.440681, 0.67479944, -0.41832995, 9.884885
97777735435410, 5.474778, 0.5371887, 8.678768, -0.61345553, 0.47401428, 10.246061
97777745074785, 5.0548377, -1.0396814, 8.428718, 0.673532, -0.47913718, 9.848472
97777754714264, 5.5106707, 0.4223332, 8.666803, -0.5078701, 0.458992, 10.256254
97777764353639, 5.069195, -0.6987042, 8.56152, 0.34823704, -0.36040497, 9.961596
97777773993014, 5.4185467, -0.02871387, 8.602198, -0.11794782, 0.19889832, 10.163946
97777783632493, 5.163711, -0.16271193, 8.578269, -0.09886408, -0.044391155, 10.013258
97777793271868, 5.2606206, -0.55752766, 8.493324, 0.3104639, -0.118144274, 10.000559
97777802911243, 5.306084, 0.2955136, 8.756535, -0.49318087, 0.21228695, 10.228905
97777812550722, 5.235496, -0.45104706, 8.624929, 0.17370367, -0.14853024, 10.097081
97777822190097, 5.241478, -0.18424734, 8.622537, -0.06046939, -0.011261463, 10.092145
97777831829472, 5.2809596, -0.21415763, 8.62134, -0.017751932, 0.0047192574, 10.112447
97777841468847, 5.2737813, -0.21535404, 8.618947, -0.018564463, -5.505085E-4, 10.106684
97777851108326, 5.2845488, -0.1902294, 8.612965, -0.03466177, 0.020915508, 10.10664
97777860747701, 5.3012986, -0.2117648, 8.575876, 3.373623E-4, 0.041025877, 10.084274
97777870387076, 5.306084, -0.20578274, 8.537591, 0.008286238, 0.06314635, 10.054019
97777880026556, 5.278567, -0.2105684, 8.514859, 0.007994413, 0.050313473, 10.020371
97777889665931, 5.276174, -0.18544376, 8.519645, -0.017164707, 0.05579543, 10.022642
97777899305306, 5.267799, -0.20697916, 8.493324, 0.0060362816, 0.051356077, 9.996322
97777908944785, 5.24746, -0.2213361, 8.534002, 0.00242424, 0.009786844, 10.020676
97777918584160, 5.237889, -0.24526432, 8.548359, 0.017605782, -0.013900995, 10.028439
97777928223535, 5.231907, -0.2620141, 8.5938225, 0.020173788, -0.045310497, 10.064434
97777937863014, 5.218746, -0.26679972, 8.63809, 0.009163141, -0.07811546, 10.09539
97777947502389, 5.2366924, -0.25244278, 8.679964, -0.007591009, -0.07564306, 10.140153
97777957141764, 5.2546387, -0.25004998, 8.673982, -0.002803564, -0.05596304, 10.144386
97777966781243, 5.267799, -0.22731815, 8.659625, -0.014695883, -0.028065681, 10.138515
97777976420618, 5.2701917, -0.21535404, 8.639286, -0.019420624, -0.011808157, 10.122156
97777986059993, 5.276174, -0.20338993, 8.590233, -0.016367197, 0.020500898, 10.083193
97777995699472, 5.2749777, -0.22492532, 8.55793, 0.010502577, 0.023552895, 10.055521
97778005338847, 5.261817, -0.21296121, 8.530413, 0.00131917, 0.031218052, 10.024921
97778014978222, 5.252246, -0.2213361, 8.532805, 0.0038883686, 0.017894745, 10.022152
97778024617701, 5.2534423, -0.21296121, 8.523234, -0.0018810034, 0.0268116, 10.01443
97778034257076, 5.2570314, -0.2117648, 8.543573, -0.0067788363, 0.020443916, 10.033612
97778043896451, 5.258228, -0.20817557, 8.560323, -0.013889432, 0.01522398, 10.048433
97778053535931, 5.2773705, -0.21894327, 8.577073, -0.001519084, 0.018343925, 10.072955
97778063175306, 5.255835, -0.21894327, 8.597412, -0.012709498, -0.0077023506, 10.079038
97778072814681, 5.272585, -0.22253251, 8.583055, -7.711649E-4, 0.010818005, 10.075632
97778082454160, 5.272585, -0.2105684, 8.597412, -0.013962746, 0.008219719, 10.087603
97778092093535, 5.265406, -0.20219351, 8.5938225, -0.023158908, 0.0076680183, 10.080605
97778101732701, 5.2546387, -0.22372891, 8.605786, -0.0080320835, -0.015916348, 10.08566
97778111372337, 5.2486563, -0.22253251, 8.597412, -0.009211302, -0.016180038, 10.07537
97778121011764, 5.2570314, -0.23090738, 8.606983, -2.1147728E-4, -0.017558575, 10.088091
97778130651191, 5.261817, -0.23928227, 8.622537, 0.005298376, -0.024194717, 10.104034
97778140290618, 5.2773705, -0.23449662, 8.602198, 0.010925174, -4.2390823E-4, 10.094717
97778149930045, 5.2749777, -0.25603202, 8.5938225, 0.029700518, -0.0069904327, 10.086813
97778159569420, 5.2642097, -0.24765715, 8.586644, 0.018450975, -0.008666515, 10.074883
97778169208847, 5.2701917, -0.23569304, 8.559127, 0.015103102, 0.013948441, 10.054289
97778178848274, 5.2689953, -0.21655045, 8.535198, 0.0020871162, 0.032113314, 10.032835
97778188487649, 5.259424, -0.2117648, 8.530413, -0.005069971, 0.02849555, 10.023648
97778198127076, 5.265406, -0.17826529, 8.534002, -0.03406489, 0.04560685, 10.02907
97778207766503, 5.2510495, -0.19381863, 8.555537, -0.030008078, 0.017296314, 10.040274
97778217405931, 5.2666025, -0.19142582, 8.583055, -0.032993317, 0.017518997, 10.0718
97778227045358, 5.285745, -0.20578274, 8.5938225, -0.01536274, 0.021499634, 10.091311
97778236684733, 5.285745, -0.21774685, 8.589037, -0.0034906864, 0.018731594, 10.087504
97778246324160, 5.2833524, -0.2440679, 8.592627, 0.01922226, 0.004163265, 10.089908
97778255963587, 5.282156, -0.25603202, 8.602198, 0.027862191, -0.006632805, 10.097708
97778265603014, 5.2737813, -0.26679972, 8.603394, 0.03408909, -0.018415928, 10.094594
97778275242441, 5.2366924, -0.2548356, 8.603394, 0.009888649, -0.042308807, 10.074938
97778284881816, 5.2438707, -0.27158538, 8.596215, 0.029277325, -0.04010153, 10.072953
97778294521243, 5.2426744, -0.2321038, 8.592627, -0.008923173, -0.022307396, 10.068376
97778304160670, 5.2498527, -0.20937198, 8.578269, -0.02388227, -5.917549E-4, 10.059369
97778313800097, 5.2630134, -0.20458634, 8.567501, -0.022093534, 0.016716003, 10.056961
97778323439524, 5.271388, -0.19142582, 8.541181, -0.025301695, 0.040830135, 10.038609
97778333078899, 5.2642097, -0.19980069, 8.549556, -0.021900535, 0.027710438, 10.042185
97778342718326, 5.291727, -0.20937198, 8.551949, -0.0037324429, 0.043581486, 10.058833
97778352357753, 5.2905307, -0.21894327, 8.559127, 0.0029571056, 0.035033226, 10.064545
97778361997181, 5.285745, -0.2440679, 8.577073, 0.01924467, 0.0122962, 10.077911
97778371636608, 5.278567, -0.23928227, 8.592627, 0.008736134, 0.0014500618, 10.087303
97778381275983, 5.2689953, -0.23090738, 8.606983, -0.0065100193, -0.008553743, 10.094339
97778390915410, 5.245067, -0.21774685, 8.617751, -0.03016591, -0.026125431, 10.090697
97778400554837, 5.2402816, -0.21415763, 8.609376, -0.03349948, -0.02402234, 10.0809765
97778410194264, 5.2366924, -0.22612174, 8.59143, -0.01938796, -0.023325443, 10.064086
97778419833691, 5.2498527, -0.22971097, 8.567501, -0.004958868, -0.0037462711, 10.050661
97778429473066, 5.271388, -0.23090738, 8.554341, 0.0077705383, 0.017843962, 10.050734
97778439112493, 5.279763, -0.23808585, 8.553144, 0.017410278, 0.021859169, 10.054257
97778448751920, 5.2869415, -0.25244278, 8.566305, 0.027979136, 0.014468193, 10.069562
97778458391347, 5.2869415, -0.25722843, 8.589037, 0.025210857, 0.0024161339, 10.089046
97778468030774, 5.302495, -0.21535404, 8.579466, -0.005074978, 0.03651786, 10.088049
97778477670201, 5.2642097, -0.19381863, 8.599805, -0.044289112, 0.0070061684, 10.0848465
97778487309628, 5.2701917, -0.19501504, 8.595019, -0.04082942, 0.013315916, 10.0839205
97778496949003, 5.2666025, -0.2009971, 8.568698, -0.03017044, 0.019801855, 10.059762
97778506588431, 5.2666025, -0.2105684, 8.55793, -0.018519878, 0.01974535, 10.050815
97778516227858, 5.2701917, -0.21535404, 8.53161, -0.00483346, 0.03219056, 10.030384
97778525867285, 5.245067, -0.2321038, 8.529217, 0.0025217533, 0.0067362785, 10.015593
97778535506712, 5.2606206, -0.22612174, 8.566305, -0.006565094, 0.0045535564, 10.055187
97778545146139, 5.2809596, -0.25244278, 8.589037, 0.018387556, -6.85215E-4, 10.085806
97778554785566, 5.279763, -0.25962126, 8.630911, 0.014664173, -0.02417469, 10.121023
97778564424941, 5.271388, -0.24885355, 8.633304, -7.3194504E-5, -0.026680946, 10.118433
97778574064368, 5.2845488, -0.2548356, 8.606983, 0.01544404, -0.0057520866, 10.103033
97778583703795, 5.2689953, -0.23808585, 8.58784, -6.41942E-4, -0.002167225, 10.078195
97778593343222, 5.259424, -0.2440679, 8.560323, 0.0071855783, 7.491112E-4, 10.049885
97778602982649, 5.261817, -0.22253251, 8.559127, -0.011564493, 0.011741638, 10.049609
97778612622076, 5.255835, -0.21894327, 8.545966, -0.013934016, 0.014488697, 10.035181
97778622261503, 5.2546387, -0.20817557, 8.519645, -0.017161608, 0.030205727, 10.011878
97778631900931, 5.265406, -0.19381863, 8.525627, -0.028025627, 0.04168892, 10.022268
97778641540358, 5.3036914, -0.20937198, 8.539984, -0.003238678, 0.058261395, 10.054895
97778651179733, 5.3012986, -0.2117648, 8.577073, -0.009046197, 0.037192345, 10.085304
97778660819160, 5.2905307, -0.22971097, 8.589037, 0.0015161037, 0.0156235695, 10.090282
97778670458587, 5.2941203, -0.24765715, 8.606983, 0.014891863, 0.0025873184, 10.107868
97778680098014, 5.276174, -0.2548356, 8.610572, 0.014270544, -0.016521692, 10.101705
97778689737441, 5.2498527, -0.23688944, 8.6141615, -0.012021303, -0.030935287, 10.090577
97778699376868, 5.221139, -0.24047868, 8.592627, -0.013647795, -0.044723988, 10.057293
97778709016295, 5.224728, -0.23330021, 8.585447, -0.017180443, -0.034380913, 10.052893
97778718655722, 5.239085, -0.22013968, 8.57468, -0.021400213, -0.01288414, 10.0509205
97778728295149, 5.265406, -0.21535404, 8.563912, -0.014353037, 0.015159607, 10.055397
97778737934576, 5.271388, -0.22372891, 8.580662, -0.008878946, 0.008718491, 10.072993
97778747574003, 5.2845488, -0.2117648, 8.580662, -0.01623249, 0.024098158, 10.079594
97778757213431, 5.296513, -0.20338993, 8.575876, -0.018548012, 0.039122343, 10.081577
97778766852858, 5.2977095, -0.21655045, 8.573483, -0.0060088634, 0.03470087, 10.080475
97778776492233, 5.2749777, -0.23928227, 8.543573, 0.013723373, 0.020502806, 10.043638
