timestamp_acc,device_acc_x,device_acc_y,device_acc_z,earth_acc_x,earth_acc_y,earth_acc_z
777937347867650, 5.9234324, -1.5876378, 7.999206, -0.01678276, -8.277893E-4, 10.079419
777937357507442, 5.946164, -1.558924, 7.993224, -0.016344547, -0.037668705, 10.083506
777937367147234, 5.922236, -1.5780666, 7.9238324, -0.052427292, -0.026581526, 10.017327
777937376787025, 5.8971114, -1.5804594, 7.9477606, -0.025336742, -0.004287243, 10.0219755
777937386426817, 5.928218, -1.5553347, 7.9980097, -0.0013113022, -0.028667688, 10.076219
777937396066609, 5.933004, -1.5481563, 8.023134, 0.012867928, -0.031490445, 10.097862
777937405706400, 5.928218, -1.564906, 7.993224, -0.010729313, -0.022528172, 10.073912
777937415346192, 5.918647, -1.5840486, 7.9800634, -0.024395466, -0.004259348, 10.060835
777937424985984, 5.918647, -1.5984055, 8.000402, -0.021615982, 0.013184428, 10.07924
777937434625775, 5.928218, -1.5816557, 8.008778, -0.014833927, -0.0039334297, 10.08889
777937444265567, 5.8971114, -1.5768701, 7.975278, -0.012393475, 6.3979626E-4, 10.043274
777937453905359, 5.8600225, -1.5864414, 7.9908314, 0.014513016, 0.032008767, 10.035378
777937463545150, 5.877969, -1.5744773, 8.000402, 0.01539278, 0.0149332285, 10.051641
777937473184942, 5.889933, -1.5816557, 8.000402, 0.006237507, 0.016917467, 10.059774
777937482824629, 5.8827543, -1.579263, 7.9920278, 0.008701801, 0.018764973, 10.048529
777937492464421, 5.8863435, -1.5768701, 7.9980097, 0.012126923, 0.018197656, 10.055011
777937502104213, 5.9007006, -1.5541383, 8.020741, 0.02979517, -0.0014611483, 10.077947
777937511744004, 5.8947186, -1.5457634, 8.032705, 0.044630527, -0.0018142462, 10.08263
777937521383796, 5.910272, -1.538585, 8.009974, 0.026499748, -0.02151072, 10.072591
777937531023588, 5.907879, -1.5469599, 7.987242, 0.00989151, -0.019304395, 10.054436
777937540663379, 5.9210396, -1.5684953, 7.966903, -0.021740437, -0.014464617, 10.049365
777937550303171, 5.9114685, -1.570888, 7.987242, -0.0051398277, -0.0032811165, 10.060275
777937559942963, 5.9437714, -1.5756737, 7.98126, -0.028499603, -0.019539833, 10.07524
777937569582754, 5.936593, -1.5900307, 7.945368, -0.051751137, -0.012354255, 10.044769
777937579222546, 5.912665, -1.5840486, 7.9680996, -0.021177769, 0.0010557175, 10.047834
777937588862338, 5.885147, -1.5732809, 8.003992, 0.021835327, 0.016114354, 10.0584955
777937598502129, 5.892326, -1.5840486, 8.002795, 0.0090818405, 0.020188808, 10.063446
777937608141921, 5.8875403, -1.585245, 7.9740815, -0.007946014, 0.01548028, 10.038018
777937617781713, 5.8743796, -1.558924, 7.962117, 0.0057206154, -0.0026445389, 10.01668
777937627421504, 5.885147, -1.5672989, 7.9704924, -0.0016140938, -2.0360947E-4, 10.030959
777937637061192, 5.9090757, -1.5684953, 7.978867, -0.011049271, -0.009485245, 10.051838
777937646700984, 5.899504, -1.570888, 7.9884386, 0.0025401115, 0.00258708, 10.054201
777937656340775, 5.8875403, -1.5720844, 8.005188, 0.018321991, 0.014170647, 10.060669
777937665980567, 5.9318075, -1.5924234, 8.019546, -0.011458874, 0.010538697, 10.10124
777937675620359, 5.9581285, -1.5840486, 8.019546, -0.024487495, -0.012398601, 10.115377
777937685260150, 5.916254, -1.5553347, 8.001599, 0.0072464943, -0.016785622, 10.072059
777937694899942, 5.8827543, -1.5768701, 7.96451, -0.0064926147, 0.008662462, 10.0262985
777937704539734, 5.9007006, -1.5756737, 7.9501534, -0.022455692, -0.0073422194, 10.025238
777937714179525, 5.9210396, -1.5768701, 7.987242, -0.011970997, -0.008230448, 10.066829
777937723819317, 5.907879, -1.5732809, 7.9836526, -0.0022001266, -0.0044060946, 10.055691
777937733459109, 5.889933, -1.5900307, 7.958528, -0.015126228, 0.01267314, 10.027825
777937743098900, 5.881558, -1.5720844, 7.9357963, -0.012178421, -0.0025094748, 10.002045
777937752738692, 5.8971114, -1.5661024, 7.984849, 0.007326126, -0.004988432, 10.049195
777937762378484, 5.9246287, -1.5613167, 8.015956, 0.008302689, -0.016674161, 10.089308
777937772018275, 5.9090757, -1.564906, 8.001599, 0.0051317215, -0.008531451, 10.06934
777937781657963, 5.889933, -1.5684953, 7.9764743, -7.376671E-4, -5.635023E-4, 10.038707
777937791297754, 5.905486, -1.5613167, 7.9944205, 0.0038843155, -0.010487437, 10.060969
777937800937546, 5.922236, -1.5553347, 8.013563, 0.008160114, -0.018647075, 10.085075
777937810577338, 5.922236, -1.5613167, 8.018349, 0.008428574, -0.011469126, 10.089813
777937820217129, 5.9234324, -1.5864414, 7.9716887, -0.0318079, -0.0019950867, 10.057369
777937829856921, 5.8911295, -1.5840486, 7.969296, -0.011909008, 0.01323843, 10.036133
777937839496713, 5.8707905, -1.585245, 7.9680996, 3.385544E-5, 0.02477324, 10.023432
777937849136504, 5.898308, -1.5684953, 8.000402, 0.012283802, 0.0031372309, 10.062629
777937858776296, 5.922236, -1.550549, 8.025527, 0.022862911, -0.019606233, 10.0938225
777937868416088, 5.9066825, -1.5804594, 7.9908314, -0.0054240227, 0.0044823885, 10.061813
777937878055879, 5.8624153, -1.579263, 7.9429746, -0.0044732094, 0.017111182, 9.997626
777937887695671, 5.8839507, -1.5888343, 7.9633136, -0.010456562, 0.019465327, 10.027919
777937897335463, 5.9234324, -1.5457634, 7.98126, 7.123947E-4, -0.03222549, 10.058623
777937906975150, 5.916254, -1.5194423, 7.98126, 0.02094078, -0.04824114, 10.0503
777937916614942, 5.9042897, -1.5613167, 7.9800634, 0.0028662682, -0.0070530176, 10.048866
777937926254734, 5.928218, -1.5553347, 7.98126, -0.010916233, -0.024124742, 10.062935
777937935894525, 5.8947186, -1.5517455, 7.9776707, 0.009247303, -0.009722114, 10.039854
777937945534317, 5.8935223, -1.5601203, 7.9944205, 0.012981415, 0.0016783476, 10.053763
777937955174109, 5.9007006, -1.558924, 8.012366, 0.017728329, 0.0019097328, 10.07205
777937964813900, 5.8887367, -1.5828521, 8.005188, 0.0070257187, 0.025826931, 10.063049
777937974453692, 5.8911295, -1.5924234, 7.948957, -0.030673504, 0.020056725, 10.021267
777937984093484, 5.885147, -1.6067804, 7.9573317, -0.030415058, 0.037244916, 10.026641
777937993733275, 5.8911295, -1.585245, 7.9716887, -0.011690617, 0.021422744, 10.03821
777938003373067, 5.918647, -1.579263, 7.9633136, -0.026168823, 6.18577E-4, 10.046797
777938013012859, 5.918647, -1.564906, 7.966903, -0.01463604, -0.01015234, 10.047414
777938022652650, 5.9342003, -1.544567, 8.007581, 0.010492325, -0.024728537, 10.085686
777938032292338, 5.930611, -1.5433706, 7.9980097, 0.0064468384, -0.025988579, 10.075791
777938041932129, 5.919843, -1.5756737, 7.987242, -0.013907433, 0.00309515, 10.065938
777938051571921, 5.8971114, -1.5840486, 7.96451, -0.017839432, 0.016683817, 10.035833
777938061211713, 5.910272, -1.5768701, 7.9860454, -0.010324955, 0.008483887, 10.059553
777938070851504, 5.919843, -1.5553347, 8.038688, 0.025696754, -4.9448013E-4, 10.103636
777938080491296, 5.912665, -1.5804594, 8.051848, 0.022673607, 0.026442051, 10.113779
777938090131088, 5.889933, -1.5768701, 8.031509, 0.026392937, 0.03100741, 10.083716
777938099770879, 5.8971114, -1.5541383, 7.9369926, -0.017587185, -0.014037132, 10.009328
777938109410671, 5.866005, -1.5684953, 7.818548, -0.072368145, -0.013136983, 9.899217
777938119050463, 5.858826, -1.5529419, 7.8496547, -0.03057003, -0.009909272, 9.9173355
777938128690254, 5.901897, -1.5326029, 7.946564, 0.009198189, -0.026373625, 10.016406
777938138330046, 5.9700923, -1.5254245, 7.940582, -0.02506876, -0.068673134, 10.050692
777938147969734, 5.948557, -1.5517455, 7.893922, -0.053254604, -0.046939492, 10.005108
777938157609525, 5.9342003, -1.5804594, 7.948957, -0.032262802, -0.0034002066, 10.044773
777938167249317, 5.95095, -1.5553347, 8.088937, 0.046494484, 1.9669533E-4, 10.161772
777938176889109, 5.9473605, -1.5541383, 8.154739, 0.07320309, 0.012146711, 10.211793
777938186528900, 5.9007006, -1.5780666, 8.096115, 0.054579258, 0.042035937, 10.141542
777938196168692, 5.858826, -1.6127625, 8.013563, 0.0058264732, 0.07044554, 10.05679
777938205808484, 5.8360944, -1.6175481, 7.9680996, -0.008337021, 0.07530892, 10.008063
777938215448275, 5.877969, -1.585245, 7.9657063, -0.010842323, 0.027351856, 10.025724
777938225088067, 5.912665, -1.5433706, 7.9561353, -0.004473686, -0.025229216, 10.0320015
777938234727859, 5.933004, -1.5397813, 7.873583, -0.047586918, -0.054821253, 9.977951
777938244367650, 5.936593, -1.5541383, 7.864012, -0.06309223, -0.048212767, 9.97471
777938254007338, 5.953343, -1.5302101, 7.9070826, -0.0314126, -0.06457615, 10.015021
777938263647129, 5.9497533, -1.5349957, 7.972885, 0.0044374466, -0.041906834, 10.065828
777938273286921, 5.9545393, -1.5349957, 7.9980097, 0.00736475, -0.04232931, 10.088561
777938282926713, 5.919843, -1.5661024, 7.9884386, -1.6021729E-4, -0.0025548935, 10.065405
777938292566504, 5.892326, -1.599602, 8.015956, 0.010852337, 0.04640484, 10.076286
777938302206296, 5.8767724, -1.5744773, 8.021938, 0.036739826, 0.036226988, 10.067982
777938311846088, 5.8887367, -1.5900307, 7.9980097, 0.0074510574, 0.03541279, 10.058443
777938321485879, 5.9114685, -1.5900307, 7.966903, -0.021131516, 0.016083956, 10.047115
777938331125671, 5.9174504, -1.5840486, 7.925029, -0.038063526, 9.384155E-4, 10.016489
777938340765359, 5.9174504, -1.5601203, 7.9190464, -0.024616718, -0.018009901, 10.008026
777938350405150, 5.9138613, -1.5469599, 7.920243, -0.0141477585, -0.026041746, 10.00481
777938360044942, 5.9342003, -1.5349957, 7.9776707, 0.012882233, -0.031913996, 10.060467
777938369684734, 5.9449677, -1.5158532, 7.984849, 0.01887989, -0.05249238, 10.069515
777938379324525, 5.9437714, -1.5218352, 7.9657063, 0.0058665276, -0.051870108, 10.054559
777938388964317, 5.849255, -1.9094725, 7.9011, -0.2099247, 0.28750455, 10.008023
777938398604109, 5.9844494, -1.0109676, 8.073383, 0.35196352, -0.4414692, 10.084465
777938408243900, 5.79422, -2.2743778, 7.962117, -0.37306738, 0.60914564, 10.081214
777938417883588, 6.038288, -0.8386843, 8.055437, 0.42114758, -0.6028664, 10.075396
777938427523379, 5.8468623, -2.2791636, 7.8987074, -0.44444847, 0.5598018, 10.062756
777938437163171, 5.9437714, -1.0025927, 7.941778, 0.31501842, -0.4506166, 9.955058
777938446802963, 5.892326, -1.9166509, 7.9740815, -0.19911051, 0.2800436, 10.092618
777938456442754, 5.8971114, -1.4261223, 7.9034934, 0.060598373, -0.11194873, 9.962869
777938466082546, 5.98086, -1.4249259, 8.023134, 0.080859184, -0.13377213, 10.106798
777938475722338, 5.8360944, -1.9657038, 7.8628154, -0.2582922, 0.32335007, 9.978806
777938485362025, 6.0311093, -0.9810573, 8.050652, 0.3337674, -0.49775314, 10.089134
777938495001817, 5.8097734, -2.2504497, 7.905886, -0.39521408, 0.5755222, 10.041595
777938504641609, 6.0430737, -0.7716853, 8.093722, 0.4842949, -0.66413426, 10.096879
777938514281400, 5.855237, -2.2815564, 7.9298143, -0.41768837, 0.57209814, 10.093041
777938523921192, 5.98086, -0.9631111, 7.9154572, 0.31425047, -0.5202036, 9.9490385
777938533560984, 5.885147, -1.9441684, 7.9238324, -0.23630619, 0.30330944, 10.052564
777938543200775, 5.9090757, -1.3854443, 7.9166536, 0.09505987, -0.14772964, 9.973927
777938552840567, 6.0287166, -1.4464613, 8.023134, 0.04274988, -0.1391406, 10.138402
777938562480254, 5.858826, -1.8975084, 7.838887, -0.23874187, 0.25480986, 9.962562
777938572120046, 6.0011992, -1.0289137, 8.014759, 0.3113265, -0.44441152, 10.050623
777938581759838, 5.779863, -2.3054845, 7.90469, -0.41446543, 0.6273153, 10.031994
777938591399629, 6.029913, -0.8147561, 8.097312, 0.46844912, -0.60137796, 10.099954
777938601039421, 5.825327, -2.3222344, 7.941778, -0.44167137, 0.6264764, 10.090168
777938610679213, 5.9437714, -0.951147, 7.9597244, 0.36207795, -0.48329282, 9.961206
777938620318900, 5.8193445, -2.0291135, 7.925029, -0.25543213, 0.39127982, 10.02845
777938629958692, 5.881558, -1.329213, 7.9130645, 0.14523363, -0.17879272, 9.946007
777938639598484, 6.005985, -1.4739788, 8.000402, 0.033275127, -0.115846634, 10.111202
777938649238275, 5.8731833, -1.82692, 7.834101, -0.20625973, 0.18590593, 9.956303
777938658878067, 6.0598235, -1.0241281, 8.02792, 0.3002143, -0.47499633, 10.094654
777938668517859, 5.825327, -2.231307, 7.9022965, -0.3934059, 0.5419221, 10.045448
777938678157650, 6.056234, -0.7968099, 8.093722, 0.4849553, -0.62962675, 10.108888
777938687797338, 5.8360944, -2.309074, 7.926225, -0.43149853, 0.60416675, 10.082938
777938697437129, 5.99761, -0.8985049, 7.9884386, 0.38199162, -0.5422087, 10.007692
777938707076921, 5.861219, -2.0518453, 7.9657063, -0.26787138, 0.4017309, 10.088771
777938716716713, 5.881558, -1.3016955, 7.926225, 0.1581955, -0.18949127, 9.95245
777938726356504, 5.942575, -1.599602, 8.000402, -0.014329433, 0.021461487, 10.093498
777938735996192, 5.84088, -1.8137596, 7.8496547, -0.1700964, 0.20407188, 9.947468
777938745635984, 6.0358953, -1.0875379, 8.003992, 0.25175142, -0.42624187, 10.0714245
777938755275775, 5.8133626, -2.2337, 7.8580294, -0.40188503, 0.54380596, 10.003799
777938764915567, 6.046663, -0.81834537, 8.080562, 0.45739794, -0.6256473, 10.095874
777938774555359, 5.818148, -2.3545375, 7.944171, -0.43466187, 0.6529716, 10.09402
777938784195150, 6.005985, -0.88295156, 8.002795, 0.39030075, -0.5778153, 10.020478
777938793834838, 5.869594, -2.1212373, 7.952546, -0.32879305, 0.45240963, 10.093661
777938803474629, 5.9090757, -1.2323036, 7.9537425, 0.20642042, -0.2604916, 9.979343
777938813114421, 5.946164, -1.6175481, 8.01117, -0.024831772, 0.03353834, 10.106951
777938822754213, 5.8360944, -1.7551354, 7.884351, -0.11389446, 0.16828585, 9.963041
777938832394004, 6.033502, -1.125823, 8.024331, 0.2501526, -0.38998508, 10.091871
777938842033692, 5.8169518, -2.1822543, 7.8113694, -0.40758133, 0.4809475, 9.960886
777938851673484, 6.0394845, -0.82313097, 7.995617, 0.4247558, -0.6351495, 10.024918
777938861313275, 5.812166, -2.3437698, 7.8556366, -0.4761629, 0.6185101, 10.018797
777938870953067, 6.058627, -0.86261255, 8.019546, 0.3975525, -0.5988438, 10.062182
777938880592859, 5.9150577, -2.1451654, 7.9716887, -0.34966803, 0.44816458, 10.13974
777938890232650, 5.948557, -1.1832508, 7.969296, 0.22788382, -0.32115483, 10.006998
777938899872338, 5.948557, -1.6821543, 8.056634, -0.031053543, 0.08800268, 10.154586
777938909512129, 5.84088, -1.713261, 7.914261, -0.07485247, 0.13754225, 9.983093
777938919151921, 6.0011992, -1.1940185, 8.019546, 0.20833874, -0.32823992, 10.079783
777938928791713, 5.7786665, -2.1379871, 7.838887, -0.34228992, 0.48732853, 9.952764
777938938431504, 5.986842, -0.8554341, 8.032705, 0.43060517, -0.5723736, 10.029226
777938948071192, 5.770292, -2.3605196, 7.881958, -0.44462872, 0.66878533, 10.017416
777938957710984, 6.0011992, -0.8362915, 7.9980097, 0.42530513, -0.59417796, 10.007397
777938967350775, 5.8947186, -2.1678972, 7.905886, -0.3817191, 0.45400655, 10.079618
777938976990567, 5.9545393, -1.1150553, 7.9011, 0.23459148, -0.37704873, 9.946358
777938986630359, 5.9342003, -1.7659031, 8.021938, -0.09455204, 0.15447593, 10.131723
777938996270046, 5.8875403, -1.6163517, 7.978867, -0.0053691864, 0.053224087, 10.046651
777939005909838, 6.026324, -1.2358929, 8.10449, 0.2228651, -0.2829237, 10.168436
777939015549629, 5.79422, -2.1559331, 7.864012, -0.36189318, 0.47850466, 9.985179
777939025189421, 6.0107703, -0.91525465, 8.085348, 0.4237249, -0.53055143, 10.093507
777939034829109, 5.8097734, -2.3341985, 7.9238324, -0.44153833, 0.62334025, 10.070033
777939044468900, 6.0227346, -0.80997044, 8.008778, 0.44704103, -0.63685536, 10.023197
777939054108692, 5.8432727, -2.2325034, 7.84128, -0.4327569, 0.5241593, 10.007576
777939063748484, 5.9497533, -1.0648061, 7.8520474, 0.23780012, -0.43137145, 9.896738
777939073388171, 5.933004, -1.7599211, 7.9429746, -0.1297121, 0.1382463, 10.067412
777939083027963, 5.895915, -1.5266209, 7.879565, 0.001537323, -0.039880037, 9.958831
777939092667754, 6.040681, -1.2813566, 8.045866, 0.15709639, -0.26827264, 10.137605
777939102307546, 5.8217373, -2.07697, 7.8987074, -0.3012848, 0.43032563, 10.01599
777939111947338, 6.0047884, -0.93320084, 8.141579, 0.44308996, -0.48162103, 10.138312
777939121587025, 5.7786665, -2.3557339, 7.993224, -0.39730787, 0.6861062, 10.109674
777939131226817, 5.9964137, -0.82672024, 8.085348, 0.47763157, -0.59328747, 10.0714035
777939140866609, 5.8133626, -2.2767708, 7.8903327, -0.4272771, 0.58540165, 10.035484
777939150506400, 5.9413786, -1.0444671, 7.9106717, 0.27076674, -0.43329692, 9.935218
777939160146088, 5.9138613, -1.8807586, 7.9346, -0.20462847, 0.23559296, 10.068342
777939169785879, 5.9007006, -1.5290136, 7.8687973, -0.015240192, -0.045367718, 9.953484
777939179425671, 6.0311093, -1.3232309, 7.978867, 0.10408163, -0.25109124, 10.0853195
777939189065463, 5.832505, -2.0195422, 7.8436728, -0.28756237, 0.3626653, 9.970239
777939198705150, 6.0526447, -0.93320084, 8.120044, 0.39817667, -0.52606964, 10.149147
777939208344942, 5.8157554, -2.32702, 7.921439, -0.42945433, 0.62569904, 10.070318
777939217984734, 5.9724855, -0.802792, 8.003992, 0.4500239, -0.6137891, 9.989981
777939227624525, 5.79422, -2.2767708, 7.9597244, -0.37268257, 0.6054487, 10.080101
777939237264213, 5.994021, -0.9667004, 8.069795, 0.37262154, -0.4806447, 10.080403
777939246904004, 5.9545393, -1.9250258, 7.9836526, -0.23350143, 0.26422393, 10.137882
777939256543796, 5.879165, -1.4715859, 7.8293157, 0.0037817955, -0.08448362, 9.900565
777939266183588, 5.9557357, -1.4285151, 8.007581, 0.08881807, -0.11623955, 10.080248
777939275823379, 5.8420763, -1.9788643, 7.880761, -0.2460537, 0.34558964, 9.99861
777939285463067, 6.050252, -0.95353985, 8.030313, 0.337245, -0.52971125, 10.08
777939295102859, 5.782256, -2.2851455, 7.881958, -0.40028524, 0.6083845, 10.012557
777939304742650, 6.0011992, -0.81236327, 8.09133, 0.48095298, -0.59542537, 10.077604
777939314382338, 5.8229337, -2.333002, 7.9357963, -0.43080235, 0.64588714, 10.08581
777939324022129, 5.9904313, -0.9870393, 7.945368, 0.29979467, -0.49229193, 9.982793
777939333661921, 5.877969, -1.9812572, 7.9836526, -0.22434711, 0.33845425, 10.101966
777939343301713, 5.8743796, -1.39023, 7.944171, 0.12252712, -0.11186671, 9.976142
777939352941400, 5.968896, -1.442872, 7.9657063, 0.049208164, -0.12620163, 10.057024
777939362581192, 5.812166, -1.8831514, 7.7850485, -0.23594475, 0.25813067, 9.890006
777939372220984, 6.0011992, -0.9954142, 8.020741, 0.34475255, -0.46848226, 10.049837
777939381860775, 5.797809, -2.271985, 7.9561353, -0.3810506, 0.6158681, 10.077308
777939391500463, 6.06102, -0.8003992, 8.126026, 0.48249292, -0.614804, 10.138943
777939401140254, 5.85763, -2.3341985, 7.9561353, -0.44761896, 0.6194297, 10.12306
777939410780046, 5.983253, -0.92602235, 8.005188, 0.37400222, -0.5088222, 10.01704
777939420419838, 5.8767724, -2.0183458, 8.013563, -0.2314825, 0.38524282, 10.130419
777939430059525, 5.899504, -1.2933207, 7.960921, 0.1671257, -0.20256543, 9.989201
777939439699317, 5.966503, -1.4931214, 7.9884386, 0.019722939, -0.075632095, 10.081548
777939449339109, 5.8097734, -1.8544376, 7.7790666, -0.22695589, 0.23586702, 9.879229
777939458978900, 6.000003, -1.0743774, 7.9573317, 0.25006962, -0.4270258, 10.011422
777939468618588, 5.804988, -2.2851455, 7.850851, -0.43994188, 0.6033293, 9.999905
777939478258379, 6.0729837, -0.80757767, 8.114061, 0.45601988, -0.6224487, 10.137845
777939487898171, 5.861219, -2.3641088, 7.932207, -0.46782875, 0.64705765, 10.110652
777939497537963, 6.0083776, -0.9236295, 7.9884386, 0.350564, -0.52658343, 10.018416
777939507177650, 5.8767724, -2.0554347, 8.029117, -0.2517786, 0.41860616, 10.148368
777939516817442, 5.916254, -1.2418749, 8.07458, 0.24571896, -0.20972157, 10.081608
777939526457234, 5.95095, -1.5361922, 8.106883, 0.061625004, -0.005233526, 10.173075
777939536096921, 5.825327, -1.7790636, 7.8699937, -0.14908648, 0.19130075, 9.948742
777939545736713, 6.013163, -1.0779666, 7.98126, 0.2490964, -0.4257815, 10.038792
777939555376504, 5.773881, -2.1894326, 7.8197446, -0.3867302, 0.52604175, 9.942509
777939565016296, 6.0370917, -0.8003992, 8.020741, 0.44650626, -0.63591003, 10.040701
777939574655984, 5.8265233, -2.347359, 7.8436728, -0.49161577, 0.624771, 10.0174675
777939584295775, 6.038288, -0.8745767, 7.9298143, 0.34220743, -0.61088514, 9.980856
777939593935567, 5.8731833, -2.1104696, 7.9190464, -0.33775234, 0.4458815, 10.067114
777939603575359, 5.9270215, -1.2107682, 7.9776707, 0.21289968, -0.267385, 10.006096
777939613215046, 5.9641104, -1.585245, 8.110473, 0.023498058, 0.029257536, 10.191269
777939622854838, 5.8564334, -1.6821543, 7.9573317, -0.061913013, 0.123740196, 10.021349
777939632494629, 5.992824, -1.1114662, 8.082955, 0.280097, -0.3617885, 10.113067
777939642134317, 5.7583275, -2.2241287, 7.925029, -0.35617113, 0.6000185, 10.0211935
777939651774109, 5.994021, -0.83389866, 8.158329, 0.4938836, -0.55907106, 10.130426
777939661413900, 5.7667027, -2.3401806, 7.960921, -0.4069929, 0.6972461, 10.072526
777939671053692, 5.9916277, -0.83030945, 7.9573317, 0.39914203, -0.6121006, 9.968658
777939680693379, 5.8360944, -2.158326, 7.861619, -0.38944006, 0.47123206, 10.007482
777939690333171, 5.953343, -1.1377872, 7.9130645, 0.19433784, -0.36102033, 9.959184
777939699972963, 5.953343, -1.6606189, 8.001599, -0.06788397, 0.06668973, 10.110218
777939709612650, 5.8887367, -1.6749759, 7.8783684, -0.10647535, 0.081510305, 9.976646
777939719252442, 6.0287166, -1.1904292, 8.015956, 0.18831062, -0.33670855, 10.09303
777939728892234, 5.825327, -2.158326, 7.891529, -0.36249495, 0.4916762, 10.024763
777939738532025, 6.053841, -0.8470592, 8.147561, 0.4549291, -0.5699651, 10.159597
777939748171713, 5.8013983, -2.3425734, 7.9944205, -0.41850424, 0.667436, 10.12097
777939757811504, 5.9880385, -0.8219346, 8.055437, 0.44997907, -0.57707596, 10.04424
777939767451296, 5.8133626, -2.2085752, 7.941778, -0.37972116, 0.53783643, 10.065357
777939777091088, 5.877969, -1.1365907, 7.954939, 0.2733307, -0.30681252, 9.947592
777939786730775, 5.881558, -1.7467605, 7.999206, -0.08752155, 0.1690929, 10.079432
777939796370567, 5.8636117, -1.6091732, 7.8963146, -0.045788288, 0.05208826, 9.96586
777939806010359, 6.0454664, -1.2047862, 8.054241, 0.195508, -0.31958342, 10.135563
777939815650046, 5.85763, -2.0865414, 7.885547, -0.33778858, 0.42507076, 10.027589
777939825289838, 6.0837517, -0.86261255, 8.085348, 0.3985262, -0.6037924, 10.129442
777939834929629, 5.820541, -2.3318057, 7.9166536, -0.44537687, 0.6373266, 10.069006
777939844569421, 6.0155563, -0.79800636, 8.009974, 0.43208218, -0.6389203, 10.019405
777939854209109, 5.820541, -2.2337, 7.8723865, -0.41067982, 0.5476415, 10.0186825
777939863848900, 5.901897, -1.0671989, 7.9094753, 0.27228022, -0.38162494, 9.915207
777939873488692, 5.8540406, -1.7850457, 8.017152, -0.07660389, 0.22109008, 10.083461
777939883128379, 5.85763, -1.5481563, 7.948957, 0.032127857, 0.02418375, 9.994644
777939892768171, 6.0047884, -1.2801601, 8.048259, 0.16661215, -0.24027348, 10.118561
777939902407963, 5.8480587, -2.0542383, 7.891529, -0.30614805, 0.4056015, 10.021861
777939912047754, 6.06102, -0.8889336, 8.099705, 0.3945551, -0.5569742, 10.132398
777939921687442, 5.8037915, -2.2851455, 7.952546, -0.39543247, 0.62074184, 10.080038
777939931327234, 6.0394845, -0.7680961, 8.035098, 0.4478159, -0.6663194, 10.049061
777939940967025, 5.828916, -2.248057, 7.91785, -0.4210148, 0.5709057, 10.060776
777939950606713, 5.9413786, -1.038485, 7.978867, 0.30536652, -0.4021945, 9.989283
777939960246504, 5.9042897, -1.8783658, 8.04467, -0.15013885, 0.27519584, 10.149254
777939969886296, 5.907879, -1.5062819, 8.005188, 0.06106758, -0.016955614, 10.062352
777939979526088, 6.013163, -1.3363914, 8.038688, 0.12133312, -0.20083141, 10.124699
777939989165775, 5.8133626, -2.0147567, 7.8197446, -0.30787325, 0.37269378, 9.938267
777939998805567, 6.005985, -0.9284152, 8.014759, 0.3607006, -0.5146668, 10.038684
777940008445359, 5.7870417, -2.321038, 7.911868, -0.4382844, 0.6523069, 10.042764
777940018085150, 6.01436, -0.7920243, 8.076973, 0.4721768, -0.6074965, 10.072007
777940027724838, 5.7990055, -2.3186452, 7.9130645, -0.4244752, 0.64022386, 10.051424
777940037364629, 5.946164, -1.0169497, 7.9800634, 0.32557583, -0.4168806, 9.989629
777940047004421, 5.9090757, -1.9058832, 7.995617, -0.19039106, 0.28240418, 10.117484
777940056644109, 5.9090757, -1.4081762, 7.9369926, 0.0822978, -0.10717487, 9.993885
777940066283900, 5.9952173, -1.3710874, 8.023134, 0.10365963, -0.16648364, 10.107162
777940075923692, 5.838487, -1.9190438, 7.8687973, -0.24516678, 0.29931116, 9.976921
777940085563484, 6.0454664, -0.91884387, 8.067402, 0.38287187, -0.52982974, 10.101862
777940095203171, 5.81097, -2.268396, 7.945368, -0.41063213, 0.59316206, 10.075785
777940104842963, 6.064609, -0.782453, 8.116454, 0.4975016, -0.6228008, 10.130802
777940114482754, 5.8480587, -2.3114667, 7.952546, -0.4516616, 0.6230097, 10.109081
777940124122442, 6.0023956, -0.96430755, 7.9657063, 0.33212996, -0.49383593, 10.002846
777940133762234, 5.879165, -1.9728823, 7.9657063, -0.24430943, 0.3498453, 10.085993
777940143402025, 5.8624153, -1.3890336, 7.926225, 0.112223625, -0.095605135, 9.95493
777940153041817, 5.953343, -1.4715859, 8.005188, 0.054454803, -0.06928277, 10.083806
777940162681504, 5.8061843, -1.9178474, 7.8891363, -0.20738125, 0.32272685, 9.97403
777940172321296, 6.02752, -1.0097711, 8.080562, 0.3448925, -0.44024992, 10.115995
777940181961088, 5.81097, -2.2827528, 7.9106717, -0.41901112, 0.60418904, 10.0506935
777940191600775, 6.053841, -0.782453, 8.067402, 0.46576548, -0.64204097, 10.085389
777940201240567, 5.837291, -2.3078775, 7.944171, -0.43232584, 0.6158147, 10.096732
777940210880359, 5.9880385, -0.9056834, 8.014759, 0.38899755, -0.5134499, 10.024883
777940220520150, 5.8863435, -2.012364, 7.987242, -0.2627039, 0.38006473, 10.11342
777940230159838, 5.9114685, -1.2801601, 7.9633136, 0.16839743, -0.20133519, 9.996488
777940239799629, 5.9904313, -1.4452649, 8.048259, 0.071885586, -0.09972501, 10.135749
777940249439421, 5.861219, -1.820938, 7.874779, -0.1813755, 0.2173016, 9.980067
777940259079213, 6.053841, -1.0648061, 8.039884, 0.2605009, -0.43376613, 10.107745
777940268718900, 5.8133626, -2.2767708, 7.9334035, -0.40246677, 0.60575366, 10.069203
777940278358692, 6.0454664, -0.81236327, 8.092526, 0.45457768, -0.60424995, 10.105683
777940287998484, 5.8420763, -2.3581266, 7.9094753, -0.4926443, 0.64839816, 10.079053
777940297638275, 5.9904313, -0.9092726, 8.001599, 0.37592602, -0.5225425, 10.016151
777940307277963, 5.8863435, -2.0757737, 7.962117, -0.31130314, 0.40669954, 10.104004
777940316917754, 5.885147, -1.2598212, 7.9238324, 0.1810236, -0.22069716, 9.946243
777940326557546, 5.9449677, -1.5816557, 8.025527, -0.0019693375, 0.02273035, 10.112015
777940336197338, 5.845666, -1.7814565, 7.925029, -0.12705755, 0.20369959, 10.004691
777940345837025, 6.0251274, -1.079163, 8.042277, 0.2829504, -0.39785123, 10.094881
777940355476817, 5.7930236, -2.213361, 7.899904, -0.3889904, 0.5475553, 10.020751
777940365116609, 6.050252, -0.80757767, 8.109276, 0.49178052, -0.598083, 10.120205
777940374756296, 5.8504515, -2.3258235, 7.944171, -0.47319794, 0.6177864, 10.106508
777940384396088, 6.0191455, -0.8362915, 7.9704924, 0.40091658, -0.5949824, 9.997176
777940394035879, 5.866005, -2.097309, 7.9166536, -0.33941603, 0.4331901, 10.058791
777940403675671, 5.936593, -1.2035898, 7.989635, 0.23743391, -0.2676859, 10.019881
777940413315359, 5.9784675, -1.6091732, 8.049456, -0.020852566, 0.031440973, 10.154991
777940422955150, 5.864808, -1.7300107, 7.9166536, -0.10785532, 0.14976668, 10.001413
777940432594942, 6.0191455, -1.1497513, 8.051848, 0.24690199, -0.34244084, 10.109702
777940442234734, 5.7786665, -2.2217357, 7.91785, -0.37018776, 0.57266855, 10.027784
777940451874421, 6.0191455, -0.8446664, 8.054241, 0.4236369, -0.5750561, 10.065
777940461514213, 5.79422, -2.3318057, 7.885547, -0.46178246, 0.6382946, 10.028534
777940471154004, 5.9904313, -0.83988076, 8.04467, 0.45584607, -0.5673368, 10.038811
777940480793796, 5.8636117, -2.1487548, 8.009974, -0.31289053, 0.508965, 10.139123
777940490433484, 5.940182, -1.1437693, 8.007581, 0.26984835, -0.31764007, 10.027044
777940500073275, 5.960521, -1.6809579, 8.039884, -0.056738853, 0.093110085, 10.14797
777940509713067, 5.8863435, -1.6522441, 7.969296, -0.0410161, 0.09685135, 10.043783
777940519352859, 6.0574307, -1.1365907, 8.051848, 0.22786331, -0.37455273, 10.130369
777940528992546, 5.8337016, -2.103291, 7.826923, -0.3643241, 0.4347272, 9.9697
777940538632338, 6.0454664, -0.849452, 8.005188, 0.38740277, -0.59560347, 10.042283
777940548272129, 5.7930236, -2.367698, 7.8664045, -0.48286772, 0.6682501, 10.0182705
777940557911921, 6.003592, -0.85184485, 8.003992, 0.42584658, -0.57561827, 10.015985
777940567551609, 5.881558, -2.2097716, 8.008778, -0.35115528, 0.5355793, 10.159043
777940577191400, 5.9784675, -1.1150553, 8.05783, 0.2968769, -0.33575296, 10.085296
777940586831192, 5.960521, -1.7623138, 8.008778, -0.12035084, 0.14772177, 10.135965
777940596470984, 5.8265233, -1.5924234, 7.8867435, -0.016318798, 0.059993505, 9.933833
777940606110671, 5.9748783, -1.2119647, 8.02792, 0.2147026, -0.27926493, 10.074295
777940615750463, 5.757131, -2.0961127, 7.8352976, -0.31635284, 0.4711311, 9.9301605
777940625390254, 6.000003, -0.92602235, 8.257631, 0.5012231, -0.44270396, 10.227356
777940635030046, 5.812166, -2.3856442, 7.88794, -0.4908886, 0.67645025, 10.049558
777940644669734, 6.0658054, -0.7716853, 7.911868, 0.37745762, -0.6900971, 9.968372
777940654309525, 5.9318075, -2.1296122, 8.001599, -0.33579874, 0.44452572, 10.170388
777940663949317, 6.0370917, -0.99302137, 7.987242, 0.30893135, -0.48164153, 10.044957
777940673589109, 5.9784675, -1.8077775, 8.054241, -0.14630795, 0.19568133, 10.18927
777940683228900, 5.8947186, -1.5266209, 8.099705, 0.10042143, 0.036697388, 10.132723
777940692868588, 5.9676995, -1.2873386, 7.9716887, 0.13491964, -0.22735834, 10.03736
777940702508379, 5.723632, -2.1080768, 7.6977105, -0.38336802, 0.4690895, 9.802635
777940712148171, 5.9880385, -0.91166544, 8.115258, 0.44611406, -0.49063635, 10.104723
777940721787963, 5.851648, -2.2971098, 8.024331, -0.3835926, 0.6418165, 10.166088
777940731427650, 6.0717874, -0.7920243, 7.8963146, 0.35986447, -0.67617846, 9.962881
777940741067442, 5.8169518, -2.2839491, 7.676175, -0.5460825, 0.5376234, 9.868627
777940750707234, 5.938986, -1.0348958, 7.989635, 0.34102368, -0.3950944, 9.995222
777940760347025, 6.0346985, -1.7922242, 8.23131, -0.05276823, 0.19866109, 10.360593
777940769986713, 5.989235, -1.4548361, 8.096115, 0.09815121, -0.06964803, 10.174482
777940779626504, 5.9904313, -1.3710874, 8.000402, 0.07909298, -0.1719265, 10.086415
777940789266296, 5.73081, -2.044667, 7.861619, -0.2726302, 0.45765603, 9.92694
777940798906088, 5.9724855, -0.9595219, 8.149954, 0.42300653, -0.4333501, 10.131452
777940808545879, 5.791827, -2.2959132, 7.9561353, -0.4107647, 0.6298953, 10.077255
777940818185567, 6.0323057, -0.7716853, 8.005188, 0.44217372, -0.64484406, 10.02277
777940827825359, 5.828916, -2.2779672, 7.850851, -0.46269798, 0.5693276, 10.013143
777940837465150, 5.98086, -0.9631111, 7.984849, 0.35013556, -0.46709657, 10.005764
777940847104942, 5.9712887, -1.8711873, 8.026724, -0.1884737, 0.24436331, 10.173038
777940856744734, 5.9473605, -1.3830515, 7.938189, 0.081041336, -0.14119697, 10.013604
777940866384421, 6.005985, -1.3914263, 7.993224, 0.06625509, -0.16172433, 10.093018
777940876024213, 5.808577, -1.9525433, 7.908279, -0.22565365, 0.3585043, 9.99567
777940885664004, 6.0011992, -0.9619147, 8.037491, 0.34259272, -0.4832096, 10.059328
777940895303796, 5.7750773, -2.3186452, 7.940582, -0.4042015, 0.66559017, 10.058535
777940904943588, 6.0550375, -0.80877405, 8.182257, 0.49604177, -0.58375025, 10.182342
777940914583275, 5.889933, -2.3054845, 7.9501534, -0.4603858, 0.60048234, 10.131089
777940924223067, 6.0107703, -0.94755775, 7.8903327, 0.28789854, -0.5256016, 9.946127
777940933862859, 5.9138613, -1.9609182, 7.832905, -0.3152442, 0.29266596, 9.999416
777940943502650, 5.9042897, -1.3555341, 7.880761, 0.09038067, -0.15601587, 9.938411
777940953142338, 5.99761, -1.4285151, 8.013563, 0.066568375, -0.12461305, 10.109857
777940962782129, 5.851648, -1.8580267, 7.9166536, -0.173913, 0.26481438, 10.013346
777940972421921, 6.0658054, -0.9870393, 8.147561, 0.3719368, -0.4627087, 10.188159
777940982061713, 5.834898, -2.2707887, 8.037491, -0.34829473, 0.6248646, 10.163269
777940991701504, 6.056234, -0.7896315, 8.157132, 0.48905635, -0.6064944, 10.1603775
777941001341296, 5.8169518, -2.3198416, 7.9393854, -0.43826818, 0.6567905, 10.08112
777941010980984, 5.940182, -0.9236295, 7.987242, 0.3725176, -0.48292089, 9.978122
777941020620775, 5.834898, -2.0315065, 7.9716887, -0.24686909, 0.42075932, 10.073873
777941030260567, 5.889933, -1.3004991, 7.9740815, 0.18136024, -0.1714139, 9.995314
777941039900359, 5.959325, -1.5026926, 7.9501534, 0.002881527, -0.06377649, 10.048507
777941049540150, 5.828916, -1.8496519, 7.8281193, -0.19918966, 0.25077868, 9.928462
777941059179838, 6.0526447, -1.0480564, 8.035098, 0.2826767, -0.43707585, 10.100733
777941068819629, 5.8707905, -2.2289143, 7.8831544, -0.41619396, 0.535378, 10.055771
777941078459421, 6.088537, -0.7920243, 8.021938, 0.41423464, -0.6542852, 10.07221
777941088099213, 5.8480587, -2.3138595, 7.893922, -0.45814085, 0.62540376, 10.063137
777941097739004, 6.0394845, -0.8530413, 8.120044, 0.45171595, -0.5528064, 10.130573
777941107378692, 5.9210396, -2.0398812, 8.122437, -0.21296835, 0.41469324, 10.245802
777941117018484, 5.9090757, -1.2765709, 8.033902, 0.2077241, -0.18225121, 10.050574
777941126658275, 5.8767724, -1.6103697, 7.966903, -0.014959812, 0.06917429, 10.029771
777941136298067, 5.757131, -1.8388842, 7.8293157, -0.16805887, 0.27785718, 9.885282
777941145937859, 6.017949, -1.0983056, 8.029117, 0.2706747, -0.3755908, 10.083372
777941155577650, 5.869594, -2.1296122, 7.895118, -0.3684578, 0.44678473, 10.049126
777941165217338, 6.1040907, -0.7645068, 8.0614195, 0.4656067, -0.66201544, 10.108208
777941174857129, 5.861219, -2.3234308, 7.893922, -0.49811888, 0.6024376, 10.072496
777941184496921, 6.0311093, -0.88414794, 8.07458, 0.4317298, -0.5397494, 10.093418
777941194136713, 5.912665, -2.1224337, 8.059027, -0.3113861, 0.46658397, 10.202822
777941203776504, 5.919843, -1.2215359, 8.038688, 0.24430561, -0.23661947, 10.051941
777941213416296, 5.8707905, -1.6498512, 7.8592257, -0.09495258, 0.0666368, 9.946967
777941223056088, 5.71765, -1.7730815, 7.655836, -0.18976307, 0.20040894, 9.714474
777941232695775, 5.983253, -1.1557333, 8.031509, 0.24710608, -0.32220912, 10.073496
777941242335567, 5.9270215, -2.1391835, 8.062616, -0.3039627, 0.4809382, 10.217033
777941251975359, 6.1639113, -0.80518484, 8.163115, 0.45081973, -0.64863396, 10.2300825
777941261615150, 5.8420763, -2.353341, 7.9094753, -0.46998262, 0.6424991, 10.079395
777941271254942, 5.9964137, -0.8255238, 8.123632, 0.49716806, -0.54932475, 10.103611
777941280894734, 5.8947186, -2.0590239, 8.118847, -0.21384907, 0.4392078, 10.230558
777941290534421, 5.9353967, -1.0971092, 8.043473, 0.31048393, -0.3480265, 10.045523
777941300174213, 5.877969, -1.6689938, 7.945368, -0.06521225, 0.1037333, 10.022471
777941309814004, 5.7810597, -1.6953149, 7.826923, -0.07904768, 0.1511221, 9.8755455
777941319453796, 5.986842, -1.2550355, 7.9537425, 0.13916302, -0.27437878, 10.029196
777941329093588, 5.8707905, -2.1678972, 7.797013, -0.42588377, 0.4593234, 9.978328
777941338733379, 6.111269, -0.8745767, 7.995617, 0.34165287, -0.6274774, 10.076305
777941348373171, 5.8468623, -2.3365912, 7.8281193, -0.48973846, 0.629454, 10.014432
777941358012859, 6.04427, -0.78723866, 8.049456, 0.45075512, -0.6512358, 10.065754
777941367652650, 5.869594, -2.0877378, 8.023134, -0.2633314, 0.46311784, 10.143848
777941377292442, 5.9581285, -1.3722838, 8.103293, 0.16211891, -0.12357283, 10.149102
777941386932234, 5.8875403, -1.6199409, 8.05783, 0.025779724, 0.08506346, 10.1098
777941396572025, 5.895915, -1.524228, 8.079366, 0.0865078, 0.012622833, 10.116997
777941406211817, 5.8839507, -1.6019948, 8.025527, 0.021893024, 0.06656587, 10.079257
777941415851609, 5.9246287, -1.5732809, 7.9238324, -0.029071331, -8.084774E-4, 10.01812
777941425491400, 5.938986, -1.5864414, 7.874779, -0.072399616, -0.010977745, 9.989752
777941435131088, 5.962914, -1.5577276, 7.8927255, -0.053548336, -0.04041004, 10.013665
777941444770879, 5.9581285, -1.5433706, 7.891529, -0.03935337, -0.04890442, 10.007676
777941454410671, 5.960521, -1.5637096, 7.895118, -0.05360222, -0.034201026, 10.015081
777941464050463, 5.9473605, -1.5672989, 7.9776707, -0.0018172264, -0.0036646128, 10.07327
777941473690254, 5.9353967, -1.5625132, 8.04467, 0.034596443, 0.013240933, 10.118583
777941483330046, 5.9353967, -1.5768701, 8.056634, 0.03289032, 0.027901769, 10.130299
777941492969838, 5.9114685, -1.5864414, 8.062616, 0.036458492, 0.048297524, 10.122471
777941502609629, 5.8863435, -1.579263, 8.070991, 0.060534, 0.057831883, 10.113208
777941512249317, 5.879165, -1.5768701, 8.051848, 0.055466175, 0.05521226, 10.093424
777941521889109, 5.9007006, -1.5720844, 8.006385, 0.025499344, 0.029487252, 10.069281
777941531528900, 5.922236, -1.5565311, 7.960921, -0.004324436, -0.0054211617, 10.043501
777941541168692, 5.9270215, -1.5397813, 7.928618, -0.008072376, -0.028890252, 10.018113
777941550808484, 5.9641104, -1.5433706, 7.9166536, -0.03960371, -0.0483315, 10.031057
777941560448275, 5.979664, -1.5290136, 7.9429746, -0.024145603, -0.063170314, 10.058854
777941570088067, 5.946164, -1.5493526, 7.9334035, -0.020681858, -0.031056404, 10.034683
777941579727859, 5.918647, -1.5768701, 7.945368, -0.01504612, 0.008356452, 10.032222
777941589367650, 5.905486, -1.605584, 7.9908314, -0.0011463165, 0.04885125, 10.064972
777941599007338, 5.9066825, -1.6031911, 8.033902, 0.0206151, 0.05565214, 10.099464
777941608647129, 5.918647, -1.579263, 8.073383, 0.046504498, 0.038211107, 10.134119
777941618286921, 5.9138613, -1.5828521, 8.048259, 0.03071785, 0.03657782, 10.11194
777941627926713, 5.9150577, -1.564906, 7.993224, 0.008331776, 0.007104039, 10.066198
777941637566504, 5.910272, -1.5625132, 7.966903, -0.0016298294, 8.904934E-4, 10.042127
777941647206296, 5.9270215, -1.5469599, 7.962117, -0.0024051666, -0.021364212, 10.045771
777941656846088, 5.9437714, -1.5373886, 7.952546, -0.0057401657, -0.038793564, 10.046563
777941666485879, 5.959325, -1.5373886, 7.940582, -0.021400452, -0.050559044, 10.046241
777941676125671, 5.9342003, -1.5421742, 7.9537425, -0.0019111633, -0.02899599, 10.042621
777941685765463, 5.9090757, -1.5565311, 7.9884386, 0.02107811, 0.00384593, 10.0575695
777941695405150, 5.9234324, -1.5553347, 7.999206, 0.015381336, -0.0046942234, 10.074381
777941705044942, 5.918647, -1.5720844, 8.020741, 0.017274857, 0.01459372, 10.091265
777941714684734, 5.8947186, -1.591227, 8.014759, 0.015607834, 0.040159225, 10.075426
777941724324525, 5.8803616, -1.6103697, 7.9860454, -0.002503872, 0.056440115, 10.047173
777941733964317, 5.8707905, -1.6283158, 7.9704924, -0.0149588585, 0.07184434, 10.031995
777941743604109, 5.9342003, -1.6127625, 7.9908314, -0.031085014, 0.029969573, 10.083017
777941753243900, 5.9724855, -1.5672989, 8.018349, -0.0071544647, -0.021162748, 10.120298
777941762883692, 5.973682, -1.5565311, 8.005188, -0.008471489, -0.033204436, 10.108885
777941772523484, 5.933004, -1.5804594, 7.9704924, -0.018208504, -2.7096272E-4, 10.061153
777941782163275, 5.930611, -1.5756737, 7.982456, -0.009147644, -9.799004E-4, 10.068486
777941791803067, 5.9377894, -1.550549, 7.9860454, 0.0030856133, -0.024244785, 10.071636
777941801442859, 5.919843, -1.5481563, 7.995617, 0.018624306, -0.01516819, 10.068299
777941811082650, 5.889933, -1.5409778, 7.9980097, 0.040511608, -0.004208803, 10.051489
777941820722338, 5.881558, -1.5565311, 7.958528, 0.013374329, 0.0053578615, 10.017658
777941830362129, 5.881558, -1.5876378, 7.9154572, -0.027595997, 0.021057248, 9.988321
777941840001921, 5.8911295, -1.579263, 7.972885, 0.0035800934, 0.02314198, 10.038219
777941849641713, 5.9138613, -1.5517455, 8.037491, 0.042651653, 0.003827095, 10.09857
777941859281504, 5.942575, -1.5409778, 8.023134, 0.023583412, -0.023891449, 10.102394
777941868921296, 5.9353967, -1.570888, 8.002795, -0.003961563, -0.0028294325, 10.086691
777941878561088, 5.9294147, -1.5720844, 8.072187, 0.034177303, 0.015865326, 10.138452
777941888200879, 5.899504, -1.5948163, 8.07458, 0.038594723, 0.049108267, 10.1263275
777941897840671, 5.8875403, -1.6043876, 7.9980097, -0.0042448044, 0.042987704, 10.059994
777941907480463, 5.889933, -1.605584, 7.9537425, -0.030948162, 0.032081485, 10.026427
777941917120254, 5.881558, -1.5960127, 7.948957, -0.020305634, 0.028209686, 10.016222
777941926760046, 5.918647, -1.5840486, 7.9561353, -0.023908615, 0.0024784803, 10.041869
777941936399838, 5.9294147, -1.558924, 7.9011, -0.044414043, -0.036255836, 10.000616
777941946039629, 5.916254, -1.5625132, 7.9034934, -0.036495686, -0.024997234, 9.9953375
777941955679421, 5.925825, -1.5421742, 7.9369926, -0.012639523, -0.03848219, 10.024366
777941965319213, 5.9210396, -1.5361922, 7.9968133, 0.026724339, -0.025701523, 10.06808
777941974959004, 5.9270215, -1.5373886, 8.038688, 0.04262352, -0.018876076, 10.105023
777941984598796, 5.907879, -1.5601203, 8.054241, 0.045091152, 0.011903405, 10.109679
777941994238484, 5.9090757, -1.5684953, 8.0817585, 0.046688557, 0.02241218, 10.133582
777942003878275, 5.9174504, -1.5672989, 8.080562, 0.041890144, 0.016164064, 10.1373625
777942013518067, 5.905486, -1.5876378, 8.04108, 0.0148534775, 0.030267358, 10.1021385
777942023157859, 5.895915, -1.5936198, 7.982456, -0.012662411, 0.027540922, 10.050877
777942032797650, 5.8935223, -1.5888343, 7.966903, -0.012970448, 0.022513151, 10.036377
777942042437442, 5.9246287, -1.5732809, 7.9908314, -0.009393215, -0.0011563301, 10.071233
777942052077234, 5.9174504, -1.5601203, 7.9513497, -0.016364098, -0.01706791, 10.033623
777942061717025, 5.9007006, -1.5864414, 7.9094753, -0.044407845, 0.0022038221, 9.994644
777942071356817, 5.898308, -1.5744773, 7.960921, -0.008448124, 0.0058073997, 10.0322075
777942080996609, 5.907879, -1.5601203, 8.045866, 0.04009819, 0.007994294, 10.103034
777942090636400, 5.9246287, -1.5361922, 8.07458, 0.057786465, -0.014937639, 10.131949
777942100276192, 5.9090757, -1.5744773, 8.020741, 0.011425018, 0.008723021, 10.086041
777942109915984, 5.889933, -1.5780666, 7.995617, 0.0044813156, 0.016881704, 10.055405
777942119555775, 5.9246287, -1.5756737, 8.003992, -0.0099749565, -0.002086401, 10.082051
777942129195567, 5.9318075, -1.5541383, 7.9716887, -0.015810013, -0.02784276, 10.0572605
777942138835359, 5.919843, -1.5577276, 7.9513497, -0.021863937, -0.023706198, 10.034639
777942148475150, 5.907879, -1.5409778, 7.9537425, -0.0021076202, -0.027575493, 10.026909
777942158114942, 5.899504, -1.558924, 7.975278, 0.004450798, -0.002351284, 10.041883
777942167754734, 5.9030933, -1.5637096, 7.984849, 7.958412E-4, -4.4941902E-4, 10.05234
777942177394525, 5.8672013, -1.5541383, 7.995617, 0.030676365, 0.0119947195, 10.038338
777942187034317, 5.849255, -1.5732809, 7.98126, 0.02214098, 0.033596992, 10.019375
777942196674109, 5.8564334, -1.5672989, 7.999206, 0.0278368, 0.025343537, 10.036937
777942206313900, 5.905486, -1.5661024, 8.042277, 0.023245335, 0.008061767, 10.099754
777942215953692, 5.9174504, -1.5924234, 8.042277, 4.8542023E-4, 0.021096706, 10.110875
777942225593484, 5.905486, -1.5936198, 8.02792, -0.0011658669, 0.02504456, 10.092634
777942235233275, 5.9353967, -1.6199409, 8.009974, -0.044127464, 0.024193048, 10.100015
777942244873067, 5.959325, -1.5924234, 7.987242, -0.052624702, -0.018484116, 10.091695
777942254512859, 5.9473605, -1.5744773, 7.98126, -0.038105488, -0.027682543, 10.077121
777942264152650, 5.9437714, -1.5780666, 7.978867, -0.036054134, -0.023639679, 10.073687
777942273792442, 5.9210396, -1.5972091, 7.9573317, -0.045955658, -0.0011091232, 10.046233
777942283432129, 5.9030933, -1.579263, 7.9764743, -0.011143684, -2.462864E-4, 10.048115
777942293072025, 5.8911295, -1.5433706, 8.007581, 0.034335136, -0.0141325, 10.060186
777942302711713, 5.85763, -1.5481563, 8.015956, 0.053562164, 0.009981632, 10.047945
777942312351504, 5.8636117, -1.5457634, 8.019546, 0.053425312, 0.0058345795, 10.053932
777942321991296, 5.8947186, -1.5493526, 8.014759, 0.026947021, -0.011195898, 10.068949
777942331631088, 5.9090757, -1.5421742, 7.9740815, -0.0030288696, -0.036404133, 10.043911
777942341270879, 5.9090757, -1.5529419, 7.989635, -0.0019278526, -0.024567127, 10.057955
