timestamp_acc,device_acc_x,device_acc_y,device_acc_z,earth_acc_x,earth_acc_y,earth_acc_z
780397944633432, 6.6999035, -0.22013968, 7.076773, -0.12967601, 0.09254122, 9.746411
780397954272911, 7.0612197, -0.0634098, 7.2215385, -0.3156447, 0.240695, 10.092468
780397963912390, 7.280163, 0.011964113, 7.2263246, -0.41375074, 0.38902903, 10.24198
780397973551869, 7.131808, -0.1160519, 7.353144, -0.26296848, 0.21097279, 10.238712
780397983191349, 6.869794, -0.28594232, 7.420143, -0.0592781, 0.0045380592, 10.11587
780397992830828, 6.649654, -0.4331009, 7.3806615, 0.107370704, -0.10296059, 9.942713
780398002470307, 6.489335, -0.55393845, 7.338787, 0.23852605, -0.17259836, 9.807621
780398012109786, 6.530013, -0.54317075, 7.21436, 0.21730521, -0.059773445, 9.74332
780398021749265, 6.666404, -0.5312066, 7.0815587, 0.17223513, 0.12560177, 9.737873
780398031388744, 6.7645097, -0.5096712, 7.0672016, 0.13315058, 0.19727468, 9.793215
780398041028224, 6.727421, -0.44027936, 7.0839515, 0.060581684, 0.14550209, 9.778015
780398050667703, 6.7322063, -0.36131623, 7.1916285, -0.013020247, 0.06741524, 9.857382
780398060307182, 6.7764735, -0.32183465, 7.4344997, -0.054587573, -0.07346439, 10.064174
780398069946661, 6.8255267, -0.2955136, 7.706085, -0.08242166, -0.2268672, 10.295661
780398079586140, 6.8949184, -0.2440679, 7.8424764, -0.14359128, -0.27103138, 10.440777
780398089225619, 6.8913293, -0.26679972, 7.624729, -0.13674131, -0.107492924, 10.279486
780398098865099, 6.849455, -0.35533416, 7.3028946, -0.058110774, 0.0874095, 10.018112
780398108504682, 6.836294, -0.37806597, 7.257431, -0.03611636, 0.096419334, 9.976852
780398118144161, 6.8410797, -0.35653058, 7.3543406, -0.051641464, 0.012362957, 10.050423
780398127783640, 6.8685975, -0.3074777, 7.2873416, -0.10671261, 0.07199097, 10.018032
780398137423119, 6.876972, -0.31944183, 7.172486, -0.09869444, 0.14082861, 9.9403105
780398147062599, 6.873383, -0.3912265, 6.485746, -0.061100453, 0.5999589, 9.439156
780398156702078, 7.0731835, -0.48454657, 7.119844, 0.03978899, 0.2862568, 10.043573
780398166341557, 6.9152575, -0.60658056, 7.6941214, 0.21135837, -0.20540524, 10.358637
780398175981036, 6.876972, -0.61016977, 7.62114, 0.21028125, -0.19159079, 10.279392
780398185620515, 6.727421, -0.54675996, 7.111469, 0.12452808, 0.05517769, 9.80365
780398195259994, 6.8949184, -0.5240282, 7.0636125, 0.07977006, 0.20599508, 9.882324
780398204899474, 6.8865438, -0.41635114, 7.3292155, 0.003761202, -0.023479939, 10.065517
780398214538953, 6.7740808, -0.48454657, 7.6606216, 0.107029885, -0.32063437, 10.232
780398224178432, 6.7202425, -0.48933223, 7.3064837, 0.09901363, -0.09453201, 9.938164
780398233817911, 6.780063, -0.5312066, 7.3172517, 0.13383856, -0.053451538, 9.988637
780398243457390, 6.7669024, -0.51206404, 7.381858, 0.11726397, -0.0926857, 10.026099
780398253096869, 6.875776, -0.53599226, 7.2753773, 0.117839515, 0.07395315, 10.023739
780398262736349, 6.8339014, -0.5180461, 7.351948, 0.10018596, -8.158684E-4, 10.050457
780398272375828, 6.751349, -0.4211368, 7.495517, 0.020064265, -0.16998816, 10.095125
780398282015307, 6.7369924, -0.38285163, 7.48116, -0.020286053, -0.16369629, 10.073441
780398291654786, 6.792027, -0.30867413, 7.4045897, -0.10452342, -0.08016634, 10.051743
780398301294265, 6.778867, -0.32422748, 7.342376, -0.09111157, -0.03363228, 9.997961
780398310933744, 6.8171515, -0.2955136, 7.393822, -0.11862466, -0.0244174, 10.060558
780398320573224, 6.8075805, -0.2536392, 7.5457664, -0.15029055, -0.13219166, 10.163958
780398330212703, 6.826723, -0.26679972, 7.568498, -0.1391117, -0.13144445, 10.194159
780398339852182, 6.908079, -0.23090738, 7.475178, -0.17666839, 0.0058465004, 10.179485
780398349491661, 6.8745794, -0.32422748, 7.3806615, -0.077475175, 0.058185577, 10.091072
780398359131140, 6.863812, -0.41754755, 7.2969127, 0.014534324, 0.11476135, 10.025858
780398368770619, 6.8506513, -0.44745782, 7.308877, 0.049494684, 0.10345173, 10.026874
780398378410099, 6.826723, -0.36251262, 7.3459654, -0.03205253, 0.053498268, 10.034684
780398388049578, 6.7669024, -0.44027936, 7.332805, 0.051371023, 0.026432991, 9.987568
780398397689057, 6.6819572, -0.5024927, 7.332805, 0.12070419, -0.028371334, 9.932556
780398407328536, 6.678368, -0.47976094, 7.3256264, 0.09842795, -0.027233124, 9.923967
780398416968015, 6.6532435, -0.50009996, 7.3567333, 0.121423006, -0.060551167, 9.930704
780398426607494, 6.5694947, -0.47856453, 7.38784, 0.10983217, -0.13549137, 9.896315
780398436246974, 6.669993, -0.39601216, 7.3136625, 0.013521522, -0.021301746, 9.906294
780398445886453, 6.7573314, -0.29312077, 7.2957163, -0.09936389, 0.049790382, 9.947994
780398455525932, 6.7812595, -0.28235307, 7.3064837, -0.10732496, 0.06903458, 9.971641
780398465165411, 6.818348, -0.3278167, 7.2705917, -0.06518215, 0.13126945, 9.971828
780398474804890, 6.8015985, -0.31226337, 7.304091, -0.07689577, 0.09814787, 9.984661
780398484444369, 6.832705, -0.3589234, 7.3830543, -0.030232579, 0.07664776, 10.065655
780398494083849, 6.8099732, -0.34456646, 7.4679995, -0.037062734, 0.0012111664, 10.112572
780398503723328, 6.8745794, -0.3062813, 7.426125, -0.0863058, 0.07617617, 10.123621
780398513362807, 6.869794, -0.32662028, 7.432107, -0.06626654, 0.077727795, 10.125538
780398523002286, 6.7238317, -0.35413775, 7.5290165, -0.018972903, -0.08385086, 10.100201
780398532641765, 6.678368, -0.35533416, 7.5457664, -0.012544066, -0.12326527, 10.082169
780398542281244, 6.7322063, -0.34576288, 7.520642, -0.028807282, -0.06796932, 10.099345
780398551920724, 6.7178497, -0.34576288, 7.499106, -0.02604711, -0.055712223, 10.07382
780398561560203, 6.661618, -0.3361916, 7.5122666, -0.026920974, -0.10365963, 10.045542
780398571199682, 6.7022963, -0.29910284, 7.446464, -0.07178283, -0.033142567, 10.022665
780398580839161, 6.721439, -0.32183465, 7.3926253, -0.05074799, 0.024632454, 9.996452
780398590478640, 6.7405815, -0.35413775, 7.3435726, -0.019464701, 0.07917452, 9.97408
780398600118119, 6.7441707, -0.39840496, 7.3698936, 0.027388483, 0.072333336, 9.997595
780398609757599, 6.6963143, -0.42711884, 7.4010005, 0.06287733, 0.022462845, 9.989665
780398619397078, 6.7022963, -0.41874397, 7.4237323, 0.05398029, 0.015507221, 10.010233
780398629036557, 6.7118673, -0.38165522, 7.440482, 0.011787593, 0.018387318, 10.0277195
780398638676036, 6.762117, -0.36251262, 7.4309106, -0.015588582, 0.06342888, 10.053448
780398648315515, 6.7465634, -0.32662028, 7.479964, -0.04812485, 0.016043663, 10.078199
780398657954994, 6.6855464, -0.34576288, 7.536195, -0.018600047, -0.06285477, 10.079981
780398667594474, 6.6676, -0.37686956, 7.5792656, 0.016533285, -0.09816933, 10.101201
780398677233953, 6.686743, -0.34217364, 7.59123, -0.021225095, -0.091995716, 10.121635
780398686873432, 6.6855464, -0.33499518, 7.507481, -0.033005, -0.037703514, 10.058256
780398696512911, 6.71426, -0.3481557, 7.483553, -0.024438709, 0.0056085587, 10.060091
780398706152390, 6.6963143, -0.33260235, 7.489535, -0.03814429, -0.0080218315, 10.052009
780398715791869, 6.6891356, -0.32183465, 7.4943204, -0.048088163, -0.017449379, 10.05039
780398725431349, 6.6927247, -0.33260235, 7.483553, -0.037327528, 6.990433E-4, 10.045166
780398735070828, 6.7537417, -0.37328035, 7.4333034, -0.003926128, 0.086557865, 10.049818
780398744710307, 6.745367, -0.3589234, 7.4476604, -0.016758204, 0.07052088, 10.054411
780398754349786, 6.728617, -0.357727, 7.426125, -0.01750952, 0.07225084, 10.027166
780398763989265, 6.7334027, -0.37806597, 7.4787674, 0.00625515, 0.041977406, 10.070344
780398773628744, 6.6628146, -0.38165522, 7.489535, 0.017780602, -0.016841412, 10.031515
780398783268224, 6.6532435, -0.36729828, 7.4847493, 0.0046607554, -0.021748543, 10.021054
780398792907703, 6.634101, -0.36610186, 7.515856, 0.006945133, -0.055564404, 10.031464
780398802547182, 6.623333, -0.38883367, 7.542177, 0.030674517, -0.07718372, 10.044764
780398812186661, 6.65444, -0.39481574, 7.57448, 0.03475231, -0.07504225, 10.089766
780398821826140, 6.707082, -0.37208393, 7.600801, 0.0061294436, -0.053141117, 10.143604
780398831465619, 6.7609205, -0.31944183, 7.560123, -0.054784, 0.016498566, 10.147131
780398841105099, 6.789634, -0.31106696, 7.5290165, -0.06780061, 0.05700302, 10.142688
780398850744578, 6.7238317, -0.31585258, 7.5517483, -0.053489536, -0.003853798, 10.116111
780398860384057, 6.710671, -0.30388847, 7.5433736, -0.0623326, -0.0073623657, 10.100693
780398870023536, 6.704689, -0.33499518, 7.5326056, -0.02899304, 0.0012717247, 10.089815
780398879663015, 6.661618, -0.317049, 7.499106, -0.036879927, -0.009290695, 10.035577
780398889302494, 6.6388865, -0.3074777, 7.466803, -0.045554817, -0.0060310364, 9.996019
780398898941974, 6.65444, -0.317049, 7.470392, -0.034386218, 0.0040683746, 10.009378
780398908581453, 6.6101727, -0.33379877, 7.475178, -0.005386442, -0.032843113, 9.984137
780398918220932, 6.5754766, -0.35653058, 7.4656067, 0.020736337, -0.048995018, 9.9547205
780398927860411, 6.5886374, -0.3792624, 7.457232, 0.042642266, -0.031408787, 9.957987
780398937499890, 6.6149583, -0.38644084, 7.4344997, 0.04575044, 0.0050468445, 9.95875
780398947139369, 6.687939, -0.38404804, 7.428518, 0.03367549, 0.06357336, 10.0026865
780398956778849, 6.658029, -0.37686956, 7.475178, 0.032785565, 0.010444641, 10.017408
780398966418328, 6.666404, -0.34456646, 7.4656067, -7.981956E-4, 0.02032423, 10.014717
780398976057807, 6.7094746, -0.33260235, 7.4356966, -0.019423366, 0.07044029, 10.020575
780398985697286, 6.707082, -0.3385844, 7.372287, -0.014526606, 0.11212349, 9.97183
780398995336765, 6.63769, -0.5024927, 7.440482, 0.16234443, 0.03494692, 9.982216
780399004976244, 6.687939, 0.022731815, 7.576873, -0.35580778, -0.089939594, 10.099672
780399014615724, 6.582655, -0.93320084, 7.3495545, 0.597679, 0.112326145, 9.891832
780399024255203, 6.707082, 0.26799613, 7.6343007, -0.58787763, -0.14890766, 10.1474905
780399033894682, 6.5347986, -0.8769695, 7.314859, 0.5469637, 0.10252905, 9.832098
780399043534161, 6.71426, 0.12323037, 7.624729, -0.441315, -0.12206745, 10.15004
780399053173640, 6.593423, -0.51565325, 7.4153576, 0.18151742, 0.02525711, 9.934437
780399062813119, 6.6975107, -0.27996024, 7.6127653, -0.04571289, -0.05642128, 10.143172
780399072452599, 6.6927247, -0.06699903, 7.4859457, -0.264273, -0.0048451424, 10.038256
780399082092078, 6.658029, -0.70947194, 7.459625, 0.37816042, 0.0907774, 10.016359
780399091731557, 6.7441707, 0.2644069, 7.623533, -0.590055, -0.09451151, 10.164394
780399101371036, 6.6089764, -0.96550393, 7.402197, 0.6281126, 0.12868738, 9.949482
780399111010515, 6.6963143, 0.2739782, 7.6977105, -0.58827037, -0.17138433, 10.187984
780399120649994, 6.582655, -0.9296116, 7.365108, 0.59657836, 0.12252188, 9.903002
780399130289474, 6.735796, 0.13040884, 7.6510506, -0.45536238, -0.07646847, 10.183975
780399139928953, 6.576673, -0.59342, 7.3579297, 0.26501486, 0.08232355, 9.882657
780399149568432, 6.647261, -0.2943172, 7.5553374, -0.024065107, -0.03125763, 10.067486
780399159207911, 6.582655, -0.148355, 7.4189467, -0.16862878, -0.002383709, 9.91795
780399168847390, 6.600601, -0.6903293, 7.3902326, 0.3660134, 0.090103626, 9.925621
780399178486869, 6.649654, 0.22253251, 7.521838, -0.54187465, -0.064014435, 10.02735
780399188126349, 6.5407805, -0.92602235, 7.3567333, 0.6018766, 0.09385586, 9.868626
780399197765828, 6.71426, 0.37328035, 7.6594253, -0.6812918, -0.1286254, 10.168911
780399207405307, 6.562316, -0.89491564, 7.3459654, 0.5647274, 0.12172079, 9.873922
780399217044786, 6.7633133, 0.23090738, 7.745567, -0.5401279, -0.12915802, 10.2704
780399226684265, 6.611369, -0.56350976, 7.460821, 0.24920973, 0.049008846, 9.981337
780399236323744, 6.7238317, -0.21655045, 7.647461, -0.09844464, -0.03422737, 10.1847725
780399245963224, 6.647261, -0.16869399, 7.487142, -0.1448901, 0.011739254, 10.012527
780399255602703, 6.674779, -0.695115, 7.499106, 0.37475756, 0.09064531, 10.056033
780399265242182, 6.7034926, 0.1902294, 7.664211, -0.4918568, -0.10851097, 10.171501
780399274881661, 6.5635123, -0.93679005, 7.436893, 0.63045335, 0.086761475, 9.942818
780399284521140, 6.710671, 0.37088752, 7.7120676, -0.67738754, -0.15069008, 10.206131
780399294160619, 6.579066, -0.92602235, 7.318448, 0.60252047, 0.16521549, 9.864634
780399303800099, 6.7202425, 0.25603202, 7.631908, -0.55909026, -0.06689453, 10.156584
780399313439578, 6.513263, -0.6029913, 7.389036, 0.2923356, 0.03241253, 9.863953
780399323079057, 6.643672, -0.1268196, 7.6139617, -0.17564082, -0.06735611, 10.104033
780399332718536, 6.600601, -0.18065812, 7.399804, -0.13310808, 0.050367832, 9.916523
780399342358015, 6.619744, -0.59700924, 7.4584284, 0.2808275, 0.07239437, 9.986063
780399351997494, 6.672386, 0.1698904, 7.5661054, -0.4796492, -0.04467106, 10.077871
780399361636974, 6.5886374, -0.9619147, 7.4715886, 0.64151955, 0.08432102, 9.987062
780399371276453, 6.7166533, 0.34456646, 7.769495, -0.6446682, -0.17051268, 10.254392
780399380915932, 6.586244, -0.93320084, 7.4512496, 0.60646784, 0.10329771, 9.96956
780399390555411, 6.73101, 0.23808585, 7.8173513, -0.5388717, -0.17271614, 10.3031025
780399400194890, 6.593423, -0.72502524, 7.487142, 0.41136172, 0.06831837, 9.994114
780399409834369, 6.707082, -0.13998012, 7.746763, -0.17282388, -0.09068966, 10.245916
780399419473849, 6.63769, -0.28953153, 7.524231, -0.026559353, 0.02353096, 10.037707
780399429113328, 6.6771717, -0.5946164, 7.5996046, 0.27637932, 0.0354681, 10.129885
780399438752807, 6.7022963, 0.0741775, 7.6331043, -0.3888351, -0.039500237, 10.150753
780399448392286, 6.5539412, -0.9702896, 7.5469627, 0.6596157, 0.00521183, 10.020834
780399458031765, 6.690332, 0.34337005, 7.7419777, -0.65308005, -0.14068937, 10.21618
780399467671244, 6.546763, -0.971486, 7.389036, 0.6514617, 0.10700941, 9.897772
780399477310724, 6.6927247, 0.2644069, 7.664211, -0.5797559, -0.09063339, 10.161608
780399486950203, 6.5443697, -0.7178468, 7.32443, 0.38415167, 0.12168026, 9.840172
780399496589682, 6.629315, -0.05503492, 7.6462646, -0.26202002, -0.093447685, 10.116266
780399506229161, 6.5814586, -0.30269206, 7.4129643, -0.027618855, 0.048956394, 9.917463
780399515868640, 6.641279, -0.50129634, 7.533802, 0.16949281, 0.03491211, 10.054158
780399525508119, 6.6771717, 0.09451649, 7.519445, -0.4269222, 0.0017747879, 10.047554
780399535147599, 6.579066, -0.8889336, 7.4847493, 0.5608612, 0.07081127, 9.988804
780399544787078, 6.7369924, 0.317049, 7.708478, -0.65127707, -0.10644007, 10.221191
780399554426557, 6.5814586, -1.0073783, 7.416554, 0.66557187, 0.122558594, 9.943726
780399564066036, 6.77767, 0.276371, 7.7156568, -0.6034467, -0.07853508, 10.255449
780399573705515, 6.6101727, -0.77766734, 7.422536, 0.43498352, 0.11045742, 9.959507
780399583344994, 6.686743, -0.009571291, 7.7647095, -0.3124498, -0.14846516, 10.241274
780399592984474, 6.6245294, -0.3385844, 7.459625, 0.00524354, 0.04400778, 9.98214
780399602623953, 6.6676, -0.4223332, 7.5625157, 0.096125424, 0.019947052, 10.090455
780399612263432, 6.6460648, 0.0849452, 7.515856, -0.40426978, -0.027622223, 10.025033
780399621902911, 6.5694947, -0.849452, 7.4548388, 0.5298971, 0.056488514, 9.958437
780399631542390, 6.672386, 0.37088752, 7.6570325, -0.6796593, -0.14094973, 10.13936
780399641181869, 6.5144596, -0.9523434, 7.353144, 0.63487256, 0.09545326, 9.848944
780399650821349, 6.6771717, 0.3481557, 7.672586, -0.6452639, -0.13619328, 10.155762
780399660460828, 6.5491557, -0.81595254, 7.314859, 0.49804494, 0.12641144, 9.8387165
780399670100307, 6.6795645, 0.038285162, 7.6307116, -0.33753014, -0.07213259, 10.135418
780399679739786, 6.5778694, -0.39960137, 7.328019, 0.09326759, 0.100203514, 9.854399
780399689379265, 6.661618, -0.44027936, 7.463214, 0.13193947, 0.07739401, 10.01235
780399699018744, 6.6556363, 0.016749758, 7.429714, -0.3238094, 0.043119907, 9.96954
780399708658224, 6.613762, -0.8817552, 7.3830543, 0.57758725, 0.14828777, 9.933441
780399718297703, 6.727421, 0.25124636, 7.5792656, -0.55753976, -0.03263569, 10.12199
780399727937182, 6.5539412, -1.0420742, 7.3232336, 0.72916806, 0.16754866, 9.8544445
780399737576661, 6.7262244, 0.30867413, 7.594819, -0.6036655, -0.055413246, 10.131691
780399747216140, 6.5479593, -0.8470592, 7.331609, 0.53278756, 0.13158369, 9.851121
780399756855619, 6.660422, 0.05383851, 7.722835, -0.34226623, -0.15499544, 10.191425
780399766495099, 6.5814586, -0.47258246, 7.4237323, 0.16039252, 0.043990135, 9.930915
780399776134578, 6.579066, -0.38404804, 7.6331043, 0.08063123, -0.10379982, 10.083582
780399785774057, 6.5611196, -0.023928227, 7.533802, -0.2860166, -0.08875561, 9.985859
780399795413536, 6.546763, -0.79920274, 7.542177, 0.48911107, -0.017980576, 10.007183
780399805053015, 6.6556363, 0.29910284, 7.6510506, -0.6177951, -0.13181782, 10.125536
780399814692494, 6.5742803, -0.96909314, 7.4045897, 0.6462344, 0.12046003, 9.927544
780399824331974, 6.7298136, 0.31226337, 7.6869426, -0.63992816, -0.095807076, 10.200897
780399833971453, 6.538388, -0.9200403, 7.3567333, 0.59518296, 0.1310587, 9.866463
780399843610932, 6.7011, 0.09930214, 7.753942, -0.42068523, -0.14150572, 10.239201
780399853250411, 6.6257257, -0.49651068, 7.4536424, 0.16173682, 0.07412529, 9.983581
780399862889890, 6.7118673, -0.30149564, 7.649854, -0.028722435, -0.011267662, 10.181325
780399872529369, 6.6855464, -0.061016977, 7.503892, -0.27262652, 0.03534746, 10.046545
780399882168849, 6.6149583, -0.762114, 7.533802, 0.4346973, 0.046794415, 10.045174
780399891808328, 6.6676, 0.2548356, 7.685746, -0.573041, -0.13066816, 10.1610565
780399901447807, 6.512067, -0.9631111, 7.4715886, 0.6323613, 0.032197, 9.937722
780399911087286, 6.687939, 0.38644084, 7.698907, -0.70552254, -0.15057325, 10.179913
780399920726765, 6.5455666, -0.8542377, 7.3567333, 0.51042604, 0.11339474, 9.870274
780399930366244, 6.6735826, 0.14596218, 7.7144604, -0.46854138, -0.1390481, 10.189799
780399940005724, 6.541977, -0.55034924, 7.396215, 0.21814707, 0.053542137, 9.887057
780399949645203, 6.647261, -0.2620141, 7.624729, -0.06733352, -0.053092957, 10.118492
780399959284786, 6.623333, -0.12562318, 7.4656067, -0.21146134, 0.019509315, 9.978703
780399968924161, 6.611369, -0.72023964, 7.52782, 0.38439068, 0.0429554, 10.037302
780399978563744, 6.7118673, 0.21894327, 7.6307116, -0.547999, -0.059864044, 10.149925
780399988203224, 6.5922265, -1.0085747, 7.469196, 0.68112516, 0.097641945, 9.9895
780399997842703, 6.762117, 0.29312077, 7.737192, -0.6268443, -0.09884548, 10.260292
780400007482182, 6.5431733, -0.9906286, 7.4416785, 0.65668094, 0.07659149, 9.936598
780400017121661, 6.7034926, 0.16630118, 7.7850485, -0.48144197, -0.15495348, 10.262342
780400026761140, 6.5946193, -0.54317075, 7.4309106, 0.20621008, 0.07583141, 9.947573
780400036400619, 6.65444, -0.20219351, 7.6749787, -0.12056607, -0.07988405, 10.159075
780400046040099, 6.5946193, -0.16630118, 7.499106, -0.15792167, -0.010752678, 9.986401
780400055679578, 6.5754766, -0.6843473, 7.5517483, 0.3611754, 0.002038002, 10.030138
780400065319057, 6.6460648, 0.20338993, 7.615158, -0.5247551, -0.09688711, 10.095415
780400074958536, 6.524031, -0.96789676, 7.466803, 0.65392077, 0.051050663, 9.940962
780400084598015, 6.6939216, 0.3469593, 7.7503524, -0.6535373, -0.16758823, 10.2245655
780400094237494, 6.5898337, -0.92243314, 7.37109, 0.6004459, 0.16118908, 9.910765
780400103876974, 6.769295, 0.23449662, 7.6737823, -0.5574213, -0.044649124, 10.220205
780400113516453, 6.558727, -0.6759724, 7.399804, 0.35626516, 0.07781124, 9.904442
780400123155932, 6.6556363, -0.2105684, 7.6630144, -0.09794995, -0.06773949, 10.151328
780400132795411, 6.6556363, -0.25244278, 7.446464, -0.065850586, 0.07921696, 9.990017
780400142434890, 6.649654, -0.66161543, 7.548159, 0.347639, 0.05298853, 10.075054
780400152074369, 6.680761, 0.15194423, 7.641479, -0.45629224, -0.07920265, 10.14068
780400161713849, 6.546763, -0.95832545, 7.487142, 0.6470612, 0.045840263, 9.970706
780400171353328, 6.669993, 0.36729828, 7.6797643, -0.6736599, -0.14247751, 10.155214
780400180992807, 6.485746, -0.9343972, 7.322037, 0.6185007, 0.11215305, 9.80587
780400190632286, 6.6568327, 0.276371, 7.6678, -0.5814972, -0.13561535, 10.140436
780400200271869, 6.5252275, -0.65682983, 7.355537, 0.34126538, 0.0853858, 9.848362
780400209911349, 6.7022963, -0.09332009, 7.629515, -0.21199685, -0.037335396, 10.153458
780400219550828, 6.6329045, -0.20338993, 7.344769, -0.11827201, 0.11263943, 9.89726
780400229190307, 6.658029, -0.59700924, 7.4644103, 0.27908975, 0.10028076, 10.015751
780400238829786, 6.6759753, 0.12921242, 7.5493555, -0.4373702, -0.03019476, 10.069057
780400248469265, 6.558727, -0.9200403, 7.4823565, 0.6069169, 0.052191257, 9.973864
780400258108744, 6.710671, 0.3385844, 7.7383885, -0.6391283, -0.14492893, 10.227459
780400267748224, 6.5515485, -0.9810573, 7.442875, 0.6728656, 0.082014084, 9.940934
780400277387703, 6.695118, 0.24646074, 7.7671022, -0.5552715, -0.16736221, 10.240943
780400287027182, 6.5515485, -0.7178468, 7.4249287, 0.40025997, 0.05837679, 9.919882
780400296666661, 6.686743, -0.07298109, 7.6917286, -0.23234272, -0.0838809, 10.189186
780400306306140, 6.6089764, -0.32542387, 7.452446, 0.0111350715, 0.042918682, 9.966015
780400315945619, 6.652047, -0.52522457, 7.584051, 0.2125651, 0.00952816, 10.099413
780400325585099, 6.7022963, 0.13758731, 7.5661054, -0.45572144, -0.015248299, 10.098404
780400335224682, 6.606583, -0.88295156, 7.475178, 0.5708063, 0.09330273, 9.998515
780400344864161, 6.7011, 0.3397808, 7.696514, -0.65157056, -0.12354708, 10.18905
780400354503640, 6.567102, -0.96430755, 7.375876, 0.65190786, 0.13820171, 9.900312
780400364143119, 6.727421, 0.31585258, 7.6917286, -0.6288352, -0.109212875, 10.203592
780400373782599, 6.5407805, -0.7800602, 7.3363943, 0.45871192, 0.12119961, 9.848244
780400383422078, 6.666404, -0.020338992, 7.655836, -0.28077447, -0.08714247, 10.147254
780400393061557, 6.5946193, -0.3278167, 7.4213395, 0.010756224, 0.048905373, 9.933289
780400402701036, 6.634101, -0.44985065, 7.600801, 0.14197057, -0.022672653, 10.09778
780400412340515, 6.6711893, 0.083748795, 7.537391, -0.39862096, -0.023391724, 10.058062
780400421979994, 6.5742803, -0.89371926, 7.4883385, 0.58548695, 0.06478739, 9.987398
780400431619578, 6.6939216, 0.3469593, 7.713264, -0.6535373, -0.15765858, 10.196638
780400441259057, 6.570691, -0.97507524, 7.4010005, 0.6515347, 0.1285224, 9.922629
780400450898536, 6.7633133, 0.31944183, 7.725228, -0.6230079, -0.10075283, 10.253063
780400460538015, 6.573084, -0.79800636, 7.3986077, 0.47851413, 0.10630417, 9.916722
780400470177494, 6.658029, 0.04546363, 7.7072816, -0.34608153, -0.13253593, 10.178226
780400479816974, 6.6424756, -0.4031906, 7.428518, 0.091570586, 0.09459257, 9.972492
780400489456453, 6.650851, -0.46779683, 7.624729, 0.16507134, -0.022511482, 10.12726
780400499095932, 6.62094, 0.02871387, 7.554141, -0.32845268, -0.056107044, 10.039507
780400508735411, 6.5838513, -0.7932207, 7.521838, 0.49294424, 0.038984776, 10.01548
780400518374994, 6.7178497, 0.34217364, 7.6773715, -0.6400356, -0.09732962, 10.186731
780400528014474, 6.5347986, -1.0001999, 7.393822, 0.6888895, 0.10562229, 9.89378
780400537653953, 6.674779, 0.3361916, 7.6953177, -0.62541974, -0.14236832, 10.17213
780400547293432, 6.5347986, -0.8171489, 7.3627152, 0.5125649, 0.11514425, 9.8643265
780400556932911, 6.704689, 0.08015956, 7.68455, -0.37859163, -0.07584, 10.191296
780400566572390, 6.5982084, -0.45104706, 7.4249287, 0.137377, 0.07552767, 9.942073
780400576211869, 6.611369, -0.37567315, 7.6426754, 0.075588346, -0.06692171, 10.111955
780400585851453, 6.643672, -0.015553347, 7.542177, -0.29243618, -0.013210297, 10.046759
780400595490932, 6.6125655, -0.80159557, 7.5433736, 0.49754465, 0.043609142, 10.050951
780400605130411, 6.7094746, 0.30149564, 7.6917286, -0.6019751, -0.09444809, 10.193102
780400614769890, 6.5407805, -0.9822537, 7.448857, 0.6810545, 0.07112217, 9.937969
780400624409369, 6.7094746, 0.35533416, 7.7300134, -0.6635275, -0.1340785, 10.2195
780400634048849, 6.530013, -0.8650054, 7.399804, 0.5601487, 0.08894968, 9.890639
780400643688328, 6.6939216, 0.11006984, 7.7347994, -0.41780144, -0.12324381, 10.220474
780400653327807, 6.587441, -0.44985065, 7.4392858, 0.13396159, 0.056752205, 9.945781
780400662967390, 6.6556363, -0.2943172, 7.6223364, -0.015757054, -0.028419018, 10.123393
780400672606869, 6.6221366, -0.04426722, 7.469196, -0.26835486, 0.019639492, 9.978535
780400682246349, 6.570691, -0.7537391, 7.4943204, 0.4416691, 0.048324585, 9.985466
780400691885828, 6.6915283, 0.29790643, 7.6606216, -0.602561, -0.08927727, 10.157724
780400701525307, 6.5443697, -0.9774681, 7.463214, 0.6605172, 0.07985926, 9.951942
780400711164786, 6.6999035, 0.3290131, 7.7072816, -0.6309304, -0.11317253, 10.197463
780400720804369, 6.550352, -0.9020941, 7.3842506, 0.5812738, 0.11497688, 9.894287
780400730443849, 6.7094746, 0.13998012, 7.749156, -0.45532826, -0.10998154, 10.240442
780400740083328, 6.5838513, -0.56350976, 7.4380894, 0.24177647, 0.07607174, 9.946135
780400749722807, 6.658029, -0.2644069, 7.648658, -0.045072377, -0.04106188, 10.143842
780400759362286, 6.650851, -0.08733802, 7.442875, -0.2348071, 0.06698513, 9.978888
780400769001869, 6.600601, -0.6831509, 7.521838, 0.36597535, 0.047833443, 10.023796
780400778641349, 6.652047, 0.2416751, 7.6869426, -0.54526407, -0.1287427, 10.152996
780400788280828, 6.5479593, -0.96789676, 7.496713, 0.65148664, 0.0521698, 9.979286
780400797920307, 6.721439, 0.36729828, 7.746763, -0.66878784, -0.13736439, 10.240061
780400807559786, 6.580262, -0.9212367, 7.4153576, 0.596122, 0.13117886, 9.937983
780400817199265, 6.721439, 0.16390835, 7.757531, -0.4740305, -0.1176486, 10.25404
780400826838849, 6.570691, -0.60059845, 7.4380894, 0.28477886, 0.06642914, 9.938529
780400836478328, 6.6771717, -0.19860429, 7.6510506, -0.1107541, -0.038799286, 10.156223
780400846117807, 6.652047, -0.15433706, 7.448857, -0.16151503, 0.07171011, 9.986382
780400855757286, 6.5575304, -0.70348984, 7.556534, 0.40200064, -0.0069413185, 10.02176
780400865396765, 6.6568327, 0.19621146, 7.631908, -0.5067822, -0.081465244, 10.116051
780400875036349, 6.5515485, -0.9738788, 7.460821, 0.6577312, 0.08461666, 9.954663
780400884675828, 6.6891356, 0.32303107, 7.7312098, -0.6228251, -0.13708878, 10.208515
780400894315307, 6.5431733, -0.97866446, 7.3806615, 0.6657913, 0.1320796, 9.888597
780400903954786, 6.71426, 0.19980069, 7.728817, -0.5152142, -0.105817795, 10.226395
780400913594369, 6.5694947, -0.6436693, 7.436893, 0.32319, 0.072626114, 9.938321
780400923233849, 6.674779, -0.15074782, 7.6809607, -0.16209793, -0.06200838, 10.175581
780400932873328, 6.626922, -0.19740787, 7.503892, -0.11690605, 0.023523808, 10.012454
780400942512807, 6.6041903, -0.6017949, 7.59123, 0.29141098, -0.0064167976, 10.075678
780400952152286, 6.6711893, 0.25004998, 7.645068, -0.55531955, -0.09566355, 10.133944
780400961791869, 6.579066, -0.90807617, 7.496713, 0.59826577, 0.07546711, 9.997291
780400971431349, 6.7118673, 0.38404804, 7.728817, -0.68495023, -0.13485861, 10.219784
780400981070828, 6.541977, -0.9092726, 7.396215, 0.5970197, 0.123693466, 9.897299
780400990710307, 6.7022963, 0.28953153, 7.7012997, -0.5911511, -0.11107683, 10.195725
780401000349890, 6.5611196, -0.6771688, 7.3663044, 0.35252544, 0.12859678, 9.8807125
780401009989369, 6.6687965, -0.111266255, 7.6678, -0.19125858, -0.06329918, 10.1607
780401019628849, 6.587441, -0.25722843, 7.422536, -0.057198077, 0.05510664, 9.927148
780401029268328, 6.6041903, -0.6305088, 7.5661054, 0.3225666, 0.020740986, 10.057552
780401038907911, 6.643672, 0.10289137, 7.5900335, -0.405896, -0.060133457, 10.079147
780401048547390, 6.5682983, -0.951147, 7.500303, 0.63685995, 0.069993496, 9.994563
780401058186869, 6.7226353, 0.32542387, 7.752745, -0.6268568, -0.12701225, 10.246742
780401067826453, 6.5539412, -0.99302137, 7.4309106, 0.6712936, 0.11225891, 9.934559
780401077465932, 6.6915283, 0.2739782, 7.757531, -0.58441603, -0.15122747, 10.230665
780401087105411, 6.5694947, -0.701097, 7.428518, 0.37910673, 0.08836794, 9.933839
780401096744890, 6.6999035, -0.03708875, 7.692925, -0.27062243, -0.06371689, 10.197741
780401106384474, 6.626922, -0.26919255, 7.475178, -0.05006087, 0.051477432, 9.993084
780401116023953, 6.59103, -0.5192425, 7.59123, 0.21405625, -0.023234367, 10.064379
780401125663432, 6.6676, 0.13998012, 7.5529447, -0.45498204, -0.018207073, 10.065592
780401135302911, 6.573084, -0.863809, 7.4847493, 0.55549586, 0.073572636, 9.98294
780401144942494, 6.707082, 0.3290131, 7.692925, -0.6434649, -0.095802784, 10.190734
780401154581974, 6.5204415, -0.99900347, 7.4105716, 0.6819221, 0.092461586, 9.897331
780401164221453, 6.704689, 0.276371, 7.756335, -0.59087914, -0.1313796, 10.2383375
780401173861036, 6.538388, -0.7704889, 7.4189467, 0.4592013, 0.080479145, 9.907957
780401183500515, 6.672386, -0.022731815, 7.719246, -0.28425503, -0.09381342, 10.198941
780401193139994, 6.626922, -0.37567315, 7.4356966, 0.052321345, 0.091591835, 9.966728
780401202779578, 6.6460648, -0.50009996, 7.617551, 0.18535715, 0.0016961098, 10.11993
780401212419057, 6.6628146, 0.07298109, 7.5613194, -0.39262766, -0.009903431, 10.070635
780401222058536, 6.579066, -0.8446664, 7.509874, 0.5248831, 0.06314278, 10.005813
780401231698119, 6.6831536, 0.3385844, 7.7012997, -0.653136, -0.1203804, 10.180773
780401241337599, 6.5347986, -0.9619147, 7.4045897, 0.63764, 0.118816376, 9.9013195
780401250977078, 6.71426, 0.31944183, 7.7156568, -0.623003, -0.11479807, 10.213392
780401260616661, 6.5431733, -0.78723866, 7.4129643, 0.4656148, 0.093809605, 9.907537
780401270256140, 6.6795645, 0.062213387, 7.749156, -0.36845666, -0.13294268, 10.223329
780401279895619, 6.586244, -0.37088752, 7.452446, 0.059108883, 0.05179453, 9.952333
780401289535203, 6.623333, -0.45702913, 7.631908, 0.15101409, -0.027713299, 10.11434
780401299174682, 6.6388865, 0.01794617, 7.585248, -0.32511604, -0.042133808, 10.074903
780401308814161, 6.59103, -0.83030945, 7.55773, 0.5166914, 0.05094099, 10.048921
780401318453744, 6.7034926, 0.29312077, 7.704889, -0.5959543, -0.10035086, 10.199158
780401328093224, 6.5347986, -0.98943216, 7.459625, 0.6739725, 0.079152584, 9.943243
780401337732703, 6.710671, 0.32662028, 7.749156, -0.6251413, -0.13143015, 10.236265
780401347372286, 6.5455666, -0.8243274, 7.4069824, 0.50509, 0.106476784, 9.905599
780401357011765, 6.7011, 0.078963146, 7.732406, -0.38002598, -0.09491348, 10.224854
780401366651244, 6.559923, -0.4642076, 7.426125, 0.14993146, 0.062304974, 9.918118
780401376290828, 6.59103, -0.38524446, 7.643872, 0.08493006, -0.06651068, 10.099863
780401385930307, 6.63769, 0.01794617, 7.5457664, -0.32865965, -0.0037407875, 10.044392
780401395569786, 6.5814586, -0.81834537, 7.537391, 0.51465523, 0.03200817, 10.026548
780401405209369, 6.68435, 0.2943172, 7.6941214, -0.5948677, -0.10163021, 10.17853
780401414848849, 6.550352, -1.0001999, 7.4380894, 0.68467236, 0.10144329, 9.937485
780401424488432, 6.7298136, 0.3505485, 7.7383885, -0.6508906, -0.10384655, 10.2401905
780401434127911, 6.5312095, -0.84347, 7.379465, 0.5383215, 0.111243725, 9.875347
780401443767390, 6.6831536, 0.12562318, 7.7312098, -0.42169985, -0.11564922, 10.210815
780401453406974, 6.59103, -0.45224348, 7.409375, 0.13559592, 0.09300375, 9.925625
780401463046453, 6.6257257, -0.32303107, 7.60798, 0.018966317, -0.026569366, 10.093803
780401472685932, 6.62094, -0.041874398, 7.487142, -0.26846424, 0.013913155, 9.9911785
780401482325515, 6.5958157, -0.7573284, 7.5050883, 0.44492197, 0.073506355, 10.010061
780401491964994, 6.7130637, 0.276371, 7.645068, -0.58121157, -0.059114933, 10.16107
780401501604578, 6.5431733, -0.9774681, 7.4656067, 0.66314733, 0.07838154, 9.952786
780401511244057, 6.680761, 0.30867413, 7.7407813, -0.60380673, -0.15062428, 10.2107935
780401520883640, 6.5252275, -0.91166544, 7.420143, 0.5956409, 0.08222437, 9.904882
780401530523119, 6.6759753, 0.16390835, 7.7587276, -0.4627081, -0.14063692, 10.225434
780401540162599, 6.5647087, -0.5276174, 7.446464, 0.20986784, 0.0574255, 9.938624
780401549802182, 6.672386, -0.2656033, 7.704889, -0.044653982, -0.06204796, 10.195625
780401559441661, 6.6735826, -0.07537391, 7.5409803, -0.24213779, 0.02562666, 10.067248
780401569081244, 6.634101, -0.67836523, 7.5924263, 0.36301947, 0.03557539, 10.0986805
780401578720724, 6.728617, 0.25603202, 7.658229, -0.5652424, -0.061243534, 10.181606
780401588360203, 6.5778694, -0.96550393, 7.472785, 0.64545745, 0.10590029, 9.980743
780401597999786, 6.741778, 0.3589234, 7.752745, -0.67022866, -0.12328243, 10.2577305
780401607639265, 6.5084777, -0.9200403, 7.411768, 0.6040529, 0.09103727, 9.887764
780401617278849, 6.6759753, 0.18185452, 7.7072816, -0.4777283, -0.1187315, 10.186343
780401626918328, 6.556334, -0.5946164, 7.3567333, 0.27494186, 0.119933605, 9.867656
780401636557911, 6.634101, -0.25004998, 7.609176, -0.05258733, -0.030280113, 10.098003
780401646197390, 6.617351, -0.1698904, 7.469196, -0.1427243, 0.036586285, 9.979247
780401655836974, 6.573084, -0.6879365, 7.570891, 0.38425288, -0.0031266212, 10.042381
780401665476453, 6.6771717, 0.2213361, 7.6534433, -0.5322894, -0.088839054, 10.144831
780401675115932, 6.5491557, -0.9343972, 7.495517, 0.628384, 0.062102318, 9.977404
780401684755515, 6.7058854, 0.37806597, 7.745567, -0.68840766, -0.14297342, 10.227966
780401694394994, 6.5850477, -0.9236295, 7.399804, 0.59832096, 0.14652681, 9.929431
780401704034578, 6.7334027, 0.23808585, 7.798209, -0.5483866, -0.13905382, 10.29016
780401713674057, 6.6017976, -0.59940207, 7.4392858, 0.2784352, 0.095134735, 9.95989
780401723313640, 6.666404, -0.15433706, 7.6977105, -0.15216553, -0.07590008, 10.1828575
780401732953119, 6.6257257, -0.2117648, 7.4656067, -0.10102582, 0.052071095, 9.983358
780401742592703, 6.6125655, -0.6017949, 7.5385876, 0.2916012, 0.04274082, 10.041494
780401752232182, 6.6831536, 0.19740787, 7.60439, -0.50364035, -0.04104519, 10.113107
780401761871765, 6.546763, -0.9487542, 7.472785, 0.6367513, 0.072075844, 9.959524
780401771511244, 6.680761, 0.34576288, 7.665407, -0.6436844, -0.10438585, 10.153098
780401781150828, 6.503692, -0.9607183, 7.365108, 0.64401174, 0.11842203, 9.850739
780401790790307, 6.6855464, 0.22731815, 7.726424, -0.5233283, -0.12739372, 10.205671
780401800429890, 6.5718875, -0.6843473, 7.3950186, 0.364518, 0.11337042, 9.909523
780401810069369, 6.6424756, -0.13040884, 7.708478, -0.16638863, -0.1046257, 10.174552
780401819708953, 6.613762, -0.2536392, 7.509874, -0.058987796, 0.019718647, 10.010021
780401829348432, 6.649654, -0.5838487, 7.5864444, 0.27105272, 0.038400173, 10.101385
780401838988015, 6.7130637, 0.16869399, 7.6307116, -0.47879103, -0.035457134, 10.153372
780401848627494, 6.593423, -0.8985049, 7.560123, 0.5924462, 0.05277729, 10.053965
780401858267078, 6.734599, 0.36131623, 7.7742805, -0.66256964, -0.12730694, 10.26984
780401867906557, 6.5371914, -0.9846465, 7.4356966, 0.6781863, 0.101222515, 9.925917
780401877546140, 6.707082, 0.26919255, 7.763513, -0.56563896, -0.13988781, 10.246464
780401887185619, 6.567102, -0.6999006, 7.3806615, 0.37890977, 0.1216259, 9.896086
780401896825203, 6.6652074, -0.07776674, 7.670193, -0.2250959, -0.0643177, 10.159139
780401906464682, 6.5718875, -0.31226337, 7.4177504, -0.0023675263, 0.057674408, 9.914984
780401916104265, 6.600601, -0.53240305, 7.5433736, 0.22292358, 0.022827148, 10.035123
780401925743849, 6.6652074, 0.1052842, 7.5457664, -0.42196247, -0.0037050247, 10.059653
780401935383328, 6.5491557, -0.91166544, 7.499106, 0.6042485, 0.05834055, 9.979511
780401945022911, 6.678368, 0.33260235, 7.706085, -0.6445902, -0.12645817, 10.181526
780401954662390, 6.521638, -0.9810573, 7.4237323, 0.6719713, 0.09678507, 9.906822
780401964301974, 6.7262244, 0.3182454, 7.7503524, -0.633515, -0.117871284, 10.246759
780401973941453, 6.6077795, -0.55034924, 7.4787674, 0.22595349, 0.0787549, 9.992014
780401983581036, 6.6305118, -0.25124636, 7.623533, -0.058917075, -0.033863068, 10.106457
780401993220515, 6.6077795, -0.31465617, 7.6139617, 0.005923897, -0.037328243, 10.086265
780402002860099, 6.6257257, -0.27996024, 7.611569, -0.029592067, -0.025578022, 10.095201
780402012499682, 6.643672, -0.30149564, 7.570891, -0.012560576, 0.017925262, 10.077063
780402022139161, 6.643672, -0.30867413, 7.588837, -0.0042172074, 0.007940769, 10.09079
780402031778744, 6.63769, -0.3062813, 7.62114, -0.0046660304, -0.018247604, 10.111092
780402041418224, 6.6149583, -0.31226337, 7.594819, 0.0016245842, -0.016220093, 10.076517
780402051057807, 6.6245294, -0.3074777, 7.60439, -0.0038149953, -0.015902042, 10.089867
780402060697390, 6.597012, -0.30269206, 7.594819, -0.0062839687, -0.030116558, 10.064419
780402070336869, 6.6185474, -0.31106696, 7.5732837, -0.0017566383, 0.0015354156, 10.062632
780402079976453, 6.6077795, -0.31345975, 7.5637126, 0.0013328791, 5.9890747E-4, 10.04842
780402089615932, 6.602994, -0.31944183, 7.556534, 0.007392794, 0.0024781227, 10.040056
780402099255515, 6.606583, -0.31585258, 7.5720873, 0.004298389, -0.005129814, 10.054014
780402108894994, 6.6424756, -0.30388847, 7.5756764, -0.011384785, 0.0177989, 10.079944
780402118534578, 6.641279, -0.31585258, 7.57448, 4.993379E-4, 0.019503117, 10.078627
780402128174161, 6.6388865, -0.33020952, 7.6031938, 0.016655654, 3.5619736E-4, 10.099115
780402137813640, 6.6089764, -0.31106696, 7.588837, 1.3431907E-4, -0.01576233, 10.068045
780402147453224, 6.629315, -0.29910284, 7.578069, -0.015271932, 0.0046577454, 10.072941
780402157092807, 6.6281185, -0.27996024, 7.584051, -0.034644127, -0.002723217, 10.076059
780402166732286, 6.6221366, -0.29671, 7.580462, -0.017554969, -0.002737999, 10.069946
780402176371869, 6.593423, -0.30508488, 7.5756764, -0.00641948, -0.020018578, 10.047723
780402186011349, 6.5922265, -0.31465617, 7.568498, 0.002470106, -0.015276432, 10.041832
780402195650932, 6.6149583, -0.30867413, 7.5792656, -0.0061933696, -0.0058460236, 10.064699
780402205290515, 6.62094, -0.29790643, 7.5900335, -0.016848832, -0.008950233, 10.076401
780402214929994, 6.593423, -0.30867413, 7.588837, -0.002837181, -0.025930405, 10.057747
780402224569578, 6.626922, -0.317049, 7.588837, 0.0019535422, 0.001765728, 10.080032
780402234209161, 6.6161547, -0.31944183, 7.5637126, 0.004111558, 0.010504723, 10.0541115
780402243848640, 6.6077795, -0.3062813, 7.560123, -0.008545667, 0.006819725, 10.045492
780402253488224, 6.6424756, -0.3062813, 7.550552, -0.01276508, 0.038980007, 10.061087
780402263127807, 6.623333, -0.30867413, 7.55773, -0.008640468, 0.02075243, 10.053985
780402272767286, 6.6245294, -0.31226337, 7.5613194, -0.0055841208, 0.01977253, 10.057586
780402282406869, 6.6221366, -0.31465617, 7.5661054, -0.003912002, 0.015693188, 10.059692
780402292046453, 6.597012, -0.32063824, 7.600801, 0.0062273443, -0.024775505, 10.069504
780402301685932, 6.606583, -0.31226337, 7.635497, -0.0011921525, -0.041346073, 10.101662
780402311325515, 6.5814586, -0.32662028, 7.643872, 0.01583153, -0.060848236, 10.091932
780402320964994, 6.5659056, -0.32422748, 7.6019974, 0.0130312145, -0.04525757, 10.050095
780402330604578, 6.5922265, -0.32542387, 7.598408, 0.010703623, -0.01920414, 10.064724
780402340244161, 6.6017976, -0.31585258, 7.5696945, -0.00196746, 0.006198883, 10.049067
780402349883744, 6.6388865, -0.26799613, 7.6307116, -0.050106853, -0.012057304, 10.117892
780402359523224, 6.666404, -0.26919255, 7.629515, -0.052747816, 0.008996487, 10.135088
780402369162807, 6.650851, -0.29072794, 7.5756764, -0.032579362, 0.03587389, 10.084981
780402378802390, 6.6329045, -0.30867413, 7.548159, -0.01329726, 0.043124676, 10.053028
780402388441869, 6.623333, -0.32183465, 7.5732837, 0.0025960207, 0.020454884, 10.066098
780402398081453, 6.6101727, -0.3062813, 7.556534, -0.012491852, 0.018686295, 10.044346
780402407721036, 6.5850477, -0.30508488, 7.5589266, -0.01086098, -0.0022258759, 10.029615
780402417360515, 6.567102, -0.3361916, 7.598408, 0.024185807, -0.037938595, 10.048565
780402427000099, 6.5539412, -0.34337005, 7.580462, 0.03112641, -0.03440857, 10.026629
780402436639682, 6.5850477, -0.33738798, 7.560123, 0.01755175, 0.0054826736, 10.031541
780402446279161, 6.5982084, -0.32063824, 7.6019974, 0.0017002523, -0.014118671, 10.071214
780402455918744, 6.5898337, -0.32422748, 7.6402826, 0.0068256557, -0.043946266, 10.094699
780402465558328, 6.6089764, -0.31106696, 7.6510506, -0.008170456, -0.036943913, 10.114962
780402475197911, 6.6245294, -0.31106696, 7.6678, -0.009016514, -0.035119534, 10.1378
780402484837390, 6.634101, -0.30987054, 7.6390862, -0.012175649, -0.008438587, 10.122387
780402494476974, 6.647261, -0.3182454, 7.59123, -0.0069040954, 0.033086777, 10.095198
780402504116557, 6.6329045, -0.317049, 7.6127653, -0.005281985, 0.0060429573, 10.101984
780402513756140, 6.6281185, -0.31345975, 7.618747, -0.007825553, -0.0029911995, 10.103241
780402523395619, 6.6089764, -0.30508488, 7.5828547, -0.015693992, 0.0048446655, 10.063353
780402533035203, 6.6101727, -0.30867413, 7.5433736, -0.014351815, 0.03201151, 10.034487
780402542674786, 6.599405, -0.31106696, 7.5493555, -0.010384679, 0.019795895, 10.032007
780402552314369, 6.5898337, -0.31106696, 7.5529447, -0.009221286, 0.00971365, 10.028433
780402561953849, 6.5575304, -0.2943172, 7.54457, -0.022861958, -0.0109529495, 10.000385
780402571593432, 6.5694947, -0.31345975, 7.5493555, -0.005049795, -0.0019831657, 10.012455
780402581233015, 6.582655, -0.32303107, 7.55773, 0.0034374595, 0.0035061836, 10.027708
780402590872599, 6.5946193, -0.33260235, 7.5960155, 0.013034642, -0.010653019, 10.064732
780402600512078, 6.6149583, -0.3182454, 7.6127653, -0.0032449067, -0.007159233, 10.090248
780402610151661, 6.613762, -0.3062813, 7.631908, -0.014708757, -0.020881653, 10.103515
780402619791244, 6.6388865, -0.30269206, 7.6199436, -0.021385908, 0.006052494, 10.110859
780402629430828, 6.6352973, -0.29192436, 7.628319, -0.031020224, -0.0024576187, 10.114478
780402639070307, 6.6448684, -0.29671, 7.6163545, -0.027246922, 0.012862682, 10.111887
780402648709890, 6.63769, -0.30269206, 7.63789, -0.018839031, -0.006418228, 10.123613
780402658349474, 6.606583, -0.32422748, 7.6510506, 0.0070304573, -0.03752899, 10.1138115
780402667989057, 6.623333, -0.30867413, 7.6019974, -0.01131916, 0.0047307014, 10.08732
780402677628536, 6.597012, -0.32063824, 7.570891, 0.002064675, 0.0066657066, 10.046976
780402687268119, 6.6053867, -0.3290131, 7.536195, 0.008075535, 0.036022186, 10.026579
780402696907703, 6.5886374, -0.34576288, 7.5409803, 0.02661255, 0.021286964, 10.019728
780402706547286, 6.5838513, -0.34097722, 7.5290165, 0.021212608, 0.023344994, 10.0074215
780402716186765, 6.579066, -0.30508488, 7.5625157, -0.0146894455, -0.008157253, 10.028386
780402725826349, 6.5575304, -0.30987054, 7.55773, -0.008662581, -0.019673824, 10.0107975
780402735465932, 6.5838513, -0.31585258, 7.5385876, -0.0076382756, 0.014550209, 10.013835
780402745105515, 6.617351, -0.3074777, 7.54457, -0.019292325, 0.034662724, 10.040062
780402754745099, 6.611369, -0.31585258, 7.594819, -0.008653283, -0.0025820732, 10.074282
780402764384578, 6.623333, -0.29072794, 7.6199436, -0.033566386, -0.013482571, 10.100264
780402774024161, 6.641279, -0.29312077, 7.623533, -0.032343447, -0.0023217201, 10.114826
780402783663744, 6.631708, -0.2883351, 7.618747, -0.036203653, -0.0071492195, 10.104784
780402793303328, 6.643672, -0.3182454, 7.600801, -0.008446783, 0.018003464, 10.100071
780402802942911, 6.640083, -0.32422748, 7.5960155, -5.0854683E-4, 0.019764423, 10.094299
780402812582390, 6.6101727, -0.30029923, 7.60439, -0.020025939, -0.011180401, 10.080217
780402822221974, 6.6053867, -0.30987054, 7.587641, -0.010384798, -0.0030574799, 10.064758
780402831861557, 6.606583, -0.31226337, 7.5816584, -0.00661692, 0.001996994, 10.0611105
780402841501140, 6.6053867, -0.30867413, 7.564909, -0.010980934, 0.011637688, 10.047586
780402851140724, 6.5718875, -0.30029923, 7.5696945, -0.014225125, -0.018503666, 10.028939
780402860780307, 6.59103, -0.31585258, 7.5589266, -6.031096E-4, 0.003665924, 10.033882
780402870419786, 6.606583, -0.29671, 7.5493555, -0.02123791, 0.019758701, 10.036282
780402880059369, 6.6257257, -0.3062813, 7.5589266, -0.013564259, 0.02923441, 10.056359
780402889698953, 6.6329045, -0.3278167, 7.570891, 0.00772658, 0.029643059, 10.070766
780402899338536, 6.6245294, -0.32303107, 7.587641, 0.005236417, 0.011388779, 10.077742
780402908978119, 6.629315, -0.2883351, 7.5960155, -0.029218763, 0.0048451424, 10.086105
780402918617599, 6.640083, -0.30149564, 7.5936227, -0.017109215, 0.01616764, 10.091786
780402928257182, 6.617351, -0.30149564, 7.578069, -0.01209113, 0.008264065, 10.0651455
780402937896765, 6.59103, -0.31226337, 7.5625157, 7.6419115E-4, 2.9850006E-4, 10.036475
