timestamp_acc,device_acc_x,device_acc_y,device_acc_z,earth_acc_x,earth_acc_y,earth_acc_z
94325866940778, -0.44745782, 5.7690954, 8.047063, -0.006111145, -0.012611866, 9.911491
94325876580048, -0.43908295, 5.7667027, 8.005188, 0.010365009, 0.003984928, 9.875754
94325886219319, -0.41156548, 5.782256, 7.9429746, 0.055277467, 0.034576893, 9.833133
94325895858590, -0.4223332, 5.7954164, 7.885547, 0.064450026, 0.0778203, 9.794736
94325905497861, -0.4749753, 5.8193445, 7.9334035, 0.013749123, 0.09258652, 9.849897
94325915137132, -0.51206404, 5.800202, 8.056634, -0.054621935, 0.029584408, 9.940325
94325924776403, -0.485743, 5.800202, 8.147561, -0.0541898, -0.030837059, 10.012852
94325934415673, -0.45822555, 5.8061843, 8.199007, -0.039005518, -0.06294012, 10.056839
94325944054944, -0.42711884, 5.7930236, 8.191829, -0.014783144, -0.08270073, 10.041941
94325953694215, -0.3696911, 5.8073807, 8.055437, 0.075330496, -0.028353691, 9.9370985
94325963333486, -0.38165522, 5.825327, 8.021938, 0.07888889, 0.0063638687, 9.920954
94325972972757, -0.40797627, 5.825327, 7.960921, 0.07141662, 0.051393986, 9.872658
94325982612028, -0.42831525, 5.84088, 8.001599, 0.048238277, 0.049931526, 9.91565
94325992251298, -0.44506502, 5.797809, 8.039884, 0.0042766333, 0.007988453, 9.922315
94326001890569, -0.48454657, 5.800202, 8.100901, -0.044382095, -0.0042123795, 9.974956
94326011529840, -0.4869394, 5.770292, 8.092526, -0.056587696, -0.0184412, 9.950821
94326021169111, -0.51206404, 5.77747, 8.037491, -0.061352015, 0.02684021, 9.911516
94326030808382, -0.47018966, 5.797809, 7.995617, -0.0046548843, 0.04300928, 9.887552
94326040447653, -0.44027936, 5.7966127, 8.012366, 0.017214537, 0.017771244, 9.899089
94326050086923, -0.4319045, 5.790631, 8.050652, 0.012389421, -0.010890961, 9.926263
94326059726194, -0.41874397, 5.7954164, 8.132008, 0.005554676, -0.055565357, 9.99443
94326069365465, -0.4031906, 5.8061843, 8.120044, 0.02632761, -0.04879141, 9.990315
94326079004736, -0.40917268, 5.831309, 8.049456, 0.048962355, 0.008346081, 9.9480095
94326088644007, -0.4319045, 5.8396835, 8.035098, 0.035303593, 0.03299713, 9.942278
94326098283278, -0.46660042, 5.828916, 8.05783, -0.005730152, 0.029993057, 9.955987
94326107922548, -0.46061835, 5.802595, 8.092526, -0.021529675, -0.00965786, 9.968486
94326117561819, -0.4833502, 5.7894344, 8.014759, -0.027492762, 0.03302288, 9.898772
94326127201090, -0.5407779, 5.753542, 7.966903, -0.079509616, 0.061141968, 9.841606
94326136840361, -0.49172506, 5.7655063, 7.921439, -0.019196987, 0.068968296, 9.809532
94326146479632, -0.46779683, 5.7870417, 7.940582, 0.007452488, 0.059271336, 9.836562
94326156118903, -0.43788654, 5.812166, 8.020741, 0.022782087, 0.019177914, 9.91486
94326165758173, -0.37328035, 5.852844, 8.12124, 0.06845164, -0.038798332, 10.017159
94326175397444, -0.3804588, 5.864808, 8.172686, 0.05365801, -0.053292274, 10.066172
94326185036715, -0.3684947, 5.8420763, 8.140383, 0.061246395, -0.057161808, 10.026189
94326194675986, -0.4331009, 5.8073807, 8.124829, -0.006215811, -0.037564278, 9.996232
94326204315257, -0.48215377, 5.767899, 8.07458, -0.052506447, -0.010078907, 9.934644
94326213954528, -0.4546363, 5.76431, 7.9944205, -0.007966995, 0.013000488, 9.866333
94326223593798, -0.45224348, 5.751149, 7.9704924, -0.00491333, 0.01501894, 9.839144
94326233233069, -0.54436713, 5.7451673, 7.9908314, -0.09116197, 0.048885822, 9.856266
94326242872444, -0.47018966, 5.7990055, 7.975278, 0.0011742115, 0.05190277, 9.871774
94326252511715, -0.44027936, 5.8504515, 8.013563, 0.039126158, 0.051891327, 9.931496
94326262150986, -0.465404, 5.849255, 8.080562, -5.669594E-4, 0.028151035, 9.986244
94326271790257, -0.4426722, 5.8337016, 8.1344, -0.0017840862, -0.022742748, 10.01978
94326281429528, -0.44506502, 5.8241305, 8.160722, -0.014055729, -0.042245865, 10.035635
94326291068798, -0.5024927, 5.8061843, 8.157132, -0.07056892, -0.026066303, 10.02484
94326300708069, -0.43788654, 5.79422, 8.043473, 0.009116054, -0.004608631, 9.922808
94326310347340, -0.4546363, 5.7786665, 7.9776707, 0.0029785633, 0.02630663, 9.861147
94326319986611, -0.4127619, 5.7750773, 7.897511, 0.057729363, 0.04519224, 9.792201
94326329625882, -0.40797627, 5.8193445, 7.9022965, 0.07753503, 0.07117367, 9.821733
94326339265153, -0.4139583, 5.8217373, 7.9740815, 0.055015564, 0.03663349, 9.8815775
94326348904423, -0.44985065, 5.8193445, 8.018349, 0.011286736, 0.028687954, 9.917667
94326358543694, -0.4546363, 5.8337016, 8.063812, 0.0018270016, 0.016901016, 9.96311
94326368182965, -0.4869394, 5.808577, 8.117651, -0.050491333, -0.012706757, 9.99351
94326377822236, -0.465404, 5.788238, 8.142776, -0.046218872, -0.05038166, 10.00102
94326387461507, -0.44027936, 5.800202, 8.110473, -0.010204315, -0.035899162, 9.980709
94326397100778, -0.46061835, 5.7954164, 8.063812, -0.018205523, -0.0051932335, 9.941013
94326406740048, -0.4749753, 5.8037915, 8.002795, -0.011882067, 0.04004383, 9.8971
94326416379319, -0.4534399, 5.7990055, 7.999206, 0.005964279, 0.027225971, 9.8904295
94326426018590, -0.465404, 5.81097, 8.012366, -0.0026404858, 0.03340578, 9.908625
94326435657861, -0.4211368, 5.8241305, 8.04108, 0.03406167, 0.005757332, 9.937587
94326445297132, -0.43788654, 5.8217373, 8.079366, 0.008497715, -0.007904053, 9.967967
94326454936403, -0.40079778, 5.8396835, 8.09133, 0.044153214, -0.020449162, 9.986482
94326464575673, -0.39840496, 5.825327, 8.043473, 0.050830364, -0.0065922737, 9.939216
94326474214944, -0.41754755, 5.808577, 8.017152, 0.03281021, 0.004485607, 9.908962
94326483854215, -0.4139583, 5.802595, 7.9920278, 0.03917432, 0.011456966, 9.884955
94326493493486, -0.44027936, 5.791827, 7.9680996, 0.017893314, 0.02957058, 9.860455
94326503132861, -0.45942193, 5.7786665, 7.9597244, -0.0025641918, 0.0342288, 9.846831
94326512772132, -0.42592242, 5.7894344, 7.9836526, 0.025104284, 0.012381077, 9.871013
94326522411403, -0.4319045, 5.814559, 7.999206, 0.027719975, 0.023729324, 9.898564
94326532050673, -0.43908295, 5.812166, 8.002795, 0.020286322, 0.02471447, 9.9003935
94326541689944, -0.44865423, 5.8277197, 8.099705, -0.0069577694, -0.010395527, 9.988427
94326551329215, -0.44745782, 5.8097734, 8.115258, -0.017829418, -0.030172825, 9.99049
94326560968486, -0.5204389, 5.8013983, 8.149954, -0.09313321, -0.014948368, 10.016983
94326570607757, -0.49172506, 5.832505, 8.117651, -0.046363354, 0.008944988, 10.007695
94326580247028, -0.4534399, 5.79422, 8.0614195, -0.01406455, -0.008951187, 9.938048
94326589886298, -0.4534399, 5.784649, 8.003992, -0.0028398037, 0.014428139, 9.8859215
94326599525569, -0.39361933, 5.7930236, 7.9561353, 0.064912796, 0.01350832, 9.849354
94326609164840, -0.35294133, 5.7930236, 7.9070826, 0.111739874, 0.017999172, 9.807795
94326618804111, -0.41635114, 5.797809, 7.941778, 0.04899025, 0.03518629, 9.841552
94326628443382, -0.42592242, 5.8037915, 7.9764743, 0.033796787, 0.027584076, 9.873583
94326638082653, -0.4031906, 5.8229337, 8.031509, 0.048104882, 0.0026211739, 9.928342
94326647721923, -0.48933223, 5.7954164, 8.122437, -0.06129539, -0.023863792, 9.989793
94326657361194, -0.5192425, 5.802595, 8.176275, -0.09775138, -0.03196907, 10.038956
94326667000465, -0.4953143, 5.818148, 8.169097, -0.0672946, -0.02646494, 10.04117
94326676639736, -0.5084748, 5.77747, 8.136793, -0.0860548, -0.030882835, 9.991834
94326686279007, -0.46779683, 5.808577, 8.07458, -0.022218227, 0.003718853, 9.957748
94326695918278, -0.38524446, 5.8073807, 7.9740815, 0.07404554, 0.015765667, 9.871895
94326705557548, -0.41156548, 5.7894344, 7.9070826, 0.059651613, 0.048784256, 9.8083105
94326715196819, -0.40917268, 5.81097, 7.91785, 0.06804657, 0.05522585, 9.82952
94326724836090, -0.40438703, 5.8157554, 7.9764743, 0.05802536, 0.025722027, 9.879608
94326734475361, -0.4211368, 5.802595, 8.031509, 0.023321867, -0.0038795471, 9.91726
94326744114632, -0.45702913, 5.7990055, 8.068598, -0.019083023, -0.0069088936, 9.946819
94326753753903, -0.53599226, 5.7786665, 8.136793, -0.113134146, -0.016195297, 9.99373
94326763393173, -0.50368917, 5.8013983, 8.133204, -0.07344031, -0.015069008, 10.002666
94326773032548, -0.4534399, 5.818148, 8.085348, -0.0105781555, -0.00395298, 9.971418
94326782671819, -0.4749753, 5.8097734, 8.018349, -0.015956402, 0.03597355, 9.913195
94326792311090, -0.42711884, 5.8193445, 8.006385, 0.03077209, 0.024691582, 9.90696
94326801950361, -0.39720857, 5.7834525, 7.989635, 0.046440005, -0.0058112144, 9.8710785
94326811589632, -0.38524446, 5.8037915, 8.006385, 0.058464527, -0.005984783, 9.896016
94326821228903, -0.39361933, 5.790631, 7.989635, 0.0487957, -0.0029234886, 9.875132
94326830868173, -0.3900301, 5.8037915, 7.9920278, 0.056838512, 0.0028595924, 9.8846035
94326840507444, -0.42592242, 5.8169518, 8.006385, 0.026996613, 0.022172451, 9.905519
94326850146715, -0.47856453, 5.8169518, 8.024331, -0.023694992, 0.039451122, 9.922385
94326859785986, -0.49052864, 5.8241305, 8.060223, -0.039901733, 0.03218651, 9.956188
94326869425257, -0.49172506, 5.814559, 8.111669, -0.058336496, -1.3685226E-4, 9.9923315
94326879064528, -0.485743, 5.8013983, 8.085348, -0.051537752, 4.734993E-4, 9.96305
94326888703798, -0.465404, 5.814559, 8.005188, -0.0065050125, 0.03945446, 9.904906
94326898343069, -0.4331009, 5.814559, 7.9944205, 0.023626804, 0.028761864, 9.894749
94326907982340, -0.32662028, 5.8743796, 7.9908314, 0.14175034, 0.018416405, 9.922094
94326917621611, -0.45583272, 5.743971, 7.954939, -0.016904831, 0.010743141, 9.822507
94326927260882, -0.27876383, 6.053841, 8.04467, 0.2421875, 0.0927968, 10.068573
94326936900153, -0.48095736, 5.377869, 7.9094753, -0.18319821, -0.20682263, 9.572683
94326946539423, -0.32183465, 6.3948183, 8.155936, 0.3166802, 0.28846836, 10.3601675
94326956178694, -0.5479564, 5.131408, 8.006385, -0.38480568, -0.3880868, 9.509738
94326965817965, -0.424726, 6.492924, 8.199007, 0.2639413, 0.3900113, 10.456597
94326975457236, -0.52163535, 5.204389, 7.9776707, -0.3093319, -0.33687234, 9.528476
94326985096507, -0.50129634, 6.2512493, 8.105687, 0.11855841, 0.30072165, 10.243392
94326994735778, -0.47736812, 5.5704913, 8.037491, -0.12947106, -0.14088488, 9.788917
94327004375048, -0.5922236, 5.8277197, 7.954939, -0.101356745, 0.13213444, 9.877569
94327014014319, -0.317049, 6.04427, 7.914261, 0.24056888, 0.16630745, 9.959103
94327023653590, -0.46061835, 5.4089756, 7.7647095, -0.117044926, -0.12712431, 9.472594
94327033292861, -0.2548356, 6.431907, 8.085348, 0.40474427, 0.32462025, 10.321726
94327042932132, -0.45822555, 5.1553364, 7.954939, -0.2774396, -0.3947096, 9.478173
94327052571403, -0.30388847, 6.5072813, 8.1942215, 0.3797531, 0.33096743, 10.45603
94327062210673, -0.46779683, 5.139783, 7.958528, -0.28790796, -0.41068053, 9.472214
94327071849944, -0.49052864, 6.265606, 8.179864, 0.10724449, 0.26524496, 10.311487
94327081489215, -0.42711884, 5.4927244, 8.126026, -0.14412427, -0.26586533, 9.812916
94327091128486, -0.5515456, 5.8911295, 8.065009, -0.07004547, 0.0988965, 10.001964
94327100767757, -0.43070808, 6.000003, 8.04467, 0.08776784, 0.12877417, 10.043804
94327110407028, -0.60658056, 5.4185467, 7.867601, -0.26323926, -0.09899092, 9.568106
94327120046298, -0.31345975, 6.385247, 8.088937, 0.33777905, 0.3151927, 10.29986
94327129685569, -0.5072784, 5.148158, 7.905886, -0.28361678, -0.36905003, 9.436486
94327139324840, -0.33738798, 6.5072813, 8.147561, 0.34275544, 0.37831545, 10.420206
94327148964111, -0.43070808, 5.1469617, 7.9274216, -0.21746624, -0.41735125, 9.449829
94327158603382, -0.38883367, 6.343373, 8.103293, 0.23401439, 0.31671762, 10.2906685
94327168242653, -0.4223332, 5.483153, 8.050652, -0.10529733, -0.24911213, 9.745931
94327177881923, -0.5455636, 5.9377894, 8.006385, -0.039260745, 0.15092278, 9.981626
94327187521194, -0.37328035, 5.946164, 7.9680996, 0.12806773, 0.10297251, 9.947855
94327197160465, -0.5814559, 5.4520464, 7.804191, -0.21030009, -0.07242489, 9.535137
94327206799736, -0.36729828, 6.34098, 8.062616, 0.2702428, 0.32326317, 10.2553005
94327216439007, -0.5563313, 5.1649075, 7.9573317, -0.33772802, -0.37334466, 9.489545
94327226078278, -0.33379877, 6.5168524, 8.218149, 0.34199166, 0.34383535, 10.482536
94327235717548, -0.4235296, 5.1409793, 7.945368, -0.22962177, -0.4325626, 9.460342
94327245356819, -0.36131623, 6.3792653, 8.10449, 0.28819203, 0.32290173, 10.311207
94327254996090, -0.39720857, 5.447261, 8.051848, -0.11378169, -0.2830515, 9.72469
94327264635361, -0.56590253, 5.9521465, 8.130812, -0.075424194, 0.107944965, 10.091633
94327274274632, -0.4139583, 5.8743796, 8.100901, 0.03349948, -0.0064897537, 10.015143
94327283913903, -0.55752766, 5.517849, 7.9094753, -0.19293213, -0.08013487, 9.657827
94327293553173, -0.3361916, 6.3397837, 8.029117, 0.3195758, 0.30958843, 10.226173
94327303192444, -0.59581286, 5.188836, 7.8592257, -0.34695923, -0.2689147, 9.426228
94327312831715, -0.37088752, 6.524031, 8.092526, 0.35196185, 0.41186428, 10.387302
94327322470986, -0.44985065, 5.1409793, 7.87119, -0.24899185, -0.37545323, 9.401314
94327332110257, -0.38763726, 6.3948183, 8.09133, 0.27057505, 0.34007168, 10.311388
94327341749528, -0.36011982, 5.3970113, 7.978867, -0.08680463, -0.30044103, 9.634415
94327351388798, -0.43908295, 6.0155563, 8.072187, 0.07547951, 0.111349106, 10.075804
94327361028069, -0.30867413, 5.8564334, 8.075776, 0.11832023, -0.062740326, 9.979647
94327370667340, -0.54436713, 5.5465627, 7.9357963, -0.18301594, -0.08046818, 9.695236
94327380306611, -0.3912265, 6.263213, 8.13799, 0.20766711, 0.22806835, 10.271935
94327389945882, -0.62093747, 5.186443, 7.989635, -0.4188397, -0.3126216, 9.531309
94327399585153, -0.37567315, 6.5443697, 8.215756, 0.3119223, 0.38358736, 10.498768
94327409224423, -0.5563313, 5.103891, 7.8987074, -0.36081016, -0.36613512, 9.406622
94327418863694, -0.41635114, 6.4343, 8.048259, 0.27896237, 0.40870237, 10.300641
94327428502965, -0.37567315, 5.367101, 7.9226356, -0.0939554, -0.28756642, 9.57202
94327438142236, -0.4749753, 6.0897336, 8.015956, 0.080240846, 0.21575785, 10.075367
94327447781507, -0.33499518, 5.8169518, 8.01117, 0.097285986, -0.04136944, 9.905394
94327457420778, -0.485743, 5.5944195, 7.879565, -0.09258711, -0.06193447, 9.675154
94327467060048, -0.33140594, 6.2404814, 8.067402, 0.24752128, 0.23324966, 10.199057
94327476699319, -0.5706882, 5.2163534, 7.940582, -0.33115923, -0.32171655, 9.506613
94327486338590, -0.36131623, 6.4845495, 8.23131, 0.26923895, 0.32960224, 10.476319
94327495977861, -0.5455636, 5.130212, 7.962117, -0.33446681, -0.415452, 9.472465
94327505617132, -0.424726, 6.4797635, 8.09133, 0.24565518, 0.435297, 10.362796
94327515256298, -0.44865423, 5.332405, 7.9369926, -0.16716015, -0.3072853, 9.566051
94327524895673, -0.47018966, 6.1603217, 8.062616, 0.09036076, 0.23645878, 10.154424
94327534534840, -0.35174492, 5.7762737, 8.037491, 0.060308695, -0.07806587, 9.9035635
94327544174111, -0.50368917, 5.6745787, 7.9393854, -0.09479475, -0.03449297, 9.771296
94327553813382, -0.2955136, 6.2057858, 8.045866, 0.27196693, 0.194664, 10.159881
94327563452653, -0.526421, 5.229514, 7.8783684, -0.28281903, -0.29631686, 9.461809
94327573091923, -0.34217364, 6.495317, 8.110473, 0.34049654, 0.3756714, 10.384071
94327582731194, -0.552742, 5.1122656, 7.8783684, -0.36726356, -0.36349654, 9.393745
94327592370465, -0.43669012, 6.4462643, 8.075776, 0.24851632, 0.39334154, 10.331829
94327602009736, -0.48215377, 5.2666025, 7.962117, -0.2479639, -0.33676028, 9.549345
94327611649007, -0.47377887, 6.189036, 8.126026, 0.08972025, 0.21098089, 10.222935
94327621288278, -0.3696911, 5.729614, 8.088937, 0.006064892, -0.1346178, 9.918564
94327630927548, -0.48215377, 5.7284174, 7.9513497, -0.060375333, -0.0126924515, 9.811595
94327640566819, -0.28115666, 6.181857, 7.966903, 0.294397, 0.20584202, 10.081513
94327650206090, -0.51445687, 5.2893343, 7.810173, -0.23080742, -0.23779893, 9.440907
94327659845361, -0.31944183, 6.474978, 8.0817585, 0.3362658, 0.3723116, 10.348455
94327669484632, -0.5312066, 5.0859447, 7.8699937, -0.3247255, -0.4197507, 9.370389
94327679123903, -0.44147578, 6.4797635, 8.082955, 0.23864007, 0.43394327, 10.357178
94327688763173, -0.5347959, 5.252246, 7.9597244, -0.2962606, -0.3356092, 9.540906
94327698402444, -0.5024927, 6.2464633, 8.176275, 0.06317699, 0.24012756, 10.298574
94327708041715, -0.40558344, 5.6674004, 8.16431, -0.06230247, -0.20888901, 9.944464
94327717680986, -0.51445687, 5.7858453, 8.078169, -0.09547019, -0.028868198, 9.949247
94327727320257, -0.2883351, 6.145965, 8.0817585, 0.24686825, 0.12362862, 10.153552
94327736959528, -0.47138608, 5.3204412, 7.84128, -0.18466008, -0.24698496, 9.482608
94327746598694, -0.28235307, 6.4474607, 8.07458, 0.38101625, 0.31809425, 10.324823
94327756237965, -0.51206404, 5.1158547, 7.8173513, -0.30015254, -0.3582766, 9.344876
94327765877236, -0.35294133, 6.503692, 8.024331, 0.3423965, 0.42466784, 10.320605
94327775516507, -0.506082, 5.2055855, 7.832905, -0.26601863, -0.3030362, 9.409891
94327785155778, -0.5419743, 6.257231, 8.070991, 0.06576657, 0.31611013, 10.221707
94327794795048, -0.4833502, 5.645865, 8.049456, -0.12000513, -0.1289773, 9.842363
94327804434319, -0.5802595, 5.8432727, 8.018349, -0.118501425, 0.07233715, 9.937565
94327814073590, -0.33260235, 6.1064835, 8.073383, 0.19638586, 0.11067009, 10.125636
94327823712861, -0.50129634, 5.35753, 7.9633136, -0.22814286, -0.278409, 9.604128
94327833352132, -0.28594232, 6.454639, 8.220542, 0.33697402, 0.2565837, 10.447109
94327842991403, -0.47258246, 5.123033, 7.98126, -0.30634642, -0.456182, 9.47984
94327852630673, -0.31944183, 6.5228343, 8.093722, 0.36676145, 0.39464045, 10.385927
94327862269944, -0.45822555, 5.1924253, 7.8580294, -0.22918773, -0.35192227, 9.420377
94327871909215, -0.4354937, 6.3050876, 8.006385, 0.19239879, 0.34194136, 10.192745
94327881548486, -0.4235296, 5.5657053, 7.9764743, -0.080126286, -0.17073298, 9.733706
94327891187757, -0.5623133, 5.861219, 7.9716887, -0.09075749, 0.097010136, 9.909603
94327900827028, -0.3505485, 6.050252, 8.000402, 0.16378546, 0.12875605, 10.034513
94327910466298, -0.5419743, 5.4053864, 7.864012, -0.21520758, -0.18180704, 9.553808
94327920105569, -0.3290131, 6.410372, 8.143971, 0.28345895, 0.2967167, 10.361323
94327929744736, -0.5371887, 5.12423, 7.987242, -0.33920503, -0.45314288, 9.487989
94327939384007, -0.36490545, 6.5276203, 8.199007, 0.29024863, 0.37049675, 10.475934
94327949023278, -0.4869394, 5.188836, 7.9513497, -0.26993978, -0.40868044, 9.494482
94327958662548, -0.45224348, 6.3397837, 8.114061, 0.15625656, 0.31235743, 10.301134
94327968301819, -0.42831525, 5.541777, 8.031509, -0.10254264, -0.22507334, 9.764154
94327977941090, -0.52522457, 5.9437714, 8.017152, -0.031481862, 0.113229275, 9.993256
94327987580361, -0.3290131, 6.0011992, 7.969296, 0.17727017, 0.093912125, 9.979584
94327997219632, -0.5192425, 5.447261, 7.8017983, -0.16854608, -0.12609053, 9.527119
94328006858903, -0.31106696, 6.3924255, 8.023134, 0.32605755, 0.33683395, 10.252356
94328016498173, -0.5240282, 5.139783, 7.8831544, -0.31205845, -0.38564563, 9.412226
94328026137444, -0.32542387, 6.526424, 8.146365, 0.3406129, 0.35737276, 10.431664
94328035776715, -0.49172506, 5.143372, 7.945368, -0.29828787, -0.42734504, 9.4632635
94328045415986, -0.46181476, 6.385247, 8.111669, 0.18304932, 0.34604406, 10.326207
94328055055257, -0.47377887, 5.485546, 8.029117, -0.17013192, -0.2433486, 9.731096
94328064694528, -0.54436713, 5.994021, 8.075776, -0.04067743, 0.12648821, 10.071005
94328074333798, -0.35653058, 5.960521, 8.032705, 0.12406814, 0.037813187, 10.008121
94328083972965, -0.54317075, 5.521438, 7.877172, -0.18299949, -0.099760056, 9.632637
94328093612236, -0.33140594, 6.3696938, 8.055437, 0.3059752, 0.29498482, 10.266072
94328103251507, -0.56111693, 5.1732826, 7.8987074, -0.33767605, -0.35970426, 9.445838
94328112890778, -0.32422748, 6.538388, 8.103293, 0.36330783, 0.39576912, 10.403382
94328122530048, -0.5084748, 5.1218367, 7.8783684, -0.30259335, -0.4012153, 9.39723
94328132169319, -0.44985065, 6.3864436, 8.080562, 0.19028771, 0.35277987, 10.301644
94328141808590, -0.41515473, 5.4257255, 8.013563, -0.13584578, -0.29781199, 9.680956
94328151447861, -0.5180461, 6.0346985, 8.112865, -0.013001323, 0.12000036, 10.1237335
94328161087132, -0.38644084, 5.9377894, 8.0817585, 0.07539892, 0.009610176, 10.035723
94328170726403, -0.55513483, 5.5597234, 7.9238324, -0.18780887, -0.09283066, 9.6933975
94328180365673, -0.31465617, 6.337391, 8.069795, 0.31013656, 0.25639582, 10.257739
94328190004944, -0.5479564, 5.1960144, 7.932207, -0.3305546, -0.35145307, 9.486092
94328199644215, -0.37567315, 6.533602, 8.181061, 0.30468822, 0.37009668, 10.465612
94328209283486, -0.50488555, 5.1182475, 7.880761, -0.30774128, -0.40969324, 9.396554
94328218922757, -0.38524446, 6.437889, 8.026724, 0.28727567, 0.39675474, 10.285095
94328228562028, -0.45822555, 5.40419, 7.908279, -0.14763272, -0.24226332, 9.585178
94328238201194, -0.5371887, 6.0658054, 8.003992, -0.0033268929, 0.2079978, 10.055007
94328247840465, -0.3696911, 5.832505, 8.025527, 0.06487787, -0.03739786, 9.92765
94328257479736, -0.51206404, 5.6075797, 7.9334035, -0.124876976, -0.09655094, 9.727341
94328267119007, -0.30867413, 6.302695, 8.072187, 0.278252, 0.24991274, 10.2391205
94328276758278, -0.5706882, 5.218746, 7.960921, -0.32750332, -0.36713362, 9.523403
94328286397548, -0.33260235, 6.538388, 8.208578, 0.3248484, 0.35356808, 10.488631
94328296036819, -0.52522457, 5.1218367, 7.948957, -0.3419727, -0.4300046, 9.454794
94328305676090, -0.4833502, 6.445068, 8.122437, 0.18754816, 0.3853984, 10.37125
94328315315361, -0.43429732, 5.3479586, 7.9716887, -0.18749607, -0.3086145, 9.602433
94328324954632, -0.44626144, 6.131608, 8.078169, 0.10849929, 0.17075872, 10.149466
94328334593903, -0.3505485, 5.8133626, 8.008778, 0.07247424, -0.05791378, 9.9020195
94328344233173, -0.51206404, 5.669793, 7.8783684, -0.093960285, -0.004957199, 9.719498
94328353872444, -0.30508488, 6.2237315, 8.037491, 0.28375912, 0.18023443, 10.164456
94328363511715, -0.50488555, 5.2307105, 7.9034934, -0.28309262, -0.32706714, 9.481211
94328373150986, -0.35174492, 6.5001025, 8.154739, 0.31195164, 0.3479538, 10.4238405
94328382790257, -0.5192425, 5.113462, 7.877172, -0.32499695, -0.3880148, 9.392059
94328392429528, -0.39361933, 6.48096, 8.039884, 0.30430233, 0.4236331, 10.3211155
94328402068798, -0.4761717, 5.3132625, 7.9657063, -0.23058379, -0.31931353, 9.578875
94328411708069, -0.50129634, 6.1830535, 8.190632, 0.045784473, 0.18034077, 10.27294
94328421347236, -0.38165522, 5.771488, 8.181061, -0.008926988, -0.1558981, 10.01804
94328430986507, -0.5312066, 5.7080784, 8.017152, -0.12728298, -0.041472435, 9.855005
94328440625778, -0.32303107, 6.198607, 8.036295, 0.24420035, 0.20160866, 10.149327
94328450265048, -0.5072784, 5.258228, 7.85444, -0.2510053, -0.28472185, 9.458036
94328459904319, -0.32422748, 6.468996, 8.069795, 0.34517026, 0.3637004, 10.335531
94328469543590, -0.53240305, 5.0847483, 7.8281193, -0.3362193, -0.38334298, 9.335822
94328479182861, -0.39720857, 6.495317, 8.069795, 0.2925924, 0.41300774, 10.354338
94328488822132, -0.46061835, 5.2833524, 7.96451, -0.22967851, -0.34549832, 9.5596695
94328498461403, -0.48215377, 6.2261243, 8.183454, 0.08472133, 0.20500803, 10.291591
94328508100673, -0.42711884, 5.710471, 8.183454, -0.07968545, -0.17226505, 9.98623
94328517739944, -0.5096712, 5.770292, 8.078169, -0.10101366, -0.036797047, 9.939884
94328527379215, -0.30987054, 6.1471615, 8.084151, 0.23027492, 0.12540674, 10.157184
94328537018486, -0.55752766, 5.279763, 7.884351, -0.30020237, -0.253803, 9.497114
94328546657757, -0.30867413, 6.4618177, 8.0614195, 0.36430812, 0.35840607, 10.32355
94328556297028, -0.5024927, 5.0955157, 7.832905, -0.3078723, -0.38145828, 9.3451
94328565936298, -0.38285163, 6.495317, 8.026724, 0.30336845, 0.4374447, 10.318946
94328575575569, -0.51086766, 5.231907, 7.9011, -0.2690432, -0.32526445, 9.480667
94328585214840, -0.506082, 6.2584276, 8.097312, 0.09117508, 0.28999567, 10.241977
94328594854111, -0.44865423, 5.6733823, 8.042277, -0.07315719, -0.12726784, 9.851154
94328604493382, -0.5814559, 5.800202, 8.02792, -0.13854837, 0.032605648, 9.920064
94328614132653, -0.32542387, 6.135197, 8.068598, 0.21541452, 0.1307602, 10.13831
94328623771923, -0.5024927, 5.367101, 7.905886, -0.2093277, -0.24476576, 9.563347
94328633411194, -0.27517462, 6.4666033, 8.129615, 0.3797139, 0.30775595, 10.380001
94328643050465, -0.50488555, 5.111069, 7.987242, -0.3526913, -0.45479178, 9.478542
94328652689736, -0.3481557, 6.5312095, 8.221739, 0.32691407, 0.3188858, 10.4960165
94328662329007, -0.45702913, 5.218746, 7.9369926, -0.24884069, -0.36970568, 9.49955
94328671968278, -0.50009996, 6.285945, 8.0614195, 0.12598276, 0.31345034, 10.229154
94328681607548, -0.4534399, 5.588437, 8.035098, -0.111126184, -0.17511845, 9.795715
94328691246819, -0.54675996, 5.877969, 7.9836526, -0.06320715, 0.08942318, 9.928553
94328700886090, -0.33499518, 6.081359, 8.043473, 0.1945343, 0.1040988, 10.08682
94328710525257, -0.56111693, 5.406583, 7.8484583, -0.23232162, -0.16083002, 9.54277
94328720164528, -0.3397808, 6.4235325, 8.076973, 0.32188535, 0.32065248, 10.315439
94328729803798, -0.5479564, 5.1254263, 7.8400836, -0.32442808, -0.36091733, 9.3702545
94328739443069, -0.40438703, 6.5276203, 8.109276, 0.28215337, 0.41643333, 10.405802
94328749082340, -0.52283174, 5.2031927, 7.9513497, -0.30561733, -0.37628484, 9.504501
94328758721611, -0.43070808, 6.346962, 8.109276, 0.20651186, 0.30271673, 10.300268
94328768360882, -0.38165522, 5.5597234, 8.048259, -0.061173916, -0.23754883, 9.78624
94328778000153, -0.53599226, 5.9413786, 8.013563, -0.028187633, 0.11873865, 9.989473
94328787639423, -0.37567315, 6.003592, 8.025527, 0.1354909, 0.07759476, 10.028408
94328797278694, -0.5838487, 5.3982077, 7.85444, -0.25073457, -0.159801, 9.543864
94328806917965, -0.2644069, 6.4031935, 8.112865, 0.36925364, 0.2627139, 10.328795
94328816557236, -0.47856453, 5.157729, 7.938189, -0.26959372, -0.4173336, 9.465686
94328826196507, -0.38644084, 6.521638, 8.155936, 0.28394604, 0.3904314, 10.438742
94328835835778, -0.5395815, 5.1529436, 7.960921, -0.31599116, -0.4117906, 9.4842415
94328845475048, -0.45583272, 6.3601227, 8.135597, 0.16922295, 0.33026886, 10.330013
94328855114319, -0.44745782, 5.48076, 8.062616, -0.13788068, -0.27046967, 9.754619
94328864753590, -0.58265233, 5.960521, 8.0817585, -0.07966328, 0.12583685, 10.05783
94328874392861, -0.36490545, 5.962914, 8.04467, 0.12748313, 0.048098087, 10.019365
94328884032132, -0.5371887, 5.4891353, 7.9070826, -0.17832577, -0.13622189, 9.637984
94328893671403, -0.33499518, 6.3541408, 8.151151, 0.27740753, 0.2573576, 10.3337
94328903310673, -0.5623133, 5.1361938, 7.9764743, -0.36738682, -0.4052639, 9.487971
94328912949944, -0.33260235, 6.5168524, 8.163115, 0.35960865, 0.35703945, 10.438375
94328922589215, -0.4989035, 5.139783, 7.9238324, -0.29865098, -0.39221835, 9.445125
94328932228486, -0.43788654, 6.3888364, 8.029117, 0.24292326, 0.3838234, 10.260085
94328941867757, -0.39481574, 5.4484572, 7.940582, -0.07793033, -0.2384224, 9.63491
94328951507028, -0.5024927, 6.029913, 8.100901, 0.018464565, 0.12896252, 10.11039
94328961146298, -0.38763726, 5.9234324, 8.152347, 0.06635201, -0.022110462, 10.084303
94328970785569, -0.5946164, 5.5094743, 8.01117, -0.25139236, -0.13772964, 9.736763
94328980424944, -0.34217364, 6.3086767, 8.172686, 0.25884938, 0.21781445, 10.324476
94328990064215, -0.55393845, 5.1732826, 7.9537425, -0.3441167, -0.36154103, 9.491184
94328999703486, -0.37328035, 6.535995, 8.1344, 0.33019018, 0.4057021, 10.42849
94329009342757, -0.5419743, 5.1158547, 7.844869, -0.32362723, -0.357934, 9.368822
94329018982028, -0.4331009, 6.407979, 7.989635, 0.27390122, 0.4109063, 10.239149
94329028621298, -0.38763726, 5.4053864, 7.9369926, -0.090667605, -0.2690251, 9.6064415
94329038260569, -0.46660042, 6.064609, 8.092526, 0.07082629, 0.14601278, 10.122246
94329047899840, -0.36251262, 5.861219, 8.080562, 0.080038905, -0.03954363, 9.988635
94329057539111, -0.5814559, 5.556134, 7.944171, -0.20415676, -0.07473612, 9.709341
94329067178382, -0.31585258, 6.3254266, 8.094919, 0.30312145, 0.26065207, 10.270281
94329076817653, -0.54436713, 5.2008, 7.9740815, -0.31875074, -0.35652137, 9.523755
94329086456923, -0.35413775, 6.5001025, 8.209774, 0.3150127, 0.33461285, 10.467376
94329096096194, -0.51565325, 5.0919266, 7.9513497, -0.3281641, -0.44011736, 9.440138
94329105735465, -0.4139583, 6.430711, 8.12124, 0.27052546, 0.3678174, 10.357193
94329115374736, -0.43429732, 5.352744, 8.007581, -0.16771233, -0.31134772, 9.635185
94329125014007, -0.51206404, 6.088537, 8.129615, 0.031480074, 0.16981077, 10.16825
94329134653278, -0.38285163, 5.7966127, 8.109276, 0.03425026, -0.081576824, 9.97496
94329144292548, -0.52522457, 5.623133, 7.90469, -0.11339283, -0.02527523, 9.714223
94329153931819, -0.32662028, 6.2201424, 8.053044, 0.2713499, 0.21861506, 10.17482
94329163571090, -0.5694918, 5.2031927, 7.905886, -0.32240498, -0.30459356, 9.471212
94329173210361, -0.36729828, 6.4821568, 8.218149, 0.29272342, 0.33601475, 10.463875
94329182849632, -0.54675996, 5.089534, 8.001599, -0.36958086, -0.44546294, 9.481185
94329192488903, -0.39960137, 6.4534426, 8.127222, 0.27677464, 0.3924055, 10.37438
94329202128173, -0.43070808, 5.343173, 7.958528, -0.14693165, -0.29114437, 9.589933
94329211767548, -0.4989035, 6.1627145, 8.109276, 0.08602834, 0.22980356, 10.194514
94329221406819, -0.44147578, 5.7379885, 8.165507, -0.05954051, -0.11911392, 9.988854
94329231046090, -0.5587241, 5.6183476, 8.009974, -0.17000794, -0.064920425, 9.798192
94329240685361, -0.27517462, 6.1710896, 8.114061, 0.2870803, 0.123232365, 10.193061
94329250324632, -0.5084748, 5.241478, 7.9154572, -0.25683367, -0.29816556, 9.499012
94329259963903, -0.30269206, 6.491728, 8.178668, 0.37597442, 0.3258295, 10.434427
94329269603173, -0.4989035, 5.119444, 7.952546, -0.31873655, -0.40860033, 9.456851
94329279242444, -0.40079778, 6.502496, 8.112865, 0.30860305, 0.41609383, 10.391982
94329288881715, -0.5024927, 5.2833524, 7.9369926, -0.2385124, -0.28344107, 9.5407
94329298520986, -0.5407779, 6.1878395, 8.069795, 0.05335903, 0.29106426, 10.179186
94329308160257, -0.4642076, 5.6590257, 8.090134, -0.09145045, -0.1269126, 9.882605
94329317799528, -0.5599205, 5.6889358, 8.015956, -0.14212644, -0.022429466, 9.844407
94329327438798, -0.2835495, 6.145965, 8.0614195, 0.27748775, 0.14691734, 10.136133
94329337078069, -0.51565325, 5.2737813, 7.911868, -0.24559247, -0.2800498, 9.515125
94329346717444, -0.31345975, 6.4761744, 8.183454, 0.34654462, 0.34094048, 10.429365
94329356356715, -0.5347959, 5.1062837, 7.945368, -0.33492386, -0.40995836, 9.44504
94329365995986, -0.3804588, 6.492924, 8.126026, 0.29880857, 0.41033506, 10.39603
94329375635257, -0.4977071, 5.2342997, 7.984849, -0.26089132, -0.34519315, 9.550716
94329385274528, -0.5395815, 6.2201424, 8.17149, 0.048364162, 0.26316595, 10.280222
94329394913798, -0.46660042, 5.6470613, 8.13799, -0.10650468, -0.15361643, 9.914583
94329404553069, -0.5706882, 5.761917, 8.024331, -0.121693134, 0.036040783, 9.894401
94329414192340, -0.33738798, 6.094519, 8.051848, 0.21515894, 0.14238739, 10.100628
94329423831611, -0.5395815, 5.316852, 7.830512, -0.22972548, -0.18431687, 9.475771
94329433470882, -0.2739782, 6.4845495, 8.088937, 0.42129815, 0.3642726, 10.355924
94329443110257, -0.46181476, 5.1493545, 7.9094753, -0.2594918, -0.3859632, 9.43783
94329452749528, -0.33260235, 6.513263, 8.126026, 0.35989213, 0.39227724, 10.405871
94329462388798, -0.47736812, 5.168497, 7.999206, -0.2697072, -0.41372633, 9.522848
94329472028069, -0.4941179, 6.224928, 8.1942215, 0.08385849, 0.23128796, 10.299447
94329481667340, -0.47856453, 5.5465627, 8.260024, -0.18115032, -0.2878542, 9.955185
94329491306611, -0.6113662, 5.8037915, 8.159525, -0.17190194, 0.011089325, 10.0302515
94329500945882, -0.38644084, 6.058627, 8.157132, 0.12691247, 0.09403515, 10.167112
94329510585153, -0.55034924, 5.395815, 7.9537425, -0.22494721, -0.20103836, 9.622304
94329520224528, -0.2943172, 6.465407, 8.106883, 0.3777976, 0.3658719, 10.360167
94329529863798, -0.52163535, 5.113462, 7.873583, -0.29512346, -0.38282585, 9.39038
94329539503069, -0.36131623, 6.5168524, 8.030313, 0.35442936, 0.46067667, 10.331892
94329549142340, -0.45942193, 5.17089, 7.792227, -0.20864749, -0.32064176, 9.355301
94329558781611, -0.44865423, 6.279963, 7.9597244, 0.19855678, 0.3694501, 10.140045
94329568420882, -0.39481574, 5.532206, 7.9800634, -0.05000949, -0.19582176, 9.716057
94329578060153, -0.4989035, 5.8971114, 8.073383, -0.016603589, 0.06412268, 10.009994
94329587699423, -0.33140594, 6.023931, 8.193025, 0.15318191, 0.012833595, 10.173475
94329597338798, -0.5766702, 5.3886366, 8.060223, -0.28298628, -0.25512123, 9.7052555
94329606978069, -0.33020952, 6.4055862, 8.311469, 0.27624393, 0.22486925, 10.492579
94329616617340, -0.5288138, 5.133801, 8.082955, -0.33572388, -0.47268987, 9.572543
94329626256611, -0.3469593, 6.503692, 8.158329, 0.32004452, 0.38727427, 10.427096
94329635895882, -0.49052864, 5.144569, 7.8664045, -0.23724532, -0.37113905, 9.401781
94329645535153, -0.43429732, 6.3338017, 7.9657063, 0.21121228, 0.40977144, 10.175737
94329655174528, -0.4223332, 5.4891353, 7.9884386, -0.0798558, -0.22426033, 9.698839
94329664813798, -0.51565325, 5.9318075, 7.995617, -0.01276648, 0.13306665, 9.968164
94329674453069, -0.33499518, 5.98086, 7.9920278, 0.17717946, 0.095650196, 9.985734
94329684092340, -0.613759, 5.4843497, 7.8556366, -0.2300731, -0.06552553, 9.597323
94329693731611, -0.41156548, 6.343373, 8.116454, 0.22144544, 0.32326698, 10.301993
94329703370882, -0.66041905, 5.1206403, 8.035098, -0.44845855, -0.39887118, 9.532036
94329713010153, -0.38763726, 6.5144596, 8.288737, 0.28020763, 0.3263173, 10.54071
94329722649528, -0.465404, 5.1649075, 8.007581, -0.26545095, -0.43281102, 9.526618
94329732288798, -0.4438686, 6.363712, 8.123632, 0.21207726, 0.3456006, 10.320991
94329741928069, -0.4019942, 5.4496536, 7.999206, -0.08873999, -0.2512884, 9.683832
94329751567340, -0.46181476, 5.9952173, 8.032705, 0.0678916, 0.140728, 10.032739
94329761206611, -0.32662028, 5.922236, 8.021938, 0.15893269, 0.03251028, 9.975206
94329770845986, -0.5371887, 5.4903316, 7.856833, -0.15785062, -0.0919404, 9.598373
94329780485257, -0.32662028, 6.3074803, 8.117651, 0.28801155, 0.2598009, 10.277977
94329790124528, -0.57906306, 5.148158, 8.01117, -0.37117898, -0.3940444, 9.524948
94329799763798, -0.3804588, 6.5072813, 8.27797, 0.27871644, 0.3474126, 10.526914
94329809403069, -0.53240305, 5.0979085, 8.002795, -0.33901763, -0.45087028, 9.486762
94329819042340, -0.43788654, 6.384051, 8.135597, 0.21293747, 0.35175753, 10.342472
94329828681715, -0.4211368, 5.3994045, 8.054241, -0.13421428, -0.30424547, 9.700059
94329838320986, -0.4869394, 6.040681, 8.093722, 0.045074224, 0.15830326, 10.109806
94329847960257, -0.34576288, 5.889933, 8.063812, 0.11922443, -3.7384033E-4, 9.991082
94329857599528, -0.5694918, 5.552545, 7.8687973, -0.16603899, -0.036402225, 9.645941
94329867238798, -0.31585258, 6.2931237, 8.039884, 0.30348277, 0.28895092, 10.20624
94329876878173, -0.5383851, 5.1732826, 7.905886, -0.2900188, -0.34162426, 9.452774
94329886517444, -0.3385844, 6.442675, 8.184649, 0.31098843, 0.33247232, 10.411721
94329896156715, -0.4833502, 5.5453663, 8.032705, -0.12320328, -0.16698647, 9.770672
94329905795986, -0.47138608, 5.844469, 8.109276, -0.022985697, -0.0014648438, 10.006992
94329915435257, -0.48933223, 5.7726846, 8.1679, -0.07663655, -0.072958946, 10.013329
94329925074632, -0.47377887, 5.8265233, 8.145168, -0.038280964, -0.027359486, 10.025687
94329934713903, -0.42951167, 5.845666, 8.0817585, 0.02426672, -0.002040863, 9.983513
94329944353173, -0.41874397, 5.8504515, 8.026724, 0.048312664, 0.024370193, 9.941252
94329953992444, -0.44745782, 5.8097734, 8.035098, 0.0043292046, 0.005441189, 9.925544
94329963631819, -0.44027936, 5.8097734, 8.020741, 0.013315678, 0.008271694, 9.913595
94329973271090, -0.40797627, 5.8133626, 8.033902, 0.038700104, -0.013118267, 9.924895
94329982910361, -0.37208393, 5.79422, 8.007581, 0.0672884, -0.03208971, 9.890764
94329992549632, -0.44865423, 5.7786665, 7.9980097, -0.0022659302, 0.0035791397, 9.877369
94330002188903, -0.49172506, 5.802595, 8.024331, -0.034670115, 0.028506756, 9.914625
94330011828278, -0.49292147, 5.8265233, 8.065009, -0.035564184, 0.024047852, 9.961619
94330021467548, -0.5180461, 5.8097734, 8.106883, -0.075463295, 0.0042333603, 9.986876
94330031106819, -0.48215377, 5.8265233, 8.099705, -0.035461903, 5.1498413E-4, 9.989234
94330040746090, -0.44985065, 5.832505, 8.100901, -0.004743576, -0.012960434, 9.992241
94330050385465, -0.45104706, 5.8241305, 8.090134, -0.006823778, -0.012218952, 9.978677
94330060024736, -0.4211368, 5.808577, 8.038688, 0.025303364, -0.010436058, 9.926563
94330069664007, -0.43788654, 5.7834525, 8.005188, 0.008658886, -0.0020589828, 9.885497
94330079303278, -0.43070808, 5.812166, 7.982456, 0.03297043, 0.025650501, 9.883554
94330088942653, -0.41754755, 5.7990055, 7.966903, 0.043162107, 0.018580914, 9.862665
94330098581923, -0.48215377, 5.8037915, 8.031509, -0.026917696, 0.020874023, 9.920708
94330108221194, -0.5132605, 5.812166, 8.099705, -0.06674552, 0.0069499016, 9.982256
94330117860465, -0.45583272, 5.838487, 8.139186, -0.016189098, -0.023982048, 10.027025
94330127499840, -0.44506502, 5.8241305, 8.117651, -0.0066947937, -0.027486324, 10.000702
94330137139111, -0.47138608, 5.8061843, 8.10449, -0.03424549, -0.018894672, 9.980743
94330146778382, -0.47736812, 5.7810597, 8.109276, -0.051162004, -0.036241055, 9.970205
94330156417653, -0.44506502, 5.81097, 8.045866, 0.006197214, 0.0010285378, 9.934857
94330166057028, -0.44626144, 5.814559, 8.002795, 0.017620087, 0.024915218, 9.902123
94330175696298, -0.39481574, 5.8468623, 7.978867, 0.08126569, 0.03515768, 9.899302
94330185335569, -0.40558344, 5.8277197, 8.006385, 0.05716753, 0.012203217, 9.910885
94330194974944, -0.41515473, 5.8301125, 8.032705, 0.041832685, 0.0059604645, 9.934039
94330204614215, -0.43788654, 5.8133626, 8.073383, 0.004731655, -0.015309334, 9.958221
94330214253486, -0.45583272, 5.7966127, 8.1344, -0.03208995, -0.050094128, 9.998672
94330223892757, -0.4869394, 5.79422, 8.114061, -0.055505514, -0.025014877, 9.982204
94330233532132, -0.49292147, 5.7810597, 8.12124, -0.06739926, -0.03544283, 9.9806
94330243171403, -0.50368917, 5.8061843, 8.100901, -0.06162119, -0.0017590523, 9.979293
94330252810673, -0.4953143, 5.808577, 8.053044, -0.040519357, 0.018393517, 9.941551
94330262450048, -0.53599226, 5.8157554, 8.036295, -0.069067955, 0.051786423, 9.934027
94330272089319, -0.4749753, 5.837291, 8.012366, -6.699562E-4, 0.04840374, 9.924476
94330281728590, -0.4103691, 5.8396835, 7.9908314, 0.06409669, 0.027641296, 9.905494
94330291367861, -0.39840496, 5.861219, 7.9513497, 0.09435177, 0.055175304, 9.885578
94330301007236, -0.39720857, 5.844469, 7.9573317, 0.08534527, 0.040219784, 9.880579
94330310646507, -0.41874397, 5.808577, 7.945368, 0.05229044, 0.034006596, 9.8508835
94330320285778, -0.44147578, 5.7762737, 7.9920278, 0.006784439, -0.0015907288, 9.870802
94330329925153, -0.42831525, 5.79422, 8.079366, 0.0046954155, -0.03855419, 9.951436
94330339564423, -0.4546363, 5.7810597, 8.159525, -0.045459747, -0.07613993, 10.009864
94330349203694, -0.4989035, 5.782256, 8.222935, -0.098689795, -0.08400488, 10.06396
94330358843069, -0.4761717, 5.812166, 8.258827, -0.07126546, -0.092282295, 10.109531
94330368482340, -0.46660042, 5.825327, 8.199007, -0.041517496, -0.05644083, 10.068315
94330378121611, -0.47018966, 5.831309, 8.118847, -0.021231651, -0.008469582, 10.007017
94330387760986, -0.50488555, 5.8157554, 8.02792, -0.035784006, 0.042470932, 9.925841
94330397400257, -0.4833502, 5.800202, 7.941778, -0.0011200905, 0.066500664, 9.8459835
94330407039528, -0.48095736, 5.820541, 7.8987074, 0.020360708, 0.09939623, 9.822897
94330416678903, -0.47018966, 5.8073807, 7.884351, 0.027941227, 0.090218544, 9.803103
94330426318173, -0.4881358, 5.814559, 7.9561353, -0.0036578178, 0.064912796, 9.866269
94330435957444, -0.45104706, 5.814559, 8.065009, 1.0752678E-4, -0.01047945, 9.952728
94330445596819, -0.38165522, 5.820541, 8.093722, 0.05533433, -0.055310726, 9.976301
94330455236090, -0.4103691, 5.8169518, 8.084151, 0.031380177, -0.038419247, 9.967766
94330464875361, -0.4319045, 5.820541, 8.123632, 0.0030155182, -0.04430628, 10.002834
94330474514736, -0.4426722, 5.81097, 8.103293, -0.0058932304, -0.033278942, 9.981259
94330484154007, -0.44027936, 5.8133626, 8.066205, 0.00683856, -0.013516903, 9.952511
94330493793278, -0.45822555, 5.8157554, 8.033902, 0.0011444092, 0.014148235, 9.928564
94330503432653, -0.4749753, 5.8229337, 8.014759, -0.0064446926, 0.036973, 9.91802
94330513071923, -0.47736812, 5.8241305, 8.013563, -0.007893801, 0.038888454, 9.917863
94330522711194, -0.4869394, 5.818148, 8.039884, -0.025454521, 0.024375916, 9.936117
94330532350569, -0.46660042, 5.8169518, 8.024331, -0.0034257174, 0.021578789, 9.921898
94330541989840, -0.44865423, 5.8241305, 8.059027, 0.006920457, -7.867813E-5, 9.953375
94330551629111, -0.44865423, 5.8193445, 8.037491, 0.010190606, 0.008121014, 9.933135
94330561268486, -0.44506502, 5.8061843, 8.032705, 0.009161472, 7.247925E-4, 9.921397
94330570907757, -0.44865423, 5.8061843, 8.051848, 0.00119102, -0.0072865486, 9.937066
94330580547028, -0.4438686, 5.812166, 8.076973, 0.0013461113, -0.01877737, 9.960693
94330590186403, -0.45822555, 5.804988, 8.043473, -0.005659342, 0.0012316704, 9.93002
94330599825673, -0.44027936, 5.8133626, 8.060223, 0.008866787, -0.010550022, 9.947665
94330609464944, -0.4534399, 5.81097, 8.140383, -0.0251441, -0.04726553, 10.011789
94330619104319, -0.47258246, 5.825327, 8.099705, -0.024540901, -0.005776882, 9.988111
94330628743590, -0.45583272, 5.8301125, 8.04467, 0.007361412, 0.017016888, 9.945572
94330638382965, -0.424726, 5.832505, 8.007581, 0.043157816, 0.019991398, 9.915524
94330648022236, -0.42951167, 5.837291, 7.966903, 0.05096197, 0.047170162, 9.885605
94330657661507, -0.43669012, 5.8061843, 8.009974, 0.019587278, 0.0075445175, 9.902611
94330667300882, -0.45104706, 5.7930236, 8.043473, -0.00754714, -0.012367249, 9.922692
94330676940153, -0.4546363, 5.7894344, 8.037491, -0.010937929, -0.009339333, 9.915913
94330686579423, -0.43908295, 5.800202, 8.039884, 0.0066940784, -0.010290146, 9.923443
94330696218798, -0.47377887, 5.8157554, 8.04108, -0.016572595, 0.015969276, 9.935086
94330705858069, -0.50009996, 5.8097734, 8.069795, -0.04817605, 0.008627415, 9.956041
94330715497444, -0.43788654, 5.828916, 8.072187, 0.013710737, -0.008738518, 9.966342
94330725136715, -0.47976094, 5.8157554, 8.097312, -0.034319997, -0.011110783, 9.980898
94330734775986, -0.51445687, 5.808577, 8.105687, -0.06982732, -0.0025935173, 9.985064
94330744415361, -0.47856453, 5.8277197, 8.07458, -0.021896124, 0.00977087, 9.969434
94330754054632, -0.44147578, 5.81097, 8.056634, 0.007058382, -0.011396885, 9.943413
94330763694007, -0.44147578, 5.814559, 8.014759, 0.019760609, 0.012954712, 9.9116
94330773333278, -0.41156548, 5.820541, 7.993224, 0.0525198, 0.0121536255, 9.896305
94330782972548, -0.44865423, 5.84088, 7.9716887, 0.03538418, 0.055872917, 9.892453
94330792611923, -0.44865423, 5.8169518, 7.9980097, 0.01671505, 0.025793076, 9.899769
94330802251194, -0.43429732, 5.802595, 8.002795, 0.021482468, 0.005785942, 9.894593
94330811890569, -0.44865423, 5.8061843, 8.043473, -7.843971E-5, -0.0055365562, 9.930282
94330821529840, -0.4438686, 5.808577, 8.084151, -0.004762888, -0.026465893, 9.964404
94330831169111, -0.44027936, 5.804988, 8.086544, -0.0032094717, -0.031491756, 9.964082
94330840808486, -0.4941179, 5.797809, 8.110473, -0.059292912, -0.024013042, 9.981706
94330850447757, -0.46301118, 5.8265233, 8.109276, -0.019857526, -0.017332554, 9.996119
94330860087132, -0.40677986, 5.8301125, 8.056634, 0.043851614, -0.01378727, 9.953033
