timestamp_acc,device_acc_x,device_acc_y,device_acc_z,earth_acc_x,earth_acc_y,earth_acc_z
94697381354859, 0.25842485, 6.418747, 7.585248, 0.047501087, -0.025985956, 9.939827
94697390995067, 0.21774685, 6.413961, 7.548159, 0.026643515, 0.013298273, 9.9075775
94697400635380, 0.18065812, 6.4343, 7.507481, 0.021441221, 0.06834006, 9.888884
94697410275588, 0.16151553, 6.391229, 7.487142, -0.0057632923, 0.0613904, 9.845171
94697419915796, 0.17347965, 6.3996043, 7.519445, -0.0044031143, 0.043019533, 9.875486
94697429556109, 0.20937198, 6.393622, 7.5433736, 0.013659477, 0.0064890385, 9.890627
94697439196317, 0.2117648, 6.411568, 7.564909, 0.015029907, 0.005277872, 9.918702
94697448836525, 0.20817557, 6.4199433, 7.55773, 0.017808199, 0.017403841, 9.918552
94697458476734, 0.19501504, 6.4151573, 7.6223364, -0.020401478, -0.010830879, 9.964525
94697468117046, 0.17826529, 6.424729, 7.635497, -0.034985542, -0.0018212795, 9.980407
94697477757255, 0.18305093, 6.4462643, 7.649854, -0.0262568, 0.0026681423, 10.00537
94697487397463, 0.20458634, 6.4343, 7.623533, -0.0022916794, -0.002673626, 9.977991
94697497037775, 0.23569304, 6.4366927, 7.6402826, 0.017746687, -0.027715683, 9.992968
94697506677984, 0.23808585, 6.445068, 7.617551, 0.030405998, -0.011641741, 9.981062
94697516318192, 0.22253251, 6.431907, 7.5996046, 0.017867804, -0.0020532608, 9.958544
94697525958505, 0.21415763, 6.4127645, 7.6031938, 6.995201E-4, -0.011705637, 9.948762
94697535598713, 0.21415763, 6.4031935, 7.587641, 0.0025179386, -0.009690046, 9.930708
94697545238921, 0.20817557, 6.3864436, 7.5637126, -0.0017027855, -0.005557537, 9.901501
94697554879234, 0.18664017, 6.4067826, 7.5433736, -0.0015201569, 0.0297997, 9.898652
94697564519442, 0.20578274, 6.4151573, 7.5110703, 0.030726194, 0.03950095, 9.87979
94697574159650, 0.17706887, 6.430711, 7.520642, 0.011931896, 0.060940027, 9.8965435
94697583799963, 0.18664017, 6.4498534, 7.5493555, 0.016137838, 0.053181887, 9.931018
94697593440171, 0.18065812, 6.428318, 7.542177, 0.0055491924, 0.048031807, 9.91151
94697603080380, 0.19262223, 6.3960147, 7.5696945, -0.009530783, 0.00821352, 9.911922
94697612720692, 0.20697916, 6.439086, 7.6402826, -0.0064263344, -0.0075354576, 9.993924
94697622360900, 0.20578274, 6.418747, 7.6271224, -0.011287928, -0.012688637, 9.970727
94697632001109, 0.21774685, 6.385247, 7.6570325, -0.027956963, -0.05464816, 9.972219
94697641641421, 0.2416751, 6.418747, 7.658229, 0.005644083, -0.048048496, 9.995241
94697651281630, 0.22851457, 6.4259253, 7.550552, 0.03959322, 0.019541025, 9.91734
94697660921838, 0.22013968, 6.424729, 7.5696945, 0.0236094, 0.012814045, 9.93102
94697670562150, 0.2321038, 6.431907, 7.5864444, 0.029954672, 0.0017437935, 9.948695
94697680202359, 0.23569304, 6.445068, 7.6163545, 0.025915146, -0.008703947, 9.980108
94697689842567, 0.19501504, 6.4259253, 7.605587, -0.011422634, 0.0082407, 9.958681
94697699482880, 0.15672988, 6.4175506, 7.5996046, -0.04464817, 0.02706647, 9.947903
94697709123088, 0.1591227, 6.424729, 7.5433736, -0.018546581, 0.057115316, 9.90966
94697718763400, 0.17706887, 6.418747, 7.5266237, -3.902912E-4, 0.050366163, 9.893392
94697728403609, 0.2105684, 6.4163537, 7.5517483, 0.016448975, 0.016442776, 9.911726
94697738043817, 0.21774685, 6.411568, 7.6390862, -0.014578104, -0.036803007, 9.975454
94697747684130, 0.19142582, 6.4211397, 7.6713896, -0.044458866, -0.03209734, 10.005743
94697757324338, 0.2009971, 6.3960147, 7.6534433, -0.040362835, -0.044365168, 9.976021
94697766964546, 0.23449662, 6.4211397, 7.6031938, 0.017223358, -0.022253275, 9.954586
94697776604859, 0.2440679, 6.442675, 7.524231, 0.06365538, 0.024922132, 9.908432
94697786245067, 0.23808585, 6.4606214, 7.507481, 0.07272029, 0.048826933, 9.907114
94697795885380, 0.22492532, 6.4343, 7.460821, 0.067943335, 0.06250405, 9.854246
94697805525588, 0.18903299, 6.4091754, 7.5182486, 0.004990816, 0.036535025, 9.881092
94697815165796, 0.1794617, 6.413961, 7.60798, -0.03562069, -0.0037751198, 9.952447
94697824806109, 0.2009971, 6.4163537, 7.570891, -0.0027155876, 0.0049824715, 9.9261465
94697834446317, 0.2105684, 6.3948183, 7.560123, 8.6545944E-5, -0.009843111, 9.904211
94697844086630, 0.20578274, 6.384051, 7.533802, 0.0013387203, -4.1508675E-4, 9.877077
94697853726838, 0.1794617, 6.422336, 7.519445, 0.002196312, 0.04647112, 9.890322
94697863367046, 0.16630118, 6.442675, 7.503892, 0.0075268745, 0.07498622, 9.891331
94697873007359, 0.19621146, 6.442675, 7.5433736, 0.015829563, 0.037389994, 9.922068
94697882647567, 0.2117648, 6.4295144, 7.5732837, 0.010682344, 0.0056836605, 9.936699
94697892287880, 0.21655045, 6.430711, 7.60439, 0.0027337074, -0.010946751, 9.961304
94697901928088, 0.2213361, 6.454639, 7.6630144, -0.00588274, -0.027903557, 10.021593
94697911568296, 0.22253251, 6.4295144, 7.661818, -0.016153336, -0.043236732, 10.004475
94697921208609, 0.22612174, 6.422336, 7.63789, -0.007859468, -0.038028955, 9.981653
94697930848817, 0.22253251, 6.4295144, 7.585248, 0.013834953, -0.0059421062, 9.946051
94697940489130, 0.21655045, 6.411568, 7.5290165, 0.02367258, 0.015025854, 9.891432
94697950129338, 0.19980069, 6.4031935, 7.4919276, 0.020339966, 0.03672433, 9.857386
94697959769546, 0.18185452, 6.3924255, 7.463214, 0.012221813, 0.055149794, 9.828154
94697969409859, 0.19860429, 6.4271216, 7.4775705, 0.035780907, 0.05906248, 9.861877
94697979050067, 0.18065812, 6.45105, 7.5493555, 0.0033299923, 0.048275948, 9.931723
94697988690380, 0.18065812, 6.4354963, 7.6127653, -0.02901578, 0.0071456432, 9.970032
94697998330588, 0.20817557, 6.4343, 7.6163545, -0.006865263, -0.011122465, 9.972576
94698007970796, 0.21415763, 6.4163537, 7.6199436, -0.011642456, -0.027605295, 9.9638405
94698017611109, 0.2440679, 6.4462643, 7.618747, 0.026063919, -0.025552511, 9.982881
94698027251317, 0.2428715, 6.442675, 7.6163545, 0.021976233, -0.024632454, 9.978719
94698036891630, 0.24765715, 6.4331036, 7.5673018, 0.040753365, -0.008852005, 9.935215
94698046531838, 0.20219351, 6.431907, 7.495517, 0.03447175, 0.054151773, 9.878714
94698056172150, 0.15553348, 6.431907, 7.4823565, 0.0027303696, 0.08939576, 9.867689
94698065812359, 0.10887343, 6.410372, 7.5385876, -0.06762576, 0.07472491, 9.8956995
94698075452567, 0.1363909, 6.3948183, 7.6223364, -0.084558964, 0.0046551228, 9.950132
94698085092880, 0.18783657, 6.4199433, 7.648658, -0.03925395, -0.02613759, 9.987528
94698094733088, 0.23688944, 6.465407, 7.658229, 0.019124746, -0.032856226, 10.025199
94698104373400, 0.28235307, 6.4666033, 7.615158, 0.070011616, -0.03862524, 9.994044
94698114013609, 0.2727818, 6.463014, 7.5469627, 0.08359957, -2.1982193E-4, 9.9395485
94698123653921, 0.24646074, 6.4235325, 7.4644103, 0.07343125, 0.032182217, 9.850559
94698133294130, 0.20817557, 6.3972116, 7.4177504, 0.0491004, 0.06160307, 9.797167
94698142934338, 0.1794617, 6.375676, 7.420143, 0.014592886, 0.06224227, 9.784472
94698152574650, 0.18424734, 6.3720865, 7.5385876, -0.030666828, -0.0034778118, 9.872528
94698162214859, 0.16271193, 6.3948183, 7.623533, -0.06810975, -0.018229246, 9.951555
94698171855171, 0.17347965, 6.424729, 7.6426754, -0.0538249, -0.01581049, 9.985718
94698181495380, 0.18305093, 6.48096, 7.664211, -0.026572466, 0.0031092167, 10.038713
94698191135692, 0.18664017, 6.4869423, 7.652247, -0.01635003, 0.011320591, 10.033532
94698200775900, 0.21655045, 6.4677997, 7.6331043, 0.0065510273, -0.008524895, 10.00717
94698210416109, 0.22492532, 6.4666033, 7.5625157, 0.039592266, 0.020733118, 9.952747
94698220056421, 0.21655045, 6.4175506, 7.5050883, 0.032413244, 0.023942947, 9.877073
94698229696630, 0.21774685, 6.3792653, 7.4476604, 0.036422253, 0.027508974, 9.808567
94698239336942, 0.2321038, 6.4008007, 7.4823565, 0.044195652, 0.012965441, 9.849247
94698248977150, 0.24047868, 6.4211397, 7.493124, 0.055564642, 0.01540637, 9.870789
94698258617463, 0.19142582, 6.4067826, 7.4416785, 0.030765772, 0.061107635, 9.821275
94698268257671, 0.16749759, 6.3972116, 7.4775705, -0.0069937706, 0.051326036, 9.84194
94698277897880, 0.2105684, 6.424729, 7.5720873, 0.0014820099, -0.004591465, 9.932672
94698287538192, 0.23569304, 6.4534426, 7.5996046, 0.023281097, -0.016098022, 9.972746
94698297178400, 0.23090738, 6.4797635, 7.6343007, 0.01692605, -0.012953043, 10.016125
94698306818713, 0.1698904, 6.431907, 7.594819, -0.038054228, 0.015366554, 9.953787
94698316458921, 0.12801601, 6.407979, 7.5828547, -0.07846308, 0.030125618, 9.928305
94698326099234, 0.15433706, 6.411568, 7.578069, -0.05241251, 0.01914525, 9.92754
94698335739442, 0.18783657, 6.4402823, 7.647461, -0.040139914, -0.017796755, 9.999714
94698345379650, 0.22971097, 6.445068, 7.649854, -0.003942013, -0.04132533, 10.00551
94698355019963, 0.26679972, 6.424729, 7.6307116, 0.024267673, -0.067117214, 9.978526
94698364660171, 0.26919255, 6.4462643, 7.548159, 0.06790185, -0.012111664, 9.929588
94698374300484, 0.23330021, 6.431907, 7.4333034, 0.07252598, 0.054936647, 9.8320675
94698383940692, 0.20578274, 6.4175506, 7.4033933, 0.05256009, 0.07607961, 9.799438
94698393580900, 0.16510476, 6.4055862, 7.4309106, 0.0020291805, 0.076259375, 9.8118
94698403221213, 0.15194423, 6.428318, 7.4715886, -0.014729977, 0.07681751, 9.857225
94698412861421, 0.18783657, 6.3385873, 7.520642, -0.04134345, -0.025591373, 9.837208
94698422501734, 0.28713873, 6.9451675, 7.6390862, 0.25697136, 0.23693419, 10.322367
94698432141942, 0.12921242, 5.791827, 7.515856, -0.32670522, -0.32626963, 9.4782295
94698441782255, 0.2428715, 6.975078, 7.6666036, 0.22134137, 0.26212, 10.361939
94698451422463, 0.18903299, 6.131608, 7.5864444, -0.15763903, -0.18197966, 9.753386
94698461062775, 0.22971097, 6.5001025, 7.584051, 0.039062023, 0.02032113, 9.990995
94698470702984, 0.26679972, 6.6831536, 7.5349984, 0.17465425, 0.12813783, 10.072983
94698480343192, 0.14955142, 5.9449677, 7.4273214, -0.2236073, -0.18604708, 9.510284
94698489983505, 0.32422748, 7.1138616, 7.629515, 0.38444114, 0.29413724, 10.4253235
94698499623713, 0.10767702, 5.6386867, 7.4739814, -0.4181378, -0.37109733, 9.346348
94698509264025, 0.29790643, 7.2323065, 7.670193, 0.399621, 0.36280155, 10.532596
94698518904234, 0.10767702, 5.6267223, 7.4189467, -0.41243434, -0.33514357, 9.296771
94698528544442, 0.26081768, 7.01097, 7.5696945, 0.32084775, 0.30627155, 10.311414
94698538184755, 0.17826529, 6.07418, 7.4787674, -0.15923119, -0.14449644, 9.63396
94698547824963, 0.2009971, 6.558727, 7.5050883, 0.08198309, 0.10726285, 9.968222
94698557465275, 0.21894327, 6.619744, 7.507481, 0.12666607, 0.12621737, 10.009957
94698567105484, 0.11006984, 5.9617176, 7.4380894, -0.25064468, -0.15156364, 9.528566
94698576745796, 0.33738798, 7.0983086, 7.716853, 0.36390877, 0.22866344, 10.481646
94698586386005, 0.15433706, 5.6817575, 7.580462, -0.42492008, -0.40208626, 9.456606
94698596026213, 0.31944183, 7.2789664, 7.7910304, 0.39951015, 0.3281784, 10.654495
94698605666525, 0.05623133, 5.6267223, 7.530213, -0.48658514, -0.36435866, 9.380711
94698615306734, 0.27756742, 7.051648, 7.605587, 0.33344293, 0.31506896, 10.365196
94698624947046, 0.18065812, 5.9952173, 7.4775705, -0.1962347, -0.19624424, 9.581874
94698634587255, 0.22013968, 6.593423, 7.500303, 0.11074424, 0.12172961, 9.987448
94698644227463, 0.25722843, 6.5431733, 7.4536424, 0.13958359, 0.09178567, 9.920088
94698653867775, 0.12203395, 5.994021, 7.3543406, -0.1846075, -0.104976654, 9.486012
94698663507984, 0.2883351, 7.0432734, 7.5673018, 0.34096456, 0.32425714, 10.33119
94698673148296, 0.11485548, 5.6709895, 7.4787674, -0.39689922, -0.36154675, 9.371075
94698682788505, 0.31226337, 7.2670026, 7.735996, 0.40347958, 0.3507831, 10.60503
94698692428817, 0.1052842, 5.602794, 7.483553, -0.4420824, -0.38242888, 9.330824
94698702069025, 0.29790643, 7.131808, 7.594819, 0.38475347, 0.33770037, 10.410122
94698711709234, 0.18424734, 5.9497533, 7.5385876, -0.23660254, -0.2557385, 9.599083
94698721349546, 0.25004998, 6.704689, 7.658229, 0.11567378, 0.087911844, 10.180507
94698730989755, 0.22253251, 6.485746, 7.617551, 0.012410164, -4.518032E-4, 10.007065
94698740630067, 0.13878371, 6.0729837, 7.4177504, -0.16599417, -0.094907284, 9.585763
94698750270275, 0.27876383, 6.9858456, 7.5026956, 0.34503722, 0.31535077, 10.244595
94698759910484, 0.10767702, 5.68415, 7.4010005, -0.37257433, -0.29973912, 9.320263
94698769550796, 0.32662028, 7.240681, 7.60798, 0.45216107, 0.38000393, 10.491265
94698779191005, 0.09571291, 5.5657053, 7.389036, -0.4383211, -0.35098124, 9.234111
94698788831317, 0.26679972, 7.123433, 7.564909, 0.39130306, 0.361166, 10.380692
94698798471525, 0.14476576, 5.8827543, 7.457232, -0.27755475, -0.22433972, 9.492667
94698808111734, 0.2321038, 6.7202425, 7.62114, 0.1340146, 0.13192606, 10.161788
94698817752046, 0.22731815, 6.4235325, 7.635497, -0.01781106, -0.048038244, 9.980563
94698827392255, 0.16031912, 6.178268, 7.5122666, -0.13266993, -0.09068298, 9.726511
94698837032567, 0.29312077, 6.946364, 7.62114, 0.28462934, 0.23920894, 10.309289
94698846672775, 0.09571291, 5.703293, 7.520642, -0.3992765, -0.35497022, 9.423978
94698856312984, 0.29671, 7.2155566, 7.722835, 0.35213208, 0.35871673, 10.5613365
94698865953296, 0.09930214, 5.5633125, 7.3830543, -0.3868928, -0.38694406, 9.228781
94698875593505, 0.26799613, 7.048059, 7.456035, 0.37275624, 0.41732407, 10.248235
94698885233817, 0.12323037, 5.7284174, 7.2550383, -0.24570799, -0.21578074, 9.238973
94698894874025, 0.27038896, 6.8518476, 7.5900335, 0.24135065, 0.20798445, 10.223895
94698904514234, 0.25244278, 6.413961, 7.63789, 0.006384611, -0.062291384, 9.976776
94698914154546, 0.2117648, 6.265606, 7.5326056, -0.054752827, -0.06927037, 9.799747
94698923794755, 0.27038896, 6.9344, 7.668997, 0.26550722, 0.2089057, 10.3372345
94698933435067, 0.016749758, 5.8013983, 7.6331043, -0.48252106, -0.2447536, 9.572254
94698943075275, 0.19621146, 7.2215385, 7.895118, 0.2528491, 0.31872296, 10.693758
94698952715484, 0.062213387, 5.581259, 7.6390862, -0.5536761, -0.40162325, 9.436213
94698962355796, 0.3493521, 7.2119675, 7.7012997, 0.46258974, 0.28577113, 10.542718
94698971996005, 0.20697916, 5.8061843, 7.564909, -0.28988194, -0.3543949, 9.527477
94698981636317, 0.31345975, 6.823134, 7.6630144, 0.25101805, 0.12582898, 10.2614
94698991276525, 0.24526432, 6.2464633, 7.5062847, -0.021440268, -0.09341884, 9.767988
94699000916734, 0.1591227, 6.250053, 7.344769, -0.015329123, 0.042182446, 9.645314
94699010557046, 0.22612174, 6.7537417, 7.375876, 0.26184893, 0.2833233, 9.995943
94699020197255, 0.069391854, 5.7140603, 7.308877, -0.32978034, -0.20589352, 9.269511
94699029837567, 0.29072794, 7.1485577, 7.668997, 0.38065505, 0.33468628, 10.47583
94699039477775, 0.07058827, 5.578866, 7.5469627, -0.48366165, -0.40348768, 9.364222
94699049117984, 0.30149564, 7.2299137, 7.7754774, 0.37243557, 0.34567595, 10.609543
94699058758296, 0.11724831, 5.7690954, 7.600801, -0.3800161, -0.33670998, 9.529459
94699068398505, 0.22971097, 6.9128647, 7.7623167, 0.1746192, 0.20178914, 10.393403
94699078038817, 0.19501504, 6.250053, 7.6797643, -0.12692237, -0.14499927, 9.901659
94699087679025, 0.21535404, 6.38764, 7.5900335, -0.0068757534, -0.029604912, 9.922501
94699097319234, 0.29192436, 6.7537417, 7.54457, 0.23726273, 0.1708951, 10.125873
94699106959546, 0.13160525, 5.779863, 7.3567333, -0.24840307, -0.24981165, 9.34995
94699116599755, 0.31465617, 7.1066833, 7.560123, 0.39729357, 0.3792994, 10.366182
94699126240067, 0.09930214, 5.5405807, 7.348358, -0.38678837, -0.36818457, 9.188096
94699135880275, 0.3062813, 7.1856465, 7.5110703, 0.43646383, 0.4542277, 10.38011
94699145520484, 0.11246266, 5.682954, 7.37109, -0.3169253, -0.2899661, 9.298226
94699155160796, 0.26919255, 6.928418, 7.560123, 0.28893948, 0.27988243, 10.250321
94699164801005, 0.1698904, 6.181857, 7.585248, -0.1337595, -0.12102008, 9.785074
94699174441213, 0.17228323, 6.4462643, 7.598408, -0.01946807, 0.028371572, 9.965874
94699184081525, 0.21415763, 6.68435, 7.658229, 0.10185957, 0.1256454, 10.166058
94699193721734, 0.06699903, 5.8911295, 7.647461, -0.3744955, -0.26106262, 9.642882
94699203362046, 0.2943172, 7.1377897, 7.9310107, 0.26127195, 0.2170229, 10.668657
94699213002255, 0.1160519, 5.6075797, 7.7407813, -0.4952054, -0.51055574, 9.532693
94699222642463, 0.36251262, 7.2789664, 7.8233337, 0.43501544, 0.32132864, 10.678335
94699232282775, 0.14237295, 5.663811, 7.4356966, -0.32161212, -0.3376851, 9.336549
94699241922984, 0.2727818, 6.9702926, 7.507481, 0.34647703, 0.34354186, 10.236386
94699251563296, 0.16630118, 6.038288, 7.4189467, -0.12734556, -0.11823583, 9.565519
94699261203505, 0.17587246, 6.4343, 7.4177504, 0.058842897, 0.11108065, 9.820304
94699270843713, 0.21415763, 6.600601, 7.4380894, 0.16453505, 0.1753738, 9.943901
94699280484025, 0.076570325, 5.8971114, 7.37109, -0.25239086, -0.11867905, 9.435942
94699290124234, 0.27038896, 7.0576305, 7.7204423, 0.31572223, 0.27052832, 10.455414
94699299764546, 0.07058827, 5.605187, 7.6917286, -0.5360384, -0.43513727, 9.492583
94699309404755, 0.18664017, 7.179664, 7.945368, 0.21044397, 0.30150747, 10.704021
94699319044963, 0.18544376, 5.6530433, 7.598408, -0.377064, -0.4366274, 9.454853
94699328685275, 0.45224348, 7.097112, 7.6402826, 0.5090375, 0.20560741, 10.423342
94699338325484, 0.22013968, 6.056234, 7.598408, -0.15811825, -0.21717429, 9.715454
94699347965796, 0.16271193, 6.559923, 7.6019974, 0.039533615, 0.10968995, 10.041705
94699357606005, 0.2105684, 6.552745, 7.5254273, 0.10902333, 0.103899, 9.9795885
94699367246213, 0.11006984, 5.953343, 7.399804, -0.21329713, -0.11627722, 9.494866
94699376886525, 0.25603202, 6.9798636, 7.570891, 0.34358382, 0.2860918, 10.290895
94699386526734, 0.032303106, 5.569295, 7.422536, -0.48889232, -0.27754068, 9.262617
94699396167046, 0.30149564, 7.23111, 7.6737823, 0.4632573, 0.33705664, 10.532738
94699405807255, 0.12921242, 5.595616, 7.4907312, -0.42774272, -0.37038255, 9.33373
94699415447567, 0.32063824, 7.0935225, 7.722835, 0.3893876, 0.23798633, 10.481164
94699425087775, 0.1591227, 5.9653068, 7.6773715, -0.29526162, -0.2579422, 9.715891
94699434727984, 0.19381863, 6.6352973, 7.789834, 0.01913786, 0.038998365, 10.234469
94699444368296, 0.22253251, 6.538388, 7.672586, 0.048815966, 0.020684958, 10.082946
94699454008505, 0.12801601, 6.0574307, 7.521838, -0.20239472, -0.11698723, 9.655684
94699463648817, 0.25124636, 6.9798636, 7.6307116, 0.3089764, 0.2681508, 10.336441
94699473289025, 0.069391854, 5.623133, 7.472785, -0.4431734, -0.30681396, 9.336831
94699482929338, 0.3074777, 7.2287173, 7.645068, 0.4556589, 0.38557363, 10.509026
94699492569546, 0.078963146, 5.5597234, 7.3639116, -0.3949697, -0.3312552, 9.212936
94699502209755, 0.28713873, 7.0576305, 7.499106, 0.41477537, 0.37185502, 10.286831
94699511850067, 0.17467605, 5.8767724, 7.381858, -0.19231439, -0.20807767, 9.432842
94699521490275, 0.22971097, 6.6711893, 7.548159, 0.15757036, 0.15998125, 10.073818
94699531130588, 0.21655045, 6.4462643, 7.6366935, 0.008943796, -0.014538765, 9.996
94699540770796, 0.1471586, 6.111269, 7.605587, -0.18853998, -0.16136003, 9.754622
94699550411109, 0.26679972, 6.954739, 7.818548, 0.20917845, 0.17353535, 10.4640045
94699560051317, 0.076570325, 5.7080784, 7.7503524, -0.49055624, -0.42362475, 9.603951
94699569691630, 0.28713873, 7.253842, 7.8664045, 0.34222412, 0.3196187, 10.694002
94699579331838, 0.08135597, 5.6063833, 7.4620175, -0.42483115, -0.34464192, 9.317758
94699588972046, 0.317049, 7.1485577, 7.5182486, 0.46386337, 0.41541266, 10.360441
94699598612359, 0.1591227, 5.8073807, 7.405786, -0.24672318, -0.24871945, 9.406058
94699608252567, 0.23928227, 6.690332, 7.560123, 0.17280674, 0.15835834, 10.095461
94699617892880, 0.20338993, 6.3290157, 7.5469627, -0.022911787, -0.03192973, 9.851543
94699627533088, 0.13040884, 6.1471615, 7.4943204, -0.14545798, -0.0651176, 9.692472
94699637173400, 0.31465617, 6.8865438, 7.635497, 0.29317546, 0.18885922, 10.281181
94699646813609, 0.13758731, 5.7284174, 7.609176, -0.3923037, -0.37612486, 9.509883
94699656453921, 0.3062813, 7.2526455, 7.8987074, 0.34926724, 0.27535582, 10.718509
94699666094130, 0.039481573, 5.5920267, 7.628319, -0.5505841, -0.38951135, 9.434442
94699675734442, 0.25962126, 7.194021, 7.7383885, 0.36841035, 0.34891176, 10.556826
94699685374650, 0.12921242, 5.8097734, 7.500303, -0.31306887, -0.25484228, 9.479546
94699695014963, 0.23330021, 6.818348, 7.5816584, 0.23289204, 0.21158457, 10.19445
94699704655171, 0.2105684, 6.3074803, 7.4775705, 0.0038547516, -0.015803814, 9.784806
94699714295380, 0.16271193, 6.236892, 7.355537, -0.01850319, 0.028723001, 9.645105
94699723935692, 0.27517462, 6.820741, 7.4739814, 0.302171, 0.23925877, 10.114843
94699733575900, 0.12562318, 5.7260246, 7.4715886, -0.34538293, -0.30347776, 9.402999
94699743216213, 0.33738798, 7.152147, 7.771888, 0.37964582, 0.26408458, 10.557243
94699752856525, 0.12083755, 5.5334024, 7.578069, -0.48059535, -0.46555257, 9.360158
94699762496734, 0.30987054, 7.179664, 7.7120676, 0.3908844, 0.32479835, 10.529069
94699772137046, 0.104087785, 5.771488, 7.5493555, -0.3615427, -0.2965126, 9.491842
94699781777255, 0.23688944, 6.8985076, 7.670193, 0.23196507, 0.22934866, 10.313633
94699791417567, 0.15672988, 6.2404814, 7.609176, -0.12526321, -0.07432032, 9.841064
94699801057775, 0.06699903, 6.3361945, 7.6163545, -0.14636326, 0.03426385, 9.906467
94699810698088, 0.19740787, 6.798009, 7.706085, 0.14484596, 0.17470407, 10.275415
94699820338296, 0.13040884, 5.8037915, 7.5936227, -0.34748626, -0.30787563, 9.547177
94699829978609, 0.38404804, 7.166504, 7.795816, 0.43064785, 0.21083927, 10.58542
94699839618817, 0.1591227, 5.615955, 7.5254273, -0.38805318, -0.4041741, 9.37456
94699849259130, 0.36251262, 7.2658057, 7.597212, 0.5465367, 0.37346125, 10.497753
94699858899338, 0.15074782, 5.6961145, 7.3866434, -0.30214524, -0.28395104, 9.319819
94699868539650, 0.2440679, 6.8709903, 7.5457664, 0.27266693, 0.2616911, 10.201265
94699878179859, 0.14117654, 6.1208405, 7.524231, -0.15949702, -0.10438323, 9.698573
94699887820171, 0.11844472, 6.364908, 7.5792656, -0.08104491, 0.025832653, 9.897683
94699897460380, 0.20458634, 6.708278, 7.63789, 0.12520075, 0.14606404, 10.165787
94699907100692, 0.10767702, 5.8229337, 7.5146594, -0.3113835, -0.26814437, 9.49839
94699916740900, 0.29312077, 7.1365933, 7.8149586, 0.32580376, 0.26997685, 10.578819
94699926381213, 0.041874398, 5.6327047, 7.649854, -0.5138371, -0.4009776, 9.477582
94699936021421, 0.2847459, 7.268199, 7.8317084, 0.38063836, 0.34259987, 10.676199
94699945661734, 0.11964113, 5.692525, 7.580462, -0.41342378, -0.36306596, 9.464663
94699955302046, 0.2847459, 6.9906316, 7.6390862, 0.32780385, 0.25490594, 10.350518
94699964942255, 0.16749759, 6.094519, 7.5230346, -0.15515947, -0.13380599, 9.681183
94699974582567, 0.16869399, 6.4211397, 7.493124, 0.02601099, 0.06819129, 9.869199
94699984222775, 0.2632105, 6.5982084, 7.475178, 0.19490242, 0.112017155, 9.971629
94699993863088, 0.13519448, 5.879165, 7.361519, -0.21680832, -0.15836215, 9.418213
94700003503296, 0.30269206, 7.082755, 7.631908, 0.3984356, 0.28624582, 10.4049225
94700013143609, 0.0741775, 5.5968122, 7.4883385, -0.45447612, -0.3389187, 9.3318615
94700022783921, 0.3278167, 7.2490563, 7.6594253, 0.47905374, 0.3611548, 10.533903
94700032424130, 0.14117654, 5.6482577, 7.4536424, -0.3562274, -0.33994603, 9.340078
94700042064442, 0.26799613, 7.0229344, 7.7419777, 0.27852392, 0.24445558, 10.449608
94700051704650, 0.12203395, 6.0514483, 7.7682986, -0.3047557, -0.24227476, 9.840213
94700061344963, 0.16031912, 6.559923, 7.8317084, -0.06074071, 0.0022068024, 10.217155
94700070985275, 0.21535404, 6.617351, 7.8077803, 0.026220322, 0.016020775, 10.237002
94700080625484, 0.12323037, 5.946164, 7.5828547, -0.27394676, -0.21564364, 9.63069
94700090265796, 0.33499518, 7.04447, 7.692925, 0.37419915, 0.24738455, 10.426727
94700099906005, 0.11844472, 5.629115, 7.436893, -0.37321925, -0.33383512, 9.314376
94700109546317, 0.32063824, 7.237092, 7.5792656, 0.4890716, 0.4285562, 10.46426
94700119186630, 0.086141616, 5.5669017, 7.332805, -0.3754239, -0.29838872, 9.1944475
94700128826838, 0.25962126, 6.99781, 7.548159, 0.34363675, 0.33289027, 10.285065
94700138467150, 0.14955142, 5.98086, 7.588837, -0.24265313, -0.21953058, 9.657972
94700148107463, 0.20338993, 6.6424756, 7.7216387, 0.057394505, 0.07749653, 10.1871605
94700157747671, 0.21655045, 6.539584, 7.704889, 0.030427217, 0.020715237, 10.108266
94700167387984, 0.13878371, 6.0119667, 7.570891, -0.22689724, -0.1791122, 9.664255
94700177028296, 0.32183465, 7.036095, 7.763513, 0.32661057, 0.21497273, 10.4751835
94700186668505, 0.09451649, 5.663811, 7.648658, -0.47439647, -0.38210917, 9.498347
94700196308817, 0.30508488, 7.2287173, 7.804191, 0.4061284, 0.3133564, 10.629662
94700205949130, 0.1052842, 5.5633125, 7.4512496, -0.42397332, -0.34743667, 9.283437
94700215589338, 0.2955136, 7.0600233, 7.4656067, 0.464391, 0.37750292, 10.261986
94700225229650, 0.15074782, 5.8875403, 7.3435726, -0.17917657, -0.14376998, 9.410693
94700234869963, 0.22731815, 6.63769, 7.48116, 0.1814692, 0.17156196, 10.000799
94700244510171, 0.25244278, 6.4366927, 7.580462, 0.06256151, -0.004584074, 9.947574
94700254150484, 0.15433706, 6.0837517, 7.5326056, -0.16330361, -0.12835145, 9.681573
94700263790796, 0.27756742, 6.9822564, 7.763513, 0.26455522, 0.21992731, 10.43948
94700273431005, 0.06819545, 5.666204, 7.716853, -0.49326062, -0.41565108, 9.552188
94700283071317, 0.2955136, 7.2670026, 7.98126, 0.31698918, 0.28260994, 10.789661
94700292711630, 0.10767702, 5.5908303, 7.678568, -0.4881115, -0.460948, 9.475161
94700302351838, 0.29671, 7.135397, 7.7419777, 0.3617456, 0.31865478, 10.521775
94700311992150, 0.111266255, 5.8827543, 7.5792656, -0.30106592, -0.22977829, 9.5875435
94700321632463, 0.19740787, 6.728617, 7.609176, 0.15298128, 0.19732308, 10.156302
94700331272775, 0.19262223, 6.3589263, 7.5661054, -0.007396221, 0.004944086, 9.885288
94700340912984, 0.13758731, 6.1196437, 7.4548388, -0.12146807, -0.051644564, 9.645007
94700350553296, 0.29671, 6.876972, 7.594819, 0.30869126, 0.22841954, 10.2427845
94700360193609, 0.12801601, 5.6997037, 7.517052, -0.36245108, -0.32493877, 9.421895
94700369833817, 0.34337005, 7.200003, 7.749156, 0.43292522, 0.32290816, 10.569565
94700379474130, 0.13160525, 5.54417, 7.5254273, -0.43286157, -0.42909765, 9.328221
94700389114442, 0.30508488, 7.153343, 7.6307116, 0.42031527, 0.37575936, 10.448603
94700398754755, 0.13399807, 5.791827, 7.476374, -0.2922554, -0.25504255, 9.45034
94700408394963, 0.20578274, 6.768099, 7.696514, 0.13590741, 0.17552137, 10.248734
94700418035275, 0.16869399, 6.3493547, 7.6893353, -0.08247876, -0.045195103, 9.972954
94700427675588, 0.12921242, 6.2321067, 7.6343007, -0.14302683, -0.06287694, 9.854643
94700437315900, 0.2644069, 6.855437, 7.702496, 0.23163629, 0.18913865, 10.310476
94700446956109, 0.083748795, 5.7284174, 7.548159, -0.3895321, -0.28886628, 9.463684
94700456596421, 0.28235307, 7.2011995, 7.7874413, 0.37639904, 0.33693886, 10.598397
94700466236734, 0.061016977, 5.5334024, 7.5326056, -0.49370742, -0.37198544, 9.3263235
94700475877046, 0.29910284, 7.1449685, 7.6570325, 0.4142654, 0.35841298, 10.462796
94700485517359, 0.13758731, 5.736792, 7.487142, -0.325207, -0.27765346, 9.423595
94700495157567, 0.25962126, 6.799206, 7.6809607, 0.21331286, 0.16463137, 10.257737
94700504797880, 0.19860429, 6.276374, 7.7204423, -0.10193992, -0.113991976, 9.950586
94700514438192, 0.20458634, 6.2847486, 7.649854, -0.06513953, -0.08258033, 9.901975
94700524078505, 0.3182454, 6.780063, 7.652247, 0.2641127, 0.13629055, 10.224436
94700533718817, 0.1052842, 5.7750773, 7.513463, -0.32896256, -0.25113654, 9.468022
94700543359025, 0.26679972, 7.133004, 7.77787, 0.3372054, 0.32693195, 10.546356
94700552999338, 0.05383851, 5.532206, 7.5613194, -0.49752998, -0.3949299, 9.347634
94700562639650, 0.28115666, 7.1820574, 7.7036924, 0.39553332, 0.37960958, 10.521755
94700572279963, 0.096909314, 5.7152567, 7.520642, -0.35743022, -0.30241275, 9.434745
94700581920275, 0.22372891, 6.893722, 7.688139, 0.2246468, 0.26221132, 10.322872
94700591560588, 0.17108682, 6.178268, 7.6534433, -0.13499665, -0.13035798, 9.835663
94700601200796, 0.2117648, 6.363712, 7.63789, -0.010837793, -0.03472185, 9.9437275
94700610841109, 0.28594232, 6.7298136, 7.609176, 0.23253274, 0.1595521, 10.158356
94700620481421, 0.13998012, 5.8097734, 7.4823565, -0.25908995, -0.2526536, 9.467194
94700630121734, 0.3290131, 7.0959153, 7.725228, 0.40026855, 0.2859354, 10.4832
94700639762046, 0.08973085, 5.5477595, 7.5493555, -0.46028638, -0.3918574, 9.349495
94700649402359, 0.26081768, 7.2179494, 7.722835, 0.40105057, 0.39941716, 10.558816
94700659042671, 0.031106694, 5.656633, 7.520642, -0.44133568, -0.281837, 9.395972
94700668682880, 0.1698904, 6.9320073, 7.732406, 0.20665073, 0.28431225, 10.380182
94700678323192, 0.1471586, 6.1363935, 7.713264, -0.19673753, -0.1655891, 9.854202
94700687963505, 0.20697916, 6.4462643, 7.6977105, 0.00553751, -0.012579441, 10.042494
94700697603817, 0.29312077, 6.669993, 7.661818, 0.19922519, 0.08251047, 10.160299
94700707244130, 0.17826529, 5.866005, 7.5182486, -0.2139926, -0.2556758, 9.531774
94700716884442, 0.3493521, 7.099505, 7.7204423, 0.41355538, 0.28415084, 10.482294
94700726524755, 0.09810573, 5.582455, 7.539784, -0.41225314, -0.39725733, 9.364507
94700736165067, 0.3074777, 7.190432, 7.678568, 0.42272758, 0.39023066, 10.508391
94700745805380, 0.0849452, 5.6075797, 7.5026956, -0.3984301, -0.36725354, 9.351416
94700755445588, 0.21296121, 6.960721, 7.708478, 0.2291789, 0.2919283, 10.38171
94700765085900, 0.13280165, 6.067002, 7.7144604, -0.22656035, -0.22277594, 9.810102
94700774726213, 0.1794617, 6.5072813, 7.696514, 0.010654688, 0.043622494, 10.08024
94700784366525, 0.23090738, 6.5982084, 7.6366935, 0.11385083, 0.10406852, 10.093809
94700794006838, 0.12083755, 5.9497533, 7.4476604, -0.1806469, -0.1554246, 9.530216
94700803647150, 0.29072794, 7.0492554, 7.62114, 0.35606766, 0.36940384, 10.372803
94700813287463, 0.104087785, 5.5872407, 7.5254273, -0.37746787, -0.4224677, 9.356238
94700822927775, 0.34217364, 7.2179494, 7.722835, 0.4290402, 0.38595676, 10.560541
94700832568088, 0.11365908, 5.5872407, 7.500303, -0.34355927, -0.41641474, 9.337735
94700842208400, 0.2416751, 7.0061846, 7.676175, 0.27670836, 0.3419156, 10.386301
94700851848713, 0.11246266, 5.9748783, 7.6749787, -0.26435447, -0.25545573, 9.720183
94700861489025, 0.19142582, 6.573084, 7.7407813, 0.029875994, 0.054230213, 10.15667
94700871129338, 0.2213361, 6.533602, 7.6941214, 0.05463314, 0.03379965, 10.096155
94700880769650, 0.13878371, 5.992824, 7.517052, -0.17830205, -0.17286396, 9.611328
94700890409963, 0.32183465, 7.0468626, 7.685746, 0.3586855, 0.30837536, 10.4215555
94700900050275, 0.09571291, 5.645865, 7.542177, -0.3701656, -0.37984562, 9.406812
94700909690588, 0.26799613, 7.227521, 7.7180495, 0.37218308, 0.43094492, 10.561863
94700919330900, 0.0526421, 5.5573306, 7.4883385, -0.4391849, -0.37798524, 9.307317
94700928971213, 0.25124636, 7.0779696, 7.658229, 0.3370893, 0.3729303, 10.419046
94700938611525, 0.15433706, 5.9437714, 7.617551, -0.22357345, -0.26152182, 9.65717
94700948251838, 0.2213361, 6.650851, 7.719246, 0.09181261, 0.088220835, 10.190846
94700957892150, 0.22851457, 6.4821568, 7.702496, 0.034020185, -0.009012222, 10.069648
94700967532463, 0.1591227, 6.0526447, 7.515856, -0.14386058, -0.14470458, 9.64916
94700977172775, 0.29910284, 6.9858456, 7.635497, 0.3324418, 0.29763842, 10.343753
94700986813088, 0.08733802, 5.669793, 7.537391, -0.37655687, -0.35308075, 9.418068
94700996453400, 0.29790643, 7.2155566, 7.7886376, 0.36626387, 0.36077976, 10.609032
94701006093713, 0.0849452, 5.541777, 7.605587, -0.45050573, -0.47703218, 9.387914
94701015734025, 0.24646074, 7.1007013, 7.698907, 0.31975794, 0.3674829, 10.465018
94701025374338, 0.111266255, 5.875576, 7.536195, -0.2683127, -0.24857044, 9.54962
94701035014650, 0.2009971, 6.686743, 7.609176, 0.12713361, 0.1740117, 10.129465
94701044654963, 0.20578274, 6.4151573, 7.5493555, 0.036899567, 0.029867172, 9.908941
94701054295275, 0.1471586, 6.178268, 7.429714, -0.06660867, -0.025061846, 9.663759
94701063935588, 0.2847459, 6.9415784, 7.598408, 0.30716443, 0.2928903, 10.286996
94701073575900, 0.09332009, 5.666204, 7.5517483, -0.37969112, -0.38665843, 9.426018
94701083216213, 0.32303107, 7.2299137, 7.8089767, 0.38943172, 0.34192228, 10.634262
94701092856525, 0.11724831, 5.588437, 7.5230346, -0.38908434, -0.41751504, 9.354929
94701102496838, 0.32422748, 7.146165, 7.6606216, 0.4164567, 0.35905576, 10.46688
94701112137150, 0.15194423, 5.8169518, 7.519445, -0.27205634, -0.2929821, 9.49959
94701121777463, 0.23569304, 6.7812595, 7.68455, 0.17476106, 0.16787243, 10.24864
94701131417775, 0.18305093, 6.38764, 7.6570325, -0.036046505, -0.027417421, 9.973141
94701141058192, 0.106480606, 6.218946, 7.5290165, -0.12471652, -0.022221565, 9.765075
94701150698505, 0.25124636, 6.882954, 7.6402826, 0.25526977, 0.23854017, 10.280567
94701160338817, 0.09810573, 5.751149, 7.5673018, -0.363909, -0.32250667, 9.4927845
94701169979130, 0.27996024, 7.219146, 7.8017983, 0.36549854, 0.33878255, 10.621401
94701179619442, 0.02632105, 5.548956, 7.5314093, -0.50054145, -0.38304257, 9.333621
94701189259755, 0.2548356, 7.1485577, 7.63789, 0.38856506, 0.38307452, 10.45019
94701198900067, 0.14596218, 5.7391853, 7.469196, -0.29939675, -0.3045094, 9.410955
94701208540380, 0.2943172, 6.829116, 7.6271224, 0.27724195, 0.17525649, 10.236641
94701218180692, 0.19740787, 6.2715883, 7.6163545, -0.067195654, -0.09045434, 9.867521
94701227821005, 0.14117654, 6.2919273, 7.5792656, -0.08461952, -0.024627686, 9.851183
94701237461421, 0.2440679, 6.849455, 7.597212, 0.25537157, 0.23489285, 10.226038
94701247101734, 0.09212367, 5.782256, 7.499106, -0.32507634, -0.26439047, 9.460655
94701256742046, 0.31226337, 7.186843, 7.753942, 0.38925982, 0.32336545, 10.5648365
94701266382359, 0.096909314, 5.5573306, 7.560123, -0.44104695, -0.45464277, 9.362027
94701276022671, 0.27038896, 7.160522, 7.7012997, 0.35360026, 0.38279605, 10.506409
94701285662984, 0.08733802, 5.7116675, 7.5110703, -0.3492117, -0.3269825, 9.424335
94701295303296, 0.23808585, 6.873383, 7.6402826, 0.21754909, 0.24593282, 10.274541
94701304943609, 0.18305093, 6.2440705, 7.60798, -0.078980446, -0.09998131, 9.84312
94701314584025, 0.1591227, 6.3792653, 7.5924263, -0.03861046, 0.0034322739, 9.917852
94701324224338, 0.25842485, 6.79442, 7.6031938, 0.22441983, 0.1986661, 10.19557
94701333864650, 0.1160519, 5.8301125, 7.4333034, -0.25599408, -0.23205948, 9.441308
94701343504963, 0.3182454, 7.133004, 7.6809607, 0.39292598, 0.32539606, 10.474632
94701353145275, 0.07178468, 5.538188, 7.509874, -0.4547124, -0.41547728, 9.311042
94701362785588, 0.31345975, 7.2011995, 7.7001033, 0.41205359, 0.35552192, 10.533325
94701372426005, 0.11964113, 5.7248282, 7.521838, -0.33654976, -0.33354473, 9.441478
94701382066317, 0.2321038, 6.963114, 7.7300134, 0.23089075, 0.24300122, 10.400941
94701391706630, 0.17228323, 6.1806607, 7.719246, -0.1734147, -0.18897867, 9.886922
94701401346942, 0.16510476, 6.5515485, 7.6546397, 0.016858816, 0.07484889, 10.07659
94701410987255, 0.16630118, 6.3696938, 7.5469627, -0.019285917, 0.01753068, 9.877076
94701420627567, 0.17347965, 6.4474607, 7.57448, 0.00889349, 0.045263767, 9.948389
94701430267984, 0.20697916, 6.3625154, 7.5756764, -0.0017220974, -0.029631376, 9.895174
94701439908296, 0.23688944, 6.407979, 7.570891, 0.04427576, -0.016770601, 9.921413
94701449548609, 0.25004998, 6.364908, 7.5613194, 0.038990974, -0.046476603, 9.886581
94701459188921, 0.23808585, 6.424729, 7.576873, 0.048713446, -0.008801937, 9.936819
94701468829234, 0.21296121, 6.3996043, 7.5326056, 0.031143427, 0.012151957, 9.886321
94701478469650, 0.16749759, 6.4331036, 7.5182486, 0.01103282, 0.066613674, 9.896079
94701488109963, 0.13998012, 6.4606214, 7.537391, -0.005824089, 0.08734131, 9.927932
94701497750275, 0.1160519, 6.4331036, 7.6067834, -0.06267285, 0.045915604, 9.962701
94701507390588, 0.12083755, 6.442675, 7.6127653, -0.054062128, 0.043761253, 9.973564
94701517030900, 0.16031912, 6.463014, 7.628319, -0.016560078, 0.026546478, 9.999327
94701526671317, 0.2213361, 6.4343, 7.6019974, 0.032886744, -0.012174606, 9.961845
94701536311630, 0.26679972, 6.4366927, 7.5900335, 0.075875044, -0.03015709, 9.955106
94701545951942, 0.25124636, 6.4343, 7.62114, 0.048319817, -0.03818631, 9.97704
94701555592255, 0.21415763, 6.4008007, 7.647461, -0.0071861744, -0.05259323, 9.974815
94701565232567, 0.19740787, 6.375676, 7.5828547, -0.008610487, -0.025336742, 9.908945
94701574872984, 0.16869399, 6.3828545, 7.530213, -0.009830236, 0.020910025, 9.872835
94701584513296, 0.12203395, 6.3972116, 7.524231, -0.039601326, 0.05985117, 9.876646
94701594153609, 0.15433706, 6.407979, 7.5625157, -0.02421546, 0.026768446, 9.913444
94701603793921, 0.19142582, 6.413961, 7.5864444, 4.9996376E-4, -0.0045273304, 9.936281
94701613434338, 0.20458634, 6.452246, 7.5936227, 0.024716616, 0.008823395, 9.966732
94701623074650, 0.17347965, 6.4642105, 7.570891, 0.011875391, 0.045552254, 9.95652
94701632714963, 0.16630118, 6.4366927, 7.5673018, -0.0046384335, 0.033643246, 9.935872
94701642355275, 0.2117648, 6.4343, 7.600801, 0.01971817, -0.011005402, 9.960759
94701651995588, 0.23090738, 6.452246, 7.629515, 0.032860756, -0.024638176, 9.994631
94701661636005, 0.20338993, 6.422336, 7.5924263, 0.011006594, -0.009444714, 9.946482
94701671276317, 0.1902294, 6.4151573, 7.576873, 0.0023612976, 4.3439865E-4, 9.929726
94701680916630, 0.20458634, 6.4271216, 7.542177, 0.031440973, 0.019565582, 9.911248
94701690556942, 0.16749759, 6.4055862, 7.5349984, -0.0057063103, 0.027977467, 9.891156
94701700197359, 0.15074782, 6.3924255, 7.530213, -0.02387619, 0.02986002, 9.878688
94701709837671, 0.18305093, 6.4163537, 7.548159, 0.0066246986, 0.018544674, 9.908452
94701719477984, 0.20219351, 6.4498534, 7.5696945, 0.028196335, 0.01834631, 9.94689
94701729118296, 0.19262223, 6.4462643, 7.5792656, 0.014451742, 0.01609373, 9.951696
94701738758713, 0.19262223, 6.4438715, 7.5661054, 0.017559767, 0.021404743, 9.940108
94701748399025, 0.1902294, 6.4354963, 7.5756764, 0.00864768, 0.012218475, 9.941954
94701758039338, 0.16390835, 6.4474607, 7.6307116, -0.029129505, 0.0053830147, 9.991171
94701767679650, 0.13878371, 6.4127645, 7.6163545, -0.05729413, 0.0044665337, 9.957327
94701777320067, 0.15553348, 6.411568, 7.6259255, -0.04755044, -0.011079788, 9.964176
94701786960380, 0.19262223, 6.4498534, 7.6462646, -0.007247448, -0.018360376, 10.005133
94701796600692, 0.23090738, 6.4438715, 7.5828547, 0.045792103, -0.010312557, 9.953606
94701806241109, 0.21655045, 6.4414787, 7.5517483, 0.043297052, 0.011815071, 9.928063
94701815881421, 0.21535404, 6.4271216, 7.493124, 0.057630777, 0.033806324, 9.8740425
94701825521734, 0.21296121, 6.418747, 7.487142, 0.05399847, 0.032778263, 9.864024
94701835162046, 0.16869399, 6.4271216, 7.5314093, 0.0037546158, 0.039248466, 9.90237
94701844802463, 0.12083755, 6.4055862, 7.5816584, -0.06321025, 0.02486229, 9.925879
94701854442775, 0.13758731, 6.458228, 7.6570325, -0.054621696, 0.009812355, 10.017718
94701864083088, 0.1794617, 6.4366927, 7.652247, -0.024499178, -0.024521828, 10.000946
94701873723400, 0.19740787, 6.428318, 7.643872, -0.009785414, -0.035333157, 9.989479
94701883363817, 0.19980069, 6.4570317, 7.5924263, 0.022107124, 0.009219646, 9.968826
94701893004130, 0.18783657, 6.4474607, 7.533802, 0.029307604, 0.039577484, 9.9177
94701902644442, 0.19501504, 6.4414787, 7.4584284, 0.060415983, 0.0720067, 9.856469
94701912284859, 0.17587246, 6.3924255, 7.466803, 0.021649122, 0.045033693, 9.830803
94701921925171, 0.15433706, 6.384051, 7.550552, -0.030510187, 0.005923748, 9.888874
94701931565484, 0.18424734, 6.4067826, 7.6067834, -0.015924692, -0.025339127, 9.947014
94701941205796, 0.19740787, 6.445068, 7.59123, 0.016386986, 4.3916702E-4, 9.960139
94701950846213, 0.20937198, 6.439086, 7.600801, 0.020984411, -0.01403904, 9.963795
94701960486525, 0.19501504, 6.4414787, 7.63789, -0.0044281483, -0.024368763, 9.99337
94701970126838, 0.15553348, 6.4606214, 7.6271224, -0.02528739, 0.015283585, 9.996798
94701979767255, 0.148355, 6.445068, 7.578069, -0.01959157, 0.03530836, 9.949192
94701989407567, 0.15194423, 6.4151573, 7.5613194, -0.022285223, 0.021077633, 9.917154
94701999047880, 0.17826529, 6.4354963, 7.5661054, 0.006403446, 0.016536474, 9.934437
94702008688192, 0.1902294, 6.4259253, 7.5613194, 0.014054537, 0.0062983036, 9.924817
94702018328609, 0.16390835, 6.4163537, 7.5625157, -0.011980772, 0.013514996, 9.919062
94702027968921, 0.15433706, 6.4211397, 7.576873, -0.022550821, 0.013965368, 9.932933
94702037609234, 0.15672988, 6.4343, 7.5661054, -0.011264324, 0.026131153, 9.933274
94702047249650, 0.20578274, 6.4414787, 7.5828547, 0.026171684, -0.005623102, 9.951581
94702056889963, 0.23808585, 6.471389, 7.578069, 0.06474924, -0.002304554, 9.967874
94702066530275, 0.20937198, 6.4414787, 7.580462, 0.025710821, -0.007247925, 9.949833
94702076170588, 0.15553348, 6.4343, 7.609176, -0.032832384, 0.0018515587, 9.966087
94702085811005, 0.16510476, 6.428318, 7.5996046, -0.025545597, -0.0029349327, 9.955093
94702095451317, 0.17228323, 6.4211397, 7.5553374, -0.00629282, 0.012211323, 9.916838
94702105091630, 0.16749759, 6.4175506, 7.5469627, -0.0092628, 0.016421795, 9.908041
94702114732046, 0.1902294, 6.428318, 7.5050883, 0.02911067, 0.032846928, 9.883516
94702124372359, 0.19501504, 6.437889, 7.470392, 0.049347162, 0.0545609, 9.863356
94702134012671, 0.20458634, 6.4055862, 7.4883385, 0.036141157, 0.018469334, 9.856316
94702143653088, 0.1902294, 6.407979, 7.524231, 0.012022257, 0.0085988045, 9.884949
94702153293400, 0.1794617, 6.430711, 7.5433736, 0.00493145, 0.019516706, 9.914048
94702162933713, 0.18185452, 6.4271216, 7.635497, -0.030522346, -0.031565428, 9.981977
94702172574130, 0.20578274, 6.4534426, 7.692925, -0.022215128, -0.05835986, 10.043232
94702182214442, 0.19142582, 6.4570317, 7.647461, -0.01291132, -0.02364707, 10.010636
94702191854755, 0.16390835, 6.4163537, 7.578069, -0.02606678, 0.002927065, 9.930907
94702201495171, 0.16869399, 6.385247, 7.5409803, -0.021880388, -0.0019109249, 9.882599
94702211135484, 0.21774685, 6.4163537, 7.5409803, 0.03093648, -0.011661768, 9.90365
94702220775796, 0.24526432, 6.4402823, 7.521838, 0.070366144, -0.0021054745, 9.905075
94702230416109, 0.22612174, 6.468996, 7.4715886, 0.085567474, 0.052744627, 9.885017
94702240056525, 0.15792629, 6.509674, 7.448857, 0.054423094, 0.12925458, 9.8927555
94702249696838, 0.11844472, 6.468996, 7.483553, -0.006948471, 0.1066668, 9.892121
94702259337150, 0.104087785, 6.4235325, 7.5900335, -0.07890558, 0.030164242, 9.943544
94702268977567, 0.15194423, 6.3888364, 7.719246, -0.10114646, -0.08715272, 10.020442
94702278617880, 0.20458634, 6.3948183, 7.719246, -0.05475998, -0.1133554, 10.025291
94702288258192, 0.25004998, 6.363712, 7.618747, 0.0093688965, -0.10461807, 9.929432
94702297898609, 0.3074777, 6.4008007, 7.4452677, 0.13591313, -0.017846346, 9.822321
94702307538921, 0.31106696, 6.463014, 7.3926253, 0.17954993, 0.04621291, 9.822619
94702317179234, 0.20697916, 6.471389, 7.422536, 0.08505607, 0.09288669, 9.848852
94702326819650, 0.07058827, 6.4594245, 7.536195, -0.07513857, 0.09736776, 9.925133
94702336459963, 0.029910283, 6.4606214, 7.664211, -0.15519714, 0.052473545, 10.022665
94702346100275, 0.1052842, 6.4869423, 7.6917286, -0.08755875, 0.012379646, 10.062126
94702355740588, 0.16271193, 6.4761744, 7.5613194, 0.007659197, 0.03953886, 9.956869
94702365381005, 0.18783657, 6.4570317, 7.476374, 0.05220318, 0.05868411, 9.880211
94702375021317, 0.25962126, 6.439086, 7.503892, 0.0921545, -0.009581327, 9.890858
