timestamp_acc,device_acc_x,device_acc_y,device_acc_z,earth_acc_x,earth_acc_y,earth_acc_z
94654796116027, 0.3278167, 5.9210396, 7.753942, 0.013548851, 0.12003422, 9.760901
94654805756132, 0.39960137, 5.9521465, 7.8221374, 0.057860613, 0.064287186, 9.836975
94654815396236, 0.39840496, 5.962914, 7.897511, 0.032429457, 0.037889242, 9.9037
94654825036340, 0.40917268, 5.9676995, 7.9716887, 0.011632919, 0.0024650097, 9.966372
94654834676444, 0.4223332, 5.977271, 8.062616, -0.013567209, -0.03459263, 10.0454235
94654844316548, 0.51086766, 6.0047884, 8.136793, 0.03736782, -0.106684685, 10.124874
94654853956652, 0.51565325, 5.99761, 8.10449, 0.046266317, -0.09581351, 10.094983
94654863596757, 0.4977071, 5.9964137, 8.01117, 0.069945574, -0.04495263, 10.018814
94654873236965, 0.48933223, 5.9712887, 7.9429746, 0.077769995, -0.024365664, 9.948866
94654882877069, 0.41515473, 5.9377894, 7.8831544, 0.029403687, 0.029104471, 9.87786
94654892517173, 0.41515473, 5.9234324, 7.9070826, 0.012540579, 0.009904146, 9.888434
94654902157277, 0.38165522, 5.9246287, 7.925029, -0.020216703, 0.023097277, 9.9021225
94654911797382, 0.3361916, 5.9090757, 7.9429746, -0.07051754, 0.03246045, 9.905304
94654921437486, 0.32542387, 5.84088, 8.018349, -0.14061975, -0.04049158, 9.924429
94654931077590, 0.3481557, 5.8731833, 8.080562, -0.12593699, -0.059228897, 9.994579
94654940717694, 0.36729828, 5.910272, 8.04467, -0.07541132, -0.029536963, 9.988813
94654950357798, 0.36370903, 5.9748783, 7.9334035, -0.004303932, 0.06501913, 9.938114
94654959997902, 0.40438703, 5.9748783, 7.8580294, 0.057913303, 0.07455659, 9.879394
94654969638111, 0.45583272, 5.9449677, 7.8017983, 0.10477495, 0.04544854, 9.818628
94654979278215, 0.47377887, 5.986842, 7.771888, 0.14287639, 0.06852126, 9.820586
94654988918319, 0.48095736, 6.046663, 7.830512, 0.15085483, 0.073685646, 9.903645
94654998558423, 0.54317075, 6.046663, 7.9274216, 0.15921688, -0.008602142, 9.983774
94655008198527, 0.5084748, 6.0323057, 8.007581, 0.08825827, -0.030813932, 10.037922
94655017838632, 0.4989035, 6.0251274, 8.023134, 0.071033716, -0.03597021, 10.045667
94655027478736, 0.47976094, 5.9964137, 8.007581, 0.04700303, -0.03481841, 10.015243
94655037118840, 0.4354937, 5.973682, 7.9501534, 0.021674395, 0.0026807785, 9.953844
94655046758944, 0.36610186, 5.9760747, 7.8867435, -0.0049591064, 0.075244665, 9.901643
94655056399048, 0.39720857, 5.956932, 7.880761, 0.010731459, 0.043911934, 9.886717
94655066039257, 0.3804588, 5.912665, 7.884351, -0.025851011, 0.023102999, 9.86236
94655075679361, 0.40677986, 5.9413786, 7.905886, -4.556179E-4, 0.015349627, 9.897892
94655085319465, 0.32422748, 5.8827543, 7.989635, -0.12860036, -0.013106346, 9.926203
94655094959569, 0.3469593, 5.8193445, 7.9908314, -0.14136147, -0.06745052, 9.890097
94655104599673, 0.34337005, 5.8707905, 8.017152, -0.12720609, -0.04331088, 9.941868
94655114239777, 0.33499518, 5.930611, 8.053044, -0.116894245, -0.015712738, 10.006098
94655123879882, 0.39601216, 5.9342003, 8.023134, -0.05216551, -0.037124395, 9.986898
94655133519986, 0.3589234, 5.9437714, 7.9597244, -0.052886248, 0.02052641, 9.940384
94655143160090, 0.3912265, 5.9952173, 7.9310107, 0.00876689, 0.048625946, 9.949581
94655152800194, 0.40558344, 5.9844494, 7.925029, 0.01794982, 0.03543043, 9.938947
94655162440402, 0.39601216, 5.973682, 7.899904, 0.014258146, 0.044878006, 9.912011
94655172080507, 0.4331009, 5.956932, 7.9357963, 0.023119926, -0.0052568913, 9.932217
94655181720611, 0.45224348, 5.9353967, 7.9800634, 0.013442755, -0.051491022, 9.955503
94655191360715, 0.4426722, 5.946164, 7.9908314, 0.010515213, -0.042404413, 9.970171
94655201000819, 0.39720857, 5.948557, 7.8927255, 0.013568163, 0.031285286, 9.891261
94655210640923, 0.40917268, 5.899504, 7.836494, 0.02243781, 0.017817974, 9.817403
94655220281027, 0.37328035, 5.928218, 7.816155, 0.014400005, 0.06645107, 9.816861
94655229921132, 0.42711884, 5.9557357, 7.865208, 0.051567554, 0.03039956, 9.874773
94655239561236, 0.39960137, 5.912665, 7.9298143, -0.01568842, -0.012618542, 9.899538
94655249201340, 0.36610186, 5.9353967, 7.941778, -0.03963828, 0.016533375, 9.92134
94655258841548, 0.4211368, 5.9473605, 7.9597244, 0.0014398098, -0.016100645, 9.94512
94655268481652, 0.44506502, 5.98086, 8.021938, 0.011784792, -0.03655362, 10.015926
94655278121757, 0.42711884, 5.983253, 8.023134, -0.0020403862, -0.024918556, 10.017574
94655287761861, 0.35533416, 5.9844494, 8.009974, -0.05246067, 0.025762558, 10.004807
94655297401965, 0.39361933, 5.9437714, 8.018349, -0.043579817, -0.028075933, 9.988723
94655307042069, 0.36251262, 5.956932, 7.9573317, -0.0333879, 0.027793169, 9.946543
94655316682173, 0.3684947, 5.9748783, 7.844869, 0.022797108, 0.088008404, 9.867557
94655326322277, 0.41635114, 5.9270215, 7.88794, 0.025722027, 0.0079956055, 9.875314
94655335962382, 0.38644084, 5.8863435, 7.928618, -0.031658173, -0.019174814, 9.882308
94655345602486, 0.39720857, 5.8839507, 7.962117, -0.03725314, -0.04129672, 9.908121
94655355242694, 0.3792624, 5.881558, 7.954939, -0.049137115, -0.027647495, 9.900225
94655364882798, 0.3696911, 5.889933, 7.9238324, -0.039870262, -0.001316309, 9.879955
94655374522902, 0.36370903, 5.9377894, 7.920243, -0.019557953, 0.035362244, 9.905465
94655384163007, 0.4127619, 5.953343, 7.9034934, 0.031953096, 0.021686316, 9.903353
94655393803111, 0.4103691, 5.960521, 7.9154572, 0.02884531, 0.022353888, 9.917126
94655403443215, 0.41635114, 5.9581285, 7.9011, 0.036407232, 0.023800135, 9.904449
94655413083319, 0.4354937, 5.968896, 7.941778, 0.04021597, 1.6140938E-4, 9.944223
94655422723423, 0.4103691, 6.047859, 7.90469, 0.07377529, 0.083060026, 9.960763
94655432363527, 0.45942193, 6.067002, 7.8963146, 0.12447953, 0.067634344, 9.967512
94655442003632, 0.47138608, 6.033502, 8.003992, 0.07156968, -0.011536598, 10.034141
94655451643736, 0.44626144, 6.0011992, 7.9944205, 0.04020071, -0.011868238, 10.0061245
94655461283944, 0.41515473, 5.892326, 7.945368, -0.01666236, -0.039260387, 9.900449
94655470924048, 0.36131623, 5.8827543, 7.928618, -0.054150105, -0.0026896, 9.879139
94655480564152, 0.35174492, 5.8887367, 7.9274216, -0.055050373, 0.0098080635, 9.881388
94655490204257, 0.36011982, 5.8600225, 7.914261, -0.059346676, -0.007928848, 9.85401
94655499844361, 0.37088752, 5.892326, 7.865208, -0.014498472, 0.026284218, 9.834513
94655509484465, 0.3505485, 5.8971114, 7.8460655, -0.022470713, 0.050031662, 9.821229
94655519124569, 0.37686956, 5.919843, 7.9070826, -0.022759676, 0.017927408, 9.884721
94655528764673, 0.42592242, 5.9880385, 7.9680996, 0.02320218, 0.0026962757, 9.976377
94655538404777, 0.44506502, 6.0251274, 7.978867, 0.051754713, 0.009290695, 10.007987
94655548044882, 0.45822555, 6.0215383, 7.958528, 0.07130575, 0.0076904297, 9.990093
94655557684986, 0.46660042, 6.0167527, 8.036295, 0.04422283, -0.035271645, 10.049771
94655567325090, 0.4941179, 6.0047884, 8.048259, 0.056369543, -0.06475973, 10.053296
94655576965298, 0.46779683, 5.9641104, 7.966903, 0.05012369, -0.03707385, 9.962787
94655586605402, 0.43788654, 5.946164, 7.881958, 0.052637815, 0.007366419, 9.882866
94655596245507, 0.37088752, 5.9653068, 7.856833, 0.020841122, 0.073610544, 9.871494
94655605885611, 0.39601216, 5.9521465, 7.7994056, 0.05491042, 0.07212782, 9.818726
94655615525715, 0.37088752, 5.9270215, 7.780263, 0.028803587, 0.07944393, 9.787363
94655625165819, 0.34576288, 5.889933, 7.773084, -0.0070335865, 0.0754354, 9.758379
94655634805923, 0.317049, 5.851648, 7.793423, -0.05807829, 0.057561398, 9.750542
94655644446027, 0.33020952, 5.8743796, 7.8580294, -0.06358147, 0.03416848, 9.816354
94655654086132, 0.3696911, 5.9437714, 7.938189, -0.03149867, 0.018497467, 9.923637
94655663726236, 0.39840496, 6.017949, 8.023134, -0.0075933933, 0.010129929, 10.03718
94655673366340, 0.4869394, 6.0083776, 8.073383, 0.03794384, -0.06980753, 10.075262
94655683006444, 0.47258246, 5.9904313, 8.109276, 0.0031175613, -0.08749032, 10.092636
94655692646548, 0.41754755, 5.983253, 8.094919, -0.039093733, -0.052787066, 10.074575
94655702286652, 0.4546363, 5.9904313, 8.072187, 0.004663229, -0.055454254, 10.06226
94655711926861, 0.47736812, 5.983253, 8.006385, 0.046009064, -0.042795897, 10.006271
94655721566965, 0.43669012, 5.99761, 7.8927255, 0.06438112, 0.042820692, 9.922256
94655731207069, 0.40677986, 5.9641104, 7.8197446, 0.053180218, 0.07231784, 9.842583
94655740847173, 0.3900301, 5.905486, 7.810173, 0.016288996, 0.04366851, 9.799158
94655750487277, 0.3792624, 5.877969, 7.798209, -3.3164024E-4, 0.037534952, 9.772667
94655760127382, 0.39960137, 5.907879, 7.8317084, 0.016784191, 0.028203964, 9.8182125
94655769767486, 0.4235296, 5.9437714, 7.8783684, 0.03261161, 0.015856028, 9.8780155
94655779407590, 0.43070808, 5.9294147, 7.8963146, 0.024870872, -0.006127119, 9.884059
94655789047694, 0.3804588, 5.9114685, 7.9573317, -0.05269742, -0.014475584, 9.919997
94655798687798, 0.39601216, 5.940182, 8.033902, -0.05709219, -0.039800167, 9.999066
94655808327902, 0.38524446, 5.9916277, 8.042277, -0.044265747, -0.0017774105, 10.036148
94655817968007, 0.38763726, 6.007181, 8.01117, -0.019808054, 0.023414612, 10.020699
94655827608111, 0.5204389, 6.1770716, 8.122437, 0.12563968, 0.002414465, 10.216911
94655837248215, 0.27756742, 5.619544, 7.8520474, -0.21968007, -0.08365822, 9.6568985
94655846888319, 0.5706882, 6.4761744, 8.10449, 0.3217013, 0.16827917, 10.38352
94655856528423, 0.18424734, 5.2510495, 7.5864444, -0.35860634, -0.14153767, 9.220249
94655866168527, 0.6041877, 6.695118, 8.098508, 0.45806885, 0.29029894, 10.511013
94655875808736, 0.21415763, 5.1469617, 7.564909, -0.38947797, -0.22343946, 9.141296
94655885448840, 0.42831525, 6.556334, 7.954939, 0.30046558, 0.37332416, 10.306327
94655895088944, 0.34576288, 5.4388857, 7.757531, -0.22495508, -0.19909072, 9.475763
94655904729048, 0.39361933, 6.192625, 8.013563, 0.0682013, 0.12819028, 10.134083
94655914369152, 0.5276174, 6.0167527, 8.0614195, 0.06350899, -0.08574772, 10.072477
94655924009257, 0.34097722, 5.7260246, 7.880761, -0.14868641, -0.0682559, 9.745935
94655933649361, 0.6652047, 6.558727, 8.292327, 0.34194636, 0.06751251, 10.587757
94655943289465, 0.28235307, 5.3012986, 7.8460655, -0.39507318, -0.27176046, 9.461201
94655952929569, 0.70229346, 6.759724, 8.348558, 0.45610785, 0.15773368, 10.75419
94655962569673, 0.25244278, 5.2223353, 7.6893353, -0.38337922, -0.24003673, 9.287508
94655972209777, 0.5192425, 6.631708, 7.969296, 0.4110279, 0.3557682, 10.366451
94655981849882, 0.2428715, 5.3587265, 7.6031938, -0.28231144, -0.12241602, 9.299936
94655991489986, 0.29910284, 6.181857, 7.8089767, 0.08010149, 0.27403164, 9.960093
94656001130090, 0.42711884, 5.881558, 7.867601, 0.011923552, -0.021615982, 9.832277
94656010770194, 0.21535404, 5.6590257, 7.7240314, -0.20562744, 0.0298841, 9.575408
94656020410298, 0.5383851, 6.390033, 8.070991, 0.25928545, 0.14376569, 10.304142
94656030050402, 0.17826529, 5.2809596, 7.7503524, -0.43539906, -0.1871407, 9.368227
94656039690507, 0.6580262, 6.765706, 8.426325, 0.3985505, 0.14382005, 10.818096
94656049330611, 0.2955136, 5.1649075, 7.8699937, -0.44207883, -0.3898158, 9.399629
94656058970715, 0.60777694, 6.660422, 8.213364, 0.40198874, 0.20224977, 10.582413
94656068610819, 0.36610186, 5.383851, 7.7826557, -0.2415657, -0.2540381, 9.46397
94656078250923, 0.37208393, 6.3397837, 7.9357963, 0.17332864, 0.27728844, 10.158799
94656087891027, 0.48095736, 5.9353967, 7.84128, 0.09863138, -0.0067031384, 9.845615
94656097531132, 0.2739782, 5.784649, 7.641479, -0.05990696, 0.111631155, 9.587147
94656107171236, 0.55513483, 6.3493547, 7.944171, 0.30640936, 0.15923142, 10.179053
94656116811340, 0.19740787, 5.271388, 7.628319, -0.36286807, -0.16966486, 9.265923
94656126451444, 0.613759, 6.680761, 8.251649, 0.38292265, 0.19285226, 10.626154
94656136091548, 0.17826529, 5.1266227, 7.7419777, -0.49833655, -0.297194, 9.269067
94656145731652, 0.5240282, 6.6388865, 8.258827, 0.29352784, 0.22030115, 10.60297
94656155371757, 0.2620141, 5.2953167, 7.926225, -0.42304754, -0.3189261, 9.521209
94656165011861, 0.3900301, 6.3218374, 8.147561, 0.087449074, 0.1550157, 10.318373
94656174651965, 0.40797627, 5.79422, 8.048259, -0.10979891, -0.14269471, 9.923783
94656184292069, 0.24047868, 5.845666, 7.830512, -0.12889194, 0.091881275, 9.773509
94656193932173, 0.5419743, 6.3254266, 7.9800634, 0.28050542, 0.13755822, 10.192574
94656203572277, 0.20219351, 5.3682976, 7.5661054, -0.28433967, -0.079520464, 9.274605
94656213212382, 0.66999036, 6.719046, 8.132008, 0.50282454, 0.24316788, 10.555191
94656222852486, 0.25603202, 5.1852465, 7.5828547, -0.33750796, -0.24376416, 9.180344
94656232492590, 0.6329016, 6.6891356, 8.075776, 0.4800973, 0.26532722, 10.491062
94656242132694, 0.3684947, 5.328816, 7.752745, -0.2508099, -0.28599358, 9.407042
94656251772798, 0.49052864, 6.4905314, 8.084151, 0.27035975, 0.21944714, 10.373037
94656261412902, 0.44506502, 5.808577, 7.960921, -0.0569036, -0.121766806, 9.863866
94656271053007, 0.29192436, 5.9150577, 7.9310107, -0.10131955, 0.06141925, 9.897475
94656280693111, 0.5168497, 6.2787666, 8.141579, 0.16410017, 0.044015408, 10.29303
94656290333215, 0.17108682, 5.3443694, 7.77787, -0.42141175, -0.13476944, 9.428206
94656299973319, 0.6017949, 6.6041903, 8.301898, 0.3313315, 0.11251402, 10.619631
94656309613423, 0.17108682, 5.1218367, 7.6809607, -0.48461485, -0.23829842, 9.217809
94656319253527, 0.58983076, 6.707082, 8.075776, 0.47050023, 0.2855091, 10.49991
94656328893632, 0.28115666, 5.2402816, 7.598408, -0.31321192, -0.20725822, 9.226826
94656338533736, 0.5024927, 6.4474607, 7.9800634, 0.3202381, 0.22184038, 10.264108
94656348173840, 0.4019942, 5.6745787, 7.9034934, -0.11882138, -0.15309477, 9.736021
94656357813944, 0.32422748, 6.0119667, 7.8484583, 0.012419701, 0.1301403, 9.890909
94656367454048, 0.58265233, 6.24766, 8.031509, 0.25072718, 0.029993773, 10.188922
94656377094152, 0.1902294, 5.4867425, 7.6570325, -0.27531528, -0.028199196, 9.417753
94656386734257, 0.587438, 6.6305118, 8.203793, 0.370008, 0.19063735, 10.556408
94656396374361, 0.17347965, 5.151747, 7.756335, -0.5130043, -0.26029468, 9.295181
94656406014465, 0.5778667, 6.7178497, 8.230113, 0.40558076, 0.22762108, 10.6292925
94656415654569, 0.23569304, 5.1996036, 7.7204423, -0.41601253, -0.2571628, 9.298249
94656425294673, 0.45702913, 6.4821568, 8.112865, 0.2407968, 0.22103405, 10.389367
94656434934777, 0.38883367, 5.6267223, 7.958528, -0.18601203, -0.20104885, 9.750607
94656444574882, 0.35174492, 6.026324, 7.8927255, 0.017888784, 0.09763694, 9.936075
94656454214986, 0.5491528, 6.1603217, 7.978867, 0.19849682, 0.010846138, 10.093264
94656463855090, 0.25842485, 5.4987063, 7.676175, -0.2304306, -0.072371244, 9.442876
94656473495194, 0.61854464, 6.573084, 8.172686, 0.37803555, 0.14302135, 10.49845
94656483135298, 0.15792629, 5.156533, 7.6067834, -0.44849086, -0.19309616, 9.178208
94656492775298, 0.53599226, 6.7334027, 8.042277, 0.44627833, 0.34881783, 10.487298
94656502415402, 0.1698904, 5.252246, 7.4859457, -0.34140253, -0.09464073, 9.13941
94656512055507, 0.45104706, 6.5371914, 7.9011, 0.33720136, 0.35037327, 10.253255
94656521695611, 0.37447673, 5.6039906, 7.816155, -0.13801241, -0.1523552, 9.622628
94656531335715, 0.3696911, 6.1627145, 7.9597244, 0.056810617, 0.1431315, 10.072202
94656540975819, 0.56111693, 6.141179, 8.09133, 0.13947678, -0.049191713, 10.172349
94656550615923, 0.3182454, 5.5740805, 7.8496547, -0.22745252, -0.15495372, 9.628758
94656560256027, 0.70588267, 6.5407805, 8.364112, 0.3352542, 0.0010480881, 10.636075
94656569896132, 0.26081768, 5.2163534, 7.928618, -0.46632433, -0.38916802, 9.474831
94656579536236, 0.58504516, 6.7166533, 8.372486, 0.31561732, 0.1872096, 10.743349
94656589176340, 0.21535404, 5.1613183, 7.7204423, -0.44185114, -0.29045844, 9.274222
94656598816444, 0.43788654, 6.582655, 8.006385, 0.29784846, 0.3469069, 10.3641815
94656608456548, 0.2883351, 5.517849, 7.704889, -0.2146604, -0.102473974, 9.478319
94656618096652, 0.30867413, 6.1028943, 7.8113694, 0.048549414, 0.20671415, 9.915292
94656627736757, 0.4426722, 5.968896, 7.8257265, 0.07638383, 0.028550863, 9.851852
94656637376861, 0.23449662, 5.6183476, 7.587641, -0.1583054, 0.049779892, 9.442751
94656647016965, 0.6269195, 6.518049, 8.072187, 0.38734722, 0.14102888, 10.385966
94656656656965, 0.24885355, 5.272585, 7.6426754, -0.3530326, -0.19943428, 9.2794485
94656666297069, 0.68195444, 6.762117, 8.305488, 0.44573903, 0.15927696, 10.721397
94656675937173, 0.3481557, 5.235496, 7.798209, -0.36049294, -0.35159278, 9.385633
94656685577277, 0.58504516, 6.6532435, 8.232507, 0.3552692, 0.20081043, 10.593184
94656695217382, 0.3924229, 5.4759746, 7.9884386, -0.2792375, -0.305372, 9.684226
94656704857486, 0.40558344, 6.236892, 8.075776, 0.076984644, 0.12133193, 10.210819
94656714497590, 0.47856453, 5.9916277, 7.9657063, 0.054855585, -0.03489256, 9.978822
94656724137694, 0.25124636, 5.6650076, 7.6199436, -0.13924813, 0.055994272, 9.497182
94656733777798, 0.54436713, 6.4366927, 7.958528, 0.3288386, 0.19957185, 10.242926
94656743417902, 0.1698904, 5.2259245, 7.507481, -0.3785615, -0.121970415, 9.140199
94656753058007, 0.552742, 6.669993, 8.096115, 0.38871717, 0.27538443, 10.493546
94656762698111, 0.17228323, 5.1158547, 7.597212, -0.46152616, -0.23238277, 9.14616
94656772338215, 0.5395815, 6.643672, 8.120044, 0.35239792, 0.26017427, 10.496321
94656781978319, 0.3361916, 5.4341, 7.8831544, -0.2927742, -0.26435328, 9.572409
94656791618319, 0.36011982, 6.306284, 8.126026, 0.05043292, 0.16733193, 10.290805
94656801258423, 0.46181476, 5.953343, 8.147561, -0.059530735, -0.13043785, 10.100384
94656810898527, 0.2943172, 5.771488, 7.932207, -0.18526483, -0.042579174, 9.812261
94656820538632, 0.59342, 6.422336, 8.175078, 0.27086377, 0.06641269, 10.40926
94656830178736, 0.22492532, 5.282156, 7.728817, -0.39669132, -0.21276951, 9.353275
94656839818840, 0.61016977, 6.6927247, 8.233703, 0.40171266, 0.19758058, 10.6187725
94656849458944, 0.23330021, 5.1050873, 7.5900335, -0.42218256, -0.2672701, 9.13648
94656859099048, 0.5706882, 6.6592255, 7.9836526, 0.4615984, 0.30427456, 10.397308
94656868739152, 0.33260235, 5.3587265, 7.597212, -0.22904778, -0.17740226, 9.298401
94656878379257, 0.4426722, 6.3338017, 7.884351, 0.22622919, 0.2347138, 10.117793
94656888019361, 0.47377887, 5.895915, 7.8664045, 0.04088092, -0.052585125, 9.841858
94656897659465, 0.33379877, 5.9066825, 7.7479596, -0.018559217, 0.09540677, 9.74791
94656907299465, 0.6580262, 6.4462643, 8.082955, 0.3574245, 0.076318026, 10.35316
94656916939569, 0.22612174, 5.3479586, 7.7120676, -0.37025785, -0.16905212, 9.378812
94656926579673, 0.66041905, 6.678368, 8.312666, 0.3784449, 0.12744498, 10.676034
94656936219777, 0.24646074, 5.1349974, 7.7886376, -0.48540783, -0.35453677, 9.312922
94656945859882, 0.57427746, 6.695118, 8.19781, 0.37495875, 0.24791694, 10.590396
94656955499986, 0.27996024, 5.2929235, 7.77787, -0.37239337, -0.26703024, 9.400994
94656965140090, 0.39720857, 6.3493547, 8.065009, 0.12470126, 0.19448781, 10.269522
94656974780194, 0.35533416, 5.782256, 7.9633136, -0.14666057, -0.08348513, 9.846149
94656984420298, 0.22013968, 5.8193445, 7.7754774, -0.15010476, 0.10612512, 9.712748
94656994060402, 0.51206404, 6.3086767, 7.989635, 0.22747588, 0.13022566, 10.189561
94657003700507, 0.19980069, 5.4029937, 7.588837, -0.3018725, -0.05797553, 9.312799
94657013340507, 0.6556334, 6.6687965, 8.13799, 0.45197725, 0.18754625, 10.530439
94657022980611, 0.22731815, 5.1589255, 7.68455, -0.4428959, -0.27488708, 9.243741
94657032620715, 0.65922266, 6.710671, 8.224132, 0.43693256, 0.17667723, 10.62459
94657042260819, 0.357727, 5.302495, 7.810173, -0.31589055, -0.3229289, 9.436057
94657051900923, 0.506082, 6.445068, 8.122437, 0.23215723, 0.16514683, 10.377275
94657061541027, 0.43908295, 5.743971, 7.982456, -0.1053884, -0.16334224, 9.842144
94657071181132, 0.34456646, 5.9342003, 7.8831544, -0.0424881, 0.057572126, 9.872813
94657080821236, 0.60059845, 6.2727847, 8.042277, 0.2550738, 0.03057003, 10.213753
94657090461340, 0.18903299, 5.4053864, 7.6402826, -0.32675624, -0.065654755, 9.3550415
94657100101444, 0.57906306, 6.6017976, 8.1679, 0.34733033, 0.18890524, 10.5108185
94657109741444, 0.17467605, 5.144569, 7.6953177, -0.4916079, -0.24358344, 9.24197
94657119381548, 0.5814559, 6.7322063, 8.163115, 0.41884112, 0.2639706, 10.585461
94657129021652, 0.276371, 5.2666025, 7.641479, -0.33795214, -0.21426487, 9.276075
94657138661757, 0.45224348, 6.519245, 7.946564, 0.3067913, 0.30686522, 10.279331
94657148301861, 0.39960137, 5.68415, 7.905886, -0.13711572, -0.15114522, 9.743237
94657157941965, 0.31226337, 5.994021, 7.972885, -0.07620621, 0.07027125, 9.979075
94657167582069, 0.50129634, 6.155536, 8.135597, 0.08332229, -0.023438692, 10.213834
94657177222173, 0.15792629, 5.4412785, 7.735996, -0.365911, -0.078231335, 9.451882
94657186862277, 0.5694918, 6.552745, 8.2145605, 0.30564332, 0.15761995, 10.517773
94657196502382, 0.18544376, 5.130212, 7.685746, -0.47565055, -0.27215862, 9.226259
94657206142382, 0.6257231, 6.7262244, 8.153543, 0.4518168, 0.25595355, 10.5756445
94657215782486, 0.24885355, 5.2008, 7.584051, -0.3428979, -0.22398186, 9.19023
94657225422590, 0.52522457, 6.5455666, 7.932207, 0.36789966, 0.30429912, 10.2865095
94657235062694, 0.49052864, 5.682954, 7.8783684, -0.0567832, -0.20206285, 9.72426
94657244702798, 0.44865423, 6.145965, 7.9633136, 0.09822917, 0.08568072, 10.068345
94657254342902, 0.5814559, 6.209375, 8.082955, 0.18407536, -0.013648748, 10.207571
94657263983007, 0.2440679, 5.572884, 7.7180495, -0.24032354, -0.04018712, 9.519746
94657273623111, 0.66400826, 6.617351, 8.2253275, 0.39113498, 0.12893939, 10.56961
94657283263215, 0.22731815, 5.245067, 7.765906, -0.4310038, -0.25484705, 9.360608
94657292903319, 0.66161543, 6.7525454, 8.248059, 0.44063234, 0.20688891, 10.669027
94657302543319, 0.27876383, 5.1673007, 7.649854, -0.38521266, -0.28418517, 9.22333
94657312183423, 0.47258246, 6.471389, 8.031509, 0.24691367, 0.24748063, 10.319163
94657321823527, 0.32542387, 5.4819565, 7.8496547, -0.27294898, -0.20694232, 9.573793
94657331463632, 0.36251262, 6.0921264, 7.987242, -8.533001E-4, 0.100002766, 10.05144
94657341103736, 0.4761717, 6.101698, 8.030313, 0.07317877, 0.013941288, 10.096426
94657350743840, 0.19381863, 5.5968122, 7.628319, -0.22708869, 0.051481962, 9.460385
94657360383944, 0.6089734, 6.546763, 8.094919, 0.3753066, 0.18106413, 10.420414
94657370024048, 0.21535404, 5.3012986, 7.6977105, -0.37829208, -0.17682958, 9.339727
94657379664152, 0.6329016, 6.768099, 8.175078, 0.475595, 0.27084088, 10.617914
94657389304257, 0.22492532, 5.156533, 7.623533, -0.41726923, -0.24059677, 9.19384
94657398944257, 0.5491528, 6.6041903, 8.049456, 0.37576818, 0.2684765, 10.416206
94657408584361, 0.4103691, 5.521438, 7.8604226, -0.19621468, -0.23501611, 9.609746
94657418224465, 0.4331009, 6.178268, 8.021938, 0.08127999, 0.09106183, 10.133863
94657427864569, 0.5204389, 5.9545393, 8.039884, 0.027430534, -0.109111786, 10.017708
94657437504673, 0.28235307, 5.5908303, 7.786245, -0.22951555, -0.06810856, 9.586731
94657447144777, 0.64606214, 6.474978, 8.233703, 0.30581856, 0.05898404, 10.489977
94657456784882, 0.2835495, 5.2749777, 7.8197446, -0.39687586, -0.2794652, 9.424361
94657466424986, 0.6664011, 6.786045, 8.338987, 0.43089342, 0.18394136, 10.761677
94657476065090, 0.23330021, 5.180461, 7.752745, -0.45493436, -0.2714839, 9.312141
94657485705194, 0.53599226, 6.631708, 8.114061, 0.36346698, 0.26975608, 10.483318
94657495345194, 0.30269206, 5.456832, 7.765906, -0.2731936, -0.14932847, 9.4911
94657504985298, 0.36370903, 6.290731, 7.91785, 0.1496911, 0.25117874, 10.114962
94657514625402, 0.465404, 5.9030933, 7.9166536, 0.018068552, -0.054714203, 9.886011
94657524265507, 0.23808585, 5.599205, 7.6833534, -0.20877886, 0.011156559, 9.507788
94657533905611, 0.6053841, 6.344569, 8.066205, 0.28585792, 0.060343504, 10.276106
94657543545715, 0.20578274, 5.237889, 7.6773715, -0.4157939, -0.18664074, 9.285049
94657553185819, 0.634098, 6.7094746, 8.2660055, 0.4043796, 0.18001437, 10.655985
94657562825923, 0.23688944, 5.157729, 7.7276206, -0.44894624, -0.28242636, 9.278637
94657572466027, 0.5802595, 6.7202425, 8.19781, 0.39314103, 0.26226544, 10.605616
94657582106132, 0.37686956, 5.4412785, 7.8664045, -0.25061488, -0.26041555, 9.565522
94657591746236, 0.44865423, 6.3134627, 8.062616, 0.1463201, 0.15479255, 10.248001
94657601386236, 0.4941179, 5.907879, 7.975278, 0.021195412, -0.08717227, 9.937012
94657611026340, 0.25244278, 5.784649, 7.655836, -0.093512535, 0.12861109, 9.597523
94657620666444, 0.57906306, 6.4091754, 7.944171, 0.35167813, 0.18081045, 10.215982
94657630306548, 0.20219351, 5.291727, 7.6199436, -0.36065722, -0.12950492, 9.271458
94657639946652, 0.6053841, 6.678368, 8.260024, 0.37337685, 0.18764186, 10.631111
94657649586757, 0.18185452, 5.070391, 7.725228, -0.5373175, -0.30005622, 9.221841
94657659226861, 0.5383851, 6.611369, 8.203793, 0.31855202, 0.22101426, 10.542864
94657668866965, 0.3397808, 5.3132625, 7.8484583, -0.3473847, -0.29165268, 9.473056
94657678507069, 0.4642076, 6.37089, 8.1344, 0.15732217, 0.1530118, 10.340408
94657688147173, 0.45583272, 5.8480587, 8.085348, -0.08768535, -0.14115286, 9.987634
94657697787277, 0.31226337, 5.8277197, 7.881958, -0.12516665, 0.026091814, 9.806566
94657707427382, 0.5910272, 6.3493547, 8.103293, 0.25481915, 0.07754612, 10.308058
94657717067382, 0.25004998, 5.363512, 7.704889, -0.32615113, -0.15426636, 9.384291
94657726707486, 0.66999036, 6.721439, 8.226524, 0.4482782, 0.21968794, 10.632645
94657736347590, 0.21894327, 5.1385865, 7.661818, -0.44303823, -0.25107574, 9.2139635
94657745987694, 0.6233303, 6.6448684, 8.140383, 0.41348457, 0.23909473, 10.515728
94657755627798, 0.35533416, 5.282156, 7.739585, -0.29687047, -0.2894559, 9.367855
94657765267902, 0.52163535, 6.4055862, 8.008778, 0.26746392, 0.20256805, 10.263119
94657774908007, 0.4953143, 5.791827, 7.8987074, -0.0067825317, -0.12082362, 9.806402
94657784548111, 0.3278167, 5.928218, 7.804191, -0.029705524, 0.113797665, 9.805244
94657794188215, 0.57427746, 6.3074803, 8.030313, 0.25474834, 0.09443045, 10.223805
94657803828319, 0.22851457, 5.3994045, 7.696514, -0.32701087, -0.1074419, 9.3980665
94657813468423, 0.61734825, 6.6185474, 8.226524, 0.36193585, 0.1780951, 10.568789
94657823108527, 0.13519448, 5.093123, 7.745567, -0.5706041, -0.24833584, 9.250121
94657832748632, 0.5922236, 6.674779, 8.271988, 0.34943652, 0.20137978, 10.637976
94657842388632, 0.2632105, 5.2223353, 7.732406, -0.40009046, -0.24442601, 9.322679
94657852028736, 0.4331009, 6.4151573, 8.047063, 0.2003293, 0.25107145, 10.295332
94657861668840, 0.42592242, 5.645865, 7.9393854, -0.14829731, -0.17688537, 9.74873
94657871308944, 0.32422748, 5.9413786, 7.9298143, -0.07521653, 0.075252056, 9.913411
94657880949048, 0.5276174, 6.215357, 8.105687, 0.14907718, 0.04249382, 10.226788
94657890589152, 0.25124636, 5.380262, 7.7623167, -0.33411598, -0.15544939, 9.440768
94657900229257, 0.6939186, 6.6161547, 8.2660055, 0.40828705, 0.12336707, 10.601884
94657909869361, 0.2632105, 5.1756754, 7.6953177, -0.40415096, -0.2652948, 9.265047
94657919509465, 0.6939186, 6.748956, 8.127222, 0.52170897, 0.26916194, 10.570574
94657929149569, 0.30508488, 5.2630134, 7.598408, -0.28307605, -0.19541645, 9.241746
94657938789673, 0.5347959, 6.550352, 8.01117, 0.34629226, 0.29936814, 10.351929
94657948429777, 0.47976094, 5.6949177, 8.008778, -0.11257696, -0.20861125, 9.835984
94657958069882, 0.41994038, 6.0574307, 8.019546, 0.009677172, 0.05467558, 10.05877
94657967709986, 0.56470615, 6.128019, 8.096115, 0.12367725, -0.02798915, 10.168702
94657977350090, 0.2428715, 5.4723854, 7.7611203, -0.30904245, -0.08930755, 9.494077
94657986990090, 0.6089734, 6.5742803, 8.22772, 0.3310454, 0.16866541, 10.54274
94657996630298, 0.2105684, 5.144569, 7.752745, -0.4859128, -0.2755177, 9.289993
94658006270298, 0.5922236, 6.68435, 8.23131, 0.3702526, 0.2427392, 10.610828
94658015910402, 0.22253251, 5.1254263, 7.649854, -0.43648887, -0.24152541, 9.197333
94658025550507, 0.46779683, 6.4666033, 8.001599, 0.2624786, 0.29210138, 10.2911215
94658035190611, 0.38644084, 5.5250273, 7.8424764, -0.19877768, -0.18262792, 9.597229
94658044830715, 0.3900301, 6.0574307, 7.9369926, 0.02813363, 0.112991095, 9.991341
94658054470819, 0.5132605, 6.105287, 8.066205, 0.09341502, 0.0066137314, 10.128813
94658064110923, 0.29790643, 5.5453663, 7.8017983, -0.24310994, -0.09396291, 9.572877
94658073751027, 0.6472585, 6.5551376, 8.288737, 0.32470608, 0.10506153, 10.581845
94658083391132, 0.22851457, 5.204389, 7.795816, -0.46649837, -0.26096582, 9.360924
94658093031236, 0.67477596, 6.759724, 8.268398, 0.45088148, 0.2237916, 10.689352
94658102671340, 0.29312077, 5.2223353, 7.6893353, -0.36358476, -0.24184442, 9.289452
94658112311444, 0.53359944, 6.5647087, 8.02792, 0.3463161, 0.30101156, 10.373867
94658121951548, 0.39960137, 5.493921, 7.7994056, -0.18698502, -0.18288136, 9.544903
94658131591652, 0.47018966, 6.1435723, 7.9501534, 0.1205802, 0.115036964, 10.056925
94658141231757, 0.6089734, 6.0418773, 8.019546, 0.14961123, -0.06649184, 10.057905
94658150871861, 0.32542387, 5.5872407, 7.722835, -0.1739254, -0.050811768, 9.535852
94658160511965, 0.6652047, 6.492924, 8.238488, 0.31632257, 0.08535242, 10.505518
94658170152069, 0.23808585, 5.2438707, 7.8221374, -0.45408058, -0.25956368, 9.405698
94658179792173, 0.65324056, 6.765706, 8.301898, 0.41518545, 0.24469566, 10.71871
94658189432277, 0.25244278, 5.209175, 7.6749787, -0.39886045, -0.22939968, 9.267839
94658199072382, 0.587438, 6.640083, 7.987242, 0.4247744, 0.33806396, 10.38928
94658208712486, 0.36610186, 5.4699926, 7.704889, -0.1932466, -0.13869047, 9.453232
94658218352590, 0.38883367, 6.166304, 7.8891363, 0.09193802, 0.20605803, 10.018086
94658227992694, 0.4989035, 5.9114685, 7.972885, 0.017018795, -0.0622499, 9.93766
94658237632798, 0.2835495, 5.6327047, 7.745567, -0.19198704, -0.0020918846, 9.579391
94658247272902, 0.63170516, 6.431907, 8.179864, 0.29215908, 0.09862018, 10.420344
94658256913007, 0.14955142, 5.2127643, 7.759924, -0.5051873, -0.18290544, 9.333971
94658266553111, 0.60777694, 6.690332, 8.319844, 0.3431182, 0.21636558, 10.685749
94658276193215, 0.29910284, 5.15414, 7.7826557, -0.44081616, -0.32261753, 9.32341
94658285833319, 0.567099, 6.6676, 8.172686, 0.35159564, 0.30164862, 10.552568
94658295473319, 0.40079778, 5.4029937, 7.8987074, -0.2810998, -0.2907765, 9.569691
94658305113527, 0.46660042, 6.2464633, 8.136793, 0.07964516, 0.11133242, 10.267653
94658314753632, 0.5706882, 5.930611, 8.084151, 0.02872634, -0.13217163, 10.041567
94658324393736, 0.40677986, 5.7379885, 7.830512, -0.0921371, -0.042459965, 9.715794
94658334033736, 0.7178468, 6.4211397, 8.127222, 0.35733366, 0.07294345, 10.376179
94658343673944, 0.32303107, 5.2893343, 7.719246, -0.32779455, -0.22604775, 9.354658
94658353313944, 0.6999006, 6.741778, 8.219346, 0.45511365, 0.24932432, 10.640947
94658362954048, 0.29671, 5.1649075, 7.6390862, -0.38061547, -0.25370407, 9.214701
94658372594152, 0.6412765, 6.678368, 8.072187, 0.44600058, 0.29965782, 10.482525
94658382234361, 0.36490545, 5.3886366, 7.7072816, -0.2384417, -0.18086815, 9.406551
94658391874361, 0.46779683, 6.337391, 7.969296, 0.19081998, 0.239187, 10.188102
94658401514569, 0.5096712, 5.8432727, 7.9764743, -0.01631713, -0.099967, 9.900377
94658411154673, 0.357727, 5.773881, 7.884351, -0.1342678, -0.0067317486, 9.778065
94658420794777, 0.6436693, 6.34098, 8.190632, 0.23746824, 0.037985325, 10.375497
94658430434882, 0.29072794, 5.2953167, 7.7946196, -0.3895831, -0.22266793, 9.416986
94658440074986, 0.69152576, 6.6795645, 8.396415, 0.36006975, 0.13541937, 10.744606
94658449715090, 0.25603202, 5.1553364, 7.8496547, -0.50669694, -0.31295085, 9.375791
94658459355194, 0.6041877, 6.698707, 8.200203, 0.38104057, 0.27960277, 10.595173
94658468995298, 0.29192436, 5.3036914, 7.753942, -0.35793972, -0.19735003, 9.389936
94658478635402, 0.44865423, 6.3924255, 8.012366, 0.19337153, 0.26469016, 10.254509
94658488275507, 0.49052864, 5.800202, 7.9166536, -0.02601266, -0.08874464, 9.825874
94658497915611, 0.35533416, 5.834898, 7.813762, -0.072259665, 0.060640097, 9.757985
94658507555715, 0.60059845, 6.285945, 8.067402, 0.23607183, 0.07457018, 10.241851
94658517195819, 0.28235307, 5.343173, 7.664211, -0.31244636, -0.13968301, 9.340889
94658526835923, 0.7178468, 6.6484575, 8.226524, 0.43262506, 0.16099262, 10.591501
94658536476027, 0.29072794, 5.13739, 7.749156, -0.43857312, -0.31167912, 9.286401
94658546116132, 0.64845496, 6.6915283, 8.2348995, 0.39106512, 0.22899413, 10.620981
94658555756236, 0.3469593, 5.261817, 7.7946196, -0.34991813, -0.29137802, 9.399778
94658565396340, 0.45702913, 6.413961, 8.112865, 0.15736485, 0.23144412, 10.348333
94658575036444, 0.4426722, 5.7391853, 8.031509, -0.14200878, -0.14889407, 9.879121
94658584676548, 0.31226337, 5.9138613, 7.962117, -0.13247085, 0.06627202, 9.921927
94658594316652, 0.5778667, 6.229714, 8.079366, 0.18128586, 0.054971457, 10.2168255
94658603956757, 0.26679972, 5.3826547, 7.670193, -0.30487442, -0.12050152, 9.368486
94658613596861, 0.6412765, 6.626922, 8.178668, 0.37924576, 0.22673249, 10.536731
94658623236965, 0.23449662, 5.148158, 7.6737823, -0.4329419, -0.26253176, 9.229795
94658632877069, 0.6448657, 6.7118673, 8.147561, 0.4305961, 0.2863481, 10.563162
94658642517173, 0.31345975, 5.2737813, 7.655836, -0.30867815, -0.21000433, 9.2942705
94658652157277, 0.5491528, 6.4737816, 8.020741, 0.29319572, 0.25069904, 10.314791
94658661797382, 0.4953143, 5.682954, 7.926225, -0.085552216, -0.18639326, 9.763416
94658671437486, 0.39840496, 6.0251274, 7.941778, -0.0027999878, 0.0863173, 9.976234
94658681077590, 0.6113662, 6.2033925, 8.080562, 0.1949451, 0.008666277, 10.20359
94658690717694, 0.2632105, 5.4484572, 7.6977105, -0.2862692, -0.09066534, 9.429716
94658700357798, 0.66161543, 6.626922, 8.232507, 0.38048482, 0.1786406, 10.580705
94658709998007, 0.21774685, 5.17089, 7.7671022, -0.48158503, -0.262496, 9.317325
94658719638111, 0.6041877, 6.704689, 8.267202, 0.36232257, 0.2527287, 10.652201
94658729278215, 0.27038896, 5.18405, 7.77787, -0.44568372, -0.28914165, 9.33598
94658738918319, 0.50009996, 6.4677997, 8.092526, 0.24462223, 0.23431897, 10.366137
94658748558423, 0.35174492, 5.572884, 7.911868, -0.24324489, -0.1604104, 9.679542
94658758198527, 0.33738798, 6.0251274, 7.926225, -0.034199715, 0.13011885, 9.961072
94658767838632, 0.5599205, 6.151947, 8.048259, 0.14914942, 0.013836861, 10.144556
94658777478736, 0.2548356, 5.5597234, 7.688139, -0.22847915, -0.0034418106, 9.488453
94658787118840, 0.6257231, 6.586244, 8.188239, 0.357306, 0.1843996, 10.519304
94658796758944, 0.20817557, 5.1732826, 7.7276206, -0.46940494, -0.24033904, 9.286777
94658806399048, 0.68075806, 6.74776, 8.22772, 0.45842385, 0.22680736, 10.650329
94658816039152, 0.38285163, 5.5334024, 7.771888, -0.16955686, -0.14908433, 9.54549
94658825679257, 0.54436713, 6.0981083, 7.9513497, 0.14508224, 0.03862953, 10.034177
94658835319361, 0.4941179, 5.9413786, 7.9298143, 0.041297436, -0.023786068, 9.920878
94658844959465, 0.45822555, 6.003592, 7.989635, 0.015515327, 0.010024548, 10.004351
94658854599673, 0.46301118, 5.9497533, 7.9920278, -0.005629778, -0.029744148, 9.974243
94658864239777, 0.48215377, 5.9413786, 7.9513497, 0.0224545, -0.029183388, 9.937559
94658873879882, 0.44985065, 5.938986, 7.8987074, 0.015326023, 0.012873888, 9.892577
94658883519986, 0.41994038, 5.933004, 7.9190464, -0.019355059, 0.015650988, 9.903915
94658893160090, 0.3912265, 5.9246287, 7.926225, -0.048607588, 0.023378849, 9.903355
94658902800194, 0.36011982, 5.905486, 7.914261, -0.07656813, 0.0344584, 9.880939
94658912440298, 0.3912265, 5.959325, 7.962117, -0.045039654, 0.029880762, 9.952839
94658922080402, 0.46181476, 5.986842, 8.013563, 0.0023126602, -0.019489288, 10.01361
94658931720507, 0.4211368, 5.9581285, 7.9980097, -0.03772807, -0.0057456493, 9.982152
94658941360611, 0.4103691, 5.9210396, 7.989635, -0.060548782, -0.018058538, 9.952757
94658951000715, 0.45702913, 5.9210396, 8.000402, -0.028019428, -0.05146694, 9.963462
94658960640923, 0.4642076, 5.9641104, 8.000402, -0.0015926361, -0.028806925, 9.989579
94658970281027, 0.44865423, 5.9748783, 7.945368, 0.014861107, 0.012625456, 9.951329
94658979921132, 0.44027936, 5.910272, 7.9429746, -0.023051023, -0.022363186, 9.910346
94658989561236, 0.46061835, 5.9342003, 7.9908314, -0.015887737, -0.042612314, 9.963847
94658999201340, 0.4941179, 5.9748783, 7.9537425, 0.04471159, -0.022105455, 9.960063
94659008841444, 0.4749753, 5.985646, 7.8831544, 0.06545806, 0.027178526, 9.909222
94659018481548, 0.4319045, 5.9724855, 7.85444, 0.037546635, 0.058810234, 9.876462
94659028121652, 0.39481574, 5.9581285, 7.830512, 0.012866497, 0.08196592, 9.847091
94659037761757, 0.4139583, 5.9700923, 7.8436728, 0.028193235, 0.070986986, 9.865635
94659047401861, 0.4319045, 5.977271, 7.8628154, 0.03696847, 0.056138992, 9.886034
94659057042069, 0.44147578, 5.962914, 7.893922, 0.024151087, 0.027012348, 9.902724
94659066682173, 0.44745782, 5.9437714, 7.9657063, -0.010628223, -0.020611286, 9.948899
94659076322277, 0.45104706, 5.98086, 8.018349, -0.012755394, -0.021618366, 10.013363
94659085962382, 0.44626144, 5.9784675, 8.042277, -0.028080225, -0.029915094, 10.030841
94659095602486, 0.4833502, 5.956932, 8.05783, -0.016171217, -0.07305622, 10.032034
94659105242590, 0.48454657, 5.956932, 8.04467, -0.009328127, -0.06714511, 10.021573
94659114882694, 0.46899325, 5.930611, 8.054241, -0.03695464, -0.07919288, 10.012756
94659124522798, 0.45822555, 5.9270215, 8.003992, -0.027724266, -0.051782608, 9.969955
94659134163007, 0.43908295, 5.9820566, 7.946564, 0.006917715, 0.020895481, 9.956165
94659143803111, 0.4534399, 5.962914, 7.880761, 0.03583622, 0.027834177, 9.892739
94659153443215, 0.4534399, 5.948557, 7.8664045, 0.03505516, 0.022942543, 9.872664
94659163083319, 0.44865423, 5.9473605, 7.884351, 0.02341652, 0.014796019, 9.886081
94659172723423, 0.42592242, 5.9246287, 7.9130645, -0.016722202, 0.0014388561, 9.894389
94659182363527, 0.39601216, 5.9342003, 7.9226356, -0.03895569, 0.02184105, 9.906449
94659192003632, 0.40797627, 5.994021, 7.921439, 1.8811226E-4, 0.053911448, 9.941882
94659201643840, 0.44147578, 5.9784675, 7.9716887, 9.5295906E-4, 0.0013213158, 9.974208
94659211283944, 0.40797627, 5.936593, 7.9884386, -0.051836014, -0.012655258, 9.9610195
94659220924048, 0.40558344, 5.95095, 7.9573317, -0.036037207, 0.012325287, 9.944646
94659230564152, 0.44865423, 5.9724855, 7.9166536, 0.022636652, 0.017688036, 9.926957
94659240204257, 0.4881358, 6.007181, 7.9106717, 0.07247329, 0.01892066, 9.944728
94659249844361, 0.506082, 6.009574, 7.9573317, 0.06702542, -0.011900425, 9.984266
94659259484465, 0.506082, 6.007181, 7.966903, 0.057128906, -0.019003391, 9.99051
94659269124673, 0.47377887, 5.962914, 7.948957, 0.01625061, -0.022100925, 9.948164
94659278764777, 0.4546363, 5.95095, 7.940582, -0.0010962486, -0.014236212, 9.933435
94659288404882, 0.4211368, 5.9437714, 7.9106717, -0.018657446, 0.0141580105, 9.903735
94659298044986, 0.40558344, 5.9545393, 7.880761, -0.011394262, 0.042613745, 9.88562
94659307685090, 0.4019942, 5.9748783, 7.8903327, -0.008515835, 0.05297661, 9.905314
94659317325194, 0.4235296, 5.9641104, 7.944171, -0.018666029, 0.0074498653, 9.94281
94659326965298, 0.40438703, 5.9437714, 7.975278, -0.05559659, -0.008534908, 9.954588
94659336605507, 0.36490545, 5.960521, 7.975278, -0.08111906, 0.025914907, 9.962872
94659346245611, 0.42592242, 5.960521, 8.001599, -0.042330265, -0.022892952, 9.986616
94659355885715, 0.44985065, 5.9724855, 8.018349, -0.023822546, -0.037734747, 10.008242
94659365525819, 0.4354937, 5.979664, 7.995617, -0.0221591, -0.012660503, 9.993763
94659375165923, 0.4331009, 5.9760747, 7.9310107, 3.736019E-4, 0.016709566, 9.939905
94659384806132, 0.4354937, 5.9413786, 7.9429746, -0.018231153, -0.013119459, 9.928743
94659394446236, 0.4019942, 5.953343, 7.9154572, -0.028715134, 0.026481152, 9.912457
94659404086340, 0.40558344, 5.973682, 7.879565, -0.001398325, 0.05307603, 9.896167
94659413726444, 0.4881358, 5.9748783, 7.8963146, 0.05656576, -0.0058164597, 9.913929
94659423366548, 0.51206404, 5.994021, 7.891529, 0.085118294, -0.0072920322, 9.922674
94659433006652, 0.50129634, 5.9724855, 7.8759756, 0.07011652, -0.00901866, 9.896862
94659442646861, 0.5072784, 5.9557357, 7.911868, 0.04847884, -0.04043913, 9.915734
94659452286965, 0.47138608, 6.005985, 7.9369926, 0.03109932, 0.0027008057, 9.964384
94659461927069, 0.42711884, 6.0155563, 7.8927255, 0.016311646, 0.055683136, 9.932829
94659471567173, 0.38883367, 6.0107703, 7.88794, -0.015195847, 0.077674866, 9.924408
94659481207277, 0.44985065, 6.0023956, 7.9346, 0.008394957, 0.011870146, 9.959358
94659490847486, 0.4426722, 5.977271, 7.928618, -0.0066854954, 0.0027797222, 9.939149
94659500487590, 0.42951167, 5.953343, 7.895118, -0.015263796, 0.010785103, 9.89744
94659510127694, 0.46899325, 5.9521465, 7.9190464, 0.0051050186, -0.024895906, 9.917594
94659519767798, 0.42831525, 5.9581285, 7.9680996, -0.047350645, -0.018757582, 9.958452
94659529407902, 0.3900301, 5.946164, 7.9657063, -0.08371329, -0.001627922, 9.947585
94659539048007, 0.42592242, 5.9617176, 7.9680996, -0.049656868, -0.014888525, 9.960492
94659548688215, 0.4438686, 5.9784675, 7.9836526, -0.03481078, -0.021996737, 9.983791
94659558328319, 0.424726, 6.017949, 7.9633136, -0.023251295, 0.024905443, 9.990461
94659567968423, 0.4534399, 5.960521, 7.972885, -0.034068584, -0.03525114, 9.964836
94659577608527, 0.42831525, 5.9377894, 7.9680996, -0.06258488, -0.032141924, 9.94618
94659587248632, 0.4438686, 5.928218, 7.928618, -0.04062128, -0.030040026, 9.909653
94659596888840, 0.44985065, 5.960521, 7.881958, -0.001954794, 0.00769186, 9.892188
94659606528944, 0.47736812, 5.9952173, 7.844869, 0.051325083, 0.029073715, 9.884787
94659616169048, 0.46660042, 6.0047884, 7.8580294, 0.041180134, 0.03554678, 9.900549
94659625809152, 0.44865423, 6.0550375, 7.8723865, 0.03976345, 0.07157588, 9.941455
94659635449257, 0.47976094, 6.0550375, 7.8903327, 0.05284977, 0.043140173, 9.957226
94659645089361, 0.5192425, 6.0047884, 7.926225, 0.046120644, -0.029202461, 9.957368
94659654729569, 0.48933223, 6.007181, 7.9226356, 0.021428347, -0.009021997, 9.954561
94659664369673, 0.506082, 6.0011992, 7.9106717, 0.03403163, -0.016134977, 9.9422245
94659674009777, 0.5132605, 6.033502, 7.8903327, 0.06262207, 0.011154175, 9.945847
94659683649882, 0.526421, 6.0358953, 7.897511, 0.07133937, 0.0028686523, 9.953628
94659693290090, 0.5276174, 6.0107703, 7.9011, 0.060799837, -0.015163422, 9.941388
94659702930194, 0.51445687, 6.020342, 7.9226356, 0.046046972, -0.011487484, 9.96369
94659712570298, 0.46779683, 5.985646, 7.9334035, -0.010529757, -0.011241913, 9.949142
94659722210402, 0.4426722, 5.979664, 7.9836526, -0.051907063, -0.023228884, 9.984379
94659731850507, 0.42711884, 5.986842, 8.000402, -0.06615043, -0.015975714, 10.001326
94659741490715, 0.41994038, 5.9820566, 8.015956, -0.075445175, -0.021268368, 10.010531
94659751130819, 0.38524446, 5.986842, 7.940582, -0.07097936, 0.038116932, 9.951735
94659760770923, 0.39840496, 5.9497533, 7.8759756, -0.047585964, 0.033017397, 9.878559
94659770411027, 0.41994038, 5.95095, 7.850851, -0.019834518, 0.030742168, 9.86026
94659780051132, 0.4223332, 5.9557357, 7.8424764, -0.012679577, 0.036213636, 9.856577