timestamp_acc,device_acc_x,device_acc_y,device_acc_z,earth_acc_x,earth_acc_y,earth_acc_z
787243592508537, -6.799206, -0.45583272, 6.076573, -0.21873593, 0.8700094, 9.086086
787243602147391, -6.7585278, -0.4223332, 6.334998, -0.11936331, 0.69580984, 9.246073
787243611786246, -6.6101727, -0.4223332, 6.8015985, -0.0033650398, 0.31814337, 9.488586
787243621424996, -6.62094, -0.45104706, 7.3627152, 0.08557367, -0.0030374527, 9.911737
787243631063850, -6.6687965, -0.4881358, 7.9190464, 0.15671039, -0.2945614, 10.359108
787243640702704, -6.6017976, -0.5084748, 8.172686, 0.19606423, -0.4799862, 10.505533
787243650341558, -6.474978, -0.5096712, 8.093722, 0.19624817, -0.5239134, 10.362453
787243659980308, -6.3696938, -0.54675996, 7.90469, 0.13275766, -0.475502, 10.154425
787243669619162, -6.3254266, -0.62093747, 7.5326056, -0.012424111, -0.29793072, 9.851285
787243679258016, -6.4642105, -0.6723832, 7.1677003, -0.16481733, 0.018699646, 9.674013
787243688896766, -6.643672, -0.654437, 6.9355965, -0.22078621, 0.28307867, 9.619787
787243698535621, -6.698707, -0.552742, 6.812366, -0.15974116, 0.42779493, 9.559185
787243708174475, -6.587441, -0.45224348, 6.820741, -0.04053676, 0.36622667, 9.486076
787243717813329, -6.5144596, -0.38644084, 7.0265236, 0.07898033, 0.20487976, 9.58704
787243727452079, -6.5276203, -0.37686956, 7.21436, 0.12674534, 0.10948467, 9.735029
787243737090933, -6.4941206, -0.3684947, 7.440482, 0.18652236, -0.039216995, 9.880983
787243746729787, -6.4570317, -0.33499518, 7.519445, 0.23479939, -0.07291889, 9.913984
787243756368537, -6.4163537, -0.3589234, 7.487142, 0.21074402, -0.09006405, 9.864238
787243766007391, -6.3996043, -0.47976094, 7.52782, 0.10164428, -0.14421082, 9.890503
787243775646246, -6.4091754, -0.59940207, 7.6307116, -0.0020080805, -0.20613432, 9.981085
787243785284996, -6.4008007, -0.6472585, 7.618747, -0.0545882, -0.20465183, 9.969435
787243794923850, -6.3720865, -0.61734825, 7.6833534, -0.012149572, -0.2513523, 9.997759
787243804562704, -6.3864436, -0.6041877, 7.641479, -0.010420561, -0.20948124, 9.974964
787243814201558, -6.448657, -0.56470615, 7.450053, -0.021039844, -0.033913612, 9.869435
787243823840308, -6.4737816, -0.50488555, 7.2873416, -0.0012056828, 0.098434925, 9.760144
787243833479162, -6.485746, -0.41515473, 7.143772, 0.052252054, 0.21317863, 9.655183
787243843118016, -6.4977098, -0.36251262, 7.024131, 0.0738678, 0.31082964, 9.570162
787243852756766, -6.4235325, -0.3696911, 6.9882383, 0.0693959, 0.2782235, 9.494824
787243862395621, -6.3768725, -0.4103691, 7.1342006, 0.066998005, 0.14873457, 9.576175
787243872034475, -6.3421764, -0.45942193, 7.292127, 0.049984932, 0.044184685, 9.674965
787243881673225, -6.3014984, -0.5024927, 7.367501, 0.02454698, -0.024240017, 9.707743
787243891312079, -6.2811594, -0.56829536, 7.537391, -0.008595109, -0.14151955, 9.826905
787243900950933, -6.38764, -0.65324056, 7.8233337, -0.058381796, -0.23982286, 10.11792
787243910589787, -6.4677997, -0.6089734, 8.069795, 0.013282061, -0.3047309, 10.35528
787243920228537, -6.2488565, -0.5084748, 8.23131, 0.16611755, -0.5374179, 10.3317375
787243929867391, -6.15434, -0.6376872, 7.7551384, -0.025130033, -0.35858727, 9.914408
787243939506246, -6.524031, -0.4833502, 7.38784, 0.0141067505, 0.14169455, 9.86694
787243949144996, -6.6915283, -0.14117654, 6.0526447, 0.05591762, 1.1801832, 8.946229
787243958783850, -6.769295, -0.18783657, 6.0921264, 0.0038313866, 1.1669815, 9.033869
787243968422704, -6.5228343, -0.34576288, 6.4163537, -0.049708486, 0.729409, 9.126995
787243978061454, -6.1914287, -0.4019942, 7.179664, 0.1031611, 0.00793314, 9.488533
787243987700308, -6.0358953, -0.4642076, 8.020741, 0.22964025, -0.5870805, 10.029079
787243997339162, -6.196214, -0.65922266, 8.623733, 0.14154088, -0.8910756, 10.601056
787244006978016, -6.413961, -0.6257231, 8.879765, 0.18787324, -0.8596301, 10.936469
787244016616766, -6.513263, -0.53599226, 8.606983, 0.20282936, -0.5946808, 10.788666
787244026255621, -6.4031935, -0.50009996, 8.045866, 0.14087653, -0.3427744, 10.288324
787244035894475, -6.326623, -0.47258246, 7.4129643, 0.059800386, -0.03277731, 9.75689
787244045533225, -6.29432, -0.39960137, 7.051648, 0.08096671, 0.117860794, 9.459569
787244055172079, -6.3110695, -0.4139583, 7.001399, 0.05417216, 0.15809536, 9.43359
787244064810933, -6.431907, -0.48095736, 7.0289164, -0.013817072, 0.18552876, 9.537914
787244074449683, -6.538388, -0.57188463, 7.2897344, -0.049395323, 0.031774044, 9.80889
787244084088537, -6.5850477, -0.67477596, 7.6259255, -0.08977902, -0.17207432, 10.096298
787244093727391, -6.5838513, -0.5802595, 7.30768, -0.05282557, 0.030573368, 9.853033
787244103366246, -6.7322063, -0.51086766, 7.1282187, -0.035501003, 0.2448163, 9.814983
787244113004996, -6.707082, -0.5192425, 6.984649, -0.0555861, 0.2628641, 9.693694
787244122643850, -6.5479593, -0.5240282, 6.948757, -0.043262243, 0.16942644, 9.560597
787244132282704, -6.556334, -0.46899325, 7.038488, 0.0366472, 0.095175266, 9.629921
787244141921454, -6.6053867, -0.5072784, 7.190432, 0.026202202, 0.014277935, 9.777008
787244151560308, -6.5312095, -0.45942193, 7.0636125, 0.057688832, 0.05391884, 9.6310005
787244161199162, -6.570691, -0.36729828, 6.940382, 0.11916292, 0.17867327, 9.561991
787244170837912, -6.6652074, -0.4546363, 7.176075, 0.07133877, 0.067196846, 9.803986
787244180476766, -6.6927247, -0.5491528, 7.4129643, 0.02518487, -0.091341496, 10.001858
787244190115621, -6.7369924, -0.57188463, 7.6199436, 0.039290547, -0.19870567, 10.185118
787244199754371, -6.6819572, -0.5024927, 7.605587, 0.114750385, -0.21723127, 10.133394
787244209393225, -6.6305118, -0.4331009, 7.2969127, 0.12843549, -0.047729015, 9.868
787244219032079, -6.660422, -0.41156548, 7.1066833, 0.10825336, 0.087925434, 9.747622
787244228670829, -6.5479593, -0.37447673, 7.0337024, 0.14596152, 0.04859209, 9.615889
787244238309683, -6.5084777, -0.40797627, 7.0695944, 0.12538147, -0.029986858, 9.617134
787244247948537, -6.65444, -0.4438686, 7.103094, 0.07624757, 0.044542313, 9.742932
787244257587391, -6.6484575, -0.48095736, 7.131808, 0.04864049, 0.0016293526, 9.761845
787244267226141, -6.7011, -0.5778667, 7.0097737, -0.07728994, 0.09038782, 9.713982
787244276864996, -6.6963143, -0.6233303, 6.971489, -0.12574542, 0.095998764, 9.685339
787244286503850, -6.7669024, -0.6556334, 7.0145597, -0.15571702, 0.1057663, 9.766751
787244296142600, -6.8099732, -0.6472585, 7.1102724, -0.13336873, 0.076480865, 9.865445
787244305781454, -6.6927247, -0.5802595, 7.298109, -0.0013428926, -0.110339165, 9.918643
787244315420308, -6.6975107, -0.5778667, 7.283752, -0.0033159256, -0.09698248, 9.911317
787244325059162, -6.593423, -0.5192425, 7.1784678, 0.048935413, -0.08627224, 9.760296
787244334697912, -6.6305118, -0.5096712, 7.099505, 0.034746885, -0.0060944557, 9.727547
787244344336766, -6.6089764, -0.5024927, 7.18445, 0.06411159, -0.07490015, 9.774337
787244353975621, -6.5814586, -0.51565325, 7.320841, 0.0861423, -0.18639708, 9.85566
787244363614371, -6.660422, -0.49292147, 7.222735, 0.07223821, -0.06062174, 9.836828
787244373253225, -6.778867, -0.47138608, 7.143772, 0.058029294, 0.081067085, 9.858944
787244382892079, -6.7908306, -0.41156548, 7.0492554, 0.09316981, 0.16144228, 9.795
787244392530829, -6.745367, -0.37447673, 6.8446693, 0.090963244, 0.27201366, 9.612878
787244402169683, -6.721439, -0.43788654, 6.8219376, 0.026006103, 0.246809, 9.58367
787244411808537, -6.7238317, -0.5383851, 6.9906316, -0.035777092, 0.113983154, 9.713621
787244421447287, -6.6939216, -0.57427746, 7.0695944, -0.0490973, 0.0321517, 9.752646
787244431086141, -6.6448684, -0.5168497, 7.183254, 0.038329482, -0.050937176, 9.7987995
787244440724996, -6.649654, -0.5288138, 7.2490563, 0.04119861, -0.09294987, 9.850686
787244450363746, -6.7034926, -0.56470615, 7.2418776, -0.0059286356, -0.042006016, 9.884266
787244460002600, -6.6352973, -0.56590253, 7.304091, 0.017567873, -0.13130903, 9.883301
787244469641454, -6.6795645, -0.59940207, 7.3375907, -0.014663219, -0.117431164, 9.939926
787244479280204, -6.6795645, -0.60777694, 7.3926253, -0.010409713, -0.15132141, 9.980675
787244488919058, -6.643672, -0.5982057, 7.338787, -0.006964445, -0.13976336, 9.916372
787244498557912, -6.579066, -0.5599205, 7.210771, 0.013871074, -0.09132147, 9.776722
787244508196766, -6.5491557, -0.506082, 7.2382884, 0.07632339, -0.11661196, 9.773481
787244517835516, -6.619744, -0.45702913, 7.186843, 0.10197306, -0.021319866, 9.781091
787244527474371, -6.666404, -0.44985065, 7.0492554, 0.072674155, 0.1005373, 9.711845
787244537113225, -6.6484575, -0.49172506, 6.9559355, 0.0155261755, 0.13466358, 9.633818
787244546751975, -6.6999035, -0.5312066, 7.1581287, 0.011772394, 0.03045702, 9.8187895
787244556390829, -6.745367, -0.54436713, 7.2382884, 0.009811163, 0.006691456, 9.909036
787244566029683, -6.789634, -0.51445687, 7.274181, 0.039753437, 0.022730827, 9.963705
787244575668433, -6.721439, -0.50488555, 7.1581287, 0.034627676, 0.051042557, 9.83197
787244585307287, -6.532406, -0.5300102, 7.01097, 0.0067527294, 0.0025792122, 9.597234
787244594946141, -6.6041903, -0.57427746, 7.0983086, -0.028129697, -0.016050339, 9.712367
787244604584891, -6.597012, -0.6089734, 7.301698, -0.017264366, -0.16024542, 9.858005
787244614223746, -6.6532435, -0.5814559, 7.2670026, -0.00604558, -0.0843482, 9.869444
787244623862600, -6.669993, -0.56829536, 7.26102, 0.0032414198, -0.06501341, 9.875725
787244633501350, -6.6221366, -0.57547385, 7.2346992, -5.1283836E-4, -0.08362484, 9.824345
787244643140204, -6.660422, -0.56470615, 7.1222367, -0.019743681, 0.01725769, 9.767582
787244652779058, -6.7298136, -0.48454657, 7.0935225, 0.041751146, 0.10395193, 9.789314
787244662417808, -6.708278, -0.7190432, 7.105487, -0.17751884, 0.015314579, 9.796642
787244672056662, -6.735796, 0.07058827, 7.048059, 0.56748414, 0.28027105, 9.7288475
787244681695516, -6.814759, -1.1018949, 6.847062, -0.6241094, 0.1455307, 9.701891
787244691334371, -6.5443697, 0.26919255, 7.088737, 0.790743, 0.16411924, 9.617651
787244700973121, -6.7405815, -1.2861422, 7.024131, -0.74028885, -0.06847334, 9.791594
787244710611975, -6.5575304, 0.096909314, 7.5086775, 0.7130239, -0.15515852, 9.942754
787244720250829, -6.836294, -1.1318051, 7.342376, -0.5393429, -0.15151405, 10.080305
787244729889579, -6.6077795, -0.3804588, 7.4069824, 0.22206259, -0.1678667, 9.92942
787244739528433, -6.719046, -0.64008003, 7.131808, -0.0925709, 0.02804041, 9.818789
787244749167287, -6.715457, -0.9236295, 7.2215385, -0.35002494, -0.10309219, 9.897875
787244758806037, -6.7334027, -0.049052864, 7.1473613, 0.47756386, 0.1810813, 9.806377
787244768444891, -6.77767, -1.2634103, 6.969096, -0.7401658, 0.012829304, 9.775138
787244778083746, -6.576673, 0.2943172, 7.1449685, 0.843457, 0.14922285, 9.677609
787244787722496, -6.800402, -1.2323036, 6.995417, -0.7085365, 0.0077590942, 9.808048
787244797361350, -6.5575304, 0.26679972, 7.3232336, 0.85644174, 0.035293102, 9.796296
787244807000204, -6.7369924, -0.9882358, 7.045666, -0.4536512, -0.021056652, 9.787689
787244816638954, -6.576673, -0.22013968, 7.2095747, 0.3564645, -0.021419525, 9.754564
787244826277808, -6.708278, -0.6197411, 7.0002027, -0.09892166, 0.08845043, 9.7144375
787244835916662, -6.6759753, -0.88414794, 7.2382884, -0.2929151, -0.16032171, 9.880875
787244845555412, -6.748956, -0.13399807, 7.2622166, 0.41851187, 0.08843136, 9.905715
787244855194266, -6.769295, -1.2801601, 7.112665, -0.7113637, -0.13048458, 9.875683
787244864833121, -6.5407805, 0.20578274, 7.245467, 0.772394, 0.057970524, 9.732471
787244874471871, -6.7405815, -1.3519448, 7.04447, -0.7995019, -0.11984491, 9.809902
787244884110725, -6.580262, 0.22731815, 7.2993054, 0.79852045, 0.05565834, 9.797483
787244893749579, -6.8339014, -1.0803595, 6.995417, -0.56759524, 0.055876732, 9.822422
787244903388329, -6.62094, -0.13519448, 7.263413, 0.44542336, -0.0024785995, 9.819057
787244913027183, -6.7848487, -0.56111693, 7.0863442, -0.037166357, 0.11091709, 9.826068
787244922666037, -6.680761, -0.72023964, 7.204789, -0.14714825, -0.08714914, 9.850434
787244932304787, -6.678368, -0.08135597, 7.1413794, 0.45590508, 0.11867714, 9.766502
787244941943641, -6.7381887, -1.2346965, 7.1425757, -0.6717671, -0.14444923, 9.8727865
787244951582496, -6.6017976, 0.18903299, 7.3830543, 0.7726966, -0.020822048, 9.875802
787244961221350, -6.745367, -1.43689, 7.1377897, -0.8579532, -0.18837929, 9.88641
787244970860100, -6.593423, 0.14237295, 7.34118, 0.7182902, -0.017857075, 9.842264
787244980498954, -6.780063, -1.2299109, 6.9858456, -0.6951269, -0.018496037, 9.787769
787244990137808, -6.6352973, -0.15792629, 7.2490563, 0.4189291, 0.002568245, 9.819645
787244999776558, -6.7812595, -0.654437, 6.9044895, -0.16161454, 0.18539333, 9.696663
787245009415412, -6.619744, -0.6843473, 7.0504518, -0.13108015, -0.04104328, 9.694295
787245019054266, -6.6771717, -0.09451649, 7.1007013, 0.4370072, 0.13619328, 9.736734
787245028693016, -6.782456, -1.1282159, 7.166504, -0.56147075, -0.1279583, 9.914723
787245038331871, -6.6388865, 0.2548356, 7.3567333, 0.8402468, 0.0404315, 9.8769245
787245047970725, -6.8315086, -1.3543376, 7.07438, -0.8107667, -0.11041832, 9.893486
787245057609475, -6.6484575, 0.2321038, 7.2562346, 0.79149836, 0.11823559, 9.811644
787245067248329, -6.7609205, -1.2023934, 6.9092755, -0.69347394, 0.0019516945, 9.716634
787245076887183, -6.6484575, -0.1363909, 7.2023964, 0.4147879, 0.028824806, 9.793989
787245086525933, -6.7728844, -0.74536425, 7.0097737, -0.22345841, 0.072883606, 9.772881
787245096164787, -6.751349, -0.64606214, 7.176075, -0.09062886, -0.02245903, 9.873472
787245105803641, -6.721439, -0.17826529, 7.1186476, 0.35151327, 0.1194706, 9.78503
787245115442391, -6.721439, -1.1772687, 7.103094, -0.611922, -0.14183712, 9.829704
787245125081246, -6.6041903, 0.19142582, 7.240681, 0.74705833, 0.05677271, 9.773337
787245134720100, -6.7262244, -1.3543376, 7.066005, -0.7873293, -0.16416883, 9.816208
787245144358850, -6.5168524, 0.25962126, 7.396215, 0.87291676, -0.06364107, 9.822156
787245153997704, -6.7441707, -1.2035898, 7.0983086, -0.65205, -0.13481379, 9.842515
787245163636558, -6.6460648, 0.008374879, 7.280163, 0.57868433, 0.025167465, 9.840504
787245173275308, -6.7932234, -0.73100734, 6.9475603, -0.23236787, 0.12800455, 9.74066
787245182914162, -6.71426, -0.57906306, 7.125826, -0.036584496, -0.0050001144, 9.807785
787245192553016, -6.7932234, -0.20219351, 7.0528445, 0.29147685, 0.2084775, 9.787899
787245202191766, -6.786045, -1.105484, 7.1007013, -0.559374, -0.084524155, 9.867746
787245211830621, -6.631708, 0.17587246, 7.259824, 0.72654396, 0.062367916, 9.807333
787245221469475, -6.798009, -1.3710874, 7.0205417, -0.8297001, -0.10440254, 9.832676
787245231108225, -6.597012, 0.2644069, 7.2670026, 0.8311301, 0.05339527, 9.782954
787245240747079, -6.8111696, -1.2981063, 6.9930243, -0.76546407, -0.056795597, 9.81786
787245250385933, -6.641279, -0.0634098, 7.274181, 0.4981599, -0.01631403, 9.837475
787245260024683, -6.799206, -0.90329057, 7.0325055, -0.38382423, 0.010565758, 9.816
787245269663537, -6.6915283, -0.5455636, 7.2526455, 0.034951925, -0.10580397, 9.882441
787245279302391, -6.748956, -0.28713873, 7.0468626, 0.22282863, 0.14510012, 9.757994
787245288941141, -6.725028, -0.97866446, 7.0504518, -0.43327916, -0.07300234, 9.782618
787245298579996, -6.647261, 0.2416751, 7.166504, 0.7717915, 0.14005947, 9.74618
787245308218850, -6.798009, -1.2610176, 7.018149, -0.7358177, -0.07515097, 9.823973
787245317857704, -6.6460648, 0.33738798, 7.3136625, 0.89001, 0.072962284, 9.847651
787245327496454, -6.7968125, -1.2801601, 7.018149, -0.7584928, -0.07864094, 9.823868
787245337135308, -6.6185474, 0.03708875, 7.301698, 0.599877, -0.034025192, 9.836683
787245346774162, -6.815955, -0.8650054, 7.0169525, -0.3620758, 0.043665886, 9.81377
787245356412912, -6.7130637, -0.47018966, 7.220342, 0.086595654, -0.0534091, 9.869616
787245366051766, -6.748956, -0.32183465, 7.075577, 0.18815815, 0.10456085, 9.781076
787245375690621, -6.762117, -1.0025927, 7.0803623, -0.47007906, -0.075538635, 9.830375
787245385329371, -6.660422, 0.13399807, 7.1282187, 0.6570031, 0.12332487, 9.7336445
787245394968225, -6.7561345, -1.3615161, 6.9212394, -0.8440484, -0.059165955, 9.730711
787245404607079, -6.6460648, 0.29312077, 7.243074, 0.82639027, 0.082906246, 9.79941
787245414245829, -6.8051877, -1.2861422, 7.0301127, -0.7663791, -0.0955472, 9.83823
787245423884683, -6.6352973, 0.10289137, 7.318448, 0.66001564, -0.034458637, 9.857008
787245433523537, -6.814759, -0.91884387, 7.0492554, -0.39909327, 0.009612083, 9.839605
787245443162287, -6.6795645, -0.3900301, 7.335198, 0.17918015, -0.1398716, 9.925833
787245452801141, -6.7633133, -0.3589234, 7.1306114, 0.16106963, 0.0607934, 9.832967
787245462439996, -6.7573314, -0.910469, 7.058827, -0.39200413, -0.037889957, 9.806244
787245472078746, -6.7011, 0.09571291, 7.0372915, 0.58474827, 0.1862855, 9.698492
787245481717600, -6.800402, -1.3339987, 6.930811, -0.8277978, -0.048280716, 9.76594
787245491356454, -6.6161547, 0.31944183, 7.2323065, 0.85030735, 0.046555996, 9.77019
787245500995204, -6.8099732, -1.3184453, 7.0002027, -0.79605126, -0.084023476, 9.822226
787245510634058, -6.6592255, 0.19142582, 7.32443, 0.74997777, 0.007848263, 9.87252
787245520272912, -6.8374906, -0.8997013, 7.012167, -0.3981005, 0.03065586, 9.827095
787245529911662, -6.6676, -0.2620141, 7.233503, 0.28571057, -0.05242777, 9.836907
787245539550516, -6.775277, -0.36490545, 7.045666, 0.1250943, 0.11577511, 9.780077
787245549189371, -6.7669024, -0.8997013, 7.09113, -0.3801533, -0.07643747, 9.835354
787245558828225, -6.6759753, 0.08255238, 7.131808, 0.5826347, 0.11184311, 9.751215
787245568466975, -6.7429743, -1.3040884, 7.1007013, -0.75906324, -0.21161461, 9.8472
787245578105829, -6.6735826, 0.27996024, 7.3698936, 0.8220276, 0.008869648, 9.912346
787245587744683, -6.856633, -1.3698909, 7.190432, -0.83364224, -0.20324135, 9.992801
787245597383433, -6.6388865, 0.20219351, 7.271788, 0.7433955, 0.025561333, 9.820454
787245607022287, -6.8446693, -0.9906286, 6.869794, -0.5391402, 0.09743261, 9.732664
787245616661141, -6.7166533, -0.2739782, 7.1042905, 0.22987914, 0.05169201, 9.777726
787245626299891, -6.687939, -0.45104706, 6.7369924, -0.021694303, 0.2144661, 9.501187
787245635938746, -6.798009, -0.8446664, 6.88774, -0.3856622, 0.079790115, 9.7063
787245645577600, -6.8051877, 0.04546363, 7.153343, 0.53003764, 0.17138147, 9.857618
787245655216454, -6.832705, -1.2562319, 7.1509504, -0.7196988, -0.18410826, 9.942243
787245664855204, -6.6281185, 0.35174492, 7.3112698, 0.88045716, 0.021136284, 9.83538
787245674494058, -6.814759, -1.3016955, 7.0815587, -0.77914274, -0.14695263, 9.882063
787245684132912, -6.5850477, 0.276371, 7.3172517, 0.81168234, -0.02276659, 9.814381
787245693771662, -6.74776, -0.9954142, 7.0061846, -0.49481463, -0.05158329, 9.765359
787245703410516, -6.62094, -0.148355, 7.3782687, 0.40386736, -0.16333151, 9.904945
787245713049371, -6.799206, -0.4869394, 7.207182, 0.023615599, -0.0047769547, 9.920142
787245722688121, -6.775277, -0.77647096, 7.251449, -0.25279748, -0.1204772, 9.950497
787245732326975, -6.77767, -0.06819545, 7.1712894, 0.41682267, 0.10611296, 9.858187
787245741965829, -6.8339014, -1.3363914, 7.04447, -0.84323335, -0.07680273, 9.86893
787245751604683, -6.707082, 0.21774685, 7.30768, 0.72492933, 0.044846058, 9.894798
787245761243433, -6.8171515, -1.3866407, 7.0396843, -0.90170145, -0.10508251, 9.855425
787245770882287, -6.6305118, 0.24646074, 7.314859, 0.76347387, -0.011854649, 9.846245
787245780521141, -6.734599, -1.0133604, 6.778867, -0.56978405, 0.0823946, 9.591836
787245790159891, -6.6795645, -0.014356935, 6.910472, 0.41422927, 0.21934891, 9.599567
787245799798746, -6.832705, -0.46061835, 6.7812595, -0.05752945, 0.28675413, 9.633172
787245809437600, -6.7369924, -0.634098, 7.09113, -0.14989495, -0.034493923, 9.80049
787245819076454, -6.8171515, 0.016749758, 7.1772714, 0.48017704, 0.14574957, 9.886114
787245828715204, -6.812366, -1.1509477, 7.1892357, -0.6378038, -0.18160486, 9.948786
787245838354058, -6.678368, 0.30508488, 7.3543406, 0.82158816, 0.026137829, 9.904762
787245847992912, -6.8075805, -1.308874, 7.125826, -0.79890525, -0.20006514, 9.907342
787245857631662, -6.6305118, 0.34217364, 7.4213395, 0.8775539, -0.04244995, 9.918928
787245867270516, -6.775277, -1.0971092, 7.0504518, -0.62883735, -0.11155176, 9.8188095
787245876909371, -6.6652074, -0.038285162, 7.280163, 0.46610522, -0.043351173, 9.859416
787245886548225, -6.849455, -0.60658056, 7.04447, -0.17424095, 0.0782938, 9.842309
787245896186975, -6.7369924, -0.64247286, 7.2179494, -0.15007377, -0.12597275, 9.892434
787245905825829, -6.7298136, -0.11964113, 7.094719, 0.3260727, 0.09386921, 9.773669
787245915464683, -6.838687, -1.1712867, 7.025327, -0.7173705, -0.07028961, 9.8476
787245925103433, -6.606583, 0.30867413, 7.2023964, 0.7898234, 0.033292294, 9.746374
787245934742287, -6.7836523, -1.2394822, 6.876972, -0.7996472, -0.04388523, 9.705959
787245944381141, -6.582655, 0.44745782, 7.115058, 0.90836376, 0.11758852, 9.660054
787245954019996, -6.814759, -1.0516455, 6.856633, -0.62698567, 0.024092674, 9.703948
787245963658746, -6.765706, 0.07776674, 7.1377897, 0.5245639, 0.123304844, 9.820311
787245973297600, -6.876972, -0.6053841, 7.055238, -0.16652536, 0.061489105, 9.869352
787245982936454, -6.7812595, -0.53359944, 7.2969127, -0.03076744, -0.15270042, 9.974512
787245992575308, -6.782456, -0.078963146, 7.0337024, 0.34504128, 0.14590454, 9.764249
787246002214058, -6.808777, -1.0085747, 6.926025, -0.5790361, -0.029435635, 9.747324
787246011852912, -6.7561345, 0.30388847, 7.0983086, 0.72976494, 0.17621326, 9.775484
787246021491766, -6.802795, -1.2562319, 6.8374906, -0.83790195, -0.047225475, 9.690362
787246031130621, -6.6891356, 0.38404804, 7.135397, 0.8256298, 0.106051445, 9.75259
787246040769371, -6.867401, -1.1724831, 6.971489, -0.7256968, -0.05976963, 9.828906
787246050408225, -6.6819572, 0.033499517, 7.32443, 0.5402496, -0.09792423, 9.899268
787246060047079, -6.8662047, -0.6831509, 7.0348988, -0.24200034, 0.033776283, 9.850967
787246069685933, -6.754938, -0.46181476, 7.166504, 0.007891178, -0.07499266, 9.85878
787246079324683, -6.7669024, -0.11246266, 7.038488, 0.3210435, 0.10867882, 9.758537
787246088963537, -6.8171515, -1.026521, 7.0325055, -0.5716219, -0.10662031, 9.830835
787246098602391, -6.734599, 0.22372891, 7.099505, 0.6578656, 0.13565063, 9.765074
787246108241246, -6.849455, -1.3076776, 6.9595246, -0.851969, -0.1278348, 9.814164
787246117879996, -6.7022963, 0.33499518, 7.4129643, 0.85058784, -0.050363064, 9.962881
787246127518850, -6.8913293, -1.1952149, 7.1581287, -0.7070055, -0.175982, 9.98133
787246137157704, -6.7130637, 0.0634098, 7.460821, 0.5964683, -0.14612818, 10.017782
787246146796558, -6.8458657, -0.80757767, 7.119844, -0.34792638, -0.07988024, 9.903675
787246156435412, -6.788438, -0.45702913, 7.1425757, 0.009113908, -0.040160656, 9.864405
787246166074162, -6.8685975, -0.27517462, 6.908079, 0.11898553, 0.21336174, 9.742445
787246175713016, -6.7728844, -1.0145568, 6.899704, -0.57755697, -0.0636363, 9.704102
787246185351871, -6.7501526, 0.26919255, 6.9248285, 0.67745674, 0.24689913, 9.647299
787246194990725, -6.927222, -1.1892328, 6.862615, -0.7695155, 0.02948904, 9.793015
787246204629475, -6.647261, 0.46181476, 7.300502, 0.96317995, -0.013304234, 9.837112
787246214268329, -6.869794, -1.1485549, 7.04447, -0.67769396, -0.13908386, 9.882267
787246223907183, -6.6305118, 0.18424734, 7.37109, 0.70173335, -0.14709044, 9.890224
787246233546037, -6.8398833, -0.78723866, 6.9344, -0.35298383, 0.005754471, 9.765502
787246243184891, -6.8279195, -0.29910284, 7.1389866, 0.16173112, -0.001405716, 9.881747
787246252823641, -6.9655066, -0.2644069, 7.0337024, 0.1431278, 0.17176008, 9.900061
787246262462496, -6.847062, -0.9272188, 7.001399, -0.47856963, -0.08107662, 9.824764
787246272101350, -6.7465634, 0.21535404, 6.9296145, 0.6168221, 0.21794415, 9.651637
787246281740204, -6.853044, -1.1796615, 6.74776, -0.7784169, 0.0037708282, 9.658268
787246291378954, -6.664011, 0.45224348, 7.0600233, 0.9000771, 0.1473484, 9.676033
787246301017808, -6.863812, -1.1784651, 6.8458657, -0.74252665, -0.05858469, 9.737135
787246310656662, -6.7226353, 0.2105684, 7.3232336, 0.72112143, -0.06197548, 9.916858
787246320295516, -6.879365, -0.863809, 6.9822564, -0.42392743, -0.04398346, 9.830671
787246329934371, -6.74776, -0.25603202, 6.9990063, 0.19257975, 0.034332752, 9.723457
787246339573121, -6.9499536, -0.31226337, 6.876972, 0.06886315, 0.24254656, 9.778984
787246349211975, -6.9296145, -0.8662018, 7.056434, -0.41283953, -0.051134586, 9.919177
787246358850829, -6.8315086, 0.14476576, 7.092326, 0.5848206, 0.15135813, 9.8298855
787246368489683, -6.8805614, -1.3076776, 7.0468626, -0.82760704, -0.18611288, 9.899033
787246378128537, -6.674779, 0.2416751, 7.34118, 0.75219095, -0.104195595, 9.895824
787246387767391, -6.8482585, -1.3100704, 6.9009004, -0.8522426, -0.112659454, 9.7723255
787246397406141, -6.687939, 0.19381863, 7.2323065, 0.68028915, -0.042125225, 9.828926
787246407044996, -6.882954, -0.89013004, 6.942775, -0.45478237, 0.005608082, 9.806256
787246416683850, -6.727421, -0.20697916, 7.225128, 0.29819083, -0.10747671, 9.869298
787246426322704, -6.863812, -0.36729828, 7.192825, 0.109918356, -0.031897545, 9.948389
787246435961558, -6.847062, -0.8243274, 7.240681, -0.31573737, -0.2016244, 9.992443
787246445600308, -6.859026, 0.13519448, 7.198807, 0.5977806, 0.1099596, 9.925618
787246455239162, -6.9559355, -1.2382857, 7.082755, -0.7604023, -0.13999033, 9.974266
787246464878016, -6.8075805, 0.3481557, 7.200003, 0.81557393, 0.12299633, 9.880491
787246474516871, -6.9212394, -1.2837493, 6.8015985, -0.85754466, -0.012625694, 9.750781
787246484155725, -6.690332, 0.26799613, 7.1210403, 0.72848874, 0.059820652, 9.74717
787246493794579, -6.867401, -0.99302137, 6.8817577, -0.5507988, -0.028276443, 9.757135
787246503433433, -6.727421, -0.19381863, 7.024131, 0.2579565, 0.008649826, 9.7245865
787246513072183, -6.9020967, -0.36490545, 6.856633, 0.02946055, 0.1917305, 9.733852
787246522711037, -6.8518476, -0.70348984, 7.0803623, -0.2357732, -0.08659601, 9.874773
787246532349891, -6.8243303, 0.10887343, 6.9858456, 0.5274583, 0.1769538, 9.750685
787246541988746, -6.910472, -1.1940185, 6.916454, -0.7494894, -0.08790016, 9.820803
787246551627600, -6.751349, 0.4019942, 7.1916285, 0.87361586, 0.07842207, 9.833234
787246561266454, -6.8985076, -1.2418749, 6.8195443, -0.8110328, -0.052634716, 9.74563
787246570905204, -6.7429743, 0.31226337, 7.200003, 0.77731764, 0.03233862, 9.838699
787246580544058, -6.896115, -0.9667004, 6.9678993, -0.52962303, -0.05839348, 9.836596
787246590182912, -6.739385, -0.07298109, 7.2825556, 0.42635596, -0.12555218, 9.912754
787246599821766, -6.914061, -0.47377887, 7.025327, -0.03834796, 0.05395317, 9.868108
787246609460621, -6.8446693, -0.75613195, 7.1916285, -0.26818728, -0.18254805, 9.951659
787246619099475, -6.8135624, -0.015553347, 7.0612197, 0.41778922, 0.087871075, 9.803236
787246628738329, -6.884151, -1.2586247, 6.9224358, -0.8147125, -0.115055084, 9.809118
787246638377183, -6.7872415, 0.27158538, 7.0803623, 0.7150265, 0.12748003, 9.784908
787246648015933, -6.9822564, -1.3459628, 6.853044, -0.9329399, -0.041014194, 9.831361
787246657654787, -6.765706, 0.3278167, 7.2418776, 0.8112639, 0.045875072, 9.88265
787246667293641, -6.879365, -0.9403793, 6.853044, -0.5116501, 0.006972313, 9.742298
787246676932496, -6.7178497, 0.08135597, 7.2861447, 0.57945013, -0.10733795, 9.893267
787246686571350, -6.9009004, -0.37208393, 7.1306114, 0.0760169, -4.954338E-4, 9.92979
787246696210204, -6.7812595, -0.45583272, 7.1282187, 0.016438723, -0.10622263, 9.848515
787246705849058, -6.8817577, 0.11485548, 7.0348988, 0.5253563, 0.17835093, 9.826179
787246715487912, -6.849455, -1.0983056, 6.9583282, -0.6593101, -0.1371398, 9.802355
787246725126766, -6.741778, 0.37447673, 6.9966135, 0.7803364, 0.17438173, 9.690462
787246734765516, -7.001399, -1.3136597, 6.795616, -0.9293492, 0.035318375, 9.801058
787246744404371, -6.780063, 0.2536392, 7.176075, 0.71266955, 0.031235218, 9.849913
787246754043225, -6.969096, -1.0911272, 6.8051877, -0.70504415, 0.054327488, 9.775961
787246763682079, -6.818348, -0.032303106, 7.1485577, 0.42493367, -0.005795002, 9.869762
787246773320933, -6.926025, -0.6149554, 6.8781686, -0.21023357, 0.10437727, 9.777634
787246782959787, -6.808777, -0.6029913, 6.928418, -0.17819393, -0.007765293, 9.731094
787246792598641, -6.8721867, -0.09332009, 7.0528445, 0.3339157, 0.08610535, 9.841715
787246802237496, -6.8721867, -1.154537, 7.066005, -0.68423474, -0.19517708, 9.898588
787246811876350, -6.7501526, 0.25004998, 7.23111, 0.7211412, -0.013019085, 9.868933
787246821515204, -6.862615, -1.3507484, 7.0085773, -0.88762355, -0.21867609, 9.859234
787246831154058, -6.7178497, 0.30508488, 7.2765737, 0.78801113, -0.059806347, 9.876567
787246840792912, -6.928418, -1.1330016, 6.91765, -0.7072704, -0.046488285, 9.830472
787246850431766, -6.7298136, 0.029910283, 7.1545396, 0.5082574, -0.04035616, 9.809118
787246860070516, -6.920043, -0.59700924, 6.849455, -0.1914097, 0.12918234, 9.752186
787246869709371, -6.8039913, -0.47138608, 7.0959153, -0.008656383, -0.083614826, 9.841822
787246879348225, -6.884151, -0.09451649, 7.0540414, 0.3373723, 0.09791803, 9.850714
787246888987079, -6.9056864, -1.0648061, 6.940382, -0.6309793, -0.059360027, 9.827999
787246898625933, -6.855437, 0.276371, 7.1138616, 0.71719205, 0.13959599, 9.856297
787246908264787, -6.9391856, -1.2969099, 6.9044895, -0.8562826, -0.08182478, 9.836988
787246917903641, -6.7369924, 0.41754755, 7.1509504, 0.88286406, 0.06536484, 9.793559
787246927542496, -6.971489, -1.1210374, 6.9248285, -0.70081234, -0.034875393, 9.865052
787246937181350, -6.815955, 0.14117654, 7.332805, 0.6388799, -0.06513882, 9.991736
787246946820204, -6.975078, -0.6149554, 6.9738817, -0.19345164, 0.07873058, 9.880348
787246956459058, -6.8745794, -0.3804588, 7.0193453, 0.047098994, 0.0410614, 9.832188
787246966097912, -6.8542404, -0.0741775, 6.8279195, 0.30503452, 0.2295723, 9.667516
787246975736766, -6.8602223, -0.93559366, 6.818348, -0.53234935, 0.013308048, 9.702799
787246985375621, -6.799206, 0.31585258, 7.07438, 0.73837066, 0.12476683, 9.788517
787246995014475, -6.928418, -1.294517, 7.031309, -0.836516, -0.17131329, 9.919121
787247004653329, -6.762117, 0.36490545, 7.3064837, 0.83656883, -0.059555054, 9.926765
787247014292183, -6.9188466, -1.1629118, 6.903293, -0.74718773, -0.04799986, 9.814156
787247023931037, -6.6939216, 0.13280165, 7.160522, 0.593607, -0.05141163, 9.784903
787247033569891, -6.906883, -0.76689965, 6.926025, -0.355384, 0.026169777, 9.804897
787247043208746, -6.8398833, -0.4031906, 7.23111, 0.07594609, -0.13489676, 9.9605
787247052847600, -6.914061, -0.20697916, 7.1365933, 0.23325014, 0.032857895, 9.935923
787247062486454, -6.899704, -0.96909314, 7.064809, -0.5189264, -0.13496637, 9.908031
787247072125308, -6.8662047, 0.2416751, 7.0408807, 0.64823747, 0.17616749, 9.814577
787247081764162, -6.943971, -1.3016955, 6.741778, -0.91900885, 0.017560959, 9.722132
787247091403016, -6.788438, 0.38524446, 6.9595246, 0.7778794, 0.2130804, 9.696175
787247101041871, -6.942775, -1.2382857, 6.73101, -0.84567714, 0.042280674, 9.712107
787247110680725, -6.7405815, 0.104087785, 7.213164, 0.5704379, -0.06179762, 9.856306
787247120319579, -6.936793, -0.8470592, 7.01097, -0.40731573, -0.047178745, 9.890509
787247129958433, -6.79442, -0.35653058, 7.23111, 0.13298059, -0.15633202, 9.926635
787247139597287, -6.903293, -0.2536392, 7.0528445, 0.17499602, 0.06542683, 9.870538
787247149236141, -6.855437, -0.86979103, 7.1270223, -0.39252198, -0.18968487, 9.917557
787247158874996, -6.8099732, 0.31585258, 7.1952176, 0.7643875, 0.05796957, 9.882257
787247168513850, -6.930811, -1.1772687, 6.9798636, -0.74260235, -0.13023043, 9.877863
787247178152704, -6.7728844, 0.44147578, 7.227521, 0.9037167, 0.049710274, 9.873436
787247187791558, -6.987042, -1.2466606, 6.8578296, -0.83521986, -0.03478098, 9.833817
787247197430412, -6.762117, 0.22851457, 7.143772, 0.6780294, 0.03680992, 9.815846
787247207069266, -6.995417, -0.8542377, 6.806384, -0.4902048, 0.11734629, 9.784599
787247216708121, -6.8422766, -0.25244278, 6.9882383, 0.16113126, 0.05851984, 9.78195
787247226346975, -6.9116683, -0.276371, 6.7537417, 0.07591534, 0.253994, 9.663865
787247235985829, -6.9930243, -0.84347, 6.7537417, -0.48957825, 0.14880896, 9.744999
787247245624683, -6.966703, 0.18544376, 6.808777, 0.51453364, 0.3803692, 9.722105
787247255263537, -6.954739, -1.2526426, 6.7932234, -0.8721516, -0.012737274, 9.763432
787247264902391, -6.6759753, 0.39960137, 7.1808605, 0.8472537, -0.029952526, 9.776214
787247274541246, -6.690332, -1.294517, 7.140183, -0.7882503, -0.4199524, 9.829589
787247284180204, -6.4642105, 0.20338993, 7.629515, 0.77560174, -0.51355696, 9.958494
787247293819058, -6.77767, -0.90329057, 7.3100734, -0.4119593, -0.3375597, 9.995312
787247303457912, -6.7238317, -0.12801601, 7.459625, 0.37802815, -0.2772746, 10.032574
787247313096766, -6.9475603, -0.20219351, 7.0396843, 0.18245173, 0.14848423, 9.889959
787247322735621, -6.9894347, -0.59700924, 6.8685975, -0.241189, 0.17619276, 9.813105
787247332374475, -7.068398, 0.34576288, 6.704689, 0.6187209, 0.5877991, 9.711145
787247342013329, -7.0145597, -1.032503, 6.6352973, -0.7117132, 0.22182274, 9.682022
787247351652183, -6.799206, 0.5407779, 7.07438, 0.93061435, 0.20051098, 9.780708
787247361291037, -6.9499536, -1.2179468, 6.9320073, -0.8143041, -0.09391451, 9.8572855
787247370929891, -6.672386, 0.31106696, 7.448857, 0.7962062, -0.20661783, 9.971275
787247380568746, -6.8243303, -0.9451649, 7.225128, -0.48285794, -0.29085922, 9.967424
787247390207600, -6.695118, -0.086141616, 7.2658057, 0.368837, -0.16923237, 9.872148
787247399846454, -6.8685975, -0.38883367, 6.8171515, -0.036997557, 0.17112732, 9.68358
787247409485412, -6.856633, -0.6963114, 6.8578296, -0.32769024, 0.058078766, 9.716858
787247419124266, -6.856633, 0.17826529, 6.927222, 0.53262115, 0.23491383, 9.731018
787247428763121, -6.963114, -1.1210374, 6.940382, -0.7286482, -0.03875923, 9.868036
787247438401975, -6.762117, 0.4642076, 7.2059855, 0.89223576, 0.04932022, 9.852381
787247448040829, -6.910472, -1.1904292, 6.879365, -0.81326807, -0.037734985, 9.789513
787247457679683, -6.7645097, 0.40438703, 7.1246295, 0.8148587, 0.086318016, 9.798521
787247467318537, -6.9535427, -0.99900347, 6.806384, -0.6504767, 0.10373831, 9.759239
787247476957391, -6.8195443, -0.1471586, 7.203593, 0.2723968, -0.054454803, 9.916775
787247486596246, -6.96431, -0.57547385, 7.0133634, -0.19682455, 0.07159042, 9.898293
787247496235204, -6.8458657, -0.83748794, 7.1413794, -0.4078704, -0.15653801, 9.918453
787247505874058, -6.7848487, -0.13399807, 7.07438, 0.28265178, 0.015617371, 9.798919
787247515512912, -6.79442, -1.2454642, 6.908079, -0.82698774, -0.14748812, 9.732996
787247525151766, -6.6687965, 0.41635114, 7.055238, 0.82574797, 0.090789795, 9.681553
787247534790621, -6.8398833, -1.1952149, 6.9152575, -0.78427184, -0.109090805, 9.767617
787247544429475, -6.672386, 0.46779683, 7.3579297, 0.94025755, -0.07848787, 9.898911
787247554068329, -6.879365, -0.9415757, 7.064809, -0.50094914, -0.11364317, 9.892416
787247563707287, -6.741778, 0.061016977, 7.359126, 0.5464593, -0.13118124, 9.964748
787247573346141, -6.876972, -0.45702913, 7.064809, -0.047288656, 0.022310257, 9.869671
787247582984996, -6.8853474, -0.64247286, 7.1246295, -0.21334493, -0.06454754, 9.926302
787247592623850, -6.814759, -0.059820566, 7.058827, 0.34971404, 0.08564329, 9.805199
787247602262704, -6.863812, -1.1629118, 7.099505, -0.70666885, -0.21827507, 9.915657
787247611901558, -6.725028, 0.3361916, 7.3782687, 0.82821965, -0.076678276, 9.954197
787247621540516, -6.8781686, -1.1892328, 7.207182, -0.7092155, -0.29472542, 10.003856
787247631179371, -6.823134, -0.07178468, 7.3256264, 0.3970201, -0.10060358, 10.002869
787247640818225, -6.9092755, -0.4331009, 7.064809, -0.0058686733, 0.03191042, 9.891215
787247650457079, -6.8949184, -0.357727, 6.8805614, 0.026510835, 0.15786505, 9.745993
787247660095933, -6.9212394, -0.50009996, 6.7908306, -0.13110816, 0.18422604, 9.706592
787247669734787, -6.946364, -0.58504516, 6.8925257, -0.19530451, 0.11332655, 9.80052
787247679373746, -6.943971, -0.5599205, 6.927222, -0.16179657, 0.090512276, 9.822641
787247689012600, -6.9332037, -0.46061835, 6.778867, -0.09052205, 0.20203209, 9.704922
787247698651454, -6.9738817, -0.38644084, 6.762117, -0.02561009, 0.25552416, 9.718264
787247708290308, -6.859026, -0.32303107, 6.8219376, 0.063489676, 0.1468625, 9.678005
787247717929162, -6.8303123, -0.30029923, 6.91765, 0.104396105, 0.06860638, 9.725309
787247727568121, -6.792027, -0.317049, 7.0504518, 0.116018176, -0.04660082, 9.79415
787247737206975, -6.768099, -0.40079778, 7.222735, 0.06730354, -0.19168091, 9.9042635
787247746845829, -6.7561345, -0.44147578, 7.308877, 0.045594335, -0.25925922, 9.959451
787247756484683, -6.771688, -0.44506502, 7.2418776, 0.02692318, -0.20420885, 9.92251
787247766123537, -6.725028, -0.4127619, 7.082755, 0.0349195, -0.11341524, 9.774851
787247775762496, -6.73101, -0.3900301, 7.024131, 0.04461074, -0.06256342, 9.7360735
787247785401350, -6.759724, -0.37208393, 7.051648, 0.06328702, -0.056468964, 9.775013
787247795040204, -6.8039913, -0.36251262, 7.2382884, 0.10240483, -0.14402485, 9.93918
787247804679058, -6.7932234, -0.3361916, 7.335198, 0.14735126, -0.20391703, 10.000137
787247814318016, -6.7501526, -0.2955136, 7.271788, 0.17517066, -0.17758656, 9.923132
787247823956871, -6.799206, -0.3397808, 7.1342006, 0.08885682, -0.057536602, 9.86054
787247833595725, -6.775277, -0.5204389, 6.9248285, -0.12401223, 0.022084713, 9.701166
787247843234579, -6.829116, -0.65682983, 6.930811, -0.26449096, 0.023127556, 9.748533
787247852873433, -7.0468626, -0.60059845, 7.0504518, -0.21550691, 0.11015606, 9.98345
787247862512391, -7.1856465, -0.5395815, 7.0372915, -0.17412484, 0.23170662, 10.067976
787247872151246, -7.192825, -0.34097722, 6.9248285, 0.0028547049, 0.3524418, 9.984089
787247881790100, -7.0875406, -0.12801601, 6.7166533, 0.1871084, 0.46629143, 9.752467
787247891428954, -7.0085773, -0.051445685, 6.580262, 0.24631298, 0.51209354, 9.596863
787247901067912, -6.946364, -0.09571291, 6.6795645, 0.21896923, 0.38011122, 9.62732
787247910706766, -6.7872415, -0.20937198, 6.9535427, 0.17946911, 0.057643414, 9.71734
787247920345621, -6.6053867, -0.34337005, 7.2083783, 0.12573636, -0.2726245, 9.77853
787247929984475, -6.6101727, -0.4881358, 7.3100734, -0.0028640032, -0.36579418, 9.860834
787247939623433, -6.5455666, -0.5694918, 7.4105716, -0.05417168, -0.48801088, 9.891625
787247949262287, -6.5108705, -0.56111693, 7.513463, -0.022876382, -0.56890345, 9.941542
787247958901141, -6.6460648, -0.5419743, 7.469196, -0.031371713, -0.4290576, 10.003386
787247968540100, -6.7525454, -0.52163535, 7.391429, -0.041611195, -0.28508615, 10.020939
787247978178954, -6.875776, -0.5288138, 7.298109, -0.085650444, -0.13661146, 10.039539
787247987817808, -6.926025, -0.5419743, 7.0779696, -0.1417619, 0.0335474, 9.916652
787247997456662, -6.937989, -0.613759, 6.832705, -0.25690186, 0.17974186, 9.751922
787248007095621, -6.8685975, -0.6329016, 6.769295, -0.2747984, 0.15795135, 9.659248
787248016734475, -6.9009004, -0.66999036, 6.800402, -0.30593443, 0.14551115, 9.705772
787248026373329, -6.867401, -0.6735796, 6.906883, -0.28163302, 0.045096397, 9.759026
787248036012287, -6.8039913, -0.58504516, 7.025327, -0.16177511, -0.058276176, 9.796032
787248045651141, -6.9894347, -0.41515473, 7.056434, -0.017495751, 0.09085131, 9.940283
787248055289996, -7.1042905, -0.25603202, 7.0097737, 0.10696459, 0.24464035, 9.980089
787248064928850, -7.1007013, -0.09810573, 6.9930243, 0.25671518, 0.29322958, 9.958921
787248074567808, -6.995417, -0.069391854, 7.001399, 0.3001113, 0.21700048, 9.890558
787248084206662, -7.01097, -0.124426775, 6.9391856, 0.22473526, 0.2541194, 9.859329
787248093845516, -6.920043, -0.17587246, 6.8853474, 0.17108893, 0.20339298, 9.759882
787248103484475, -6.8111696, -0.2835495, 6.9056864, 0.08560157, 0.08255577, 9.702929
787248113123329, -6.606583, -0.31944183, 6.8111696, 0.06354022, -0.0067253113, 9.494048
787248122762183, -6.5479593, -0.3062813, 6.771688, 0.07551372, -0.019345284, 9.4243965
787248132401141, -6.6819572, -0.36729828, 6.8889365, 0.017934918, -0.019235134, 9.604177
787248142039996, -6.7441707, -0.37806597, 7.0695944, 0.03312683, -0.094557285, 9.777315
787248151678850, -6.7669024, -0.3182454, 7.2358956, 0.11619294, -0.16017866, 9.91016
787248161317808, -6.855437, -0.30388847, 7.2849483, 0.12572038, -0.12772846, 10.006384
787248170956662, -6.9009004, -0.22731815, 7.257431, 0.1821822, -0.04940939, 10.015428
787248180595516, -6.9583282, -0.21535404, 7.166504, 0.16553986, 0.05316162, 9.989658
787248190234475, -7.015756, -0.276371, 7.0528445, 0.075388074, 0.15434027, 9.950394
787248199873329, -7.0133634, -0.38883367, 6.9583282, -0.05044663, 0.1803956, 9.885429
787248209512183, -6.948757, -0.5192425, 6.832705, -0.19137919, 0.18300962, 9.755541
787248219151141, -6.943971, -0.5419743, 6.7968125, -0.2188065, 0.19928837, 9.727361
787248228789996, -6.9224358, -0.42831525, 6.849455, -0.09464276, 0.17108822, 9.745788
787248238428850, -6.8518476, -0.27517462, 6.8650084, 0.06742525, 0.15018606, 9.701792
787248248067808, -6.721439, -0.16151553, 6.847062, 0.19283438, 0.09842157, 9.593706
787248257706662, -6.6221366, -0.17228323, 7.1677003, 0.24946201, -0.17450428, 9.755287
787248267345516, -6.63769, -0.20458634, 7.440482, 0.26748192, -0.35411692, 9.963164
787248276984475, -6.778867, -0.25962126, 7.2550383, 0.14640534, -0.11937094, 9.9307785
787248286623329, -6.995417, -0.45822555, 7.173682, -0.09657085, 0.04776144, 10.029751
787248296262183, -6.926025, -0.63170516, 6.91765, -0.30514038, 0.12893009, 9.803725
787248305901141, -6.903293, -0.6939186, 6.741778, -0.39432287, 0.21718168, 9.663638
787248315539996, -6.853044, -0.62093747, 6.991828, -0.26616037, 0.03784752, 9.806282
787248325178850, -6.727421, -0.57906306, 7.365108, -0.13764453, -0.27944565, 9.987056
787248334817808, -6.6975107, -0.58504516, 7.4787674, -0.12072837, -0.37689114, 10.048595
787248344456662, -6.62094, -0.54675996, 7.459625, -0.0783571, -0.40011835, 9.980761
787248354095621, -6.626922, -0.4546363, 7.1976104, -0.036903262, -0.19527674, 9.792288
787248363734475, -6.63769, -0.39960137, 7.0504518, -0.010391831, -0.07617617, 9.691315
787248373373329, -6.8015985, -0.48454657, 7.160522, -0.093239665, -0.055897713, 9.887253
787248383012287, -6.884151, -0.59342, 7.0875406, -0.22362196, 0.028104305, 9.895762
787248392651141, -6.890133, -0.60658056, 7.0600233, -0.24159884, 0.04455328, 9.88056
787248402289996, -6.835098, -0.6329016, 7.2059855, -0.22835505, -0.10455799, 9.948984
787248411928954, -6.7166533, -0.54436713, 7.533802, -0.06375313, -0.3887558, 10.100136
787248421567808, -6.802795, -0.30867413, 7.818548, 0.20523119, -0.46188164, 10.356039
787248431206766, -6.9391856, -0.05503492, 7.6666036, 0.40526605, -0.20265388, 10.330868
787248440845621, -6.7968125, 0.20338993, 7.094719, 0.56149125, 0.13400984, 9.810191
787248450484475, -6.7848487, 0.23449662, 6.4941206, 0.46875256, 0.5021548, 9.3696785
787248460123433, -6.873383, 0.09571291, 6.282356, 0.2812531, 0.67460966, 9.28366
787248469762287, -6.9056864, -0.09571291, 6.40439, 0.10991919, 0.55696774, 9.40168
787248479401246, -7.0002027, -0.30149564, 6.7226353, -0.047486424, 0.3534956, 9.703625
787248489040100, -7.051648, -0.44626144, 7.3399835, -0.08318412, -0.062286377, 10.187712
787248498678954, -7.062416, -0.64965135, 7.6031938, -0.23383832, -0.27784157, 10.391171
787248508317912, -6.863812, -0.6472585, 7.385447, -0.24514675, -0.26814795, 10.096718
787248517956766, -6.735796, -0.59342, 6.8781686, -0.26173377, -0.013856888, 9.641764
787248527595725, -6.5742803, -0.43908295, 6.4881387, -0.1591475, 0.16830826, 9.244255
787248537234579, -6.698707, -0.37686956, 6.452246, -0.121276855, 0.28528118, 9.30323
787248546873433, -6.896115, -0.317049, 6.680761, -0.050442576, 0.28568363, 9.60236
787248556512391, -7.0348988, -0.3182454, 6.930811, -0.02844441, 0.21889496, 9.878183
787248566151246, -6.9990063, -0.22971097, 6.9966135, 0.07164073, 0.17335129, 9.897285
787248575790204, -6.9523463, -0.21894327, 6.8721867, 0.06828165, 0.22591352, 9.7751875
787248585429058, -6.823134, -0.19621146, 6.8075805, 0.090293646, 0.18939686, 9.63809
787248595068016, -6.6460648, -0.19980069, 6.9152575, 0.12901187, -0.008599758, 9.5924015
