timestamp_acc,device_acc_x,device_acc_y,device_acc_z,earth_acc_x,earth_acc_y,earth_acc_z
787016837888837, 0.6197411, 5.298906, 6.503692, 0.24101856, 0.56473637, 8.389485
787016847527796, 0.68075806, 5.300102, 6.4438715, 0.3027721, 0.5758338, 8.345942
787016857166754, 0.5766702, 5.239085, 6.4869423, 0.20334645, 0.48928094, 8.341478
787016866805608, 0.4534399, 5.1469617, 6.7405815, 0.08570075, 0.26041412, 8.488646
787016876444567, 0.44985065, 5.2845488, 7.292127, 0.06438439, 0.05570841, 9.016468
787016886083525, 0.5419743, 5.436493, 7.6031938, 0.14126924, 0.0076708794, 9.361503
787016895722379, 0.5706882, 5.6171513, 7.5062847, 0.15788221, 0.21700907, 9.388842
787016905361337, 0.67836523, 5.8265233, 7.082755, 0.25051847, 0.6408777, 9.170631
787016915000296, 0.7680961, 6.088537, 6.7429743, 0.32742155, 1.062129, 9.049455
787016924639254, 0.695115, 6.2668023, 6.741778, 0.22625606, 1.2167304, 9.147455
787016934278108, 0.6089734, 6.4438715, 6.969096, 0.12185337, 1.2238197, 9.431334
787016943917067, 0.43429732, 6.5754766, 7.2562346, -0.058994707, 1.1818876, 9.730268
787016953556025, 0.26799613, 6.666404, 7.4380894, -0.25458425, 1.152422, 9.921948
787016963194879, 0.18544376, 6.6735826, 7.776674, -0.32404447, 0.95824575, 10.19924
787016972833837, 0.06460621, 6.539584, 8.359326, -0.42118496, 0.5273137, 10.592129
787016982472796, -0.05503492, 6.3361945, 9.084352, -0.51291305, -0.005133152, 11.064028
787016992111754, 0.023928227, 6.1232333, 9.692128, -0.42159384, -0.48770094, 11.446238
787017001750608, 0.0634098, 5.8480587, 10.098908, -0.36703515, -0.92064095, 11.627961
787017011389567, 0.111266255, 5.584848, 10.394422, -0.3195679, -1.2971301, 11.724429
787017021028525, 0.14955142, 5.3682976, 10.606186, -0.28841615, -1.5753055, 11.77996
787017030667379, 0.20578274, 5.2079782, 10.669596, -0.22938918, -1.7325025, 11.745275
787017040306337, 0.29910284, 5.081159, 10.399207, -0.115695834, -1.6818438, 11.454658
787017049945296, 0.31345975, 4.9866424, 9.9015, -0.09096224, -1.5033641, 10.988001
787017059584150, 0.3900301, 4.942375, 9.332008, 0.017840728, -1.2133055, 10.4972925
787017069223108, 0.5300102, 4.962714, 8.725428, 0.15009286, -0.86469793, 10.013605
787017078862067, 0.58983076, 4.914858, 8.1344, 0.22172314, -0.60525656, 9.500353
787017088501025, 0.6687939, 4.9519463, 7.6833534, 0.29607183, -0.33038282, 9.154571
787017098139879, 0.8817552, 5.0536413, 7.1653075, 0.49150524, 0.061350822, 8.7984705
787017107778837, 0.9726824, 5.1290154, 6.8985076, 0.5675757, 0.28432155, 8.627825
787017117417796, 0.99900347, 5.160122, 6.778867, 0.5961138, 0.35175014, 8.549786
787017127056650, 0.9595219, 5.24746, 6.754938, 0.54575074, 0.4277885, 8.579328
787017136695608, 0.89730847, 5.3156557, 6.7322063, 0.48473787, 0.47882247, 8.597658
787017146334567, 0.80757767, 5.447261, 6.7501526, 0.37813982, 0.57743144, 8.684065
787017155973525, 0.65084773, 5.588437, 7.0025954, 0.21718502, 0.5386777, 8.963997
787017165612379, 0.60777694, 5.7284174, 7.4739814, 0.16489333, 0.3771782, 9.427359
787017175251337, 0.6556334, 5.892326, 7.960921, 0.20997453, 0.24272346, 9.920817
787017184890296, 0.61016977, 5.985646, 8.246863, 0.15626793, 0.17825603, 10.205627
787017194529150, 0.61854464, 6.114858, 8.458628, 0.15266037, 0.16460514, 10.453329
787017204168108, 0.6664011, 6.262017, 8.738588, 0.18481144, 0.15073442, 10.768612
787017213807067, 0.5778667, 6.317052, 8.878569, 0.09278595, 0.10842085, 10.910897
787017223445921, 0.38285163, 6.2679987, 8.845069, -0.095751755, 0.08357954, 10.846819
787017233084879, 0.29072794, 6.2177496, 8.530413, -0.18524499, 0.21591616, 10.556132
787017242723837, 0.317049, 6.256035, 8.2348995, -0.16383108, 0.42003345, 10.336769
787017252362796, 0.10049855, 6.1567326, 8.2456665, -0.36950597, 0.31697083, 10.279567
787017262001650, 0.08733802, 6.2584276, 8.573483, -0.3903729, 0.21398544, 10.605752
787017271640608, 0.15672988, 6.282356, 8.734999, -0.33229482, 0.14355087, 10.754616
787017281279567, 0.22851457, 6.2141604, 8.52802, -0.25548568, 0.21338892, 10.549138
787017290918421, 0.10767702, 6.023931, 8.109276, -0.3655848, 0.2816801, 10.091913
787017300557379, 0.19501504, 5.895915, 7.9034934, -0.26520696, 0.28688383, 9.854564
787017310196337, 0.38404804, 5.7726846, 7.946564, -0.06807623, 0.1731062, 9.827751
787017319835192, 0.34217364, 5.5274205, 8.116454, -0.08704518, -0.13259268, 9.824516
787017329474150, 0.24047868, 5.282156, 8.233703, -0.1603409, -0.4115095, 9.775368
787017339113108, 0.27876383, 5.215157, 8.221739, -0.114082836, -0.45762014, 9.72883
787017348751962, 0.23569304, 5.1361938, 8.1020975, -0.1437748, -0.46407032, 9.583527
787017358390921, 0.31226337, 5.174479, 7.877172, -0.085362874, -0.2990346, 9.424747
787017368029879, 0.43788654, 5.2546387, 7.59123, 0.027854098, -0.064813614, 9.242551
787017377668837, 0.6053841, 5.369494, 7.4105716, 0.18513471, 0.14429522, 9.168393
787017387307692, 0.8327023, 5.5190454, 7.359126, 0.3895027, 0.30045652, 9.223233
787017396946650, 0.9762716, 5.5920267, 7.23111, 0.53195953, 0.43715048, 9.167265
787017406585608, 1.0013963, 5.5465627, 7.304091, 0.56139857, 0.34609604, 9.20228
787017416224462, 0.8853444, 5.4053864, 7.550552, 0.44282198, 0.094177246, 9.317078
787017425863421, 0.7704889, 5.3515477, 8.118847, 0.32696533, -0.26393843, 9.745349
787017435502379, 0.5240282, 5.21755, 8.611769, 0.09348955, -0.6533222, 10.061033
787017445141233, 0.33499518, 5.2833524, 8.673982, -0.08740164, -0.6469145, 10.1409
787017454780192, 0.22851457, 5.416154, 8.585447, -0.19730861, -0.4849968, 10.140154
787017464419150, 0.25603202, 5.6039906, 8.705089, -0.18231213, -0.38844967, 10.347207
787017474058108, 0.36131623, 5.855237, 9.004191, -0.10646659, -0.32359648, 10.741217
787017483696962, 0.47018966, 5.9844494, 9.3200445, -0.01826885, -0.38170862, 11.079346
787017493335921, 0.6113662, 6.0311093, 9.359526, 0.114713445, -0.3563671, 11.144892
787017502974879, 0.79441714, 5.9952173, 9.269794, 0.26659256, -0.33146763, 11.059922
787017512613733, 0.8327023, 5.953343, 9.153743, 0.29840368, -0.30639124, 10.942751
787017522252692, 0.8243274, 5.8672013, 9.016156, 0.29789054, -0.2988763, 10.78038
787017531891650, 0.7501499, 5.7379885, 8.715857, 0.2285867, -0.26417208, 10.456163
787017541530504, 0.6556334, 5.633901, 8.249256, 0.15403348, -0.0844326, 10.009499
787017551169462, 0.54436713, 5.6243296, 7.9154572, 0.06019935, 0.083129406, 9.724883
787017560808421, 0.4235296, 5.623133, 7.771888, -0.051587984, 0.14813757, 9.600866
787017570447275, 0.32063824, 5.613562, 7.6534433, -0.13994369, 0.17868757, 9.494133
787017580086233, 0.3062813, 5.6075797, 7.576873, -0.15342891, 0.21713543, 9.427464
787017589725192, 0.32542387, 5.5740805, 7.5828547, -0.1258005, 0.16810608, 9.41445
787017599364046, 0.21655045, 5.493921, 7.5122666, -0.22965734, 0.13156605, 9.305598
787017609003004, 0.059820566, 5.49751, 7.3842506, -0.38871846, 0.17868042, 9.196213
787017618641962, 0.21296121, 5.6554365, 7.428518, -0.25455165, 0.29592133, 9.330586
787017628280817, 0.17706887, 5.6506505, 7.7072816, -0.28443807, 0.12579632, 9.553358
787017637919775, 0.22971097, 5.85763, 7.987242, -0.24733327, 0.14182472, 9.903502
787017647558733, 0.4235296, 5.9916277, 8.039884, -0.06679316, 0.23902082, 10.032803
787017657197587, 0.5599205, 6.047859, 7.9980097, 0.068192564, 0.3209405, 10.037461
787017666836546, 0.6987042, 6.131608, 7.806584, 0.20087042, 0.5093427, 9.936186
787017676475504, 0.80997044, 6.06102, 7.7156568, 0.32694867, 0.5047722, 9.82658
787017686114358, 0.8171489, 5.8839507, 7.8592257, 0.35172433, 0.27135897, 9.841682
787017695753317, 0.802792, 5.7810597, 8.093722, 0.34986317, 0.057728767, 9.972348
787017705392275, 0.7692925, 5.6303115, 8.222935, 0.3246908, -0.13892889, 9.989202
787017715031129, 0.5814559, 5.485546, 8.4502535, 0.16040465, -0.38447762, 10.082786
787017724670087, 0.5371887, 5.4580283, 8.700303, 0.11998343, -0.55268145, 10.269085
787017734309046, 0.36131623, 5.474778, 8.95155, -0.04942555, -0.6869879, 10.476621
787017743947900, 0.35413775, 5.473582, 9.079565, -0.05214574, -0.7534361, 10.580814
787017753586858, 0.18185452, 5.4556355, 9.24467, -0.22155821, -0.87341547, 10.698084
787017763225817, 0.30508488, 5.584848, 8.860622, -0.09110178, -0.5474014, 10.463569
787017772864671, 0.38285163, 5.709275, 8.309076, -0.030420884, -0.12198067, 10.087979
787017782503629, 0.43070808, 5.773881, 7.9130645, 0.012956455, 0.15504742, 9.803856
787017792142587, 0.4211368, 5.8073807, 7.9190464, 0.0043263026, 0.17102146, 9.82777
787017801781442, 0.5132605, 5.7750773, 8.336594, 0.10264973, -0.09553242, 10.153524
787017811420400, 0.6305088, 5.804988, 8.603394, 0.21528777, -0.22950506, 10.393017
787017821059358, 0.64606214, 5.6889358, 8.376076, 0.23944363, -0.19061708, 10.141319
787017830698212, 0.58504516, 5.723632, 7.940582, 0.1716091, 0.05691862, 9.804203
787017840337171, 0.50368917, 5.631508, 7.7623167, 0.097657405, 0.08267307, 9.602331
787017849976129, 0.526421, 5.569295, 7.7156568, 0.121515885, 0.045148373, 9.529362
787017859614983, 0.47377887, 5.4999027, 7.54457, 0.07348828, 0.06457567, 9.3479595
787017869253942, 0.39361933, 5.3647084, 7.409375, 0.0049680993, 0.023224354, 9.156054
787017878892900, 0.39840496, 5.956932, 7.5996046, -0.025236584, 0.3917737, 9.656277
787017888531754, 0.4426722, 4.8562336, 7.3830543, 0.084462285, -0.38147283, 8.839445
787017898170712, 0.2428715, 6.2117677, 8.200203, -0.18819633, 0.22878647, 10.285943
787017907809671, 0.6448657, 5.2462635, 7.359126, 0.27590743, -0.047677517, 9.056351
787017917448525, 0.08135597, 5.8947186, 8.422736, -0.31478465, -0.17394209, 10.274603
787017927087483, 0.7190432, 5.918647, 7.2095747, 0.32123613, 0.59151363, 9.331253
787017936726337, 0.025124637, 5.5501523, 7.9106717, -0.3371864, -0.16210175, 9.656272
787017946365296, 0.506082, 6.5431733, 7.1629148, 0.06416734, 1.1060781, 9.651375
787017956004254, 0.043070808, 5.279763, 7.726424, -0.2821762, -0.26376104, 9.350197
787017965643108, 0.24646074, 6.8243303, 8.099705, -0.166362, 0.7743778, 10.564568
787017975282067, 0.106480606, 5.3072805, 8.088937, -0.21624005, -0.43698788, 9.662907
787017984921025, -0.13998012, 6.8243303, 9.000603, -0.5406919, 0.24972486, 11.280391
787017994559879, 0.14356937, 5.76431, 8.115258, -0.19613613, -0.07947779, 9.952915
787018004198837, -0.4319045, 6.418747, 9.052048, -0.80225074, -0.10871124, 11.075694
787018013837692, 0.3062813, 6.290731, 7.6737823, -0.043806575, 0.6142421, 9.908322
787018023476650, -0.23808585, 5.845666, 8.280363, -0.56953627, -0.12177801, 10.1219425
787018033115608, 0.3696911, 6.73101, 7.48116, -0.0029297685, 1.0700946, 10.013282
787018042754462, -0.023928227, 5.428118, 7.908279, -0.32480672, -0.2516532, 9.583167
787018052393421, 0.23808585, 6.8279195, 7.8580294, -0.13577682, 0.9133291, 10.371748
787018062032379, 0.18544376, 5.180461, 7.432107, -0.092330724, -0.17348623, 9.059203
787018071671233, 0.031106694, 6.552745, 8.053044, -0.29846823, 0.57561827, 10.361975
787018081310192, 0.2883351, 5.261817, 7.3160553, 0.00623874, -0.03301716, 9.016285
787018090949046, -0.20697916, 5.99761, 8.689535, -0.5360712, -0.25865078, 10.543621
787018100588004, 0.50129634, 5.7403817, 7.6941214, 0.181849, 0.14405107, 9.6098385
787018110226962, -0.049052864, 5.380262, 8.853444, -0.33416808, -0.8561368, 10.3193245
787018119865817, 0.64247286, 6.1435723, 8.176275, 0.29114297, 0.19062138, 10.241418
787018129504775, 0.27158538, 4.8765726, 8.652447, -0.008193344, -1.128439, 9.871479
787018139143629, 0.634098, 6.270392, 8.572288, 0.2569554, 0.06720066, 10.636422
787018148782587, 0.54675996, 4.666004, 8.215756, 0.26105234, -1.0303304, 9.404225
787018158421546, 0.27756742, 6.0155563, 8.671589, -0.07601358, -0.22587872, 10.5547905
787018168060400, 0.59700924, 4.752146, 7.598408, 0.3107826, -0.6106405, 8.95576
787018177699358, 0.11485548, 5.595616, 8.269595, -0.21549913, -0.33837938, 9.977444
787018187338212, 0.65682983, 5.2833524, 6.806384, 0.36538303, 0.26424074, 8.62953
787018196977171, 0.069391854, 5.093123, 7.6127653, -0.224403, -0.37776136, 9.149091
787018206616129, 0.6987042, 5.9246287, 6.812366, 0.3855616, 0.7799268, 9.01337
787018216254983, 0.14476576, 4.7952166, 7.5026956, -0.13796803, -0.5468447, 8.887488
787018225893942, 0.43788654, 6.2488565, 7.6019974, 0.07962546, 0.5822334, 9.832854
787018235532796, 0.31345975, 4.7425747, 7.3902326, 0.07272777, -0.4949684, 8.77243
787018245171754, 0.13878371, 6.1854467, 7.8424764, -0.2019375, 0.3933587, 9.979377
787018254810712, 0.46301118, 5.099105, 7.1449685, 0.19406635, -0.027367115, 8.787913
787018264449567, 0.19262223, 6.13759, 8.526823, -0.1339308, 7.6818466E-4, 10.506946
787018274088525, 0.7716853, 5.757131, 7.713264, 0.46152547, 0.2091384, 9.6425
787018283727379, 0.14117654, 5.6685967, 8.775677, -0.16869882, -0.5045681, 10.434673
787018293366337, 0.8554341, 6.3948183, 7.87119, 0.5073089, 0.64851236, 10.144119
787018303005192, 0.29192436, 5.3180485, 8.391629, -0.024157003, -0.5303273, 9.924942
787018312644150, 0.48215377, 6.672386, 7.932207, 0.1295011, 0.8532963, 10.340611
787018322283108, 0.11724831, 5.1050873, 7.6606216, -0.17273682, -0.26329565, 9.201176
787018331921962, -0.21296121, 6.611369, 8.321041, -0.57290846, 0.56690454, 10.599325
787018341560921, -0.2548356, 5.21755, 7.665407, -0.50903314, -0.16526699, 9.26066
787018351199775, -1.0301101, 6.1770716, 8.612965, -1.3307201, 0.028957367, 10.565456
787018360838733, -0.7788638, 5.6685967, 7.3136625, -1.0356805, 0.39685583, 9.219498
787018370477587, -1.4679967, 5.7451673, 8.036295, -1.7056216, 0.014330387, 9.840461
787018380116546, -0.8111669, 6.4055862, 6.9738817, -1.0985845, 1.1904912, 9.364849
787018389755400, -1.0372887, 5.631508, 7.6833534, -1.249553, 0.14335918, 9.499571
787018399394358, -0.26919255, 7.1186476, 7.7312098, -0.5831758, 1.3957105, 10.403418
787018409033317, -0.22013968, 5.602794, 7.9573317, -0.4281503, 0.047235012, 9.724881
787018418672171, 0.02871387, 7.099505, 8.682357, -0.23402077, 0.9023309, 11.176681
787018428311129, 0.43429732, 5.5908303, 8.025527, 0.20539586, 0.06925535, 9.78816
787018437949983, 0.12203395, 6.541977, 8.817552, -0.13929996, 0.39301538, 10.972132
787018447588942, 0.6843473, 5.7116675, 7.5122666, 0.43907797, 0.47718668, 9.43955
787018457227796, 0.06699903, 5.639883, 8.415557, -0.17652485, -0.114322186, 10.128678
787018466866754, 0.7178468, 5.919843, 7.385447, 0.43859386, 0.7351017, 9.453672
787018476505712, 0.27517462, 4.88734, 8.126026, 0.060371127, -0.5528889, 9.470205
787018486144567, 0.77647096, 6.070591, 8.003992, 0.47137773, 0.5385933, 10.050204
787018495783525, 0.4235296, 4.369294, 8.463413, 0.2843954, -1.1239522, 9.463367
787018505422379, 0.5096712, 5.8468623, 9.35833, 0.24394482, -0.3869462, 11.036968
787018515061337, 0.8817552, 4.28076, 8.803194, 0.7559004, -1.2947423, 9.713438
787018524700192, 0.4139583, 5.377869, 9.469596, 0.1848385, -0.79640293, 10.867274
787018534339150, 1.274178, 4.9519463, 7.8424764, 1.0223054, -0.12524366, 9.305319
787018543978004, 0.7501499, 5.3623157, 8.926425, 0.48298034, -0.43934155, 10.419786
787018553616962, 1.5122639, 5.837291, 8.281559, 1.1429605, 0.41585064, 10.171814
787018563255817, 0.9798609, 5.194818, 9.529416, 0.66943336, -0.8647971, 10.842511
787018572894775, 1.5002998, 6.485746, 9.452846, 1.0579596, 0.32189226, 11.508658
787018582533629, 1.2813566, 5.069195, 9.5665045, 0.96293354, -0.9480519, 10.818067
787018592172587, 1.4727824, 6.6041903, 9.476774, 1.0013516, 0.42008114, 11.593727
787018601811442, 1.625923, 5.0775695, 8.543573, 1.2958753, -0.3149991, 9.981957
787018611450400, 1.2131611, 6.195018, 9.377472, 0.7842784, 0.08681917, 11.276717
787018621089358, 1.6498512, 5.2630134, 8.216953, 1.2787055, -0.01570797, 9.813477
787018630728212, 0.849452, 5.424529, 8.970692, 0.4822767, -0.3754878, 10.499849
787018640367171, 1.2777673, 5.6004014, 7.7850485, 0.8783063, 0.42395258, 9.625645
787018650006025, 0.5204389, 4.7976093, 8.754142, 0.19374514, -0.833941, 9.959414
787018659644983, 0.9320044, 5.9437714, 8.506484, 0.50520843, 0.27600527, 10.403168
787018669283837, 0.3696911, 4.365705, 8.776874, 0.09971784, -1.2282279, 9.731962
787018678922796, 0.43788654, 5.8600225, 8.836694, 0.022221483, -0.03224325, 10.612127
787018688561650, 0.5694918, 4.3274198, 8.013563, 0.2823852, -0.8305836, 9.082866
787018698200608, 0.26799613, 5.5477595, 8.523234, -0.11993204, -0.1694045, 10.171131
787018707839462, 0.80877405, 4.6600223, 7.155736, 0.47805417, -0.07993817, 8.563852
787018717478421, 0.37447673, 5.1014977, 8.005188, 0.019891977, -0.25216818, 9.496556
787018727117275, 1.1270195, 5.355137, 6.759724, 0.7147139, 0.7082863, 8.638811
787018736756233, 0.56829536, 4.8490553, 7.6797643, 0.22195522, -0.28186607, 9.0932045
787018746395087, 1.1150553, 6.0526447, 7.3196445, 0.63292706, 0.9507103, 9.494767
787018756034046, 0.695115, 4.6707897, 7.9190464, 0.34848553, -0.56733155, 9.196057
787018765672900, 0.7968099, 6.2727847, 8.449057, 0.30947798, 0.46758318, 10.538259
787018775311858, 0.7465607, 4.7377887, 8.252846, 0.37867203, -0.7024307, 9.511921
787018784950712, 0.39840496, 6.1435723, 9.019745, -0.039625973, 0.012248516, 10.920452
787018794589671, 0.66041905, 5.17089, 7.643872, 0.304907, 0.002512455, 9.247165
787018804228525, -0.18903299, 5.721239, 8.2253275, -0.5681719, 0.04484129, 10.004974
787018813867483, 0.11964113, 5.7894344, 6.7728844, -0.26565492, 0.9606967, 8.854961
787018823506337, -0.70348984, 5.2977095, 7.865208, -1.0294592, -0.15742111, 9.451853
787018833145296, -0.24526432, 6.4175506, 7.7072816, -0.69193923, 0.9104428, 9.966926
787018842784150, -0.74416786, 5.1254263, 8.57468, -1.0102257, -0.6685014, 9.943916
787018852423108, -0.5419743, 6.686743, 8.962317, -0.9640342, 0.40441418, 11.146141
787018862061962, -0.38404804, 5.18405, 8.772088, -0.6482069, -0.68550825, 10.152898
787018871700921, -0.5838487, 6.4905314, 9.425328, -0.9568214, 0.0060129166, 11.418808
787018881339775, -0.1268196, 5.2893343, 8.037491, -0.4207495, -0.1518116, 9.612198
787018890978733, -0.5288138, 5.8337016, 8.688339, -0.85506546, -0.10114241, 10.443066
787018900617587, 0.1268196, 5.669793, 7.3292155, -0.23278612, 0.5610409, 9.24722
787018910256546, -0.38285163, 5.2283173, 8.427522, -0.6726653, -0.4429803, 9.892235
787018919895400, 0.30508488, 6.1196437, 7.9836526, -0.06533019, 0.58609295, 10.046595
787018929534358, -0.09810573, 4.855037, 8.712267, -0.34892353, -0.89653563, 9.927693
787018939173212, 0.16749759, 6.3457656, 9.109476, -0.20649433, 0.12815428, 11.100464
787018948812171, 0.16031912, 4.7377887, 9.046066, -0.090567015, -1.1501594, 10.147541
787018958451025, 0.09930214, 6.262017, 9.65504, -0.2588746, -0.24282646, 11.502893
787018968089983, 0.5072784, 5.1649075, 8.352147, 0.2212726, -0.37878895, 9.823418
787018977728837, -0.17347965, 5.8217373, 9.083155, -0.5137154, -0.3168211, 10.773213
787018987367796, 0.3912265, 5.6243296, 7.751549, 0.040731236, 0.29668427, 9.580344
787018997006650, -0.19501504, 5.3180485, 8.62134, -0.5164194, -0.49500704, 10.106209
787019006645608, 0.46301118, 6.212964, 7.844869, 0.058631547, 0.7125311, 9.992305
787019016284462, -0.0047856453, 5.0452666, 8.505288, -0.321495, -0.64779997, 9.86264
787019025923421, 0.28235307, 6.559923, 8.626125, -0.14411981, 0.5340133, 10.8266535
787019035562275, 0.14117654, 5.040481, 8.397611, -0.1728954, -0.60100937, 9.775232
787019045201233, -0.0011964113, 6.5635123, 8.800801, -0.42995462, 0.39458847, 10.963267
787019054840087, 0.4139583, 5.424529, 7.3627152, 0.051053286, 0.3011365, 9.14949
787019064479046, 0.06580263, 6.2440705, 8.115258, -0.36144114, 0.49879837, 10.221094
787019074117900, 0.77407813, 5.9114685, 7.1365933, 0.32579133, 0.83691263, 9.255758
787019083756858, 0.2632105, 5.656633, 8.426325, -0.14797406, -0.18553638, 10.149551
787019093395712, 1.0193424, 6.296713, 7.891529, 0.5288025, 0.7131891, 10.108195
787019103034671, 0.67836523, 5.0129633, 9.016156, 0.3129163, -1.0178833, 10.283339
787019112673525, 1.0133604, 6.330212, 9.376275, 0.5049616, -0.13375378, 11.346372
787019122312483, 0.8889336, 4.6672006, 9.250652, 0.50155455, -1.4355319, 10.287625
787019131951337, 0.71306115, 6.076573, 9.577272, 0.20899107, -0.50664806, 11.351519
787019141590192, 0.7513463, 4.753342, 8.207381, 0.39014956, -0.77824926, 9.474281
787019151229150, 0.10289137, 5.6733823, 8.687142, -0.3715598, -0.3981924, 10.361837
787019160868004, 0.53240305, 5.3012986, 7.097112, 0.068118885, 0.24053526, 8.87095
787019170506962, -0.19381863, 5.186443, 7.719246, -0.62641865, -0.31163645, 9.27545
787019180145817, 0.4534399, 5.9294147, 6.7872415, -0.08497886, 0.8820944, 8.98025
787019189784775, -0.02632105, 4.87418, 7.496713, -0.4439676, -0.45209432, 8.919504
787019199423629, 0.32662028, 6.364908, 7.3806615, -0.27938426, 0.8398347, 9.711309
787019209062587, 0.2440679, 4.8299127, 7.018149, -0.21242997, -0.20046878, 8.5180235
787019218701442, 0.24526432, 6.3888364, 7.1892357, -0.3605254, 0.943274, 9.567797
787019228340400, 0.45224348, 5.09073, 6.0658054, -0.034909204, 0.5588465, 7.9120493
787019237979254, -0.076570325, 6.0526447, 6.983453, -0.6885344, 0.7303014, 9.187033
787019247618212, 0.4534399, 5.5250273, 6.007181, -0.083485976, 0.9286318, 8.120864
787019257257067, -0.07058827, 5.666204, 7.496713, -0.6504272, 0.11478281, 9.374183
787019266896025, 0.64008003, 6.3385873, 7.3064837, -6.1850995E-4, 0.8377857, 9.65765
787019276534879, 0.13040884, 5.4317074, 8.526823, -0.45111114, -0.63757133, 10.080535
787019286173837, 0.56470615, 6.8482585, 8.63809, -0.18271002, 0.48524666, 11.025664
787019295812692, 0.4223332, 5.3419766, 8.711071, -0.16421045, -0.7743888, 10.196627
787019305451650, 0.37806597, 6.9020967, 9.157332, -0.42195454, 0.2246356, 11.463426
787019315090504, 0.50368917, 5.5250273, 8.376076, -0.15846089, -0.40378475, 10.037437
787019324729358, 0.069391854, 6.617351, 9.188439, -0.7280775, -0.038410664, 11.3
787019334368317, 0.6963114, 6.038288, 8.02792, -0.04803949, 0.2349, 10.066567
787019344007171, 0.18305093, 6.151947, 9.208778, -0.59971416, -0.421144, 11.051904
787019353646129, 0.99661064, 6.5647087, 8.628518, 0.15223595, 0.33677626, 10.881331
787019363284983, 0.7645068, 5.6745787, 9.534202, 0.02798023, -0.934505, 11.0820675
787019372923942, 1.4955142, 6.942775, 9.200403, 0.56723714, 0.34966612, 11.603537
787019382562796, 1.3734802, 5.345566, 9.01137, 0.6371728, -0.8486805, 10.513803
787019392201754, 1.422533, 6.832705, 8.925228, 0.47980165, 0.38599253, 11.313265
787019401840608, 1.5302101, 5.255835, 7.8257265, 0.81189895, -0.216609, 9.513214
787019411479567, 1.0456635, 6.148358, 8.471788, 0.21809655, 0.021635532, 10.5175495
787019421118421, 1.5026926, 5.227121, 7.179664, 0.79184306, 0.10981369, 8.971588
787019430757379, 0.82313097, 5.2402816, 8.193025, 0.1569074, -0.5989475, 9.740657
787019440396233, 1.3531412, 5.4460645, 7.0504518, 0.610991, 0.32343674, 8.984518
787019450035192, 1.0624132, 4.671986, 7.749156, 0.48148584, -0.77792263, 9.06469
787019459674046, 1.3555341, 5.710471, 7.119844, 0.5846724, 0.45178652, 9.197454
787019469313004, 1.0516455, 4.17069, 6.9248285, 0.5452596, -0.68599033, 8.10469
787019478951858, 1.1389836, 5.651847, 6.9188466, 0.39342722, 0.46577787, 8.985509
787019488590712, 1.0959128, 4.162315, 6.1363935, 0.5671735, -0.24514961, 7.469902
787019498229671, 0.6771688, 5.491528, 6.9894347, -0.018570162, 0.22419071, 8.911623
787019507868629, 1.2155539, 4.8083773, 5.968896, 0.59445536, 0.3750627, 7.728631
787019517507483, 0.695115, 5.3647084, 7.1784678, 0.021721236, 0.019753456, 8.988482
787019527146337, 1.4919249, 5.74756, 6.489335, 0.7313241, 0.851192, 8.724241
787019536785296, 1.0683953, 5.211568, 7.702496, 0.41218567, -0.36002302, 9.345098
787019546424150, 1.7455641, 6.5288167, 7.611569, 0.8915098, 0.8242812, 10.106147
787019556063108, 1.4859428, 5.2031927, 8.025527, 0.8077248, -0.48418903, 9.633456
787019565701962, 1.5780666, 6.884151, 8.353344, 0.6505517, 0.70504856, 10.896782
787019575340921, 1.550549, 5.473582, 7.786245, 0.8221212, -0.056999207, 9.607851
787019584979775, 1.0719845, 6.856633, 8.428718, 0.15387285, 0.59196854, 10.900999
787019594618733, 1.3878372, 5.948557, 7.179664, 0.56744045, 0.67612886, 9.385087
787019604257587, 0.83389866, 6.3541408, 8.212168, -0.008837024, 0.31658173, 10.412007
787019613896546, 1.4333007, 6.580262, 7.34118, 0.512165, 1.1167989, 9.886231
787019623535400, 0.7752745, 5.8971114, 8.690732, -0.016571939, -0.29759407, 10.526963
787019633174358, 1.3256238, 6.9475603, 8.58784, 0.3483324, 0.68316126, 11.099047
787019642813212, 0.8889336, 5.535795, 8.974281, 0.16808847, -0.71750546, 10.556036
787019652452171, 0.9595219, 7.051648, 9.116654, -0.02067554, 0.42684174, 11.55756
787019662091025, 0.83389866, 5.4149575, 8.554341, 0.12912402, -0.55517626, 10.142436
787019671729983, 0.31944183, 6.6891356, 9.170493, -0.5562106, 0.04020071, 11.341672
787019681368837, 0.6448657, 5.5800624, 8.093722, -0.08089793, -0.17146254, 9.850144
787019691007796, 0.02871387, 6.1507506, 9.158528, -0.71808434, -0.43311644, 11.000362
787019700646650, 0.5407779, 5.992824, 8.283952, -0.21927792, 0.040023327, 10.236238
787019710285608, -0.06460621, 5.432904, 9.3511505, -0.6818838, -1.1139936, 10.735859
787019719924462, 0.52163535, 6.384051, 8.719446, -0.26111907, 0.108546734, 10.815592
787019729563317, 0.14237295, 5.0069814, 8.796016, -0.41549093, -1.0964975, 10.054108
787019739202275, 0.39960137, 6.5288167, 8.459825, -0.36626178, 0.34831, 10.681682
787019748841233, 0.31944183, 4.983053, 7.7012997, -0.24493408, -0.46834326, 9.163163
787019758480087, 0.07776674, 6.3254266, 8.333005, -0.6440278, 0.19928455, 10.440381
787019768119046, 0.51206404, 5.259424, 7.409375, -0.0863835, -0.06081009, 9.10008
787019777757900, 0.02751746, 5.9234324, 8.738588, -0.6368707, -0.35795355, 10.531715
787019787396754, 0.68195444, 5.802595, 7.9346, 0.03051348, 0.071762085, 9.8532715
787019797035712, 0.20219351, 5.349155, 8.897711, -0.374816, -0.9170599, 10.336446
787019806674567, 0.8243274, 6.2440705, 8.1942215, 0.12563004, 0.2798233, 10.330494
787019816313525, 0.36729828, 4.9375896, 8.410771, -0.16587643, -0.95445824, 9.711708
787019825952379, 0.64008003, 6.361319, 8.328219, -0.049992204, 0.2610097, 10.495937
787019835591337, 0.58983076, 4.746164, 7.8293157, 0.0931419, -0.75123215, 9.143257
787019845230192, 0.3912265, 6.2344995, 8.382058, -0.26498258, 0.079751015, 10.45009
787019854869150, 0.69152576, 5.072784, 7.3172517, 0.17416388, -0.20832062, 8.926354
787019864508004, 0.32662028, 5.8360944, 8.146365, -0.26235247, -0.13006544, 10.022186
787019874146962, 1.0707881, 5.704489, 6.908079, 0.48790824, 0.5621319, 8.991958
787019883785817, 0.54317075, 5.4664035, 7.769495, -7.1489066E-4, -0.19557619, 9.513327
787019893424775, 1.174876, 6.3720865, 7.164111, 0.49988362, 0.9504318, 9.599746
787019903063629, 0.69272214, 5.221139, 7.665407, 0.18540372, -0.3249874, 9.292935
787019912702587, 0.8961121, 6.7872415, 7.54457, 0.22083354, 1.0109468, 10.135059
787019922341442, 0.6664011, 5.319245, 7.112665, 0.1531365, 0.07459593, 8.905025
787019931980400, 0.44506502, 6.8111696, 7.605587, -0.23952389, 0.94168806, 10.17305
787019941619254, 0.69152576, 5.7427745, 6.6891356, 0.12725234, 0.6749525, 8.816488
787019951258212, 0.25603202, 6.586244, 7.759924, -0.3543678, 0.66272545, 10.153611
787019960897067, 0.74177504, 6.3074803, 7.0492554, 0.16233578, 0.9234681, 9.44179
787019970536025, 0.14955142, 6.0251274, 8.27797, -0.38231173, -0.08597231, 10.232096
787019980174879, 0.61016977, 6.6532435, 8.076973, -0.007428631, 0.6013384, 10.464882
787019989813837, 0.18065812, 5.410172, 8.785249, -0.2782898, -0.84653187, 10.280521
787019999452692, 0.44626144, 6.6975107, 8.810373, -0.16373076, 0.19905567, 11.073032
787020009091650, 0.32063824, 5.0847483, 8.471788, -0.10352099, -0.90262175, 9.843944
787020018730504, 0.16390835, 6.4941206, 8.758927, -0.4207431, 0.03502941, 10.896834
787020028369462, 0.35653058, 5.2701917, 7.765906, -0.10481347, -0.33759308, 9.385435
787020038008421, 0.0059820567, 6.1627145, 8.758927, -0.54421806, -0.24237919, 10.693129
787020047647275, 0.5563313, 5.7487564, 7.7096744, 0.030707493, 0.099235535, 9.632549
787020057286233, 0.08015956, 5.6004014, 8.666803, -0.42369044, -0.62395096, 10.291529
787020066925087, 0.8207382, 6.216553, 7.90469, 0.24120289, 0.38111496, 10.079674
787020076564046, 0.5168497, 5.1266227, 8.55793, 0.045958728, -0.91328144, 9.947431
787020086202900, 0.9343972, 6.401997, 8.390432, 0.33118665, 0.2392087, 10.587309
787020095841858, 0.7178468, 4.779663, 8.255239, 0.27689767, -0.9940803, 9.510235
787020105480712, 0.73100734, 6.273981, 8.590233, 0.12609124, -0.0020918846, 10.661774
787020115119671, 0.8554341, 4.935197, 7.515856, 0.38261932, -0.4335661, 9.013415
787020124758525, 0.41156548, 5.916254, 8.0614195, -0.16429389, -0.018132687, 10.006529
787020134397483, 0.96909314, 5.548956, 6.8099732, 0.4062387, 0.4787135, 8.815418
787020144036337, 0.47856453, 5.6530433, 7.9238324, -0.07220645, -0.15485334, 9.743915
787020153675296, 1.119841, 6.2608204, 7.322037, 0.4842717, 0.7460537, 9.657797
787020163314150, 0.60059845, 5.235496, 8.169097, 0.10211775, -0.62453747, 9.700763
787020172953108, 1.0360922, 6.5204415, 8.018349, 0.388738, 0.5200486, 10.366387
787020182591962, 0.73459655, 4.9292145, 7.7826557, 0.24441807, -0.6309767, 9.216759
787020192230921, 0.6652047, 6.390033, 7.9393854, 0.037001565, 0.43152094, 10.203983
787020201869775, 0.6891329, 5.0141597, 7.062416, 0.19113974, -0.14780855, 8.685392
787020211508733, 0.2727818, 6.108876, 7.9920278, -0.3162136, 0.14554262, 10.057043
787020221147587, 0.6999006, 5.548956, 7.0145597, 0.15653189, 0.32086706, 8.964228
787020230786546, 0.14117654, 5.7200427, 8.135597, -0.39887366, -0.26671696, 9.934611
787020240425504, 0.8039884, 6.2105713, 7.466803, 0.2006534, 0.5925231, 9.725195
787020250064358, 0.2321038, 5.2905307, 8.402397, -0.25286046, -0.74383116, 9.90084
787020259703317, 0.75613195, 6.533602, 8.199007, 0.13173026, 0.43442297, 10.501301
787020269342171, 0.5288138, 5.0069814, 8.224132, 0.101929784, -0.81995296, 9.60745
787020278981129, 0.5694918, 6.5252275, 8.577073, -0.045791924, 0.18483639, 10.790405
787020288619983, 0.63888365, 5.052445, 7.8436728, 0.1952647, -0.54277706, 9.334124
787020298258942, 0.22851457, 6.1878395, 8.584251, -0.32773224, -0.13040161, 10.5785885
787020307897796, 0.701097, 5.6350975, 7.4356966, 0.18168533, 0.16802835, 9.352764
787020317536754, 0.15672988, 5.9342003, 8.366505, -0.36491975, -0.21612501, 10.249771
787020327175608, 0.84347, 6.38764, 7.436893, 0.20888275, 0.7938528, 9.805454
787020336814567, 0.36370903, 5.629115, 8.263613, -0.110337704, -0.36362123, 9.998105
787020346453525, 0.93679005, 6.876972, 8.161918, 0.2822683, 0.77121925, 10.682358
787020356092379, 0.7070791, 5.4125648, 8.526823, 0.27235815, -0.6366067, 10.100647
787020365731337, 0.8315059, 6.9128647, 8.922835, 0.20400032, 0.3388071, 11.311043
787020375370192, 0.9391829, 5.4125648, 8.305488, 0.48790193, -0.48215055, 9.93421
787020385009150, 0.6759724, 6.5539412, 8.969496, 0.1094549, 0.0029702187, 11.128834
787020394648004, 1.0612168, 5.672186, 7.6019974, 0.56874, 0.13286877, 9.526234
787020404286962, 0.39840496, 5.916254, 8.280363, -0.104028076, -0.15448093, 10.182855
787020413925817, 0.9726824, 6.1268225, 7.045666, 0.44588816, 0.79005337, 9.34358
787020423564775, 0.36490545, 5.4388857, 7.743174, -0.09703371, -0.23479795, 9.466088
787020433203733, 0.75972116, 6.5682983, 7.3340015, 0.195025, 0.94100285, 9.827705
787020442842587, 0.33379877, 5.1326046, 7.5732837, -0.0976288, -0.38406754, 9.146182
787020452481546, 0.44506502, 6.6628146, 7.8281193, -0.1376887, 0.6894765, 10.265296
787020462120400, 0.49292147, 5.18405, 7.2550383, 0.06021154, -0.1431675, 8.929098
787020471759358, 0.28235307, 6.410372, 8.017152, -0.26971298, 0.3546133, 10.259085
787020481398212, 0.701097, 5.5429735, 7.09113, 0.21757905, 0.25677204, 9.021471
787020491037171, 0.2105684, 6.026324, 8.219346, -0.30044803, -0.084246635, 10.18927
787020500676129, 0.86141616, 6.15434, 7.3663044, 0.29478467, 0.59769964, 9.614377
787020510314983, 0.4235296, 5.5657053, 8.139186, -0.07585774, -0.37495565, 9.861868
787020519953942, 0.971486, 6.579066, 7.6223364, 0.3623989, 0.7908721, 10.078248
787020529592796, 0.72263247, 5.2259245, 8.07458, 0.25706688, -0.5765457, 9.624596
787020539231754, 0.85184485, 6.7094746, 8.500503, 0.23897801, 0.36337948, 10.854127
787020548870712, 0.7956135, 5.1050873, 8.179864, 0.31402692, -0.72512245, 9.642649
787020558509567, 0.51445687, 6.384051, 8.922835, -0.07919874, -0.154953, 10.982142
787020568148525, 0.8243274, 5.3503513, 7.771888, 0.33099937, -0.2702422, 9.461786
787020577787379, 0.23928227, 5.8803616, 8.580662, -0.29014722, -0.36585808, 10.3945
787020587426337, 0.6843473, 5.802595, 7.4380894, 0.16959983, 0.28472996, 9.452713
787020597065192, 0.02751746, 5.3180485, 8.293523, -0.40986794, -0.6695814, 9.820824
787020606704150, 0.44865423, 6.3050876, 7.8089767, -0.098534524, 0.45088625, 10.03606
787020616343108, -0.019142581, 4.9471607, 8.3174515, -0.42016578, -0.9630935, 9.620327
787020625981962, 0.14596218, 6.3948183, 8.572288, -0.3742501, 0.06568575, 10.689003
787020635620921, 0.05623133, 4.8646083, 8.193025, -0.30299902, -0.9443853, 9.476791
787020645259775, -0.2213361, 6.2177496, 8.787642, -0.71670127, -0.20735598, 10.741294
787020654898733, -0.011964113, 5.18405, 7.641479, -0.39709112, -0.36111784, 9.218388
787020664537692, -0.567099, 5.770292, 8.394022, -1.0012919, -0.36731625, 10.145933
787020674176546, -0.034695927, 5.7140603, 7.196414, -0.46711802, 0.33429146, 9.171158
787020683815504, -0.5347959, 5.4173503, 8.193025, -0.9324653, -0.52562904, 9.77822
787020693454358, 0.031106694, 6.3361945, 7.6977105, -0.46948978, 0.545218, 9.944115
787020703093317, -0.32662028, 5.1613183, 8.328219, -0.7195228, -0.77532387, 9.746092
787020712732275, 0.124426775, 6.6819572, 8.488539, -0.40436986, 0.3897457, 10.789063
787020722371129, 0.19381863, 5.160122, 8.232507, -0.21770836, -0.6753864, 9.692009
787020732010087, 0.2620141, 6.570691, 8.857033, -0.2654431, 0.09963465, 11.027658
787020741648942, 0.7692925, 5.4185467, 7.9070826, 0.3206238, -0.23453665, 9.608154
787020751287900, 0.35174492, 6.096912, 9.016156, -0.18143052, -0.3620801, 10.882238
787020760926858, 0.9092726, 5.855237, 7.9740815, 0.39298862, 0.08482599, 9.926476
787020770565712, 0.36131623, 5.5908303, 8.79123, -0.15199712, -0.6450186, 10.403582
787020780204671, 0.89491564, 6.4331036, 7.84128, 0.3364673, 0.6176424, 10.157592
787020789843525, 0.47856453, 5.278567, 8.01117, -0.011106223, -0.43582058, 9.595889
787020799482483, 0.8350951, 6.7369924, 7.716853, 0.22546878, 0.9239521, 10.233755
787020809121442, 0.7537391, 5.1266227, 7.375876, 0.27590224, -0.18200159, 9.008036
787020818760296, 0.7322037, 6.567102, 7.978867, 0.117023624, 0.6258874, 10.340205
787020828399254, 1.0815558, 5.389833, 7.192825, 0.5789919, 0.17524433, 9.032766
787020838038212, 0.6963114, 6.233303, 8.244471, 0.11108512, 0.20069742, 10.3565235
787020847677067, 1.2849457, 5.899504, 7.198807, 0.7186122, 0.6085057, 9.348335
787020857316025, 0.8243274, 6.0358953, 8.2049885, 0.25118476, 0.078345776, 10.2158785
787020866954879, 1.1557333, 6.040681, 7.810173, 0.56919914, 0.35620117, 9.918341
787020876593837, 1.1904292, 6.026324, 8.039884, 0.6115478, 0.19620132, 10.097569
787020886232796, 1.1724831, 5.9952173, 8.063812, 0.5909775, 0.16316414, 10.097848
787020895871650, 1.1509477, 5.948557, 8.202596, 0.5748988, 0.035254955, 10.1813965
787020905510608, 1.0671989, 5.864808, 8.329415, 0.5003302, -0.11288786, 10.229906
787020915149567, 0.9607183, 5.845666, 8.350951, 0.3981147, -0.14901018, 10.229979
787020924788421, 0.8207382, 5.7954164, 8.237292, 0.27171087, -0.124224186, 10.100702
787020934427379, 0.64845496, 5.7786665, 8.01117, 0.120021135, -0.014626026, 9.898369
787020944066337, 0.40797627, 5.749953, 7.7611203, -0.118198365, 0.08898735, 9.6665125
787020953705192, 0.2105684, 5.7523456, 7.737192, -0.30569816, 0.08500147, 9.638324
787020963344150, 0.04546363, 5.7188463, 7.897511, -0.45390943, -0.052960396, 9.740078
787020972983108, -0.13998012, 5.7020965, 8.143971, -0.62250304, -0.2284913, 9.920588
787020982621962, -0.2548356, 5.68415, 8.305488, -0.72779393, -0.34053802, 10.035436
787020992260921, -0.28713873, 5.680561, 8.338987, -0.7480135, -0.37850618, 10.059182
787021001899775, -0.32303107, 5.662615, 8.228917, -0.78222877, -0.33152533, 9.958054
787021011538733, -0.29192436, 5.692525, 8.146365, -0.76118046, -0.24108124, 9.910391
787021021177692, -0.25124636, 5.6793647, 8.054241, -0.7257428, -0.1932478, 9.829804
787021030816546, -0.13160525, 5.6985073, 7.8628154, -0.6129084, -0.05307436, 9.692044
787021040455504, 0.04426722, 5.7224355, 7.609176, -0.4611154, 0.13398981, 9.508797
787021050094462, 0.28235307, 5.767899, 7.4584284, -0.23139255, 0.281631, 9.425693
787021059733317, 0.6041877, 5.85763, 7.487142, 0.057013918, 0.36606216, 9.51824
787021069372275, 0.8003992, 5.871987, 7.7012997, 0.25100866, 0.26603222, 9.7106695
787021079011233, 1.0743774, 5.8743796, 7.8664045, 0.5061991, 0.18889332, 9.861593
787021088650087, 1.2059826, 5.849255, 7.938189, 0.6205249, 0.13614511, 9.913599
787021098289046, 1.2873386, 5.7858453, 8.220542, 0.6741534, -0.0581131, 10.112007
787021107928004, 1.3495519, 5.7009, 8.569894, 0.73923194, -0.33059216, 10.349341
787021117566858, 1.4069797, 5.649454, 8.796016, 0.77988374, -0.49436522, 10.507769
787021127205817, 1.3770695, 5.5776696, 8.760123, 0.7556692, -0.53441525, 10.435031
787021136844775, 1.262214, 5.5597234, 8.463413, 0.6496851, -0.37878036, 10.176813
787021146483629, 1.0839486, 5.572884, 8.224132, 0.48012745, -0.23934174, 9.979004
787021156122587, 0.90329057, 5.5800624, 8.045866, 0.32427388, -0.13547945, 9.826773
787021165761546, 0.73818576, 5.6374903, 7.9740815, 0.15578268, -0.05782032, 9.792067
787021175400504, 0.5240282, 5.625526, 7.897511, -0.040556356, -0.02953434, 9.710268
787021185039358, 0.25842485, 5.601598, 7.8759756, -0.2700832, -0.04862833, 9.664388
787021194678317, 0.0741775, 5.5896335, 7.9334035, -0.4542083, -0.09861326, 9.693935
787021204317275, -0.09810573, 5.601598, 7.982456, -0.5988691, -0.119757175, 9.733148
787021213956129, -0.15074782, 5.741578, 8.009974, -0.65199697, -0.03245783, 9.834734
787021223595087, -0.08015956, 5.851648, 7.960921, -0.59057957, 0.0957613, 9.862378
787021233234046, -0.07178468, 5.9964137, 7.893922, -0.58830947, 0.25989008, 9.892547
787021242872900, 0.07298109, 6.172286, 7.8987074, -0.45888156, 0.41512394, 10.005455
787021252511858, 0.16869399, 6.2751775, 7.962117, -0.37002167, 0.4691205, 10.121494
787021262150817, 0.25004998, 6.3481584, 8.094919, -0.29070717, 0.4661765, 10.275579
787021271789671, 0.30029923, 6.3828545, 8.195417, -0.24683948, 0.44431877, 10.379668
787021281428629, 0.32542387, 6.3457656, 8.295917, -0.22875288, 0.36532593, 10.440836
787021291067587, 0.357727, 6.259624, 8.419147, -0.19206518, 0.22557688, 10.493098
787021300706546, 0.34576288, 6.1734824, 8.459825, -0.20464005, 0.13664532, 10.475664
787021310345400, 0.38524446, 6.1005015, 8.427522, -0.15922599, 0.09877777, 10.409254
787021319984358, 0.51445687, 5.99761, 8.268398, -0.027444694, 0.11074877, 10.226896
787021329623317, 0.6233303, 5.9413786, 8.13799, 0.08176782, 0.13866806, 10.094031
787021339262171, 0.6963114, 5.8767724, 7.958528, 0.1640467, 0.19229889, 9.914412
787021348901129, 0.7046863, 5.7607207, 7.745567, 0.18058391, 0.21835756, 9.674503
787021358540087, 0.6652047, 5.690132, 7.6163545, 0.14646444, 0.23252296, 9.52646
787021368178942, 0.6436693, 5.6183476, 7.678568, 0.12880437, 0.13795567, 9.534407
787021377817900, 0.62452674, 5.5501523, 7.9298143, 0.116848394, -0.056405544, 9.69842
787021387456858, 0.4761717, 5.4903316, 8.176275, -0.022809166, -0.25830364, 9.8567095
787021397095817, 0.46899325, 5.406583, 8.3174515, -0.023069706, -0.3998866, 9.923239
787021406734671, 0.48215377, 5.3706903, 8.285149, -0.0102245025, -0.39922953, 9.8772955
787021416373629, 0.4642076, 5.3359947, 8.182257, -0.021600936, -0.35928583, 9.772825
787021426012587, 0.4833502, 5.2977095, 7.9740815, 0.0046106237, -0.25319386, 9.582338
787021435651442, 0.47736812, 5.3312087, 7.7383885, -0.0044473354, -0.09042215, 9.408726
787021445290400, 0.4761717, 5.3970113, 7.5936227, -0.010057284, 0.05368042, 9.328162
787021454929358, 0.41754755, 5.430511, 7.7240314, -0.071700305, 0.010257721, 9.450937
787021464568317, 0.38524446, 5.582455, 8.133204, -0.121652186, -0.07702112, 9.871197
787021474207171, 0.37567315, 5.6183476, 8.486146, -0.1374242, -0.23501682, 10.180742
787021483846129, 0.27517462, 5.6171513, 8.609376, -0.2327495, -0.31720304, 10.275928
787021493485087, 0.5276174, 5.8193445, 8.512466, -0.006366439, -0.05902481, 10.324811
787021503124046, 0.7812566, 5.925825, 8.29472, 0.22161762, 0.19507265, 10.219636
787021512762900, 0.78723866, 5.9246287, 8.10449, 0.22739866, 0.3022499, 10.062837
787021522401858, 0.87936234, 5.9114685, 8.215756, 0.30979273, 0.2393899, 10.15205
787021532040817, 1.0217353, 5.9090757, 8.535198, 0.42793587, 0.07854605, 10.42216
787021541679671, 1.0719845, 5.8432727, 8.830712, 0.48453203, -0.138031, 10.631116
787021551318629, 1.0277174, 5.7559347, 8.891729, 0.43469995, -0.2412405, 10.630272
787021560957587, 1.0887343, 5.757131, 8.792427, 0.4831189, -0.17064619, 10.553395
787021570596546, 1.0576276, 5.7320065, 8.642876, 0.44442037, -0.104325294, 10.414671
787021580235400, 0.9343972, 5.710471, 8.480164, 0.30750582, -0.036691666, 10.261571
787021589874358, 0.8350951, 5.6877394, 8.43111, 0.21177274, -0.0313859, 10.202232
787021599513317, 0.73459655, 5.6889358, 8.507681, 0.1023921, -0.08100128, 10.259981
787021609152275, 0.6472585, 5.6997037, 8.585447, 0.013796531, -0.124295235, 10.324719
787021618791129, 0.56590253, 5.6709895, 8.597412, -0.06763257, -0.16308641, 10.313327
787021628430087, 0.52283174, 5.593223, 8.46461, -0.101732895, -0.15526628, 10.157394
787021638069046, 0.5276174, 5.578866, 8.299505, -0.094789535, -0.0754385, 10.013454
787021647707900, 0.56829536, 5.5477595, 8.088937, -0.046651855, 0.0060539246, 9.824931
787021657346858, 0.57547385, 5.511867, 7.6462646, -0.027845249, 0.2277112, 9.440582
787021666985817, 0.56590253, 5.5202417, 7.3375907, -0.036781207, 0.3867159, 9.191444
787021676624775, 0.5407779, 5.588437, 7.3268228, -0.06642768, 0.4474573, 9.219587
787021686263629, 0.4941179, 5.578866, 7.5146594, -0.11980866, 0.3192749, 9.365988
787021695902587, 0.3589234, 5.556134, 7.8053875, -0.25962603, 0.120107174, 9.583408
787021705541546, 0.3804588, 5.5657053, 8.147561, -0.24463959, -0.074129105, 9.87113
787021715180504, 0.38404804, 5.554938, 8.398808, -0.23831113, -0.22711086, 10.071567
787021724819358, 0.40079778, 5.4388857, 8.60459, -0.20326103, -0.4351387, 10.175973
787021734458317, 0.4354937, 5.4317074, 8.739784, -0.1648677, -0.50770235, 10.285524
787021744097275, 0.5814559, 5.40419, 8.864211, -0.010820761, -0.56838226, 10.38241
787021753736233, 0.6029913, 5.3647084, 8.82114, 0.004312856, -0.57401705, 10.326021
787021763375192, 0.60059845, 5.3742795, 8.7577305, -3.7926808E-4, -0.5181227, 10.279739
787021773014046, 0.5982057, 5.3336015, 8.7015, 0.0026962075, -0.5197129, 10.210346
787021782653004, 0.52283174, 5.352744, 8.495717, -0.08479354, -0.3905344, 10.047029
787021792291962, 0.587438, 5.367101, 8.23131, -0.014485508, -0.23005438, 9.841352
787021801930921, 0.66999036, 5.3946185, 8.009974, 0.06746569, -0.07586384, 9.679886
787021811569775, 0.7501499, 5.4484572, 7.880761, 0.14267541, 0.027537823, 9.609043
787021821208733, 0.80159557, 5.521438, 7.756335, 0.18904972, 0.14936018, 9.551518
787021830847692, 0.9296116, 5.508278, 7.6067834, 0.3208496, 0.23075771, 9.429329
