timestamp_acc,device_acc_x,device_acc_y,device_acc_z,earth_acc_x,earth_acc_y,earth_acc_z
787288712378537, -6.4067826, -0.17587246, 7.456035, 0.03703463, 0.019638062, 9.832014
787288722017496, -6.422336, -0.21535404, 7.509874, 0.0030715466, -0.009719372, 9.883869
787288731656454, -6.4235325, -0.23808585, 7.5254273, -0.017208695, -0.022531033, 9.896955
787288741295412, -6.4127645, -0.2620141, 7.4644103, -0.048060298, 0.0034103394, 9.844151
787288750934371, -6.4295144, -0.25722843, 7.4129643, -0.054063916, 0.0490551, 9.815882
787288760573433, -6.424729, -0.2835495, 7.4656067, -0.06963754, 0.00683403, 9.85332
787288770212391, -6.4151573, -0.26081768, 7.5110703, -0.036764503, -0.025205135, 9.881117
787288779851350, -6.3720865, -0.2548356, 7.4943204, -0.027127147, -0.0452857, 9.840249
787288789490308, -6.393622, -0.23449662, 7.4344997, -0.019291878, 0.013209343, 9.808395
787288799129266, -6.4127645, -0.22253251, 7.448857, -0.0075240135, 0.021261215, 9.831482
787288808768225, -6.4199433, -0.21535404, 7.501499, 0.0060669184, -0.005391121, 9.875956
787288818407287, -6.4666033, -0.23330021, 7.500303, -0.018607616, 0.026491165, 9.905799
787288828046246, -6.4366927, -0.26919255, 7.4679995, -0.05440581, 0.017539501, 9.862616
787288837685204, -6.442675, -0.2620141, 7.4584284, -0.049165845, 0.027336597, 9.859091
787288847324162, -6.4462643, -0.27876383, 7.4679995, -0.064327836, 0.01995802, 9.869068
787288856963121, -6.428318, -0.2883351, 7.487142, -0.0688442, -0.007402897, 9.8721285
787288866602183, -6.4031935, -0.29072794, 7.4715886, -0.06920469, -0.018821716, 9.84403
787288876241141, -6.3565335, -0.23808585, 7.489535, -0.009173512, -0.05589342, 9.826095
787288885880100, -6.3517475, -0.17587246, 7.519445, 0.05721736, -0.06813526, 9.844276
787288895519058, -6.364908, -0.11485548, 7.537391, 0.11664748, -0.05755472, 9.865122
787288905158016, -6.4151573, -0.07776674, 7.466803, 0.13663727, 0.03218794, 9.843462
787288914796975, -6.40439, -0.02632105, 7.355537, 0.17070723, 0.10377407, 9.750944
787288924436037, -6.4067826, -0.0035892338, 7.281359, 0.18034458, 0.15441513, 9.695807
787288934074996, -6.3972116, -0.019142581, 7.3543406, 0.17135888, 0.094697, 9.745392
787288943713954, -6.398408, -0.046660043, 7.48116, 0.1616596, 0.009859562, 9.842934
787288953352912, -6.3601227, -0.07058827, 7.55773, 0.14907461, -0.06754589, 9.876671
787288962991871, -6.4055862, -0.104087785, 7.5637126, 0.111064315, -0.043684483, 9.911501
787288972630829, -6.4163537, -0.1471586, 7.499106, 0.056432247, 5.698204E-4, 9.870394
787288982269891, -6.410372, -0.21894327, 7.4440713, -0.021877766, 0.01950407, 9.826197
787288991908850, -6.4271216, -0.29671, 7.4153576, -0.10308325, 0.035363197, 9.816902
787289001547808, -6.448657, -0.37806597, 7.4679995, -0.1779486, 0.0014724731, 9.8725605
787289011186766, -6.4881387, -0.41635114, 7.500303, -0.20968175, 0.005609989, 9.923702
787289020825725, -6.458228, -0.4211368, 7.391429, -0.22211993, 0.051203728, 9.821779
787289030464787, -6.4151573, -0.40558344, 7.399804, -0.19974172, 0.016292572, 9.799782
787289040103746, -6.454639, -0.40438703, 7.469196, -0.18994212, 8.125305E-4, 9.878194
787289049742704, -6.4462643, -0.36131623, 7.519445, -0.13313723, -0.027706146, 9.910017
787289059381662, -6.437889, -0.30867413, 7.459625, -0.0877099, 0.014054298, 9.857981
787289069020621, -6.381658, -0.2428715, 7.396215, -0.024911523, 0.02621746, 9.771757
787289078659579, -6.391229, -0.25603202, 7.372287, -0.042140722, 0.044692516, 9.760135
787289088298641, -6.390033, -0.2727818, 7.475178, -0.042402625, -0.024932384, 9.837824
787289097937600, -6.3601227, -0.25722843, 7.6139617, -0.00165236, -0.13047838, 9.923342
787289107576558, -6.3517475, -0.24885355, 7.5816584, 0.0025492907, -0.1145339, 9.893181
787289117215516, -6.3565335, -0.20219351, 7.450053, 0.027515292, -0.017420292, 9.795338
787289126854475, -6.384051, -0.16510476, 7.429714, 0.056290388, 0.022575855, 9.796955
787289136493537, -6.40439, -0.14476576, 7.452446, 0.07545972, 0.026734352, 9.826988
787289146132496, -6.4295144, -0.14596218, 7.436893, 0.06838679, 0.055075645, 9.831562
787289155771454, -6.4295144, -0.11724831, 7.4213395, 0.09271157, 0.07002163, 9.819124
787289165410412, -6.4594245, -0.1052842, 7.4069824, 0.09573448, 0.10186005, 9.827467
787289175049371, -6.4199433, -0.10887343, 7.4069824, 0.09683895, 0.07287884, 9.801847
787289184688329, -6.4235325, -0.14117654, 7.4333034, 0.067163825, 0.051058292, 9.824896
787289194327391, -6.4127645, -0.12083755, 7.499106, 0.09647012, 0.00582695, 9.867391
787289203966350, -6.3972116, -0.15194423, 7.5146594, 0.07091665, -0.022331238, 9.869751
787289213605308, -6.346962, -0.1591227, 7.5290165, 0.07187319, -0.069559574, 9.848114
787289223244266, -6.361319, -0.22253251, 7.5254273, 0.0053753853, -0.06891346, 9.856125
787289232883225, -6.3601227, -0.24047868, 7.475178, -0.020886183, -0.03965807, 9.817598
787289242522183, -6.431907, -0.2739782, 7.466803, -0.06481624, 0.01376009, 9.8586645
787289252161246, -6.4474607, -0.27517462, 7.442875, -0.07067132, 0.041920185, 9.85064
787289261800204, -6.4594245, -0.2739782, 7.3770723, -0.07802558, 0.09178305, 9.808462
787289271439162, -6.4295144, -0.27038896, 7.3782687, -0.06981504, 0.06985855, 9.789835
787289281078121, -6.4414787, -0.25962126, 7.422536, -0.052531004, 0.050727844, 9.831011
787289290717079, -6.422336, -0.23090738, 7.5026956, -0.00972271, -0.009513378, 9.878763
787289300356037, -6.407979, -0.21894327, 7.5086775, 0.005184293, -0.02175808, 9.873695
787289309994996, -6.3481584, -0.2213361, 7.4380894, 7.327795E-4, -0.022144794, 9.781246
787289319634058, -6.3864436, -0.2105684, 7.4344997, 0.0055571795, 0.010858536, 9.803196
787289329273016, -6.3948183, -0.21415763, 7.499106, 0.010637045, -0.024009228, 9.857761
787289338911975, -6.428318, -0.21296121, 7.4919276, 0.005813122, 0.0057458878, 9.874084
787289348550933, -6.3924255, -0.22013968, 7.426125, -0.006439805, 0.019954205, 9.800942
787289358189891, -6.3972116, -0.23688944, 7.3866434, -0.029693007, 0.044857502, 9.77446
787289367828954, -6.4163537, -0.21535404, 7.460821, 8.332729E-5, 0.01743126, 9.842741
787289377467912, -6.422336, -0.22253251, 7.5625157, 0.008566976, -0.04173422, 9.924001
787289387106871, -6.4199433, -0.22612174, 7.5062847, -0.0031926632, -0.008407116, 9.879829
787289396745829, -6.3744793, -0.19621146, 7.436893, 0.02191627, 0.008011341, 9.796904
787289406384787, -6.3601227, -0.18664017, 7.416554, 0.031011939, 0.011106491, 9.771908
787289416023746, -6.4175506, -0.19262223, 7.513463, 0.031632066, -0.008616924, 9.882969
787289425662704, -6.385247, -0.20937198, 7.560123, 0.02649641, -0.06512356, 9.897766
787289435301766, -6.401997, -0.21655045, 7.4440713, -0.001299262, 0.019422054, 9.820706
787289444940725, -6.3768725, -0.22013968, 7.365108, -0.013202906, 0.0498991, 9.744492
787289454579683, -6.4343, -0.23090738, 7.4069824, -0.024837136, 0.063379765, 9.813881
787289464218641, -6.4091754, -0.22492532, 7.4584284, -0.0077563524, 0.013295174, 9.836465
787289473857600, -6.411568, -0.20937198, 7.456035, 0.0067765713, 0.019681454, 9.8358555
787289483496558, -6.418747, -0.22851457, 7.456035, -0.012709379, 0.022027016, 9.840952
787289493135621, -6.4211397, -0.24526432, 7.4392858, -0.03142917, 0.031218052, 9.830169
787289502774579, -6.3972116, -0.25244278, 7.5062847, -0.025348544, -0.030637264, 9.865637
787289512413537, -6.401997, -0.21415763, 7.500303, 0.011624575, -0.01478529, 9.863348
787289522052496, -6.3804617, -0.19142582, 7.4536424, 0.029935718, 0.0034303665, 9.8134
787289531691454, -6.4211397, -0.19860429, 7.4536424, 0.016107917, 0.032191753, 9.840019
787289541330412, -6.4175506, -0.19142582, 7.469196, 0.02554524, 0.020677567, 9.849335
787289550969371, -6.4055862, -0.20458634, 7.4273214, 0.0073786974, 0.034845352, 9.810058
787289560608433, -6.4091754, -0.22731815, 7.4177504, -0.016788244, 0.038714886, 9.805634
787289570247391, -6.4067826, -0.22851457, 7.4739814, -0.009133577, 0.0010619164, 9.846797
787289579886350, -6.4211397, -0.23330021, 7.509874, -0.010460615, -0.011461258, 9.883493
787289589525308, -6.3744793, -0.23688944, 7.5146594, -0.0068986416, -0.049049854, 9.856865
787289599164266, -6.398408, -0.22851457, 7.493124, -0.0054621696, -0.015230656, 9.855886
787289608803225, -6.3804617, -0.2213361, 7.432107, -0.0050680637, 0.010650635, 9.797722
787289618442183, -6.4008007, -0.19262223, 7.4189467, 0.018197656, 0.03996706, 9.800316
787289628081141, -6.3888364, -0.19980069, 7.391429, 0.009095311, 0.046430588, 9.771803
787289637720204, -6.3589263, -0.16749759, 7.3639116, 0.040476203, 0.047418594, 9.73074
787289647359162, -6.4199433, -0.2213361, 7.4141607, -0.0133321285, 0.05053091, 9.809776
787289656998121, -6.4008007, -0.24526432, 7.536195, -0.017575264, -0.044661045, 9.890518
787289666637079, -6.390033, -0.24885355, 7.542177, -0.018602252, -0.05581665, 9.888145
787289676276037, -6.309873, -0.2105684, 7.3292155, -1.0967255E-5, 0.028633595, 9.673439
787289685914996, -6.4666033, -0.2847459, 7.456035, -0.0738647, 0.054938316, 9.873299
787289695553954, -6.398408, -0.26081768, 7.568498, -0.025880575, -0.06304979, 9.913887
787289705192912, -6.4498534, -0.24526432, 7.5924263, -0.012297273, -0.034371853, 9.965158
787289714831975, -6.35773, -0.2321038, 7.4309106, -0.009534597, 0.0012254715, 9.782278
787289724470933, -6.373283, -0.18783657, 7.3196445, 0.016444802, 0.091856, 9.706829
787289734109891, -6.391229, -0.17228323, 7.472785, 0.049872637, 0.011713505, 9.834499
787289743748850, -6.431907, -0.19262223, 7.6103725, 0.04302895, -0.047267914, 9.965954
787289753387808, -6.3625154, 0.13280165, 7.587641, 0.3680899, -0.018196583, 9.896248
787289763026766, -6.391229, -0.47976094, 7.2729845, -0.2904774, 0.072497845, 9.689411
787289772665725, -6.350551, -0.23090738, 7.588837, 0.0145971775, -0.10320616, 9.897594
787289782304683, -6.35773, -0.049052864, 7.432107, 0.16368568, 0.04532051, 9.779085
787289791943641, -6.4354963, -0.76689965, 7.52782, -0.53099346, -0.13267136, 9.918279
787289801582704, -6.273981, 0.44626144, 7.4620175, 0.6682291, 0.095718384, 9.735914
787289811221662, -6.4845495, -1.026521, 7.3399835, -0.81495273, -0.056438923, 9.813824
787289820860621, -6.29432, 0.6687939, 7.560123, 0.90051615, 0.10083485, 9.818357
787289830499579, -6.524031, -0.94396853, 7.367501, -0.7507342, -0.022126198, 9.857489
787289840138537, -6.3326054, 0.4211368, 7.624729, 0.650218, 0.023930073, 9.899112
787289849777496, -6.448657, -0.5778667, 7.213164, -0.39847112, 0.11943579, 9.68379
787289859416454, -6.373283, -0.124426775, 7.570891, 0.113461375, -0.049999237, 9.896324
787289869055412, -6.3924255, -0.021535404, 7.3974113, 0.1799463, 0.0962224, 9.774643
787289878694371, -6.4462643, -0.695115, 7.496713, -0.4679786, -0.087602615, 9.900078
787289888333329, -6.306284, 0.42951167, 7.4644103, 0.64721024, 0.09603548, 9.759253
787289897972287, -6.4773707, -1.0396814, 7.4010005, -0.8282099, -0.094255924, 9.85481
787289907611350, -6.2009997, 0.63529444, 7.5960155, 0.8769121, -0.013754845, 9.787046
787289917250308, -6.485746, -1.0013963, 7.308877, -0.8100287, -0.0094714165, 9.789339
787289926889266, -6.306284, 0.43070808, 7.631908, 0.6793189, -0.0033073425, 9.886316
787289936528225, -6.472585, -0.6161518, 7.3268228, -0.4173453, 0.060275078, 9.78665
787289946167183, -6.390033, -0.07537391, 7.6127653, 0.15850627, -0.0522213, 9.938036
787289955806141, -6.3888364, -0.09930214, 7.361519, 0.09806883, 0.09916878, 9.746775
787289965445100, -6.437889, -0.68195444, 7.4476604, -0.46259785, -0.06105709, 9.857048
787289975084058, -6.320641, 0.39840496, 7.4177504, 0.5997226, 0.13439083, 9.734194
787289984723016, -6.512067, -1.0241281, 7.4380894, -0.80261135, -0.071721554, 9.906145
787289994361975, -6.2787666, 0.6305088, 7.6019974, 0.87496144, 0.043881416, 9.8409
787290004000933, -6.5431733, -1.0336994, 7.3292155, -0.83161914, 0.01193428, 9.844151
787290013639891, -6.2919273, 0.4881358, 7.6103725, 0.722098, 0.0066862106, 9.860169
787290023278850, -6.4666033, -0.68075806, 7.292127, -0.4941125, 0.061780453, 9.757437
787290032917912, -6.3541408, -0.019142581, 7.649854, 0.23562276, -0.0957222, 9.941383
787290042556871, -6.373283, -0.10887343, 7.301698, 0.083129644, 0.11881256, 9.691459
787290052195829, -6.393622, -0.56829536, 7.493124, -0.3366716, -0.08593273, 9.860403
787290061834787, -6.3110695, 0.37447673, 7.495517, 0.60068893, 0.05573511, 9.787169
787290071473746, -6.478567, -1.0408778, 7.507481, -0.8034532, -0.1373887, 9.937461
787290081112704, -6.239285, 0.6412765, 7.6139617, 0.89473367, -0.015816212, 9.824028
787290090751662, -6.492924, -1.0456635, 7.2993054, -0.83942235, 0.009836674, 9.789106
787290100390621, -6.3074803, 0.4977071, 7.5792656, 0.73866975, 0.033412457, 9.845331
787290110029579, -6.5072813, -0.7465607, 7.2705917, -0.5549065, 0.094331264, 9.769686
787290119668537, -6.355337, 0.040677983, 7.5637126, 0.27110177, -0.028458118, 9.875597
787290129307496, -6.3924255, -0.2213361, 7.27777, -0.027101874, 0.11959791, 9.688292
787290138946454, -6.4235325, -0.573081, 7.493124, -0.3428911, -0.073606014, 9.879986
787290148585412, -6.3194447, 0.2955136, 7.472785, 0.51667976, 0.06013775, 9.777252
787290158224371, -6.474978, -0.9798609, 7.507481, -0.7476392, -0.13092518, 9.933359
787290167863329, -6.2440705, 0.58624154, 7.6019974, 0.8296166, 0.007056713, 9.820089
787290177502287, -6.502496, -1.0779666, 7.332805, -0.87770915, -0.022398949, 9.820572
787290187141246, -6.2787666, 0.5371887, 7.676175, 0.80136424, -0.029676437, 9.899096
787290196780204, -6.4905314, -0.77407813, 7.322037, -0.5679114, 0.03875065, 9.798695
787290206419162, -6.3601227, 0.10887343, 7.580462, 0.34154075, -0.015077591, 9.889871
787290216058121, -6.4199433, -0.22971097, 7.27777, -0.04185736, 0.14243221, 9.706305
787290225697079, -6.4259253, -0.44147578, 7.54457, -0.20798194, -0.06682396, 9.917673
787290235336037, -6.3397837, 0.3290131, 7.452446, 0.54610205, 0.096016884, 9.774078
787290244974996, -6.4737816, -0.9296116, 7.4476604, -0.70198965, -0.082172394, 9.886462
787290254614058, -6.2548385, 0.60658056, 7.496713, 0.84154624, 0.050860405, 9.745811
787290264253016, -6.4941206, -1.0947163, 7.27777, -0.90308475, 0.012705326, 9.773547
787290273891975, -6.2524457, 0.53599226, 7.6139617, 0.79253095, -0.03724146, 9.834801
787290283530933, -6.495317, -0.8650054, 7.312466, -0.65870583, 0.034729004, 9.796654
787290293169891, -6.35773, 0.13519448, 7.63789, 0.38850325, -0.05432129, 9.930885
787290302808850, -6.4163537, -0.32303107, 7.335198, -0.116692066, 0.07760239, 9.749842
787290312447808, -6.391229, -0.44147578, 7.5696945, -0.19154656, -0.11961794, 9.914233
787290322086766, -6.3541408, 0.24526432, 7.3746796, 0.44917238, 0.13394308, 9.72633
787290331725725, -6.513263, -0.9056834, 7.379465, -0.70003045, -0.01600933, 9.8594675
787290341364683, -6.309873, 0.6149554, 7.5086775, 0.8335655, 0.102240086, 9.791203
787290351003641, -6.5108705, -1.0480564, 7.385447, -0.8403276, -0.052148342, 9.865385
787290360642600, -6.2931237, 0.5766702, 7.6510506, 0.8333589, -0.008551598, 9.888374
787290370281558, -6.463014, -0.85902333, 7.3268228, -0.64472866, -0.0110526085, 9.786469
787290379920516, -6.3290157, 0.19980069, 7.6462646, 0.44615257, -0.06494045, 9.9175825
787290389559475, -6.4438715, -0.40797627, 7.300502, -0.21750557, 0.09858894, 9.743214
787290399198433, -6.4055862, -0.41156548, 7.554141, -0.16803956, -0.09654093, 9.911026
787290408837391, -6.35773, 0.15792629, 7.3112698, 0.35274202, 0.1523614, 9.682598
787290418476350, -6.48096, -0.88295156, 7.3627152, -0.6742486, -0.030183315, 9.8253
787290428115308, -6.3254266, 0.573081, 7.4919276, 0.7900229, 0.100186825, 9.789497
787290437754266, -6.4881387, -1.0719845, 7.353144, -0.8636682, -0.04736328, 9.826782
787290447393225, -6.2811594, 0.6436693, 7.598408, 0.88075215, 5.674362E-4, 9.84009
787290457032183, -6.445068, -0.85902333, 7.2705917, -0.6479497, 0.02722168, 9.732304
787290466671141, -6.393622, 0.22731815, 7.6163545, 0.45940125, -0.0061178207, 9.936189
787290476310100, -6.4055862, -0.41754755, 7.3806615, -0.20588756, 0.02330017, 9.779423
787290485949058, -6.418747, -0.31944183, 7.645068, -0.06814921, -0.11592245, 9.986557
787290495588016, -6.3517475, 0.12323037, 7.3974113, 0.33704442, 0.08201599, 9.744804
787290505226975, -6.4737816, -0.8530413, 7.4943204, -0.61893654, -0.09676218, 9.920177
787290514865933, -6.3086767, 0.5276174, 7.5816584, 0.76137733, 0.027756214, 9.847785
787290524504787, -6.5204415, -1.0683953, 7.348358, -0.8666874, -0.026632309, 9.84399
787290534143850, -6.257231, 0.62931234, 7.5349984, 0.872558, 0.047248363, 9.775562
787290543782704, -6.474978, -0.94636136, 7.2550383, -0.7415651, 0.034763336, 9.7419405
787290553421662, -6.323034, 0.3182454, 7.6343007, 0.5599222, -0.055372715, 9.901918
787290563060621, -6.4606214, -0.46660042, 7.2933235, -0.27569938, 0.10568619, 9.750011
787290572699579, -6.410372, -0.25244278, 7.5254273, -0.024194717, -0.034662724, 9.888724
787290582338537, -6.384051, 0.069391854, 7.34118, 0.2714057, 0.12830353, 9.724388
787290591977496, -6.5228343, -0.79920274, 7.501499, -0.57807434, -0.04526472, 9.956022
787290601616454, -6.303891, 0.4761717, 7.509874, 0.702193, 0.046762466, 9.791258
787290611255412, -6.4534426, -1.0959128, 7.402197, -0.8641461, -0.09696579, 9.842985
787290620894371, -6.2464633, 0.6221339, 7.678568, 0.8766226, -0.070888996, 9.878879
787290630533329, -6.4845495, -0.9738788, 7.4237323, -0.7419553, -0.075969696, 9.876911
787290640172287, -6.263213, 0.37447673, 7.6713896, 0.6307529, -0.100485325, 9.88991
787290649811246, -6.430711, -0.5072784, 7.1952176, -0.32915902, 0.13014889, 9.656979
787290659450204, -6.4008007, -0.13280165, 7.4548388, 0.089306235, 0.02525568, 9.826183
787290669089162, -6.4295144, 0.0634098, 7.2550383, 0.24240702, 0.21834898, 9.6887455
787290678728121, -6.533602, -0.74895346, 7.4440713, -0.53578365, -0.0031809807, 9.9184675
787290688367079, -6.3254266, 0.4426722, 7.436893, 0.6620734, 0.10545492, 9.750124
787290698006037, -6.5204415, -1.1006985, 7.3435726, -0.8878608, -0.03033495, 9.84208
787290707644996, -6.2584276, 0.6436693, 7.6534433, 0.90648407, -0.03219366, 9.865833
787290717283954, -6.5168524, -1.0037891, 7.4033933, -0.7950835, -0.04434347, 9.881957
787290726922912, -6.2727847, 0.40438703, 7.6809607, 0.65959954, -0.093820095, 9.9027605
787290736561871, -6.398408, -0.57547385, 7.3543406, -0.3537631, -0.012991428, 9.758678
787290746200829, -6.35773, -0.13519448, 7.6773715, 0.12397838, -0.14092779, 9.967237
787290755839787, -6.3601227, -0.06580263, 7.391429, 0.15003419, 0.053941727, 9.750042
787290765478746, -6.448657, -0.70348984, 7.4440713, -0.48043406, -0.06033945, 9.86204
787290775117704, -6.300302, 0.42951167, 7.3340015, 0.6264219, 0.16408062, 9.656425
787290784756662, -6.567102, -1.0683953, 7.3459654, -0.8630711, 0.014591694, 9.87352
787290794395516, -6.303891, 0.6161518, 7.6127653, 0.8522384, 0.03892088, 9.866361
787290804034475, -6.4941206, -1.038485, 7.3232336, -0.8353145, -0.036305904, 9.807281
787290813673433, -6.2751775, 0.47377887, 7.6402826, 0.7377759, -0.036060333, 9.870695
787290823312391, -6.485746, -0.5946164, 7.335198, -0.38634002, 0.063452244, 9.801546
787290832951350, -6.3421764, 0.020338992, 7.678568, 0.28679538, -0.116359234, 9.954308
787290842590308, -6.37089, -0.031106694, 7.3627152, 0.178388, 0.0902009, 9.734415
787290852229266, -6.439086, -0.6149554, 7.4847493, -0.38540542, -0.06943369, 9.884741
787290861868225, -6.3290157, 0.37208393, 7.448857, 0.5849849, 0.092805386, 9.763685
787290871507183, -6.5371914, -1.0839486, 7.4715886, -0.8639982, -0.110881805, 9.948651
787290881146141, -6.279963, 0.573081, 7.617551, 0.81222063, -0.009223461, 9.85564
787290890785100, -6.491728, -1.0899308, 7.233503, -0.8896487, 0.008906841, 9.7397375
787290900424058, -6.2524457, 0.44745782, 7.537391, 0.696723, 0.012743473, 9.778546
787290910063016, -6.452246, -0.71425754, 7.322037, -0.50143933, 0.013036728, 9.772526
787290919701975, -6.3338017, 0.02871387, 7.704889, 0.29268396, -0.13815737, 9.968874
787290929340933, -6.390033, -0.1268196, 7.3842506, 0.08720374, 0.06891012, 9.765419
787290938979891, -6.4570317, -0.5515456, 7.493124, -0.32426786, -0.046982765, 9.901364
787290948618850, -6.337391, 0.38644084, 7.3974113, 0.5918611, 0.135396, 9.729589
787290958257704, -6.5443697, -0.99900347, 7.4273214, -0.7807269, -0.043153286, 9.918694
787290967896662, -6.2979093, 0.6161518, 7.548159, 0.8411867, 0.06255531, 9.813588
787290977535621, -6.5084777, -1.0731809, 7.2897344, -0.86670244, 0.014146328, 9.792898
787290987174579, -6.289534, 0.5288138, 7.6426754, 0.786041, -0.028724194, 9.880774
787290996813537, -6.465407, -0.73579293, 7.3950186, -0.52700055, -0.007879257, 9.836229
787291006452496, -6.326623, 0.07537391, 7.6833534, 0.32937205, -0.1294136, 9.946886
787291016091454, -6.361319, -0.18903299, 7.32443, 0.02035296, 0.07011461, 9.702787
787291025730412, -6.3996043, -0.51565325, 7.5062847, -0.28119934, -0.08394909, 9.873144
787291035369371, -6.3194447, 0.32063824, 7.4069824, 0.53643584, 0.100822926, 9.726442
787291045008329, -6.492924, -1.0217353, 7.3830543, -0.80287313, -0.05009222, 9.852125
787291054647287, -6.3254266, 0.58983076, 7.5050883, 0.8058069, 0.099598885, 9.799288
787291064286246, -6.546763, -1.1030912, 7.359126, -0.8892609, -0.02246809, 9.87129
787291073925204, -6.3182483, 0.5312066, 7.668997, 0.78996265, -0.011381149, 9.919264
787291083564162, -6.4869423, -0.7896315, 7.283752, -0.58668816, 0.04989767, 9.767818
787291093203121, -6.29432, 0.12323037, 7.594819, 0.3801837, -0.08122873, 9.85717
787291102841975, -6.3768725, -0.26799613, 7.347162, -0.060439706, 0.05421114, 9.731932
787291112480933, -6.38764, -0.4881358, 7.631908, -0.23372126, -0.16139317, 9.960198
787291122119891, -6.3218374, 0.2739782, 7.4919276, 0.50447035, 0.04211998, 9.793539
787291131758850, -6.489335, -0.9487542, 7.3986077, -0.7290635, -0.03330183, 9.859936
787291141397808, -6.2811594, 0.613759, 7.4273214, 0.83591914, 0.12722397, 9.709781
787291151036766, -6.5072813, -1.0743774, 7.3172517, -0.86273456, 0.009803295, 9.813092
787291160675725, -6.2883377, 0.5694918, 7.6953177, 0.83498925, -0.046454906, 9.918975
787291170314683, -6.4977098, -0.84107715, 7.368697, -0.63865364, 0.007880211, 9.839584
787291179953641, -6.3086767, 0.14955142, 7.648658, 0.40046364, -0.09332895, 9.907302
787291189592600, -6.3996043, -0.35413775, 7.3770723, -0.14431536, 0.0362525, 9.771357
787291199231558, -6.4259253, -0.42951167, 7.6737823, -0.1721133, -0.1480546, 10.015608
787291208870516, -6.334998, 0.20697916, 7.4273214, 0.42274934, 0.087449074, 9.754681
787291218509475, -6.491728, -0.9068798, 7.2993054, -0.7043781, 0.031838894, 9.785073
787291228148329, -6.3218374, 0.58624154, 7.399804, 0.78400046, 0.18512821, 9.716866
787291237787287, -6.530013, -1.0803595, 7.3579297, -0.8645656, -0.027035236, 9.858964
787291247426246, -6.2691956, 0.5946164, 7.690532, 0.8630455, -0.04488516, 9.902211
787291257065204, -6.4570317, -0.86261255, 7.328019, -0.65955424, -0.011711597, 9.782743
787291266704162, -6.296713, 0.23449662, 7.62114, 0.49344486, -0.06026411, 9.876145
787291276343121, -6.4127645, -0.36251262, 7.3806615, -0.15526366, 0.0408206, 9.78281
787291285982079, -6.418747, -0.32662028, 7.6594253, -0.075094104, -0.12179232, 9.997666
787291295621037, -6.352944, 0.21894327, 7.420143, 0.4286949, 0.10799408, 9.760683
787291305259996, -6.4881387, -0.8542377, 7.379465, -0.6491555, -0.013737202, 9.841778
787291314898954, -6.300302, 0.57547385, 7.426125, 0.7805776, 0.1399355, 9.723345
787291324537912, -6.5407805, -1.1066805, 7.4153576, -0.9006113, -0.055756092, 9.908577
787291334176871, -6.273981, 0.5455636, 7.6713896, 0.7923606, -0.03951025, 9.893499
787291343815829, -6.4666033, -0.94755775, 7.2765737, -0.75512993, 0.018170357, 9.7515545
787291353454787, -6.2715883, 0.24526432, 7.6331043, 0.49538243, -0.08507252, 9.869377
787291363093641, -6.411568, -0.43070808, 7.385447, -0.22100544, 0.028779507, 9.787179
787291372732600, -6.391229, -0.30269206, 7.6390862, -0.05252278, -0.120147705, 9.963829
787291382371558, -6.344569, 0.08015956, 7.3830543, 0.29161555, 0.09013462, 9.730177
787291392010516, -6.4606214, -0.8470592, 7.4548388, -0.62410295, -0.062202454, 9.881214
787291401649475, -6.3134627, 0.49651068, 7.4787674, 0.7233003, 0.10099888, 9.772661
787291411288433, -6.521638, -1.1306087, 7.3974113, -0.92026687, -0.05197954, 9.883427
787291420927391, -6.273981, 0.6041877, 7.670193, 0.8680696, -0.017296791, 9.889688
787291430566350, -6.5001025, -0.9619147, 7.348358, -0.7454746, 0.002579689, 9.82951
787291440205308, -6.3134627, 0.35174492, 7.7216387, 0.6108724, -0.07036781, 9.961382
787291449844266, -6.4031935, -0.44985065, 7.3603225, -0.23108637, 0.035612583, 9.763346
787291459483225, -6.381658, -0.18185452, 7.5637126, 0.0607363, -0.05078602, 9.897583
787291469122183, -6.29432, 0.11485548, 7.3100734, 0.3200857, 0.114480495, 9.641228
787291478761141, -6.4881387, -0.762114, 7.5062847, -0.5371034, -0.07044649, 9.936178
787291488399996, -6.300302, 0.50009996, 7.5182486, 0.7317978, 0.0679822, 9.794275
787291498038954, -6.5288167, -1.0743774, 7.379465, -0.8602735, -0.033450603, 9.87396
787291507677912, -6.2548385, 0.634098, 7.578069, 0.86760235, 0.024453163, 9.808104
787291517316871, -6.5168524, -0.96550393, 7.3136625, -0.76031566, 0.02957344, 9.813881
787291526955829, -6.3314085, 0.4019942, 7.7312098, 0.6666199, -0.07255411, 9.978493
787291536594787, -6.45105, -0.51206404, 7.396215, -0.30732644, 0.031744957, 9.822769
787291546233746, -6.3541408, -0.12562318, 7.6031938, 0.12406385, -0.0849185, 9.908422
787291555872704, -6.364908, 0.02632105, 7.3256264, 0.22525895, 0.13183594, 9.701002
787291565511662, -6.472585, -0.73818576, 7.509874, -0.50935316, -0.07032013, 9.928396
787291575150621, -6.3158555, 0.4331009, 7.4344997, 0.6439375, 0.103126526, 9.742901
787291584789579, -6.5252275, -1.0899308, 7.3399835, -0.88241756, 0.010150909, 9.8419075
787291594428537, -6.259624, 0.5802595, 7.5696945, 0.827911, 0.019779682, 9.804797
787291604067496, -6.509674, -1.0396814, 7.3399835, -0.8268169, -0.0064969063, 9.830996
787291613706454, -6.282356, 0.4223332, 7.688139, 0.6745336, -0.082778454, 9.914232
787291623345412, -6.452246, -0.5910272, 7.3842506, -0.3727044, 0.028801441, 9.8167305
787291632984266, -6.3421764, -0.09451649, 7.668997, 0.15995067, -0.12929964, 9.950044
787291642623225, -6.413961, -0.02751746, 7.38784, 0.17464459, 0.120628834, 9.781348
787291652262183, -6.4414787, -0.6735796, 7.5110703, -0.43890858, -0.081213, 9.90774
787291661901141, -6.3122663, 0.4354937, 7.4189467, 0.6441151, 0.12979603, 9.728484
787291671540100, -6.4869423, -1.0253245, 7.389036, -0.8133788, -0.061181545, 9.852118
787291681179058, -6.2512493, 0.6161518, 7.6343007, 0.87504786, -0.0020222664, 9.8475685
787291690818016, -6.502496, -1.0468599, 7.3495545, -0.8303455, -0.03291273, 9.833807
787291700456975, -6.2691956, 0.43070808, 7.6749787, 0.6989753, -0.053366184, 9.894554
787291710095933, -6.437889, -0.654437, 7.385447, -0.43246365, -0.010727406, 9.809811
787291719734891, -6.3517475, -0.04426722, 7.6809607, 0.21115828, -0.11161709, 9.964273
787291729373850, -6.401997, -0.09092726, 7.331609, 0.1063143, 0.13654804, 9.732232
787291739012808, -6.454639, -0.63888365, 7.4679995, -0.41415393, -0.03109169, 9.882766
787291748651766, -6.317052, 0.38763726, 7.3866434, 0.59456056, 0.1388712, 9.707994
787291758290725, -6.5168524, -1.0683953, 7.446464, -0.85064113, -0.062068462, 9.916311
787291767929683, -6.2644095, 0.6197411, 7.685746, 0.8730544, -0.030541897, 9.896183
787291777568641, -6.4845495, -1.0648061, 7.411768, -0.84757483, -0.06923771, 9.868856
787291787207496, -6.2117677, 0.4749753, 7.6366935, 0.7305374, -0.08052111, 9.828051
787291796846454, -6.4271216, -0.7106683, 7.3340015, -0.504048, 0.013386726, 9.764543
787291806485412, -6.37089, 0.013160525, 7.7240314, 0.27473402, -0.10222244, 10.008156
787291816124371, -6.4474607, -0.19980069, 7.4129643, 0.005854249, 0.10167265, 9.826054
787291825763329, -6.489335, -0.57188463, 7.456035, -0.35415316, 0.016762733, 9.894709
787291835402287, -6.381658, 0.34576288, 7.353144, 0.53661823, 0.21868134, 9.725125
787291845041246, -6.5455666, -1.0097711, 7.375876, -0.7971846, 2.5606155E-4, 9.880897
787291854680204, -6.3278193, 0.6125626, 7.5314093, 0.8470977, 0.114812374, 9.818752
787291864319162, -6.521638, -1.0468599, 7.351948, -0.84312344, -0.010294914, 9.847225
787291873958121, -6.250053, 0.506082, 7.6546397, 0.7758912, -0.03154564, 9.8645735
787291883597079, -6.4211397, -0.7704889, 7.4033933, -0.5490302, -0.043665886, 9.814866
787291893236037, -6.256035, 0.11246266, 7.7790666, 0.40967917, -0.19672775, 9.97286
787291902874996, -6.3218374, -0.19142582, 7.452446, 0.048091054, -0.014388561, 9.774391
787291912513954, -6.3720865, -0.50129634, 7.62114, -0.23859799, -0.15414333, 9.942628
787291922152912, -6.3218374, 0.28594232, 7.5182486, 0.5201665, 0.058485508, 9.813127
787291931791871, -6.498906, -1.0169497, 7.539784, -0.77111053, -0.12895823, 9.975323
787291941430829, -6.306284, 0.5623133, 7.580462, 0.8068109, 0.07276726, 9.843402
787291951069787, -6.558727, -1.1377872, 7.2646093, -0.9522624, 0.070111275, 9.8068495
787291960708746, -6.29432, 0.45702913, 7.4715886, 0.6765556, 0.09685755, 9.756273
787291970347704, -6.4845495, -0.86261255, 7.2466636, -0.65949416, 0.0855732, 9.739885
787291979986662, -6.3074803, 0.09930214, 7.615158, 0.36408442, -0.0659399, 9.881695
787291989625516, -6.3744793, -0.25124636, 7.32443, -0.04124379, 0.09276962, 9.712573
787291999264475, -6.3565335, -0.46181476, 7.661818, -0.1898017, -0.17998552, 9.962623
787292008903433, -6.2715883, 0.28713873, 7.5493555, 0.5358703, -0.006129265, 9.804125
787292018542391, -6.4199433, -0.9834501, 7.6307116, -0.7112626, -0.21932268, 9.992826
787292028181350, -6.2404814, 0.5168497, 7.631908, 0.7827087, -0.015015602, 9.84093
787292037820308, -6.4821568, -1.18684, 7.38784, -0.9542968, -0.0709219, 9.853497
787292047459266, -6.32423, 0.43908295, 7.7419777, 0.71468425, -0.04172802, 9.980701
787292057098225, -6.570691, -0.93679005, 7.368697, -0.7252946, 0.06506586, 9.8903475
787292066737183, -6.3684974, 0.13280165, 7.652247, 0.38134867, -0.02882433, 9.949173
787292076376141, -6.401997, -0.26679972, 7.0875406, -0.094281435, 0.26192522, 9.550524
787292086015100, -6.381658, -0.29312077, 7.361519, -0.07705891, 0.06372118, 9.746458
787292095654058, -6.3828545, 0.32542387, 7.375876, 0.52867544, 0.18935633, 9.743457
787292105293016, -6.4941206, -0.76331043, 7.556534, -0.5323862, -0.07697725, 9.97838
787292114931975, -6.2919273, 0.7118647, 7.6390862, 0.9506275, 0.04189205, 9.876501
787292124570933, -6.5084777, -0.9607183, 7.3375907, -0.75413454, 0.035586357, 9.826164
787292134209891, -6.233303, 0.66041905, 7.564909, 0.88894624, 0.02709961, 9.784023
787292143848850, -6.4977098, -0.85902333, 7.21436, -0.6951034, 0.11946106, 9.721507
787292153487808, -6.3050876, 0.21774685, 7.624729, 0.46046853, -0.04247284, 9.885555
787292163126766, -6.373283, -0.44985065, 7.4069824, -0.24525893, 0.0039315224, 9.778769
787292172765725, -6.34098, -0.36490545, 7.6953177, -0.11098015, -0.18154049, 9.97566
787292182404683, -6.2847486, 0.1471586, 7.5457664, 0.3760692, -0.004172325, 9.814116
787292192043641, -6.413961, -0.83748794, 7.6163545, -0.59996617, -0.16861248, 9.973
787292201682600, -6.32423, 0.5455636, 7.6127653, 0.7611723, 0.08330679, 9.88238
787292211321558, -6.617351, -1.1222339, 7.4644103, -0.9243115, 0.001285553, 9.995589
787292220960516, -6.290731, 0.61734825, 7.5050883, 0.82995427, 0.13026667, 9.776246
787292230599475, -6.4965134, -0.9738788, 7.143772, -0.8126917, 0.14660072, 9.669781
787292240238433, -6.2787666, 0.27756742, 7.6307116, 0.5067661, -0.030326843, 9.872688
787292249877391, -6.4055862, -0.43788654, 7.5026956, -0.22856677, -0.01807642, 9.872241
787292259516350, -6.35773, -0.24765715, 7.826923, 0.01706338, -0.2118249, 10.084524
787292269155308, -6.29432, 0.1471586, 7.5349984, 0.36743832, 0.022854328, 9.812277
787292278794266, -6.361319, -0.7968099, 7.539784, -0.56669784, -0.15404606, 9.879513
787292288433225, -6.209375, 0.5419743, 7.588837, 0.7685956, 0.0069742203, 9.790289
787292298072183, -6.452246, -1.0145568, 7.539784, -0.78182447, -0.1467228, 9.943661
787292307711141, -6.2488565, 0.68195444, 7.6713896, 0.9228876, 0.021996498, 9.874781
787292317350100, -6.474978, -0.9236295, 7.239485, -0.760581, 0.0989728, 9.726269
787292326989058, -6.2883377, 0.33260235, 7.556534, 0.5564383, 0.033489704, 9.820604
787292336628016, -6.4163537, -0.49651068, 7.304091, -0.31273866, 0.10380745, 9.729198
787292346266975, -6.3744793, -0.21774685, 7.629515, 0.015209794, -0.067162514, 9.944151
787292355905933, -6.3326054, -0.031106694, 7.5385876, 0.18749797, 0.0030665398, 9.843679
787292365544891, -6.3804617, -0.87338024, 7.6713896, -0.61995506, -0.2362423, 9.994156
787292375183850, -6.229714, 0.35294133, 7.658229, 0.6044622, -0.061791897, 9.859673
787292384822808, -6.431907, -1.2131611, 7.539784, -0.9829644, -0.1753025, 9.934415
787292394461766, -6.2991056, 0.52163535, 7.7407813, 0.77883756, -0.006895542, 9.963127
787292404100725, -6.48096, -1.0229317, 7.420143, -0.8060874, -0.042585373, 9.871989
787292413739683, -6.303891, 0.4235296, 7.5828547, 0.6571121, 0.07100248, 9.847907
787292423378641, -6.45105, -0.4953143, 7.196414, -0.3243537, 0.19600248, 9.669857
787292433017600, -6.3888364, -0.01794617, 7.5613194, 0.20721662, 0.024820328, 9.896846
787292442656558, -6.45105, 0.15074782, 7.4069824, 0.33070803, 0.2059083, 9.815824
787292452295516, -6.463014, -0.6149554, 7.5050883, -0.40327728, -0.029483318, 9.915218
787292461934475, -6.309873, 0.5276174, 7.402197, 0.72116387, 0.1875639, 9.712371
787292471573433, -6.4905314, -0.9942178, 7.320841, -0.81210756, 0.007994652, 9.800539
787292481212391, -6.257231, 0.701097, 7.629515, 0.93866014, 0.04562521, 9.847376
787292490851350, -6.538388, -0.95473623, 7.4392858, -0.7646216, -0.0077991486, 9.9207
787292500490308, -6.3014984, 0.4977071, 7.763513, 0.7405623, -0.059378624, 9.983827
787292510129266, -6.4343, -0.506082, 7.332805, -0.3152386, 0.07741833, 9.763247
787292519768225, -6.2847486, 0.05742774, 7.2646093, 0.23458123, 0.13314247, 9.602247
787292529407183, -6.343373, 0.020338992, 7.3639116, 0.20890695, 0.101129055, 9.716589
787292539046141, -6.4008007, -0.6735796, 7.6103725, -0.43591678, -0.16804838, 9.956077
787292548685100, -6.326623, 0.38644084, 7.517052, 0.5916177, 0.06410265, 9.814655
787292558324058, -6.4701924, -1.0576276, 7.487142, -0.8390299, -0.102399826, 9.915888
787292567963016, -6.2033925, 0.60777694, 7.6606216, 0.8449374, -0.06305027, 9.839649
787292577601975, -6.512067, -1.0815558, 7.4010005, -0.8773097, -0.013682842, 9.878347
787292587240933, -6.2440705, 0.45104706, 7.6893353, 0.70462406, -0.08227205, 9.890119
787292596879891, -6.413961, -0.7429714, 7.3172517, -0.55480945, 0.03984976, 9.742878
787292606518850, -6.309873, -0.08255238, 7.7300134, 0.17812943, -0.16203165, 9.975794
787292616157808, -6.3720865, -0.19980069, 7.5349984, 0.021735072, -0.012723923, 9.870104
787292625796766, -6.430711, -0.69152576, 7.719246, -0.44006777, -0.18621492, 10.059357
787292635435725, -6.2787666, 0.30029923, 7.4943204, 0.5240372, 0.062152386, 9.767264
787292645074787, -6.471389, -1.1066805, 7.3603225, -0.89809155, -0.02913475, 9.821942
787292654713746, -6.2871413, 0.552742, 7.678568, 0.79097694, -0.0027565956, 9.907999
787292664352704, -6.5551376, -1.0755738, 7.469196, -0.8569317, -0.02865696, 9.958937
787292673991662, -6.29432, 0.5479564, 7.6953177, 0.80408126, -0.013040066, 9.92421
787292683630621, -6.4534426, -0.6687939, 7.2729845, -0.4873742, 0.1038599, 9.733561
787292693269579, -6.273981, 0.1471586, 7.664211, 0.40629596, -0.101507664, 9.896931
787292702908537, -6.418747, -0.09092726, 7.416554, 0.1123122, 0.11222935, 9.80758
787292712547496, -6.3684974, -0.4881358, 7.59123, -0.2461462, -0.12167168, 9.9170265
787292722186454, -6.2548385, 0.3278167, 7.483553, 0.55343336, 0.039052486, 9.74301
787292731825412, -6.346962, -0.8997013, 7.524231, -0.6480154, -0.20050287, 9.861405
787292741464371, -6.3086767, -0.08135597, 7.576873, 0.15539086, -0.06897831, 9.858301
787292751103329, -6.3421764, -0.2943172, 7.578069, -0.047819495, -0.09634876, 9.885614
787292760742287, -6.4055862, -0.21535404, 7.520642, 0.006936908, 0.0062651634, 9.881188
787292770381246, -6.448657, -0.15672988, 7.48116, 0.050237656, 0.07491732, 9.877722
787292780020204, -6.532406, -0.15672988, 7.298109, 0.0045958757, 0.25123215, 9.792659
787292789659162, -6.4031935, -0.13878371, 7.318448, 0.04842496, 0.1434102, 9.724038
787292799298121, -6.4438715, -0.15314065, 7.2646093, 0.018509626, 0.19902563, 9.7098675
787292808937079, -6.4737816, -0.2105684, 7.3842506, -0.023148894, 0.12972307, 9.821608
787292818576037, -6.4498534, -0.2428715, 7.450053, -0.03930497, 0.063845634, 9.856839
787292828215100, -6.418747, -0.25603202, 7.4644103, -0.04581201, 0.028595924, 9.847861
787292837854058, -6.4055862, -0.21296121, 7.4775705, 4.9364567E-4, 0.020424843, 9.848379
787292847493016, -6.34098, -0.20458634, 7.4919276, 0.0206151, -0.034034252, 9.817193
787292857131975, -6.3278193, -0.20937198, 7.584051, 0.030598044, -0.09879637, 9.878881
787292866770933, -6.29432, -0.18783657, 7.615158, 0.061003327, -0.13913155, 9.88035
787292876409891, -6.2979093, -0.21894327, 7.5661054, 0.021353006, -0.10490799, 9.846121
787292886048850, -6.334998, -0.25603202, 7.5924263, -0.01635313, -0.09823561, 9.891046
787292895687808, -6.3804617, -0.26799613, 7.5924263, -0.03414464, -0.0643239, 9.920773
787292905326766, -6.3792653, -0.2943172, 7.5254273, -0.07001805, -0.028656483, 9.869547
787292914965725, -6.381658, -0.27158538, 7.4823565, -0.05408871, 0.006280899, 9.837786
787292924604683, -6.391229, -0.30269206, 7.5146594, -0.079865575, -0.012619019, 9.869294
787292934243641, -6.361319, -0.29192436, 7.5385876, -0.059574604, -0.047337532, 9.867934
787292943882600, -6.3493547, -0.22731815, 7.530213, 0.0049186945, -0.037190914, 9.8523445
787292953521662, -6.391229, -0.19501504, 7.519445, 0.028804064, 0.007863998, 9.870512
787292963160621, -6.3828545, -0.21296121, 7.495517, 0.008806825, 0.013184547, 9.847267
787292972799579, -6.411568, -0.23569304, 7.368697, -0.03641534, 0.107637405, 9.769775
787292982438537, -6.407979, -0.26799613, 7.739585, -0.013121963, -0.13592243, 10.050697
787292992077496, -6.3290157, -0.2428715, 7.3770723, -0.030015826, 0.038345337, 9.722872
787293001716454, -6.3768725, -0.22971097, 7.32443, -0.031940103, 0.10854387, 9.713483
787293011355412, -6.418747, -0.19621146, 7.7587276, 0.061920166, -0.12616682, 10.070597
787293020994371, -6.3996043, -0.15553348, 7.658229, 0.08792734, -0.069018364, 9.980736
787293030633329, -6.3804617, -0.16151553, 7.442875, 0.051561117, 0.050996304, 9.804464
787293040272287, -6.3996043, -0.14596218, 7.517052, 0.07461429, 0.019348145, 9.873013
787293049911246, -6.4211397, -0.20817557, 7.4392858, -0.002465248, 0.06783962, 9.829178
787293059550308, -6.48096, -0.21535404, 7.3292155, -0.037016034, 0.17310667, 9.784442
787293069189266, -6.485746, -0.20697916, 7.4069824, -0.016967773, 0.12598467, 9.846571
787293078828225, -6.4163537, -0.19142582, 7.408179, 0.010394573, 0.07385492, 9.802134
787293088467183, -6.4366927, -0.16031912, 7.2789664, 0.017364979, 0.17507124, 9.716436
787293098106141, -6.413961, -0.14356937, 7.472785, 0.06610513, 0.038641453, 9.848661
787293107745100, -6.3565335, -0.13519448, 7.536195, 0.09108174, -0.04137373, 9.859413
787293117384058, -6.2991056, -0.14237295, 7.4620175, 0.080877185, -0.03945303, 9.765892
787293127023016, -6.3182483, -0.17706887, 7.57448, 0.057852983, -0.09930086, 9.864642
787293136661975, -6.285945, -0.19142582, 7.60798, 0.052959085, -0.14399385, 9.869529
787293146301037, -6.337391, -0.22612174, 7.542177, 8.8465214E-4, -0.071555614, 9.853578
787293155939996, -6.375676, -0.26799613, 7.537391, -0.04681301, -0.045559883, 9.875682
787293165578954, -6.3457656, -0.29910284, 7.479964, -0.08044398, -0.03466797, 9.813275
787293175217912, -6.3864436, -0.317049, 7.517052, -0.09645212, -0.02990675, 9.868286
787293184856871, -6.437889, -0.32303107, 7.6103725, -0.095483065, -0.051508427, 9.972802
787293194495829, -6.4067826, -0.29790643, 7.570891, -0.07038033, -0.043275356, 9.922056
787293204134787, -6.391229, -0.26679972, 7.4392858, -0.055215836, 0.034627914, 9.811102
787293213773746, -6.3720865, -0.19860429, 7.429714, 0.012610674, 0.041166306, 9.78988
787293223412808, -6.4259253, -0.19262223, 7.5086775, 0.02364099, 0.032605648, 9.884746
787293233051766, -6.422336, -0.20697916, 7.513463, 0.010505438, 0.02431202, 9.886389
787293242690725, -6.4031935, -0.2440679, 7.4823565, -0.028108716, 0.021485806, 9.851136
787293252329683, -6.398408, -0.26679972, 7.5026956, -0.045656204, -0.001144886, 9.864033
787293261968641, -6.398408, -0.2620141, 7.5625157, -0.030749798, -0.038615227, 9.909466
787293271607600, -6.3960147, -0.26799613, 7.5864444, -0.032541156, -0.056729794, 9.926264
787293281246558, -6.3804617, -0.21296121, 7.5457664, 0.017763972, -0.031908035, 9.883972
787293290885621, -6.37089, -0.14955142, 7.426125, 0.06403065, 0.047697544, 9.785273
787293300524579, -6.3864436, -0.15553348, 7.381858, 0.049168825, 0.08091164, 9.76185
787293310163537, -6.410372, -0.13519448, 7.450053, 0.07564318, 0.059994698, 9.82879
787293319802496, -6.418747, -0.15074782, 7.4153576, 0.05147636, 0.08334684, 9.808209
787293329441454, -6.4008007, -0.19142582, 7.3340015, 5.9080124E-4, 0.11317825, 9.735588
787293339080412, -6.378069, -0.19740787, 7.432107, 0.012315512, 0.033097267, 9.795595
787293348719371, -6.4199433, -0.2428715, 7.5936227, -0.0151872635, -0.042931557, 9.946643
787293358358329, -6.3888364, -0.23569304, 7.6678, 0.008032918, -0.11144495, 9.982759
787293367997391, -6.3625154, -0.24646074, 7.6199436, -0.0058107376, -0.1011157, 9.929532
787293377636350, -6.363712, -0.25962126, 7.530213, -0.032547712, -0.045385838, 9.862314
787293387275308, -6.355337, -0.22971097, 7.4919276, -0.0072641373, -0.022194386, 9.827081
787293396914266, -6.3996043, -0.19381863, 7.4512496, 0.015019894, 0.043245316, 9.82403
787293406553225, -6.375676, -0.21535404, 7.393822, -0.011033654, 0.05558157, 9.765299
787293416192183, -6.422336, -0.23808585, 7.375876, -0.04266107, 0.09644556, 9.782408
787293425831141, -6.428318, -0.2536392, 7.429714, -0.050691724, 0.06373644, 9.827595
787293435470204, -6.3589263, -0.23449662, 7.452446, -0.018241048, 0.0012397766, 9.799465
787293445109162, -6.3720865, -0.22731815, 7.4823565, -0.008541942, -0.0062422752, 9.830599
787293454748121, -6.363712, -0.21655045, 7.5936227, 0.019855857, -0.07667208, 9.90962
787293464387079, -6.3696938, -0.22013968, 7.688139, 0.030355096, -0.13037586, 9.98554
787293474026037, -6.378069, -0.2440679, 7.5553374, -0.015075088, -0.045732975, 9.890406
787293483664996, -6.337391, -0.23928227, 7.399804, -0.02788806, 0.023533821, 9.745541
787293493304058, -6.3720865, -0.25244278, 7.409375, -0.044103503, 0.04034233, 9.775607
787293502943016, -6.413961, -0.22612174, 7.539784, -0.0038089752, -0.0041851997, 9.901431
787293512581975, -6.407979, -0.21296121, 7.587641, 0.017562628, -0.035517216, 9.933693
787293522220933, -6.367301, -0.1698904, 7.530213, 0.05654359, -0.02080822, 9.86265
787293531859891, -6.373283, -0.1698904, 7.463214, 0.045089006, 0.02580452, 9.815521
787293541498850, -6.385247, -0.15433706, 7.489535, 0.061707735, 0.020938396, 9.84297
787293551137808, -6.428318, -0.16630118, 7.5469627, 0.05173433, 0.014077663, 9.914873
787293560776871, -6.3792653, -0.18185452, 7.4907312, 0.03315842, 0.008504391, 9.84063
787293570415829, -6.401997, -0.22851457, 7.4620175, -0.020324945, 0.032844067, 9.834531
787293580054787, -6.413961, -0.2727818, 7.4715886, -0.06341827, 0.025532246, 9.850548
787293589693746, -6.390033, -0.24526432, 7.4416785, -0.036280632, 0.030841827, 9.811676
787293599332704, -6.378069, -0.24047868, 7.459625, -0.026290298, 0.010569096, 9.817474
787293608971662, -6.3864436, -0.23090738, 7.4620175, -0.017629147, 0.0174613, 9.8245125
787293618610725, -6.37089, -0.2105684, 7.4907312, 0.009484172, -0.008542538, 9.835825
787293628249683, -6.38764, -0.18783657, 7.521838, 0.034864545, -0.011003017, 9.86985
787293637888641, -6.3661046, -0.17706887, 7.5326056, 0.050506234, -0.030900955, 9.863837
787293647527600, -6.472585, -0.18305093, 7.517052, 0.024839282, 0.058656216, 9.921183
787293657166558, -6.4031935, -0.18544376, 7.500303, 0.030106544, 0.015219212, 9.863501
787293666805516, -6.364908, -0.16510476, 7.409375, 0.04153192, 0.048282623, 9.769036
787293676444579, -6.4235325, -0.21894327, 7.3698936, -0.026651263, 0.10449219, 9.778213
787293686083537, -6.4343, -0.24047868, 7.4033933, -0.044429302, 0.08555031, 9.811167
787293695722496, -6.3960147, -0.2620141, 7.5062847, -0.043026567, -0.012463093, 9.865088
787293705361454, -6.3972116, -0.25124636, 7.52782, -0.028417945, -0.02108574, 9.882017
