timestamp_acc,device_acc_x,device_acc_y,device_acc_z,earth_acc_x,earth_acc_y,earth_acc_z
357250013056741, 6.411568, -0.7190432, 7.810173, 0.008869052, -0.027063847, 10.130312
357250022696637, 6.4067826, -0.7070791, 7.8029947, -0.0023992062, -0.023018837, 10.12092
357250032336429, 6.3996043, -0.7082755, 7.7910304, 1.04784966E-4, -0.021862507, 10.107239
357250041976220, 6.393622, -0.70947194, 7.7706914, 0.004870534, -0.014482975, 10.0878725
357250051616012, 6.384051, -0.701097, 7.7383885, 0.001887083, -0.001019001, 10.056355
357250061255804, 6.3828545, -0.6999006, 7.726424, 0.0020804405, 0.001765728, 10.0463085
357250070895595, 6.375676, -0.6891329, 7.7180495, -0.007962108, 0.0026445389, 10.034559
357250080535387, 6.373283, -0.6855437, 7.696514, -0.0071846247, 0.014644146, 10.016226
357250090175283, 6.3924255, -0.6723832, 7.672586, -0.011839032, 0.046064854, 10.009072
357250099815074, 6.3924255, -0.68195444, 7.6797643, -0.0042643547, 0.03932047, 10.015259
357250109454866, 6.3792653, -0.6831509, 7.7001033, -0.008931398, 0.016499043, 10.022623
357250119094658, 6.3864436, -0.70588267, 7.719246, 0.010201454, 0.0053725243, 10.043484
357250128734449, 6.411568, -0.6987042, 7.7383885, 0.0028418303, 0.015559673, 10.0736685
357250138374241, 6.422336, -0.6855437, 7.743174, -0.009212732, 0.024909496, 10.083273
357250148014033, 6.391229, -0.701097, 7.756335, -0.0020734072, -0.010599136, 10.074718
357250157653929, 6.40439, -0.7070791, 7.763513, 0.004230976, -0.0051050186, 10.089018
357250167293720, 6.4091754, -0.71425754, 7.7671022, 0.011126518, -0.0054602623, 10.095318
357250176933512, 6.4163537, -0.70588267, 7.7850485, 3.5572052E-4, -0.008354187, 10.113099
357250186573304, 6.40439, -0.6987042, 7.7682986, -0.004309058, -0.0061678886, 10.092115
357250196213095, 6.4091754, -0.6891329, 7.7551384, -0.010108709, 0.007745266, 10.084367
357250205852887, 6.40439, -0.7070791, 7.7240314, 0.013674617, 0.017647743, 10.058645
357250215492679, 6.4055862, -0.6939186, 7.682157, 0.010411978, 0.045921803, 10.026285
357250225132574, 6.385247, -0.70588267, 7.6462646, 0.026062846, 0.044843197, 9.986608
357250234772366, 6.3828545, -0.6987042, 7.652247, 0.017520428, 0.041181564, 9.989189
357250244412158, 6.3684974, -0.71665037, 7.665407, 0.028761625, 0.014435768, 9.991435
357250254051949, 6.373283, -0.72023964, 7.6869426, 0.024679065, 3.2615662E-4, 10.0112915
357250263691741, 6.3828545, -0.71665037, 7.7144604, 0.014730692, -0.008159161, 10.03828
357250273331533, 6.401997, -0.70229346, 7.733603, -2.2780895E-4, -0.0014109612, 10.064163
357250282971324, 6.3948183, -0.70348984, 7.771888, -0.0103696585, -0.029545307, 10.089095
357250292611220, 6.3972116, -0.6987042, 7.773084, -0.015374303, -0.025179863, 10.091209
357250302251012, 6.4067826, -0.6843473, 7.7647095, -0.024689078, -0.008090496, 10.089859
357250311890804, 6.428318, -0.67477596, 7.7300134, -0.022432685, 0.03157854, 10.07622
357250321530595, 6.4211397, -0.66999036, 7.726424, -0.025723577, 0.030248165, 10.068564
357250331170387, 6.4151573, -0.64965135, 7.735996, -0.046919703, 0.025252342, 10.0707035
357250340810179, 6.40439, -0.66400826, 7.716853, -0.029204607, 0.024449825, 10.050149
357250350449970, 6.4235325, -0.6867401, 7.728817, -0.0054348707, 0.025841236, 10.073097
357250360089866, 6.4163537, -0.6855437, 7.713264, -0.003648758, 0.030370712, 10.056495
357250369729658, 6.3960147, -0.6987042, 7.690532, 0.010940433, 0.025033474, 10.027
357250379369449, 6.3864436, -0.6963114, 7.7036924, 0.004138589, 0.009526253, 10.030867
357250389009241, 6.3888364, -0.71306115, 7.7108707, 0.01843381, 9.884834E-4, 10.039068
357250398649033, 6.3744793, -0.72263247, 7.7240314, 0.02134347, -0.022328377, 10.040713
357250408288824, 6.385247, -0.7286145, 7.725228, 0.028640985, -0.016366959, 10.048897
357250417928616, 6.385247, -0.72382885, 7.726424, 0.02352631, -0.014912605, 10.049486
357250427568512, 6.3888364, -0.70947194, 7.735996, 0.008151531, -0.010253906, 10.058133
357250437208304, 6.384051, -0.7070791, 7.7479596, 0.0023639202, -0.020470142, 10.064121
357250446848095, 6.3960147, -0.6963114, 7.759924, -0.008069396, -0.013535023, 10.080181
357250456487887, 6.3924255, -0.7070791, 7.751549, 0.0053186417, -0.010695934, 10.072212
357250466127679, 6.4067826, -0.69272214, 7.735996, -0.0027368069, 0.013268948, 10.068377
357250475767470, 6.390033, -0.6771688, 7.7407813, -0.020704985, 0.0024785995, 10.060335
357250485407262, 6.38764, -0.6735796, 7.749156, -0.025450706, -0.0036373138, 10.065008
357250495047158, 6.3948183, -0.6687939, 7.722835, -0.021983624, 0.018943787, 10.048996
357250504686949, 6.3996043, -0.6867401, 7.7216387, -0.0025516748, 0.018885136, 10.052359
357250514326741, 6.3972116, -0.7046863, 7.7204423, 0.015313745, 0.011536598, 10.051157
357250523966533, 6.3972116, -0.70229346, 7.7180495, 0.01320684, 0.012612343, 10.049154
357250533606324, 6.3888364, -0.71665037, 7.7216387, 0.024343371, -9.665489E-4, 10.047585
357250543246116, 6.361319, -0.7106683, 7.706085, 0.01730311, -0.010590076, 10.017723
357250552886012, 6.378069, -0.71306115, 7.7072816, 0.022381067, 3.0326843E-4, 10.029451
357250562525804, 6.3792653, -0.6903293, 7.7156568, -4.557371E-4, 0.0033106804, 10.035086
357250572165595, 6.3828545, -0.6831509, 7.7072816, -0.0037324429, 0.014132023, 10.030429
357250581805387, 6.385247, -0.68195444, 7.7312098, -0.009038806, 0.0035967827, 10.050272
357250591445179, 6.401997, -0.68195444, 7.7216387, -0.0027085543, 0.023257732, 10.053547
357250601084970, 6.4199433, -0.66999036, 7.746763, -0.016169906, 0.027488232, 10.0834465
357250610724762, 6.4175506, -0.66759753, 7.725228, -0.0137985945, 0.039261818, 10.065191
357250620364554, 6.413961, -0.6735796, 7.728817, -0.009481072, 0.032173157, 10.066086
357250630004449, 6.401997, -0.6795616, 7.7312098, -0.0062891245, 0.020093441, 10.060741
357250639644241, 6.355337, -0.7046863, 7.728817, 0.010252118, -0.02138424, 10.030998
357250649284033, 6.350551, -0.73459655, 7.745567, 0.033853173, -0.043845177, 10.0429
357250658923824, 6.378069, -0.70229346, 7.7551384, 0.0052785873, -0.020124912, 10.065522
357250668563616, 6.3768725, -0.6963114, 7.7587276, -0.0020399094, -0.018672466, 10.067118
357250678203408, 6.3768725, -0.6987042, 7.7647095, -9.826422E-4, -0.022898197, 10.071886
357250687843199, 6.413961, -0.7046863, 7.771888, 0.009475708, 8.573532E-4, 10.101368
357250697483095, 6.4163537, -0.6999006, 7.7850485, 0.0026751757, -0.0024752617, 10.112686
357250707122887, 6.4067826, -0.6903293, 7.776674, -0.005902171, -0.0014357567, 10.099507
357250716762679, 6.413961, -0.6831509, 7.7312098, -2.5689602E-4, 0.03177786, 10.068575
357250726402470, 6.4031935, -0.6795616, 7.698907, 0.0024654865, 0.041033268, 10.036642
357250736042262, 6.3696938, -0.6855437, 7.670193, 0.009310365, 0.03136444, 9.993687
357250745682054, 6.364908, -0.6795616, 7.655836, 0.007092595, 0.031847954, 9.97921
357250755321845, 6.363712, -0.7082755, 7.6390862, 0.03823471, 0.033602715, 9.9675255
357250764961637, 6.3601227, -0.66400826, 7.6833534, -0.015578151, 0.012452602, 9.99628
357250774601533, 6.381658, -0.6759724, 7.7012997, -0.0045911074, 0.0145196915, 10.024583
357250784241324, 6.37089, -0.67477596, 7.752745, -0.018224, -0.023356915, 10.057224
357250793881116, 6.413961, -0.6580262, 7.7706914, -0.0319134, 0.0024881363, 10.097254
357250803520908, 6.4175506, -0.6687939, 7.773084, -0.021192431, 0.004085541, 10.102108
357250813160699, 6.4199433, -0.6891329, 7.789834, -0.003103137, -0.0051050186, 10.117907
357250822800491, 6.410372, -0.6855437, 7.7946196, -0.008449316, -0.013803482, 10.115271
357250832440283, 6.401997, -0.70348984, 7.797013, 0.006842017, -0.026026249, 10.11302
357250842080074, 6.385247, -0.6879365, 7.783852, -0.0067293644, -0.026977062, 10.091195
357250851719866, 6.3864436, -0.6735796, 7.7503524, -0.012365937, -0.002137661, 10.065195
357250861359762, 6.373283, -0.6735796, 7.7108707, -0.005892992, 0.011585236, 10.026455
357250870999554, 6.364908, -0.6735796, 7.670193, 0.003135562, 0.028913021, 9.989834
357250880639345, 6.393622, -0.65922266, 7.6594253, -0.0021686554, 0.05967474, 9.998811
357250890279137, 6.373283, -0.6831509, 7.641479, 0.022586942, 0.043795586, 9.973727
357250899918929, 6.3792653, -0.69272214, 7.652247, 0.030279517, 0.039304733, 9.986457
357250909558720, 6.381658, -0.6891329, 7.692925, 0.0181607, 0.015789986, 10.019031
357250919198512, 6.3744793, -0.695115, 7.719246, 0.016432881, -0.007300377, 10.035117
357250928838304, 6.3828545, -0.6879365, 7.726424, 0.009249568, -0.0018672943, 10.045478
357250938478095, 6.3972116, -0.6867401, 7.7443705, 0.006799221, 0.004117012, 10.068324
357250948117991, 6.393622, -0.6759724, 7.7611203, -0.0072294474, -0.0039134026, 10.078205
357250957757783, 6.3996043, -0.6723832, 7.7671022, -0.011068583, -0.0020599365, 10.086367
357250967397574, 6.38764, -0.6580262, 7.745567, -0.021378517, 0.006597042, 10.061224
357250977037366, 6.38764, -0.6580262, 7.752745, -0.021790504, 0.002375126, 10.066753
357250986677158, 6.3972116, -0.6687939, 7.7443705, -0.005604863, 0.010957241, 10.067112
357250996316949, 6.390033, -0.65922266, 7.708478, -0.007401228, 0.029235363, 10.034283
357251005956741, 6.3720865, -0.6687939, 7.7036924, 2.7108192E-4, 0.016168594, 10.019849
357251015596533, 6.38764, -0.67477596, 7.7012997, 0.009866357, 0.027508259, 10.028282
357251025236324, 6.3744793, -0.6879365, 7.696514, 0.021672368, 0.017238617, 10.017126
357251034876116, 6.3768725, -0.6891329, 7.6953177, 0.022470713, 0.018651485, 10.017805
357251044516012, 6.3661046, -0.67836523, 7.7312098, 0.0018404722, -0.008863926, 10.037877
357251054155804, 6.363712, -0.4031906, 7.769495, -0.27137923, 0.041181564, 10.047344
357251063795595, 6.364908, -0.93320084, 7.6893353, 0.25473952, -0.05350113, 10.022028
357251073435387, 6.346962, -0.5419743, 7.8017983, -0.14601779, -0.025264263, 10.070934
357251083075179, 6.4343, -0.58504516, 7.749156, -0.080833316, 0.06022644, 10.088696
357251092714970, 6.3290157, -0.9846465, 7.7180495, 0.29358613, -0.114681244, 10.024715
357251102354762, 6.48096, -0.18664017, 7.838887, -0.46728885, 0.16340494, 10.160744
357251111994554, 6.3014984, -1.2801601, 7.63789, 0.58207476, -0.18047285, 9.965626
357251121634345, 6.4666033, -0.008374879, 7.8592257, -0.6388762, 0.19719934, 10.155659
357251131274137, 6.2991056, -1.2981063, 7.598408, 0.610608, -0.15481234, 9.934931
357251140913929, 6.4175506, -0.11964113, 7.8400836, -0.53772235, 0.13027811, 10.117313
357251150553720, 6.3804617, -1.0336994, 7.6594253, 0.36927652, -0.051361084, 10.01532
357251160193616, 6.3314085, -0.4989035, 7.812566, -0.18651342, -0.02918291, 10.066587
357251169833408, 6.4331036, -0.62093747, 7.7383885, -0.039760947, 0.057841778, 10.082069
357251179473199, 6.3134627, -0.94636136, 7.6869426, 0.2640003, -0.097764015, 9.988256
357251189112991, 6.468996, -0.22851457, 7.800602, -0.42323995, 0.1627984, 10.126396
357251198752783, 6.2679987, -1.2861422, 7.594819, 0.598706, -0.16949368, 9.911413
357251208392574, 6.471389, -0.015553347, 7.8580294, -0.62949765, 0.19638538, 10.158392
357251218032366, 6.3278193, -1.3184453, 7.5924263, 0.63857853, -0.13054657, 9.94986
357251227672158, 6.398408, -0.13399807, 7.8089767, -0.5202062, 0.13173723, 10.0821495
357251237311949, 6.352944, -1.0911272, 7.6366935, 0.41413558, -0.076948166, 9.984594
357251246951741, 6.3589263, -0.43429732, 7.8053875, -0.24998438, 0.020023823, 10.074013
357251256591533, 6.4031935, -0.6556334, 7.7204423, -0.010938644, 0.03798008, 10.051587
357251266231324, 6.3074803, -0.9092726, 7.6869426, 0.22466695, -0.092176914, 9.982044
357251275871116, 6.45105, -0.26081768, 7.836494, -0.39925992, 0.12613201, 10.14492
357251285510908, 6.279963, -1.2442678, 7.652247, 0.5449178, -0.1862607, 9.960493
357251295150699, 6.4570317, -0.047856454, 7.8376904, -0.5953065, 0.19555187, 10.1356945
357251304790491, 6.3158555, -1.3399807, 7.5696945, 0.6601387, -0.14906359, 9.926121
357251314430387, 6.424729, -0.086141616, 7.8221374, -0.56034946, 0.16186094, 10.105948
357251324070179, 6.3601227, -1.1246266, 7.600801, 0.4696288, -0.05737734, 9.963145
357251333709970, 6.352944, -0.39481574, 7.77787, -0.27703524, 0.042699337, 10.0465145
357251343349762, 6.40439, -0.7070791, 7.68455, 0.05525875, 0.046952724, 10.02812
357251352989554, 6.2787666, -0.83030945, 7.68455, 0.15349865, -0.08034897, 9.956636
357251362629345, 6.4558353, -0.26679972, 7.800602, -0.38299978, 0.1393404, 10.120885
357251372269137, 6.296713, -1.2059826, 7.658229, 0.51818454, -0.15535879, 9.972904
357251381908929, 6.463014, -0.019142581, 7.9011, -0.6381037, 0.15344858, 10.186638
357251391548720, 6.306284, -1.3196417, 7.609176, 0.64713657, -0.15782738, 9.948191
357251401188512, 6.442675, -0.04426722, 7.8484583, -0.60218275, 0.16900492, 10.134945
357251410828304, 6.350551, -1.1306087, 7.62114, 0.46056998, -0.08030844, 9.973515
357251420468095, 6.361319, -0.32542387, 7.818548, -0.3485682, 0.048694134, 10.078596
357251430107887, 6.3888364, -0.76570326, 7.6917286, 0.11165118, 0.011846542, 10.027643
357251439747679, 6.2751775, -0.8422736, 7.713264, 0.15698409, -0.10829067, 9.9772415
357251449387470, 6.430711, -0.36131623, 7.7946196, -0.29155815, 0.10508633, 10.106663
357251459027262, 6.2679987, -1.1892328, 7.676175, 0.49597502, -0.19041252, 9.967121
357251468667054, 6.448657, -0.05503492, 7.897511, -0.6135851, 0.1493702, 10.176447
357251478306845, 6.2979093, -1.3304094, 7.628319, 0.63601613, -0.18608332, 9.959205
357251487946637, 6.4570317, -0.008374879, 7.867601, -0.649793, 0.18954802, 10.155506
357251497586429, 6.352944, -1.1629118, 7.643872, 0.49496913, -0.10146284, 9.994286
357251507226220, 6.378069, -0.27756742, 7.8173513, -0.3844062, 0.080118656, 10.085317
357251516866012, 6.4031935, -0.79920274, 7.6462646, 0.15688455, 0.039888382, 10.003939
357251526505804, 6.3158555, -0.74536425, 7.6666036, 0.083830476, -0.021306038, 9.96067
357251536145595, 6.430711, -0.4019942, 7.7108707, -0.23510885, 0.13758993, 10.0448475
357251545785387, 6.2668023, -1.1916257, 7.628319, 0.507936, -0.17789555, 9.929471
357251555425179, 6.4558353, -0.08135597, 7.874779, -0.5737637, 0.14157534, 10.165989
357251565064970, 6.262017, -1.3304094, 7.629515, 0.6385275, -0.22088337, 9.936592
357251574704762, 6.4235325, -0.025124637, 7.8903327, -0.6490401, 0.13295364, 10.152872
357251584344554, 6.3278193, -1.2227324, 7.6713896, 0.5389619, -0.15208721, 10.003649
357251593984345, 6.375676, -0.25004998, 7.905886, -0.436751, 0.020943165, 10.150056
357251603624137, 6.411568, -0.8315059, 7.746763, 0.15285075, -0.019384861, 10.089015
357251613263929, 6.337391, -0.6963114, 7.765906, 0.0088477135, -0.05117035, 10.0475855
357251622903720, 6.454639, -0.4331009, 7.7551384, -0.22187257, 0.116154194, 10.096008
357251632543512, 6.3086767, -1.1234303, 7.6331043, 0.44507194, -0.11743307, 9.955598
357251642183304, 6.465407, -0.09810573, 7.818548, -0.5477041, 0.18854666, 10.129427
357251651823095, 6.2847486, -1.3196417, 7.5493555, 0.6345539, -0.1609211, 9.889577
357251661462887, 6.4235325, -0.011964113, 7.776674, -0.62654686, 0.20502853, 10.064989
357251671102679, 6.3326054, -1.2406785, 7.5050883, 0.57767045, -0.07763624, 9.880676
357251680742470, 6.378069, -0.22851457, 7.757531, -0.4252069, 0.116992, 10.035774
357251690382262, 6.3589263, -0.90329057, 7.6127653, 0.23612452, -0.020600796, 9.957405
357251700022054, 6.3086767, -0.6735796, 7.7096744, -0.014654875, -0.044252872, 9.984489
357251709661845, 6.4606214, -0.49052864, 7.735996, -0.16458356, 0.109796524, 10.088942
357251719301637, 6.309873, -1.0827522, 7.6977105, 0.37772548, -0.15430546, 10.003754
357251728941429, 6.4965134, -0.1471586, 7.925029, -0.5383321, 0.13647413, 10.233473
357251738581220, 6.3278193, -1.3280165, 7.6893353, 0.6195692, -0.20194006, 10.025276
357251748221012, 6.4905314, -0.019142581, 7.899904, -0.662181, 0.17406178, 10.201326
357251757860804, 6.34098, -1.2526426, 7.6163545, 0.5570891, -0.11812401, 9.973047
357251767500595, 6.3960147, -0.18065812, 7.8352976, -0.50829816, 0.094359875, 10.102784
357251777140387, 6.3804617, -0.92243314, 7.6307116, 0.24518764, -0.0099310875, 9.986425
357251786780179, 6.34098, -0.57188463, 7.6977105, -0.104727864, 0.017843723, 9.98892
357251796419970, 6.4199433, -0.5072784, 7.6534433, -0.1458807, 0.12125969, 10.00061
357251806059762, 6.285945, -1.0719845, 7.5900335, 0.38915777, -0.10295057, 9.904989
357251815699554, 6.463014, -0.17587246, 7.793423, -0.4910816, 0.1647234, 10.112894
357251825339345, 6.2751775, -1.3280165, 7.5960155, 0.6224259, -0.18843651, 9.920585
357251834979137, 6.430711, -0.06699903, 7.8352976, -0.614638, 0.15081692, 10.116814
357251844618929, 6.334998, -1.3411771, 7.585248, 0.6512281, -0.14723301, 9.950937
357251854258720, 6.418747, -0.18903299, 7.8723865, -0.5009866, 0.07798624, 10.146599
357251863898512, 6.384051, -1.006182, 7.6977105, 0.30234182, -0.076395035, 10.046195
357251873538304, 6.37089, -0.5706882, 7.8173513, -0.1415348, -0.02833891, 10.099708
357251883178095, 6.4618177, -0.5814559, 7.7240314, -0.09204054, 0.09248161, 10.086467
357251892817887, 6.32423, -0.9834501, 7.6666036, 0.28348625, -0.091427326, 9.982542
357251902457679, 6.4642105, -0.20338993, 7.836494, -0.4849869, 0.127594, 10.148229
357251912097470, 6.309873, -1.3016955, 7.6331043, 0.5874963, -0.17121887, 9.96989
357251921737262, 6.4594245, -0.02871387, 7.8376904, -0.6592982, 0.15951777, 10.133818
357251931377054, 6.3194447, -1.2969099, 7.5720873, 0.5977516, -0.11716223, 9.928888
357251941016845, 6.4151573, -0.14955142, 7.8460655, -0.5524621, 0.086862564, 10.120504
357251950656637, 6.3661046, -1.0731809, 7.6606216, 0.37865126, -0.07519293, 10.010749
357251960296429, 6.3493547, -0.5132605, 7.8113694, -0.1966145, -0.039278507, 10.077453
357251969936220, 6.442675, -0.6364908, 7.7204423, -0.047531843, 0.057658672, 10.075358
357251979575908, 6.326623, -0.99302137, 7.6773715, 0.28735828, -0.10040569, 9.993078
357251989215699, 6.503692, -0.26919255, 7.793423, -0.40556014, 0.1557126, 10.144911
357251998855491, 6.285945, -1.274178, 7.631908, 0.55153704, -0.19150877, 9.951973
357252008495283, 6.407979, -0.08733802, 7.8424764, -0.61256826, 0.1098094, 10.108757
357252018135074, 6.3517475, -1.3423735, 7.5732837, 0.6493925, -0.13336658, 9.95298
357252027774866, 6.4474607, -0.13998012, 7.792227, -0.53335464, 0.15457916, 10.099493
357252037414658, 6.3661046, -1.0767702, 7.611569, 0.3777548, -0.0703001, 9.973721
357252047054449, 6.3768725, -0.47138608, 7.786245, -0.23107362, 0.0063209534, 10.07268
357252056694241, 6.4354963, -0.6903293, 7.688139, 0.0048366785, 0.04886198, 10.049738
357252066334033, 6.306284, -0.9320044, 7.6606216, 0.22069585, -0.10494089, 9.963095
357252075973824, 6.472585, -0.2955136, 7.7754774, -0.38762224, 0.1389966, 10.112873
357252085613616, 6.3158555, -1.2658032, 7.631908, 0.542454, -0.179595, 9.970547
357252095253408, 6.48096, -0.08015956, 7.838887, -0.6101911, 0.16994238, 10.151661
357252104893199, 6.3361945, -1.3603196, 7.5553374, 0.6509162, -0.14936066, 9.931513
357252114532991, 6.4594245, -0.11246266, 7.818548, -0.5785074, 0.16498613, 10.124456
357252124172783, 6.3792653, -1.14018, 7.609176, 0.43471062, -0.080209255, 9.984948
357252133812574, 6.391229, -0.4103691, 7.797013, -0.2950375, 0.0333848, 10.085706
357252143452366, 6.4438715, -0.6867401, 7.6534433, 0.003769517, 0.076634884, 10.028181
357252153092158, 6.337391, -0.82911307, 7.649854, 0.12513399, -0.04243374, 9.9675865
357252162731845, 6.489335, -0.30029923, 7.7347994, -0.37635446, 0.17145014, 10.09246
357252172371637, 6.3218374, -1.2358929, 7.60439, 0.5239153, -0.1491189, 9.951036
357252182011429, 6.4761744, -0.0634098, 7.84128, -0.62334514, 0.16573429, 10.149607
357252191651220, 6.3134627, -1.3627125, 7.5756764, 0.65097666, -0.17226028, 9.932484
357252201291012, 6.4366927, -0.13519448, 7.864012, -0.5810908, 0.0956316, 10.14619
357252210930804, 6.355337, -1.2023934, 7.6462646, 0.47713482, -0.1331501, 10.002802
357252220570595, 6.385247, -0.424726, 7.8687973, -0.31330097, -0.026369095, 10.137598
357252230210387, 6.418747, -0.8207382, 7.7312098, 0.10744274, -0.024933338, 10.081339
357252239850179, 6.355337, -0.8650054, 7.7383885, 0.13739371, -0.08917475, 10.049597
357252249489970, 6.48096, -0.38165522, 7.797013, -0.3227483, 0.10395098, 10.140362
357252259129762, 6.314659, -1.2119647, 7.6833534, 0.48004746, -0.17619944, 10.005809
357252268769554, 6.4941206, -0.09571291, 7.850851, -0.60848, 0.16316462, 10.169649
357252278409345, 6.32423, -1.3591232, 7.5625157, 0.6490755, -0.14870453, 9.9293165
357252288049137, 6.4438715, -0.08255238, 7.804191, -0.6181445, 0.15782452, 10.100924
357252297688929, 6.37089, -1.2095718, 7.55773, 0.50306, -0.077055454, 9.945432
357252307328720, 6.390033, -0.35294133, 7.7706914, -0.3513404, 0.0550313, 10.060532
357252316968408, 6.4031935, -0.85184485, 7.597212, 0.1672306, 0.02360487, 9.970739
357252326608199, 6.337391, -0.7752745, 7.665407, 0.06609833, -0.04452896, 9.975756
357252336247991, 6.4618177, -0.4235296, 7.7180495, -0.25943077, 0.12560797, 10.070734
357252345887783, 6.302695, -1.174876, 7.664211, 0.4459412, -0.18237638, 9.9805975
357252355527574, 6.483353, -0.12323037, 7.874779, -0.5834974, 0.13587618, 10.183432
357252365167366, 6.3481584, -1.3627125, 7.618747, 0.63442993, -0.17835474, 9.988349
357252374807158, 6.4773707, -0.0741775, 7.8604226, -0.61901855, 0.14855146, 10.165768
357252384446949, 6.3744793, -1.2574283, 7.600801, 0.54313934, -0.10909653, 9.984005
357252394086741, 6.4211397, -0.30867413, 7.834101, -0.4102056, 0.0584383, 10.1256
357252403726533, 6.4211397, -0.90448695, 7.645068, 0.2081784, -0.00999403, 10.022612
357252413366324, 6.355337, -0.715454, 7.706085, -0.003117323, -0.038585186, 10.014213
357252423006116, 6.463014, -0.46061835, 7.6953177, -0.22548068, 0.12171316, 10.056591
357252432645908, 6.3086767, -1.1485549, 7.6307116, 0.42118144, -0.15978241, 9.957078
357252442285699, 6.492924, -0.13998012, 7.826923, -0.55422115, 0.15492964, 10.154172
357252451925387, 6.3074803, -1.3663018, 7.5792656, 0.63343203, -0.18987703, 9.932728
357252461565179, 6.48096, -0.076570325, 7.7946196, -0.60844946, 0.18256855, 10.117374
357252471204970, 6.3684974, -1.2717853, 7.5589266, 0.5673379, -0.107153416, 9.94883
357252480844762, 6.413961, -0.2644069, 7.804191, -0.44465673, 0.06997681, 10.095127
357252490484554, 6.418747, -0.9391829, 7.6343007, 0.23910975, -0.010266304, 10.015369
357252500124345, 6.3661046, -0.66999036, 7.716853, -0.047151566, -0.026881695, 10.026118
357252509764137, 6.471389, -0.5024927, 7.696514, -0.18627417, 0.11485386, 10.065775
357252519403929, 6.3290157, -1.0815558, 7.668997, 0.34614146, -0.14422607, 9.994956
357252529043720, 6.4773707, -0.1698904, 7.8687973, -0.5400728, 0.115291595, 10.178321
357252538683512, 6.3290157, -1.3674982, 7.641479, 0.63092804, -0.21390533, 9.993742
357252548323304, 6.4905314, -0.046660043, 7.881958, -0.6548563, 0.15654373, 10.188282
357252557963095, 6.3768725, -1.308874, 7.5960155, 0.597407, -0.12866592, 9.985172
357252567602887, 6.428318, -0.22731815, 7.82453, -0.47810423, 0.096226215, 10.117331
357252577242574, 6.4163537, -0.9942178, 7.611569, 0.3006984, -0.0155210495, 10.00017
357252586882366, 6.363712, -0.634098, 7.716853, -0.081632376, -0.010715008, 10.022074
357252596522158, 6.4402823, -0.60658056, 7.658229, -0.08075154, 0.08824682, 10.023939
357252606161949, 6.3074803, -1.0947163, 7.6199436, 0.37184608, -0.12810326, 9.944426
357252615801741, 6.4677997, -0.20338993, 7.813762, -0.49781096, 0.122452736, 10.132417
357252625441533, 6.2979093, -1.3244274, 7.6271224, 0.5921948, -0.19652033, 9.959991
357252635081324, 6.4594245, -0.06460621, 7.8592257, -0.64187074, 0.13099194, 10.152174
357252644721116, 6.3290157, -1.3375878, 7.609176, 0.61459637, -0.1599226, 9.967037
357252654360908, 6.4402823, -0.18424734, 7.895118, -0.549255, 0.06706524, 10.175358
357252664000699, 6.410372, -1.0336994, 7.6977105, 0.31514692, -0.066854, 10.065404
357252673640491, 6.407979, -0.5706882, 7.8173513, -0.16073382, -0.008635044, 10.122891
357252683280283, 6.4677997, -0.6041877, 7.7383885, -0.096215844, 0.0743742, 10.102737
357252692920074, 6.3457656, -0.9954142, 7.682157, 0.26927066, -0.104809284, 10.009578
357252702559866, 6.48096, -0.21774685, 7.8077803, -0.4766885, 0.16588879, 10.1369095
357252712199658, 6.3110695, -1.2957134, 7.6223364, 0.55938053, -0.18269253, 9.963041
357252721839345, 6.471389, -0.041874398, 7.8173513, -0.64987683, 0.20217133, 10.125631
357252731479137, 6.3290157, -1.3423735, 7.5385876, 0.62711716, -0.13409042, 9.913499
357252741118929, 6.4163537, -0.16869399, 7.812566, -0.52885365, 0.117146015, 10.096576
357252750758720, 6.381658, -1.0911272, 7.624729, 0.3775016, -0.0729723, 9.995238
357252760398512, 6.3601227, -0.5371887, 7.7671022, -0.17910767, -0.009401321, 10.05164
357252770038304, 6.4259253, -0.6687939, 7.661818, -0.021875262, 0.06659031, 10.021893
357252779678095, 6.3361945, -0.99661064, 7.6570325, 0.27970278, -0.088306904, 9.984222
357252789317887, 6.489335, -0.28115666, 7.813762, -0.41456056, 0.130692, 10.151674
357252798957679, 6.3110695, -1.2873386, 7.649854, 0.55106723, -0.18428516, 9.983459
357252808597470, 6.4845495, -0.08015956, 7.874779, -0.6175556, 0.15465832, 10.181488
357252818237262, 6.3421764, -1.3698909, 7.5864444, 0.64753664, -0.14622736, 9.960586
357252827877054, 6.45105, -0.14476576, 7.8580294, -0.5608152, 0.10743904, 10.151827
357252837516845, 6.3804617, -1.1186446, 7.6426754, 0.39882267, -0.081029415, 10.010323
357252847156637, 6.363712, -0.46899325, 7.8113694, -0.2633345, -0.016328812, 10.08289
357252856796429, 6.4151573, -0.71306115, 7.664211, 0.015980959, 0.045399666, 10.020006
357252866436220, 6.330212, -0.92243314, 7.672586, 0.20137596, -0.079862595, 9.987198
357252876075908, 6.468996, -0.3074777, 7.769495, -0.3883716, 0.12957191, 10.106428
357252885715699, 6.3122663, -1.2646067, 7.648658, 0.52998567, -0.1681428, 9.981821
357252895355491, 6.492924, -0.08853444, 7.84128, -0.60768485, 0.16054821, 10.161522
357252904995283, 6.334998, -1.3639089, 7.5613194, 0.6551888, -0.13842392, 9.935671
357252914635074, 6.458228, -0.11246266, 7.8484583, -0.58732796, 0.13608885, 10.146732
357252924274866, 6.375676, -1.1724831, 7.6271224, 0.4647522, -0.08136797, 9.998718
357252933914658, 6.3792653, -0.4331009, 7.8436728, -0.29412556, -0.012957573, 10.115292
357252943554449, 6.424729, -0.74895346, 7.6953177, 0.0428735, 0.02630186, 10.052535
357252953194241, 6.3481584, -0.8446664, 7.713264, 0.12136698, -0.06733799, 10.024359
357252962834033, 6.458228, -0.34456646, 7.806584, -0.36210394, 0.09353161, 10.130663
357252972473824, 6.3182483, -1.2239288, 7.668997, 0.48735332, -0.1651988, 9.998348
357252982113616, 6.474978, -0.08015956, 7.8687973, -0.633404, 0.14003372, 10.170002
357252991753408, 6.3326054, -1.3579268, 7.5720873, 0.6396705, -0.121539116, 9.942759
357253001393199, 6.454639, -0.12083755, 7.8293157, -0.5890696, 0.13795567, 10.129616
357253011032991, 6.367301, -1.1976078, 7.6019974, 0.4913895, -0.08150005, 9.975924
357253020672783, 6.3589263, -0.3924229, 7.8077803, -0.32999194, 0.0039372444, 10.071865
357253030312574, 6.393622, -0.8111669, 7.6630144, 0.10203898, 0.003947735, 10.012381
357253039952366, 6.330212, -0.83748794, 7.696514, 0.1129365, -0.07258606, 9.999564
357253049592158, 6.491728, -0.38404804, 7.765906, -0.31520343, 0.13312626, 10.123352
357253059231949, 6.3254266, -1.1844472, 7.6917286, 0.44529057, -0.17277908, 10.01741
357253068871637, 6.5001025, -0.106480606, 7.9034934, -0.6041144, 0.13872671, 10.214874
357253078511429, 6.35773, -1.3830515, 7.6199436, 0.6600872, -0.16141796, 9.996767
357253088151220, 6.478567, -0.101694964, 7.8687973, -0.611547, 0.15220547, 10.173641
357253097791012, 6.3744793, -1.2370893, 7.594819, 0.5181527, -0.09430027, 9.978392
357253107430804, 6.40439, -0.34217364, 7.800602, -0.3681991, 0.06619072, 10.091717
357253117070595, 6.422336, -0.8578269, 7.5960155, 0.17339694, 0.045989037, 9.982462
357253126710387, 6.3397837, -0.7716853, 7.6546397, 0.062413216, -0.027146816, 9.968813
357253136350179, 6.45105, -0.42711884, 7.6809607, -0.25621843, 0.13901472, 10.03547
357253145989970, 6.3122663, -1.1832508, 7.641479, 0.45346737, -0.16359234, 9.970186
357253155629762, 6.471389, -0.1268196, 7.879565, -0.5830034, 0.11839342, 10.179813
357253165269554, 6.302695, -1.3579268, 7.623533, 0.62618744, -0.1978364, 9.962675
357253174909345, 6.471389, -0.076570325, 7.88794, -0.6433797, 0.13732147, 10.181921
357253184549137, 6.3792653, -1.2610176, 7.6426754, 0.54237545, -0.11407852, 10.019405
357253194188929, 6.4331036, -0.30269206, 7.881958, -0.43222857, 0.04532528, 10.16921
357253203828720, 6.4343, -0.90089774, 7.704889, 0.1819588, -0.013472557, 10.076897
357253213468512, 6.381658, -0.7178468, 7.7647095, -0.0096924305, -0.03924513, 10.076206
357253223108304, 6.471389, -0.48454657, 7.739585, -0.21579087, 0.107577324, 10.097361
357253232748095, 6.3122663, -1.1581261, 7.661818, 0.42251647, -0.15646839, 9.984308
357253242387887, 6.478567, -0.17587246, 7.8496547, -0.5334616, 0.12877989, 10.164578
357253252027679, 6.3050876, -1.3579268, 7.597212, 0.61904883, -0.17969513, 9.944859
357253261667470, 6.4534426, -0.096909314, 7.8089767, -0.61413145, 0.15336466, 10.11117
357253271307262, 6.3421764, -1.2909278, 7.54457, 0.5696902, -0.11600351, 9.923317
357253280947054, 6.4031935, -0.27756742, 7.816155, -0.44756258, 0.07158995, 10.097761
357253290586845, 6.3924255, -0.96430755, 7.6402826, 0.24750388, -0.03318453, 10.005226
357253300226637, 6.3541408, -0.6759724, 7.752745, -0.05684924, -0.04086542, 10.046503
357253309866429, 6.4677997, -0.53599226, 7.737192, -0.16597962, 0.0972538, 10.096873
357253319506220, 6.3565335, -1.1090733, 7.726424, 0.3638842, -0.1447792, 10.058818
357253329146012, 6.5084777, -0.19860429, 7.9034934, -0.5174043, 0.12611103, 10.226501
357253338785804, 6.330212, -1.3555341, 7.688139, 0.59686077, -0.21795416, 10.030592
357253348425595, 6.489335, -0.059820566, 7.8867435, -0.65021276, 0.15135431, 10.191668
357253358065387, 6.35773, -1.3220345, 7.5792656, 0.5961857, -0.11770725, 9.9621525
357253367705179, 6.4331036, -0.2440679, 7.82453, -0.47688842, 0.09754944, 10.120807
357253377344970, 6.3924255, -1.0157533, 7.6271224, 0.30020726, -0.03569317, 9.998823
357253386984762, 6.34098, -0.63888365, 7.7204423, -0.08294201, -0.022337914, 10.010697
357253396624554, 6.431907, -0.613759, 7.661818, -0.080859065, 0.089729786, 10.021728
357253406264345, 6.3182483, -1.0899308, 7.618747, 0.36300027, -0.107489586, 9.950385
357253415904137, 6.463014, -0.23808585, 7.8089767, -0.47716165, 0.13195658, 10.127302
357253425543929, 6.323034, -1.3495519, 7.6426754, 0.60364234, -0.20309067, 9.990341
357253435183720, 6.4737816, -0.096909314, 7.881958, -0.63013184, 0.14489794, 10.1797085
357253444823512, 6.3361945, -1.3471591, 7.57448, 0.6192856, -0.15058279, 9.946293
357253454463304, 6.4438715, -0.19142582, 7.836494, -0.53592336, 0.116446495, 10.13262
357253464103095, 6.4163537, -1.0420742, 7.609176, 0.32565868, -0.0130262375, 10.002442
357253473742887, 6.3744793, -0.4953143, 7.7754774, -0.2388885, 0.0134391785, 10.063803
357253483382679, 6.385247, -0.6269195, 7.665407, -0.08526838, 0.047626972, 9.9956665
357253493022470, 6.3720865, -0.9798609, 7.716853, 0.24311066, -0.09258127, 10.052153
357253502662262, 6.546763, -0.23330021, 7.8077803, -0.46668732, 0.19636488, 10.179371
357253512302054, 6.3122663, -1.2993027, 7.6594253, 0.5557549, -0.19330454, 9.992672
357253521941845, 6.472585, -0.06460621, 7.895118, -0.66352594, 0.1334858, 10.18692
357253531581637, 6.3541408, -1.3686945, 7.6139617, 0.64259064, -0.14734364, 9.9893055
357253541221429, 6.422336, -0.2117648, 7.8783684, -0.52528965, 0.073595524, 10.152761
357253550861220, 6.3792653, -1.1138589, 7.6749787, 0.3767246, -0.09863806, 10.034409
357253560501012, 6.350551, -0.53599226, 7.8053875, -0.20265388, -0.03313589, 10.074656
357253570140804, 6.4235325, -0.6963114, 7.6666036, -0.0077205896, 0.05973673, 10.025957
357253579780595, 6.3182483, -0.9834501, 7.655836, 0.25129533, -0.0986948, 9.971277
357253589420387, 6.465407, -0.3062813, 7.7946196, -0.40189064, 0.13342476, 10.1228485
357253599060179, 6.3194447, -1.2993027, 7.635497, 0.55282784, -0.18375492, 9.979228
357253608699970, 6.4797635, -0.09092726, 7.8592257, -0.609447, 0.17883635, 10.166594
357253618339762, 6.3493547, -1.3651053, 7.598408, 0.62937033, -0.15402412, 9.974657
357253627979554, 6.4642105, -0.15314065, 7.867601, -0.55558217, 0.14057493, 10.167605
357253637619345, 6.3948183, -1.1365907, 7.6713896, 0.41185927, -0.09414959, 10.042772
357253647259137, 6.378069, -0.4761717, 7.8460655, -0.26180196, -0.009517193, 10.119222
357253656898929, 6.4199433, -0.74416786, 7.698907, 0.034569025, 0.031235695, 10.0518875
357253666538720, 6.367301, -0.9415757, 7.6941214, 0.21446598, -0.06306791, 10.028889
357253676178512, 6.4677997, -0.3385844, 7.756335, -0.35962367, 0.15682983, 10.097221
357253685818304, 6.270392, -1.2921243, 7.6749787, 0.533968, -0.22001076, 9.977934
357253695458095, 6.4414787, -0.10049855, 7.8604226, -0.618202, 0.15143156, 10.143169
357253705097887, 6.303891, -1.402194, 7.580462, 0.6746694, -0.17134476, 9.933985
357253714737679, 6.45105, -0.11724831, 7.8687973, -0.60472775, 0.1463275, 10.156804
357253724377470, 6.344569, -1.1796615, 7.6139617, 0.45986545, -0.09319019, 9.969826
357253734017262, 6.3744793, -0.40797627, 7.818548, -0.3271321, 0.038446903, 10.09067
357253743657054, 6.4366927, -0.72741807, 7.6797643, 0.02560544, 0.069123745, 10.046566
357253753296845, 6.344569, -0.84825563, 7.6917286, 0.12110734, -0.045306683, 10.005953
357253762936637, 6.48096, -0.33499518, 7.763513, -0.36308062, 0.16559887, 10.110783
357253772576429, 6.3158555, -1.2191432, 7.641479, 0.4836825, -0.15326977, 9.975525
357253782216220, 6.5084777, -0.07537391, 7.879565, -0.63414466, 0.19798756, 10.198635
357253791856012, 6.334998, -1.3639089, 7.5864444, 0.62944746, -0.14996433, 9.956299
357253801495908, 6.4534426, -0.11246266, 7.844869, -0.6002697, 0.16727257, 10.139688
357253811135699, 6.355337, -1.2370893, 7.6402826, 0.49841332, -0.13297796, 10.001427
357253820775491, 6.3804617, -0.39601216, 7.85444, -0.33758962, 0.019218922, 10.121513
357253830415283, 6.4008007, -0.84347, 7.7383885, 0.1163187, -0.030331135, 10.077197
357253840055074, 6.3194447, -0.8458628, 7.7479596, 0.09819341, -0.09557104, 10.033093
357253849694866, 6.4594245, -0.43429732, 7.8293157, -0.28585744, 0.08502436, 10.154903
357253859334658, 6.2991056, -1.2203395, 7.7300134, 0.45833707, -0.20937347, 10.033302
357253868974449, 6.4761744, -0.12083755, 7.9346, -0.6140517, 0.129735, 10.2234745
357253878614241, 6.330212, -1.3746766, 7.6426754, 0.63447, -0.17922401, 9.996859
357253888254033, 6.454639, -0.07178468, 7.865208, -0.63921773, 0.16059017, 10.153555
357253897893824, 6.3696938, -1.2311072, 7.6031938, 0.51518774, -0.08453655, 9.981215
357253907533616, 6.4067826, -0.33499518, 7.7946196, -0.37861085, 0.09042263, 10.087797
357253917173408, 6.398408, -0.86859465, 7.618747, 0.16930318, 0.026824951, 9.985489
357253926813199, 6.3254266, -0.782453, 7.628319, 0.07009041, -0.011556625, 9.940294
357253936452991, 6.4534426, -0.45702913, 7.668997, -0.22607267, 0.15676928, 10.029637
357253946092783, 6.285945, -1.1988041, 7.6271224, 0.45751452, -0.16654348, 9.944153
357253955732679, 6.4606214, -0.13040884, 7.874779, -0.5906724, 0.13567734, 10.168652
357253965372470, 6.2931237, -1.3806586, 7.618747, 0.6313759, -0.20653868, 9.955585
357253975012262, 6.4677997, -0.07776674, 7.8927255, -0.63212276, 0.15175676, 10.183857
357253984652054, 6.3565335, -1.2861422, 7.648658, 0.5573484, -0.14005756, 10.011564
357253994291845, 6.4008007, -0.30987054, 7.90469, -0.43705833, 0.023881912, 10.166555
357254003931637, 6.422336, -0.9415757, 7.732406, 0.21128798, -0.037518024, 10.093414
357254013571429, 6.373283, -0.74177504, 7.786245, 0.0057305098, -0.05124855, 10.089199
357254023211220, 6.4618177, -0.52163535, 7.789834, -0.19505095, 0.07699442, 10.132362
357254032851012, 6.3493547, -0.8781659, 7.756335, 0.13906264, -0.085988045, 10.060789
357254042490804, 6.4163537, -0.69272214, 7.7826557, -0.033506274, -3.1375885E-4, 10.110296
357254052130595, 6.393622, -0.7298109, 7.743174, 0.0045369864, -0.0025510788, 10.068155
357254061770491, 6.390033, -0.71306115, 7.7144604, -0.006243348, 0.013084412, 10.042593
357254071410283, 6.391229, -0.7118647, 7.7001033, -0.0040869713, 0.022865772, 10.032228
357254081050074, 6.378069, -0.70947194, 7.706085, -0.010014653, 0.007426262, 10.0282955
357254090689866, 6.3601227, -0.6975078, 7.6773715, -0.017496824, 0.012151718, 9.993961
357254100329658, 6.3888364, -0.70947194, 7.6869426, -0.0035218, 0.024879932, 10.0204315
357254109969449, 6.38764, -0.71306115, 7.702496, -0.0033665895, 0.014308453, 10.031881
357254119609241, 6.3792653, -0.7190432, 7.7180495, -0.0022888184, -0.0011105537, 10.038941
357254129249033, 6.390033, -0.721436, 7.726424, -4.7385693E-4, 0.0024080276, 10.052394
357254138888824, 6.391229, -0.73340017, 7.757531, 0.0041303635, -0.018544197, 10.077927
357254148528616, 6.398408, -0.7393822, 7.783852, 0.0045336485, -0.02970314, 10.103157
357254158168512, 6.4163537, -0.7286145, 7.797013, -0.006432891, -0.020242214, 10.123904
357254167808304, 6.4175506, -0.71425754, 7.7946196, -0.019400358, -0.012470245, 10.121793
357254177448095, 6.428318, -0.7178468, 7.780263, -0.010901809, 0.0033102036, 10.117853
357254187087887, 6.4151573, -0.72382885, 7.746763, 0.0020695925, 0.011603832, 10.084166
357254196727679, 6.40439, -0.721436, 7.735996, 4.0388107E-4, 0.0105752945, 10.068874
357254206367470, 6.4055862, -0.7286145, 7.6941214, 0.01712668, 0.032200336, 10.037959
357254216007262, 6.398408, -0.75613195, 7.6833534, 0.043513417, 0.023575783, 10.027105
357254225647054, 6.390033, -0.7501499, 7.698907, 0.03299582, 0.009392738, 10.033306
357254235286949, 6.37089, -0.73818576, 7.7180495, 0.011952758, -0.015583515, 10.034992
357254244926741, 6.3601227, -0.71306115, 7.7144604, -0.015170217, -0.015946865, 10.023575
357254254566533, 6.3696938, -0.7262217, 7.696514, 0.0014741421, -0.001437664, 10.016824
357254264206324, 6.3864436, -0.7369894, 7.6953177, 0.014489174, 0.008714199, 10.027336
357254273846116, 6.367301, -0.7322037, 7.733603, -0.0019208193, -0.027347088, 10.044229
357254283485908, 6.38764, -0.721436, 7.7347994, -0.008942127, -0.0101156235, 10.057303
357254293125699, 6.401997, -0.7046863, 7.733603, -0.02110374, 0.0074515343, 10.064305
357254302765491, 6.4127645, -0.6879365, 7.7443705, -0.032293558, 0.019788742, 10.078226
357254312405387, 6.4151573, -0.6735796, 7.757531, -0.04869008, 0.017315388, 10.088835
357254322045179, 6.4151573, -0.68195444, 7.7647095, -0.036238432, 0.016744614, 10.09497
357254331684970, 6.40439, -0.6891329, 7.7946196, -0.035653472, -0.010216236, 10.111669
357254341324762, 6.4127645, -0.7082755, 7.793423, -0.015701413, -0.007884979, 10.117428
357254350964554, 6.424729, -0.7190432, 7.7790666, 3.3807755E-4, 0.006960869, 10.114741
357254360604345, 6.410372, -0.74536425, 7.7814593, 0.022325516, -0.014133453, 10.1093445
357254370244137, 6.3888364, -0.76689965, 7.780263, 0.03691137, -0.04205513, 10.096273
357254379884033, 6.378069, -0.7573284, 7.757531, 0.031121254, -0.033938408, 10.07127
357254389523824, 6.3684974, -0.75493556, 7.7407813, 0.029118061, -0.031469822, 10.052143
357254399163616, 6.3589263, -0.74416786, 7.708478, 0.024263024, -0.015264034, 10.020456
357254408803408, 6.3565335, -0.73100734, 7.7120676, 0.010398626, -0.014102459, 10.02076
357254418443199, 6.367301, -0.721436, 7.7276206, -4.7433376E-4, -0.012737751, 10.038874
357254428082991, 6.38764, -0.6963114, 7.756335, -0.027702212, -0.0062713623, 10.072077
357254437722887, 6.407979, -0.6987042, 7.753942, -0.021082282, 0.012050629, 10.083323
357254447362679, 6.424729, -0.69272214, 7.7551384, -0.024345279, 0.02560711, 10.094449
357254457002470, 6.4259253, -0.6891329, 7.7587276, -0.028153181, 0.025587082, 10.097713
357254466642262, 6.4151573, -0.695115, 7.753942, -0.023382306, 0.017735958, 10.0876255
357254476282054, 6.3924255, -0.7070791, 7.753942, -0.015621543, -0.0058817863, 10.074046
357254485921845, 6.3768725, -0.7262217, 7.7419777, 0.0029931068, -0.016318321, 10.056334
357254495561741, 6.3888364, -0.73818576, 7.7276206, 0.019540071, -0.0017566681, 10.05375
357254505201533, 6.3744793, -0.7322037, 7.743174, 0.0077984333, -0.02060318, 10.056161
357254514841324, 6.393622, -0.73459655, 7.743174, 0.012820482, -0.0062332153, 10.068495
357254524481116, 6.410372, -0.72741807, 7.733603, 0.010683656, 0.014051914, 10.071262
357254534120908, 6.4031935, -0.7118647, 7.7443705, -0.0075643063, 0.007215023, 10.073867
357254543760699, 6.391229, -0.71665037, 7.7419777, -0.004240513, -0.0016188622, 10.06477
357254553400595, 6.3864436, -0.71306115, 7.722835, -0.0038383007, 0.0074715614, 10.046753
357254563040387, 6.384051, -0.7106683, 7.7144604, -0.0039852858, 0.010125637, 10.038621
357254572680179, 6.3924255, -0.721436, 7.7120676, 0.008225441, 0.015091896, 10.042871
357254582319970, 6.391229, -0.7118647, 7.6977105, 0.0021127462, 0.024166107, 10.03039
357254591959762, 6.3864436, -0.715454, 7.7001033, 0.0043030977, 0.017956257, 10.029446
357254601599554, 6.4008007, -0.7106683, 7.713264, -7.838011E-4, 0.023019314, 10.048345
357254611239449, 6.390033, -0.70348984, 7.7407813, -0.01547122, 1.87397E-4, 10.062152
357254620879241, 6.3948183, -0.6987042, 7.7383885, -0.017270207, 0.009597778, 10.063009
357254630519033, 6.3948183, -0.69152576, 7.743174, -0.023974419, 0.010391235, 10.066179
357254640158824, 6.4055862, -0.67477596, 7.7479596, -0.039376378, 0.020154476, 10.075505
357254649798616, 6.3768725, -0.69272214, 7.7671022, -0.028571248, -0.015041828, 10.073291
357254659438512, 6.378069, -0.7190432, 7.765906, -0.0018552542, -0.01911354, 10.075003
357254669078304, 6.3696938, -0.73459655, 7.7850485, 0.007963419, -0.039843082, 10.085531
357254678718095, 6.390033, -0.74177504, 7.797013, 0.015774488, -0.032161713, 10.108158
357254688357887, 6.3792653, -0.72263247, 7.783852, -0.0014196634, -0.026864529, 10.08984
357254697997679, 6.4031935, -0.7262217, 7.769495, 0.008989215, -9.5653534E-4, 10.094219
357254707637574, 6.390033, -0.72023964, 7.7706914, 0.0010970831, -0.010240078, 10.086367
357254717277366, 6.393622, -0.72502524, 7.756335, 0.009286404, -0.0010623932, 10.077931
357254726917158, 6.385247, -0.73100734, 7.737192, 0.018316984, 0.0018239021, 10.058309
357254736556949, 6.3828545, -0.71306115, 7.696514, 0.0103138685, 0.027069092, 10.02421
357254746196741, 6.3864436, -0.7262217, 7.664211, 0.030937433, 0.044709682, 10.002563
357254755836533, 6.3828545, -0.7262217, 7.6510506, 0.03342688, 0.047882557, 9.990166
357254765476429, 6.3720865, -0.73340017, 7.6678, 0.03583336, 0.027301311, 9.996725
357254775116220, 6.3565335, -0.6987042, 7.6917286, -0.00585413, 0.008461952, 10.002815
357254784756012, 6.363712, -0.7178468, 7.737192, 0.0038911104, -0.018337727, 10.043701
357254794395804, 6.3804617, -0.70947194, 7.763513, -0.0072933435, -0.017806053, 10.073997
357254804035699, 6.390033, -0.71306115, 7.7826557, -0.006729603, -0.020278454, 10.09506
357254813675491, 6.393622, -0.72382885, 7.8089767, -0.0015223026, -0.03347349, 10.118366
357254823315283, 6.411568, -0.7286145, 7.8029947, 0.0081067085, -0.013566017, 10.125489
357254832955074, 6.410372, -0.7118647, 7.8017983, -0.007892728, -0.0091814995, 10.122623
357254842594866, 6.401997, -0.72502524, 7.7994056, 0.0047374964, -0.016475677, 10.1164055
357254852234762, 6.3792653, -0.72382885, 7.7814593, 0.0038195848, -0.022620201, 10.088089
357254861874554, 6.375676, -0.7070791, 7.7611203, -0.008255243, -0.008533478, 10.068964
357254871514345, 6.3768725, -0.71665037, 7.765906, -1.5258789E-5, -0.013717651, 10.074085
357254881154137, 6.3828545, -0.7082755, 7.7443705, -0.002453804, 0.005882263, 10.060701
357254890793929, 6.378069, -0.6975078, 7.7300134, -0.010907173, 0.012773991, 10.045851
357254900433824, 6.3828545, -0.6987042, 7.713264, -0.0059792995, 0.024438858, 10.0360775
357254910073616, 6.3828545, -0.7070791, 7.7072816, 0.0032627583, 0.025035858, 10.032065
357254919713408, 6.361319, -0.7190432, 7.735996, 0.005478978, -0.012308598, 10.041359
357254929353199, 6.363712, -0.7106683, 7.7407813, -0.0031858683, -0.010812759, 10.045965
357254938992991, 6.361319, -0.70588267, 7.7419777, -0.008200049, -0.011143684, 10.0450325
357254948632887, 6.3804617, -0.7070791, 7.7503524, -0.005568266, -6.418228E-4, 10.063705
357254958272679, 6.3828545, -0.6879365, 7.7479596, -0.023197174, 0.007404804, 10.062027
357254967912470, 6.407979, -0.70348984, 7.751549, -0.0048696995, 0.02158451, 10.081821
357254977552262, 6.4091754, -0.70229346, 7.749156, -0.0047611, 0.024591446, 10.080653
357254987192158, 6.3972116, -0.695115, 7.7407813, -0.011431694, 0.022067547, 10.066111
357254996831949, 6.401997, -0.6855437, 7.737192, -0.01818657, 0.030494213, 10.065706
357255006471741, 6.3948183, -0.6735796, 7.7156568, -0.025884986, 0.041222572, 10.043724
