timestamp_acc,device_acc_x,device_acc_y,device_acc_z,earth_acc_x,earth_acc_y,earth_acc_z
1134585081196772, -0.09930214, 6.6795645, 7.32443, 0.021193266, 0.077539444, 9.912985
1134585090836147, -0.016749758, 6.63769, 7.3579297, 0.0634737, -0.009738922, 9.909299
1134585100475418, 0.046660043, 6.6161547, 7.3986077, 0.09643936, -0.079116344, 9.924692
1134585110114793, 0.09092726, 6.602994, 7.399804, 0.12567091, -0.10833073, 9.91652
1134585119754168, 0.1052842, 6.6101727, 7.389036, 0.14105892, -0.10166693, 9.913278
1134585129393543, 0.08255238, 6.623333, 7.368697, 0.1298182, -0.06733036, 9.907152
1134585139032918, 0.034695927, 6.643672, 7.322037, 0.10521388, -0.0023231506, 9.886393
1134585148672293, 0.0071784677, 6.6532435, 7.2729845, 0.10139465, 0.046090603, 9.85645
1134585158311668, 0.0071784677, 6.63769, 7.2562346, 0.09661651, 0.04378128, 9.833651
1134585167951043, 0.0071784677, 6.611369, 7.2646093, 0.08389616, 0.022343159, 9.822283
1134585177590418, 0.038285162, 6.6077795, 7.2789664, 0.10284543, -0.0030565262, 9.830412
1134585187229793, 0.078963146, 6.5958157, 7.3100734, 0.12366295, -0.04796362, 9.845335
1134585196869168, 0.08015956, 6.5814586, 7.312466, 0.11916661, -0.05884075, 9.837508
1134585206508543, 0.033499517, 6.5850477, 7.353144, 0.06376505, -0.05597067, 9.870436
1134585216147918, -0.009571291, 6.59103, 7.379465, 0.019669294, -0.045827866, 9.894232
1134585225787293, -0.046660043, 6.6089764, 7.381858, -0.00828743, -0.01820755, 9.908188
1134585235426668, -0.08015956, 6.606583, 7.4069824, -0.04578662, -0.016036987, 9.925442
1134585245066043, -0.111266255, 6.6077795, 7.4105716, -0.07377148, -0.00262928, 9.92906
1134585254705418, -0.12083755, 6.6221366, 7.411768, -0.07481837, 0.012779713, 9.939609
1134585264344793, -0.13519448, 6.611369, 7.416554, -0.09152293, 0.010480404, 9.936059
1134585273984168, -0.15074782, 6.599405, 7.420143, -0.11063814, 0.008628368, 9.930815
1134585283623543, -0.14955142, 6.606583, 7.396215, -0.09668279, 0.027182579, 9.917824
1134585293262918, -0.14955142, 6.5886374, 7.3842506, -0.099318266, 0.023263454, 9.896932
1134585302902293, -0.17826529, 6.6017976, 7.399804, -0.12404442, 0.036082745, 9.917456
1134585312541668, -0.16510476, 6.6017976, 7.3926253, -0.10932922, 0.030819416, 9.912063
1134585322181043, -0.15792629, 6.6329045, 7.3435726, -0.07593489, 0.07701206, 9.896299
1134585331820418, -0.104087785, 6.631708, 7.301698, -0.015977144, 0.07345486, 9.864053
1134585341459793, -0.06699903, 6.647261, 7.237092, 0.04360223, 0.10162544, 9.826181
1134585351099168, -0.062213387, 6.649654, 7.2358956, 0.047641277, 0.09728813, 9.826913
1134585360738543, -0.01794617, 6.658029, 7.2729845, 0.07668352, 0.05814886, 9.859854
1134585370377918, 0.031106694, 6.6568327, 7.3136625, 0.10433555, 0.010020256, 9.889038
1134585380017293, 0.06699903, 6.617351, 7.3603225, 0.10461283, -0.060040474, 9.897152
1134585389656668, 0.058624156, 6.6245294, 7.391429, 0.08749533, -0.070319176, 9.925142
1134585399296043, 0.016749758, 6.6424756, 7.367501, 0.065193176, -0.024206638, 9.919577
1134585408935418, -0.038285162, 6.631708, 7.393822, 0.0048189163, -0.018517971, 9.932234
1134585418574688, -0.07298109, 6.6245294, 7.379465, -0.023407936, 0.0018172264, 9.916939
1134585428214063, -0.041874398, 6.634101, 7.3782687, 0.007442713, -0.0066518784, 9.922289
1134585437853438, -0.051445685, 6.623333, 7.37109, -0.002472639, -0.004804611, 9.9098
1134585447492813, -0.031106694, 6.602994, 7.3399835, 0.017371178, -0.008956432, 9.872967
1134585457132188, -0.0047856453, 6.599405, 7.312466, 0.047704935, -0.007452965, 9.849976
1134585466771563, -0.008374879, 6.587441, 7.2849483, 0.048079252, 0.0020785332, 9.821539
1134585476410938, -0.009571291, 6.6041903, 7.2825556, 0.053447247, 0.015300274, 9.830969
1134585486050313, -0.05742774, 6.6257257, 7.3363943, 0.0018274784, 0.018242836, 9.885641
1134585495689688, -0.106480606, 6.6484575, 7.3627152, -0.04041457, 0.0389266, 9.920672
1134585505329063, -0.13399807, 6.617351, 7.3950186, -0.08573341, 0.012035847, 9.924016
1134585514968438, -0.13519448, 6.62094, 7.426125, -0.09371543, -0.0050578117, 9.949555
1134585524607813, -0.1052842, 6.5850477, 7.426125, -0.07846975, -0.042063713, 9.92539
1134585534247188, -0.069391854, 6.5982084, 7.4189467, -0.038539648, -0.04653454, 9.928661
1134585543886563, -0.0634098, 6.5742803, 7.405786, -0.037446737, -0.056493282, 9.902842
1134585553525938, -0.01794617, 6.6077795, 7.3830543, 0.02187705, -0.04429388, 9.908085
1134585563165313, 0.014356935, 6.611369, 7.3495545, 0.062452793, -0.038587093, 9.885391
1134585572804688, -0.0059820567, 6.6388865, 7.263413, 0.0825448, 0.039208412, 9.839901
1134585582444063, -0.033499517, 6.647261, 7.24786, 0.0653522, 0.06742239, 9.834118
1134585592083438, -0.069391854, 6.6532435, 7.253842, 0.032962322, 0.085463524, 9.842781
1134585601722813, -0.09571291, 6.6628146, 7.292127, -5.8698654E-4, 0.08278084, 9.877777
1134585611362188, -0.106480606, 6.65444, 7.281359, -0.010311604, 0.08710718, 9.864248
1134585621001563, -0.0741775, 6.6281185, 7.2466636, 0.01838994, 0.074064255, 9.820681
1134585630640938, -0.034695927, 6.600601, 7.2490563, 0.041139126, 0.03452301, 9.80383
1134585640280313, 0.014356935, 6.5718875, 7.2646093, 0.06829333, -0.016926289, 9.795893
1134585649919688, 0.01794617, 6.587441, 7.3160553, 0.059616804, -0.035504818, 9.844519
1134585659559063, 0.032303106, 6.586244, 7.361519, 0.057303905, -0.069951534, 9.87742
1134585669198334, 0.0047856453, 6.573084, 7.428518, 0.0072009563, -0.1022048, 9.91856
1134585678837709, -0.011964113, 6.5958157, 7.4512496, -0.004902363, -0.088377, 9.950789
1134585688477084, -0.058624156, 6.623333, 7.476374, -0.04211974, -0.06253433, 9.988116
1134585698116459, -0.09332009, 6.6388865, 7.472785, -0.06663418, -0.033203125, 9.996023
1134585707755834, -0.09571291, 6.643672, 7.4476604, -0.0560565, -0.013921738, 9.980574
1134585717395209, -0.08135597, 6.68435, 7.4213395, -0.020255327, 0.020933628, 9.988123
1134585727034584, -0.0849452, 6.664011, 7.3663044, -0.0117383, 0.040951252, 9.933624
1134585736673959, -0.041874398, 6.658029, 7.338787, 0.032570124, 0.03155899, 9.908928
1134585746313334, -0.02871387, 6.652047, 7.2957163, 0.055639505, 0.04508829, 9.872835
1134585755952709, -0.062213387, 6.6364937, 7.2789664, 0.023391962, 0.060781956, 9.85018
1134585765592084, -0.08733802, 6.6161547, 7.2586274, 2.462864E-4, 0.07236576, 9.821587
1134585775231459, -0.1160519, 6.606583, 7.240681, -0.023757696, 0.09035778, 9.801997
1134585784870834, -0.11365908, 6.6101727, 7.2765737, -0.03326249, 0.06990385, 9.831065
1134585794510209, -0.096909314, 6.6089764, 7.2789664, -0.019959211, 0.05901146, 9.83196
1134585804149584, -0.083748795, 6.623333, 7.3256264, -0.017218351, 0.034510136, 9.876177
1134585813788959, -0.086141616, 6.626922, 7.353144, -0.025815248, 0.021352291, 9.899047
1134585823428334, -0.08733802, 6.597012, 7.379465, -0.04594755, -0.012801647, 9.898607
1134585833067709, -0.07298109, 6.631708, 7.426125, -0.032019854, -0.026103973, 9.95643
1134585842707084, -0.06580263, 6.6329045, 7.4177504, -0.022628546, -0.023899078, 9.950965
1134585852346459, -0.07058827, 6.6329045, 7.393822, -0.0174613, -0.008640289, 9.93321
1134585861985730, -0.09092726, 6.634101, 7.409375, -0.038876295, -0.007428646, 9.945694
1134585871625105, -0.0526421, 6.6245294, 7.409375, -0.008844614, -0.034036636, 9.939053
1134585881264480, -0.025124637, 6.623333, 7.389036, 0.02132535, -0.036607265, 9.922964
1134585890903855, 0.015553347, 6.6125655, 7.385447, 0.052357197, -0.06095457, 9.912852
1134585900543230, 0.0023928226, 6.617351, 7.3639116, 0.05045271, -0.038310528, 9.900128
1134585910182605, 0.0035892338, 6.634101, 7.3363943, 0.06518102, -0.011125565, 9.890886
1134585919821980, -0.0047856453, 6.641279, 7.3028946, 0.07022667, 0.017659664, 9.870848
1134585929461355, -0.03708875, 6.6424756, 7.2622166, 0.052621126, 0.056813717, 9.841629
1134585939100730, -0.047856454, 6.6388865, 7.263413, 0.040198326, 0.058039665, 9.840187
1134585948740105, -0.05623133, 6.613762, 7.2729845, 0.02000618, 0.03931141, 9.830534
1134585958379480, -0.0634098, 6.5886374, 7.3256264, -0.012324333, -0.0044841766, 9.852858
1134585968018855, -0.08135597, 6.5886374, 7.314859, -0.024420261, 0.0097436905, 9.84496
1134585977658230, -0.09332009, 6.573084, 7.3340015, -0.046081543, -0.0059227943, 9.848836
1134585987297501, -0.11485548, 6.5838513, 7.361519, -0.069836855, -0.004744053, 9.876606
1134585996936876, -0.09571291, 6.5898337, 7.3974113, -0.061499834, -0.03071022, 9.907172
1134586006576251, -0.086141616, 6.6364937, 7.4141607, -0.038787127, -0.014800549, 9.950806
1134586016215626, -0.07298109, 6.660422, 7.416554, -0.019362926, -0.0070290565, 9.968519
1134586025855001, -0.10289137, 6.6676, 7.3782687, -0.030064583, 0.03346634, 9.945065
1134586035494376, -0.086141616, 6.6711893, 7.3363943, 2.5177002E-4, 0.05070591, 9.9162655
1134586045133751, -0.05742774, 6.660422, 7.259824, 0.04711342, 0.071585655, 9.852016
1134586054773126, -0.061016977, 6.631708, 7.23111, 0.040614605, 0.067239285, 9.811527
1134586064412501, -0.058624156, 6.623333, 7.24786, 0.03416109, 0.05089426, 9.818335
1134586074051876, -0.076570325, 6.6077795, 7.308877, -0.007960558, 0.01339674, 9.853327
1134586083691251, -0.06460621, 6.623333, 7.3256264, 0.0018763542, 0.00833559, 9.876104
1134586093330522, -0.05742774, 6.6185474, 7.331609, 0.004720211, -0.0017023087, 9.877295
1134586102969897, -0.0526421, 6.6281185, 7.3196445, 0.016100407, 0.0094127655, 9.874794
1134586112609272, -0.08255238, 6.619744, 7.344769, -0.020546198, 0.0022764206, 9.888025
1134586122248647, -0.104087785, 6.521638, 7.359126, -0.07805252, -0.061212063, 9.833082
1134586131888022, -0.03589234, 6.7764735, 7.283752, 0.09531379, 0.118314266, 9.947454
1134586141527397, -0.046660043, 6.6281185, 7.4129643, -0.0045654774, -0.049621105, 9.944029
1134586151166772, -0.086141616, 6.3888364, 7.253842, -0.077002525, -0.09357548, 9.665825
1134586160806147, 0.046660043, 7.1018977, 7.4656067, 0.230263, 0.18424082, 10.299876
1134586170445522, -0.21415763, 6.040681, 7.3567333, -0.35057414, -0.3173194, 9.509659
1134586180084897, 0.07178468, 7.411768, 7.495517, 0.35105515, 0.35207796, 10.52972
1134586189724168, -0.2536392, 5.9449677, 7.389036, -0.43913078, -0.37205362, 9.469614
1134586199363543, 0.058624156, 7.3136625, 7.348358, 0.35763502, 0.37213945, 10.354956
1134586209002918, -0.1794617, 6.1196437, 7.3028946, -0.28234816, -0.24765253, 9.522261
1134586218642293, 0.013160525, 6.9391856, 7.222735, 0.22115207, 0.23277569, 10.010859
1134586228281668, -0.06819545, 6.567102, 7.372287, -0.037157774, -0.0531888, 9.873089
1134586237921043, -0.096909314, 6.413961, 7.24786, -0.08358526, -0.06652498, 9.678241
1134586247560418, 0.06580263, 7.0695944, 7.4344997, 0.24144793, 0.16705322, 10.255197
1134586257199793, -0.17706887, 5.9904313, 7.2933235, -0.32875204, -0.31874514, 9.428654
1134586266839168, 0.086141616, 7.342376, 7.4189467, 0.36673427, 0.33112764, 10.426627
1134586276478438, -0.2213361, 5.832505, 7.2382884, -0.4108913, -0.37538862, 9.281712
1134586286117813, 0.11006984, 7.2753773, 7.2299137, 0.42415118, 0.38170958, 10.241547
1134586295757188, -0.1363909, 6.0454664, 7.216753, -0.25757146, -0.26420593, 9.408063
1134586305396563, 0.051445685, 6.9858456, 7.2705917, 0.25291705, 0.20932913, 10.07762
1134586315035938, -0.05742774, 6.599405, 7.375876, -0.028066635, -0.044734955, 9.897284
1134586324675313, -0.11006984, 6.567102, 7.233503, -0.03635788, 0.044162273, 9.770325
1134586334314688, 0.015553347, 7.088737, 7.3232336, 0.24131036, 0.25878716, 10.18602
1134586343954063, -0.18664017, 6.038288, 7.1485577, -0.2806337, -0.20732045, 9.352856
1134586353593334, 0.13519448, 7.3363943, 7.3435726, 0.4338858, 0.32927227, 10.366888
1134586363232709, -0.16390835, 5.8337016, 7.263413, -0.38252068, -0.40425158, 9.30088
1134586372872084, 0.17108682, 7.298109, 7.3028946, 0.46171856, 0.3095293, 10.310915
1134586382511459, -0.11724831, 6.02752, 7.2933235, -0.2841196, -0.32396626, 9.452599
1134586392150834, 0.08135597, 7.070791, 7.2705917, 0.30808187, 0.2352953, 10.1347885
1134586401790209, -0.086141616, 6.513263, 7.38784, -0.09466648, -0.088199615, 9.848526
1134586411429584, -0.12801601, 6.5347986, 7.292127, -0.088938475, 0.0014662743, 9.792202
1134586421068855, -0.08973085, 6.9894347, 7.489535, 0.054190397, 0.15991592, 10.243285
1134586430708230, -0.29790643, 6.0370917, 7.359126, -0.43894267, -0.27332306, 9.509186
1134586440347605, -0.0011964113, 7.2705917, 7.55773, 0.21900105, 0.25879717, 10.481691
1134586449986980, -0.2883351, 5.784649, 7.416554, -0.5385109, -0.4767146, 9.382607
1134586459626355, 0.05503492, 7.314859, 7.489535, 0.30726743, 0.28975248, 10.460639
1134586469265730, -0.2213361, 5.9904313, 7.372287, -0.38384175, -0.34178162, 9.487925
1134586478905001, 0.0011964113, 7.094719, 7.3399835, 0.23153973, 0.264225, 10.202302
1134586488544376, -0.16510476, 6.4498534, 7.3782687, -0.17258143, -0.079425335, 9.799522
1134586498183751, -0.12203395, 6.641279, 7.2550383, -0.014527559, 0.09097338, 9.836086
1134586507823126, -0.031106694, 6.987042, 7.3950186, 0.15149498, 0.17823696, 10.171103
1134586517462501, -0.20697916, 6.1387863, 7.227521, -0.2787156, -0.16498327, 9.479435
1134586527101876, 0.08015956, 7.335198, 7.4045897, 0.3858924, 0.31991577, 10.410967
1134586536741251, -0.16390835, 5.875576, 7.220342, -0.35000157, -0.34477258, 9.297379
1134586546380522, 0.20817557, 7.373483, 7.283752, 0.5357795, 0.34779787, 10.346817
1134586556019897, -0.07298109, 5.959325, 7.183254, -0.23672986, -0.32765436, 9.324945
1134586565659272, 0.1698904, 7.115058, 7.227521, 0.4148407, 0.23862743, 10.132174
1134586575298647, -0.038285162, 6.393622, 7.2933235, -0.06920171, -0.13195324, 9.69795
1134586584938022, -0.015553347, 6.6568327, 7.2083783, 0.07930684, 0.06873512, 9.811388
1134586594577397, -0.02751746, 6.8889365, 7.353144, 0.11140418, 0.13566303, 10.074529
1134586604216668, -0.19860429, 6.1435723, 7.192825, -0.2755859, -0.14669204, 9.456331
1134586613856043, 0.069391854, 7.268199, 7.428518, 0.31594634, 0.27599812, 10.384527
1134586623495418, -0.2009971, 5.881558, 7.2693954, -0.4095459, -0.35655046, 9.337151
1134586633134793, 0.13040884, 7.359126, 7.3806615, 0.4216981, 0.3400731, 10.409344
1134586642774168, -0.16630118, 5.9342003, 7.300502, -0.35824275, -0.35950804, 9.395858
1134586652413438, 0.1052842, 7.18445, 7.301698, 0.3521948, 0.2832532, 10.234155
1134586662052813, -0.09930214, 6.3457656, 7.405786, -0.18130231, -0.19956875, 9.74944
1134586671692188, -0.06580263, 6.7322063, 7.3399835, 0.016521454, 0.066782, 9.959798
1134586681331563, -0.033499517, 6.875776, 7.4548388, 0.0635159, 0.08024883, 10.141085
1134586690970938, -0.15792629, 6.2237315, 7.27777, -0.2257266, -0.17744493, 9.573051
1134586700610209, 0.083748795, 7.263413, 7.4105716, 0.32684517, 0.29635477, 10.36755
1134586710249584, -0.18903299, 5.8947186, 7.283752, -0.37843883, -0.38123202, 9.356706
1134586719888959, 0.11365908, 7.3698936, 7.3842506, 0.39963126, 0.3549466, 10.41968
1134586729528334, -0.20219351, 5.9138613, 7.301698, -0.39494872, -0.3662057, 9.382929
1134586739167709, 0.08015956, 7.1976104, 7.3196445, 0.32839608, 0.3131132, 10.255892
1134586748807084, -0.1471586, 6.2775702, 7.385447, -0.24020386, -0.20570803, 9.688877
1134586758446355, -0.05383851, 6.775277, 7.292127, 0.06329036, 0.12217569, 9.953063
1134586768085730, -0.062213387, 6.7585278, 7.351948, 0.028640985, 0.07787466, 9.986282
1134586777725105, -0.15074782, 6.209375, 7.213164, -0.21000934, -0.14556646, 9.515435
1134586787364480, 0.061016977, 7.198807, 7.428518, 0.27465773, 0.25095034, 10.337844
1134586797003751, -0.20458634, 5.866005, 7.2909307, -0.40536356, -0.38636136, 9.34323
1134586806643126, 0.124426775, 7.3627152, 7.4105716, 0.40040922, 0.34269428, 10.4337845
1134586816282501, -0.20697916, 5.8767724, 7.3052874, -0.4174807, -0.38415217, 9.3608055
1134586825921876, 0.083748795, 7.210771, 7.29452, 0.3435204, 0.32345438, 10.246445
1134586835561251, -0.18544376, 6.2285175, 7.3459654, -0.27711225, -0.19512081, 9.626898
1134586845200522, -0.076570325, 6.8195443, 7.251449, 0.07379079, 0.18066645, 9.952763
1134586854839897, -0.08255238, 6.751349, 7.381858, 0.00329113, 0.0671916, 10.003742
1134586864479272, -0.15194423, 6.3338017, 7.2658057, -0.17740798, -0.09929752, 9.637985
1134586874118647, 0.05623133, 7.2095747, 7.4273214, 0.28080606, 0.25759745, 10.344131
1134586883758022, -0.18544376, 5.936593, 7.2562346, -0.35966396, -0.32934356, 9.364435
1134586893397293, 0.16510476, 7.409375, 7.3926253, 0.46392488, 0.34106874, 10.452055
1134586903036668, -0.11724831, 5.905486, 7.2586274, -0.32008028, -0.38219094, 9.344927
1134586912676043, 0.18783657, 7.2658057, 7.3292155, 0.44733834, 0.2744627, 10.308695
1134586922315418, -0.10767702, 6.192625, 7.375876, -0.24291039, -0.27005458, 9.624542
1134586931954688, 0.0047856453, 6.8745794, 7.322037, 0.1392982, 0.13046789, 10.041698
1134586941594063, -0.062213387, 6.6855464, 7.4129643, -0.01988697, -2.5129318E-4, 9.982586
1134586951233438, -0.148355, 6.3326054, 7.2155566, -0.16542935, -0.06726742, 9.599807
1134586960872813, 0.05383851, 7.109076, 7.38784, 0.2534449, 0.21879387, 10.247437
1134586970512084, -0.18305093, 5.918647, 7.223932, -0.36450386, -0.31249356, 9.328375
1134586980151459, 0.14237295, 7.3603225, 7.367501, 0.43685055, 0.3434, 10.400284
1134586989790834, -0.20817557, 5.85763, 7.2418776, -0.4141116, -0.35169363, 9.300795
1134586999430209, 0.08853444, 7.2933235, 7.3052874, 0.38570952, 0.3672862, 10.30941
1134587009069584, -0.17108682, 6.1495543, 7.3459654, -0.29550767, -0.24304485, 9.574085
1134587018708855, -0.029910283, 6.943971, 7.348358, 0.13001108, 0.17625904, 10.10792
1134587028348230, -0.11724831, 6.6221366, 7.463214, -0.107038975, -0.04557705, 9.977598
1134587037987605, -0.16510476, 6.3744793, 7.2933235, -0.18521452, -0.07995081, 9.685717
1134587047626876, 0.008374879, 7.0695944, 7.479964, 0.17096591, 0.16201353, 10.289492
1134587057266251, -0.19142582, 5.9545393, 7.34118, -0.38112068, -0.3594222, 9.439899
1134587066905626, 0.16749759, 7.3363943, 7.519445, 0.39719224, 0.22285748, 10.496923
1134587076545001, -0.16869399, 5.8504515, 7.3627152, -0.40522504, -0.45737314, 9.385756
1134587086184272, 0.148355, 7.3627152, 7.3830543, 0.43151212, 0.33665657, 10.413527
1134587095823647, -0.1698904, 6.1531434, 7.3064837, -0.26964283, -0.22180176, 9.5474
1134587105463022, 0.013160525, 7.02772, 7.2299137, 0.23539853, 0.29021597, 10.075764
1134587115102397, -0.09092726, 6.611369, 7.3363943, -0.043159485, 0.010843277, 9.87619
1134587124741772, -0.11724831, 6.489335, 7.190432, -0.06873655, 0.026452065, 9.68618
1134587134381043, 0.03708875, 7.0372915, 7.3567333, 0.21128416, 0.20878983, 10.176352
1134587144020418, -0.1698904, 5.9497533, 7.1748786, -0.3029369, -0.2900164, 9.312971
1134587153659793, 0.1363909, 7.2969127, 7.320841, 0.40530705, 0.33973646, 10.3236885
1134587163299063, -0.16630118, 5.788238, 7.198807, -0.38047552, -0.40589, 9.221967
1134587172938438, 0.15672988, 7.2753773, 7.2969127, 0.43190002, 0.3314762, 10.290976
1134587182577813, -0.17108682, 6.009574, 7.2969127, -0.32873178, -0.31131816, 9.443739
1134587192217188, -0.0071784677, 7.0301127, 7.2586274, 0.20253968, 0.2764635, 10.099149
1134587201856459, -0.16749759, 6.5204415, 7.38784, -0.16760516, -0.03904295, 9.853668
1134587211495834, -0.1591227, 6.5431733, 7.2646093, -0.10509014, 0.040771484, 9.77754
1134587221135209, -0.016749758, 7.048059, 7.4679995, 0.14274049, 0.1725688, 10.266269
1134587230774584, -0.20578274, 6.0921264, 7.3830543, -0.35679126, -0.28838062, 9.563231
1134587240413855, 0.13998012, 7.3304124, 7.5469627, 0.36533642, 0.22672653, 10.51315
1134587250053230, -0.13399807, 5.8360944, 7.385447, -0.3937292, -0.49439883, 9.392727
1134587259692605, 0.19381863, 7.3567333, 7.4129643, 0.4645276, 0.28222418, 10.431477
1134587269331980, -0.12562318, 6.023931, 7.350751, -0.29569745, -0.3527758, 9.493429
1134587278971251, 0.022731815, 7.1078796, 7.3495545, 0.2383132, 0.25702095, 10.218393
1134587288610626, -0.15433706, 6.5276203, 7.4153576, -0.1602788, -0.053132057, 9.878899
1134587298250001, -0.12083755, 6.650851, 7.281359, -0.03835416, 0.08280611, 9.861959
1134587307889376, -0.02751746, 7.025327, 7.3986077, 0.14740229, 0.2049923, 10.199591
1134587317528647, -0.13160525, 6.09093, 7.21436, -0.23580432, -0.23042703, 9.436899
1134587327168022, 0.17587246, 7.240681, 7.367501, 0.41034222, 0.25415802, 10.32015
1134587336807397, -0.16271193, 5.7403817, 7.2442703, -0.40120482, -0.4597144, 9.224186
1134587346446772, 0.16151553, 7.1892357, 7.351948, 0.37736225, 0.2397995, 10.274358
1134587356086043, -0.13878371, 5.84088, 7.320841, -0.3893876, -0.4390471, 9.34802
1134587365725418, 0.10289137, 6.99781, 7.288538, 0.28708696, 0.1898756, 10.098724
1134587375364793, -0.0741775, 6.393622, 7.385447, -0.1375246, -0.15701866, 9.766534
1134587385004063, 0.0, 6.674779, 7.2909307, 0.07153034, 0.036983967, 9.884526
1134587394643438, 0.083748795, 6.9738817, 7.4273214, 0.21313334, 0.10206699, 10.185839
1134587404282813, -0.086141616, 6.202196, 7.292127, -0.1906786, -0.21564126, 9.569061
1134587413922188, 0.15792629, 7.375876, 7.466803, 0.42373967, 0.2870369, 10.484259
1134587423561459, -0.2009971, 5.9449677, 7.347162, -0.42663407, -0.33890176, 9.43753
1134587433200834, 0.086141616, 7.4548388, 7.4237323, 0.4097829, 0.38645554, 10.506025
1134587442840209, -0.27876383, 5.9916277, 7.3172517, -0.4504664, -0.25117493, 9.447407
1134587452479480, -0.011964113, 7.1677003, 7.2466636, 0.27195835, 0.3624916, 10.182575
1134587462118855, -0.2009971, 6.3050876, 7.2957163, -0.25613427, -0.098471165, 9.640886
1134587471758230, -0.08015956, 6.6305118, 7.2059855, 0.007865429, 0.09240341, 9.792229
1134587481397605, -0.013160525, 6.7764735, 7.3232336, 0.08297992, 0.08601236, 9.976786
1134587491036876, -0.11365908, 6.0921264, 7.146165, -0.21054387, -0.19003463, 9.386914
1134587500676251, 0.08733802, 7.164111, 7.3100734, 0.31366897, 0.2941184, 10.22665
1134587510315626, -0.23688944, 5.8277197, 7.183254, -0.423167, -0.32942128, 9.237423
1134587519954897, 0.05383851, 7.3926253, 7.353144, 0.36714196, 0.43273592, 10.411556
1134587529594272, -0.2739782, 5.9676995, 7.342376, -0.44804716, -0.3083582, 9.450034
1134587539233647, 0.015553347, 7.2526455, 7.448857, 0.24554491, 0.29866028, 10.389278
1134587548873022, -0.13160525, 6.378069, 7.533802, -0.22661829, -0.23315382, 9.866587
1134587558512293, -0.0035892338, 6.8410797, 7.4715886, 0.07686949, 0.036213875, 10.130045
1134587568151668, 0.07298109, 6.8913293, 7.5457664, 0.1343131, -0.014700413, 10.21842
1134587577791043, -0.02751746, 6.279963, 7.3363943, -0.11661482, -0.23205137, 9.653701
1134587587430418, 0.20817557, 7.274181, 7.4644103, 0.42238188, 0.20574331, 10.414113
1134587597069688, -0.083748795, 5.9066825, 7.2729845, -0.283082, -0.40286636, 9.356804
1134587606709063, 0.21535404, 7.3842506, 7.3770723, 0.49257636, 0.3338771, 10.423082
1134587616348438, -0.16869399, 5.8707905, 7.2622166, -0.37459445, -0.38528204, 9.324466
1134587625987709, 0.09332009, 7.1880393, 7.274181, 0.35002446, 0.32240582, 10.215862
1134587635627084, -0.18783657, 6.13759, 7.37109, -0.334584, -0.25927544, 9.584314
1134587645266459, -0.11006984, 6.6735826, 7.3112698, -0.03470826, 0.077703476, 9.899305
1134587654905834, -0.14356937, 6.6388865, 7.450053, -0.12429452, -0.0050320625, 9.979139
1134587664545105, -0.23688944, 6.224928, 7.253842, -0.29482198, -0.10771465, 9.556441
1134587674184480, -0.02632105, 7.152147, 7.4153576, 0.19400811, 0.27177095, 10.297084
1134587683823855, -0.2428715, 5.9377894, 7.301698, -0.43036437, -0.31412673, 9.399322
1134587693463126, 0.10049855, 7.450053, 7.456035, 0.41869283, 0.3612733, 10.526159
1134587703102501, -0.19381863, 5.986842, 7.332805, -0.37368536, -0.32326388, 9.4554615
1134587712741876, 0.13758731, 7.351948, 7.350751, 0.44145632, 0.34212875, 10.382277
1134587722381251, -0.086141616, 6.2679987, 7.3160553, -0.16521096, -0.1995523, 9.630824
1134587732020522, 0.04426722, 6.9009004, 7.233503, 0.21505642, 0.17014217, 9.993636
1134587741659897, 0.032303106, 6.708278, 7.3196445, 0.102106094, 0.007577896, 9.928179
1134587751299272, -0.06460621, 6.3218374, 7.1270223, -0.0732677, -0.07429361, 9.526456
1134587760938543, 0.13998012, 7.112665, 7.3459654, 0.33224368, 0.19538212, 10.218819
1134587770577918, -0.11006984, 5.9150577, 7.243074, -0.308784, -0.37217426, 9.339609
1134587780217293, 0.1698904, 7.3435726, 7.4010005, 0.4209869, 0.29433298, 10.414791
1134587789856668, -0.19860429, 5.8360944, 7.2466636, -0.42630768, -0.3753121, 9.289293
1134587799495938, 0.08853444, 7.24786, 7.2658057, 0.3692851, 0.3593359, 10.250158
1134587809135313, -0.15074782, 6.10768, 7.2586274, -0.27624154, -0.23101807, 9.480742
1134587818774688, 0.0023928226, 6.8781686, 7.2323065, 0.16471195, 0.18676424, 9.977648
1134587828414063, -0.051445685, 6.6305118, 7.367501, -0.02319479, -0.020301342, 9.911884
1134587838053334, -0.1268196, 6.407979, 7.3136625, -0.15438318, -0.09277725, 9.722938
1134587847692709, 0.043070808, 7.152147, 7.5469627, 0.1965282, 0.1577735, 10.394625
1134587857332084, -0.22971097, 6.0394845, 7.4536424, -0.43421102, -0.34484267, 9.580055
1134587866971355, 0.07776674, 7.4452677, 7.5792656, 0.3344636, 0.30081987, 10.615131
1134587876610730, -0.2632105, 5.938986, 7.391429, -0.47346807, -0.35585928, 9.466956
1134587886250105, 0.05623133, 7.3842506, 7.3770723, 0.3618462, 0.39106512, 10.424377
1134587895889480, -0.19860429, 6.1639113, 7.359126, -0.3258624, -0.23424149, 9.59317
1134587905528751, 0.010767702, 6.9655066, 7.274181, 0.19459844, 0.21097565, 10.067261
1134587915168126, -0.047856454, 6.562316, 7.3268228, -0.026607513, -0.03783083, 9.835979
1134587924807501, -0.061016977, 6.424729, 7.155736, -0.03805828, -0.021204472, 9.616837
1134587934446772, 0.08015956, 7.025327, 7.3172517, 0.25573373, 0.19886446, 10.138977
1134587944086147, -0.14476576, 5.9521465, 7.1808605, -0.29362822, -0.29713607, 9.318759
1134587953725522, 0.15433706, 7.318448, 7.399804, 0.39454937, 0.30247355, 10.396799
1134587963364897, -0.15314065, 5.84088, 7.32443, -0.38263202, -0.45151377, 9.35074
1134587973004168, 0.16031912, 7.3256264, 7.4141607, 0.40492606, 0.30344582, 10.4117365
1134587982643543, -0.14356937, 6.076573, 7.416554, -0.31830072, -0.35484862, 9.577233
1134587992282918, 0.046660043, 7.0576305, 7.408179, 0.20954657, 0.1763258, 10.228315
1134588001922293, -0.08733802, 6.550352, 7.487142, -0.12553334, -0.11947489, 9.9469595
1134588011561563, -0.078963146, 6.524031, 7.331609, -0.07317376, -0.048565865, 9.81397
1134588021200938, 0.043070808, 7.024131, 7.456035, 0.18326879, 0.13163471, 10.241182
1134588030840313, -0.16390835, 6.047859, 7.2466636, -0.30883384, -0.24640179, 9.431941
1134588040479584, 0.09810573, 7.353144, 7.3543406, 0.3970554, 0.3677907, 10.386133
1134588050118959, -0.25962126, 5.8672013, 7.219146, -0.45884442, -0.2957909, 9.290289
1134588059758334, 0.05742774, 7.368697, 7.2861447, 0.39546537, 0.4354143, 10.346155
1134588069397709, -0.21535404, 6.0358953, 7.2693954, -0.3628049, -0.24116993, 9.441012
1134588079036980, 0.034695927, 7.055238, 7.2646093, 0.26116157, 0.2583151, 10.120138
1134588088676355, -0.09092726, 6.463014, 7.3603225, -0.12132621, -0.092909336, 9.794376
1134588098315730, -0.04546363, 6.556334, 7.2299137, -0.0023407936, 0.009536266, 9.760079
1134588107955105, 0.06580263, 6.9678993, 7.399804, 0.19791222, 0.111512184, 10.161764
1134588117594376, -0.10887343, 6.050252, 7.240681, -0.259171, -0.27785826, 9.428705
1134588127233751, 0.18783657, 7.3028946, 7.4787674, 0.4059906, 0.2050581, 10.444742
1134588136873126, -0.14237295, 5.8600225, 7.3603225, -0.41012836, -0.44625735, 9.389735
1134588146512397, 0.19980069, 7.393822, 7.4440713, 0.4723842, 0.28269482, 10.479488
1134588156151772, -0.13160525, 5.9988065, 7.375876, -0.3495443, -0.3619697, 9.494911
1134588165791147, 0.12323037, 7.123433, 7.3746796, 0.31843138, 0.20255995, 10.247046
1134588175430522, -0.038285162, 6.4331036, 7.4141607, -0.10765457, -0.16516733, 9.814131
1134588185069793, -0.0059820567, 6.6329045, 7.2765737, 0.042205095, 0.017847061, 9.845907
1134588194709168, 0.034695927, 6.936793, 7.3866434, 0.16025949, 0.12463236, 10.131219
1134588204348543, -0.14237295, 6.111269, 7.227521, -0.26626778, -0.20073223, 9.460114
1134588213987918, 0.09332009, 7.3160553, 7.4416785, 0.33612442, 0.30101204, 10.426331
1134588223627188, -0.23808585, 5.8743796, 7.300502, -0.47186375, -0.32819915, 9.355852
1134588233266563, 0.06580263, 7.375876, 7.367501, 0.37407923, 0.39621687, 10.4111
1134588242905938, -0.26081768, 5.956932, 7.2753773, -0.44170284, -0.25657344, 9.392723
1134588252545313, 0.009571291, 7.133004, 7.251449, 0.25865626, 0.33821106, 10.162779
1134588262184584, -0.15553348, 6.3314085, 7.3268228, -0.22241402, -0.119035244, 9.681406
1134588271823959, -0.03708875, 6.6448684, 7.2490563, 0.029753208, 0.057093143, 9.833632
1134588281463334, 0.032303106, 6.8614187, 7.4153576, 0.11934996, 0.0659318, 10.101933
1134588291102709, -0.11006984, 6.168697, 7.2765737, -0.2259996, -0.21678495, 9.534956
1134588300741980, 0.13280165, 7.288538, 7.509874, 0.34041643, 0.22409964, 10.458132
1134588310381355, -0.19262223, 5.9246287, 7.375876, -0.4168322, -0.39519882, 9.445208
1134588320020730, 0.10049855, 7.4141607, 7.4476604, 0.37120676, 0.3688979, 10.496365
1134588329660105, -0.1902294, 5.9413786, 7.34118, -0.3969245, -0.36471224, 9.430723
1134588339299376, 0.08973085, 7.1545396, 7.3375907, 0.30683446, 0.28080988, 10.24025
1134588348938751, -0.10049855, 6.2751775, 7.396215, -0.21530151, -0.2231226, 9.695144
1134588358578126, 0.01794617, 6.7202425, 7.292127, 0.09879708, 0.059816837, 9.915834
1134588368217501, 0.0059820567, 6.788438, 7.4069824, 0.073419094, 0.041590214, 10.046851
1134588377856772, -0.11964113, 6.1998034, 7.225128, -0.19909596, -0.16121721, 9.517813
1134588387496147, 0.11365908, 7.2502527, 7.4141607, 0.34280157, 0.2772665, 10.3612
1134588397135522, -0.20817557, 5.912665, 7.30768, -0.41389847, -0.34126806, 9.387084
1134588406774897, 0.10767702, 7.4069824, 7.436893, 0.38033843, 0.366899, 10.483468
1134588416414168, -0.22253251, 5.9114685, 7.350751, -0.4411962, -0.3692832, 9.417934
1134588426053543, 0.08015956, 7.207182, 7.344769, 0.31749296, 0.3015237, 10.281235
1134588435692918, -0.12921242, 6.2440705, 7.3698936, -0.23268151, -0.21171045, 9.6551285
1134588445332293, -0.021535404, 6.780063, 7.2933235, 0.083450556, 0.114718914, 9.957016
1134588454971563, -0.009571291, 6.7525454, 7.4105716, 0.04812193, 0.02652216, 10.025493
1134588464610938, -0.11246266, 6.285945, 7.259824, -0.16991138, -0.1312499, 9.601288
1134588474250313, 0.10289137, 7.2442703, 7.466803, 0.3131914, 0.25039244, 10.396269
1134588483889688, -0.18903299, 5.9413786, 7.322037, -0.39253402, -0.3482294, 9.416613
1134588493529063, 0.14237295, 7.408179, 7.4213395, 0.41902924, 0.35720682, 10.472557
1134588503168334, -0.18185452, 5.8731833, 7.2873416, -0.39142132, -0.37385702, 9.345572
1134588512807709, 0.13998012, 7.21436, 7.2562346, 0.39987302, 0.32719326, 10.220204
1134588522447084, -0.106480606, 6.168697, 7.3196445, -0.2263658, -0.24219823, 9.567206
1134588532086459, 0.02751746, 6.826723, 7.281359, 0.14491582, 0.12648821, 9.979282
1134588541725730, -0.008374879, 6.710671, 7.4392858, 0.02137041, -0.015492439, 10.018755
1134588551365105, -0.09451649, 6.34098, 7.304091, -0.14853024, -0.13224792, 9.670942
1134588561004480, 0.046660043, 7.194021, 7.463214, 0.24519539, 0.24694824, 10.360241
1134588570643855, -0.21296121, 5.9557357, 7.280163, -0.38747907, -0.3000934, 9.395569
1134588580283230, 0.09451649, 7.38784, 7.4356966, 0.36387253, 0.36258745, 10.469709
1134588589922501, -0.2213361, 5.875576, 7.314859, -0.43102026, -0.37095284, 9.367773
1134588599561876, 0.10767702, 7.2670026, 7.391429, 0.3424549, 0.30603838, 10.355829
1134588609201251, -0.14596218, 6.1639113, 7.4153576, -0.28639722, -0.29615736, 9.634983
1134588618840626, 0.0035892338, 6.8985076, 7.304091, 0.14826155, 0.17963505, 10.044148
1134588628479897, -0.032303106, 6.6364937, 7.3639116, 0.00229311, -0.007606983, 9.913185
1134588638119272, -0.07776674, 6.3421764, 7.179664, -0.08785248, -0.07165241, 9.579352
1134588647758647, 0.08853444, 7.1102724, 7.3746796, 0.27141094, 0.23325396, 10.238243
1134588657398022, -0.15792629, 5.9760747, 7.2562346, -0.3192315, -0.31293416, 9.391033
1134588667037397, 0.14356937, 7.3926253, 7.4333034, 0.40735388, 0.3591199, 10.470465
1134588676676668, -0.21655045, 5.892326, 7.263413, -0.40555632, -0.34070015, 9.340397
1134588686316043, 0.10289137, 7.3340015, 7.2753773, 0.40061212, 0.42240858, 10.314569
1134588695955418, -0.17228323, 6.10768, 7.3100734, -0.30657196, -0.23215318, 9.519598
1134588705594793, 0.038285162, 6.9116683, 7.328019, 0.17426038, 0.14892864, 10.070746
1134588715234168, -0.029910283, 6.570691, 7.479964, -0.061947107, -0.11374855, 9.955297
1134588724873438, -0.047856454, 6.4175506, 7.335198, -0.08622956, -0.1180253, 9.745308
1134588734512813, 0.05623133, 7.0612197, 7.5290165, 0.18972445, 0.12268257, 10.319837
1134588744152188, -0.19142582, 5.985646, 7.3543406, -0.37946868, -0.32848644, 9.470957
1134588753791563, 0.10767702, 7.3746796, 7.52782, 0.35225773, 0.29387474, 10.528774
1134588763430834, -0.22731815, 5.864808, 7.3902326, -0.46849465, -0.40175486, 9.417128
1134588773070209, 0.10767702, 7.331609, 7.4249287, 0.36830688, 0.32923985, 10.4235115
1134588782709584, -0.17467605, 6.0753765, 7.3902326, -0.33941436, -0.29452848, 9.557945
1134588792348959, 0.041874398, 6.995417, 7.322037, 0.22090316, 0.20784044, 10.122147
1134588801988334, -0.08015956, 6.530013, 7.3698936, -0.07496047, -0.046673298, 9.846575
1134588811627709, -0.08733802, 6.4701924, 7.1880393, -0.04533267, 0.018840313, 9.671429
1134588821266980, 0.02751746, 7.0133634, 7.359126, 0.20358181, 0.2078433, 10.161697
1134588830906355, -0.1698904, 6.0191455, 7.2442703, -0.30790544, -0.2572403, 9.411558
1134588840545730, 0.10767702, 7.332805, 7.4273214, 0.37465692, 0.33187246, 10.425749
1134588850185105, -0.24646074, 5.8480587, 7.3172517, -0.46735787, -0.37249708, 9.351233
1134588859824480, 0.078963146, 7.351948, 7.3495545, 0.38083482, 0.4094982, 10.380779
1134588869463751, -0.19980069, 6.0394845, 7.3112698, -0.34850597, -0.27411008, 9.474882
1134588879103126, 0.009571291, 7.0348988, 7.243074, 0.23449135, 0.29257727, 10.090164
1134588888742501, -0.11365908, 6.465407, 7.2957163, -0.10430241, -0.037338257, 9.748314
1134588898381876, -0.07776674, 6.5312095, 7.1413794, 0.007848263, 0.07229662, 9.677643
1134588908021251, 0.06580263, 6.963114, 7.30768, 0.2440257, 0.17364264, 10.089687
1134588917660522, -0.11365908, 6.058627, 7.227521, -0.23990822, -0.25169706, 9.425287
1134588927299897, 0.17108682, 7.359126, 7.560123, 0.4015, 0.21848297, 10.541941
1134588936939272, -0.13160525, 5.898308, 7.5050883, -0.41595602, -0.4927845, 9.524593
1134588946578647, 0.20219351, 7.3974113, 7.598408, 0.42979932, 0.20866108, 10.595759
1134588956218022, -0.10887343, 6.0119667, 7.476374, -0.34460115, -0.41537, 9.579169
1134588965857397, 0.11485548, 7.0695944, 7.3495545, 0.3180611, 0.1906228, 10.191704
1134588975496668, -0.02751746, 6.3960147, 7.3172517, -0.058778763, -0.123105526, 9.717682
1134588985136043, -0.0035892338, 6.5694947, 7.1485577, 0.08563852, 0.06907225, 9.708143
1134588994775418, 0.023928227, 6.9056864, 7.3603225, 0.1733892, 0.13877249, 10.090298
1134589004414793, -0.18664017, 6.10768, 7.26102, -0.30599737, -0.16629434, 9.483655
1134589014054168, 0.043070808, 7.2933235, 7.4679995, 0.3312173, 0.29210138, 10.429306
1134589023693438, -0.30867413, 5.8432727, 7.2897344, -0.53610826, -0.25033808, 9.328948
1134589033332813, 0.0035892338, 7.3399835, 7.318448, 0.38153052, 0.41351914, 10.349806
1134589042972188, -0.32183465, 5.942575, 7.2418776, -0.47708893, -0.1749599, 9.359718
1134589052611563, 0.009571291, 7.1018977, 7.281359, 0.2979753, 0.28801584, 10.162848
1134589062250938, -0.106480606, 6.3278193, 7.450053, -0.20592427, -0.18141747, 9.771419
1134589071890313, -0.08853444, 6.641279, 7.379465, -0.017794132, 0.025603294, 9.928243
1134589081529688, -0.06699903, 6.9092755, 7.5026956, 0.06837678, 0.10750532, 10.198862
1134589091168959, -0.18305093, 6.196214, 7.402197, -0.28362155, -0.21796846, 9.648376
1134589100808334, 0.09212367, 7.159325, 7.655836, 0.24910975, 0.0881567, 10.478857
1134589110447709, -0.043070808, 6.410372, 7.623533, -0.15114379, -0.28357744, 9.955387
1134589120087084, -0.019142581, 6.6221366, 7.5924263, -0.03365326, -0.14812899, 10.073477
1134589129726459, -0.062213387, 6.535995, 7.422536, -0.043934822, -0.08255243, 9.889813
1134589139365834, -0.059820566, 6.6149583, 7.372287, 0.008520603, -0.0073041916, 9.905138
1134589149005105, -0.069391854, 6.6125655, 7.338787, 0.010897636, 0.015363693, 9.878679
1134589158644480, -0.096909314, 6.6592255, 7.373483, -0.007216215, 0.038939953, 9.9358635
1134589168283855, -0.106480606, 6.6388865, 7.373483, -0.024291277, 0.03156805, 9.92234
1134589177923230, -0.11365908, 6.6053867, 7.393822, -0.05149007, 4.7826767E-4, 9.91514
1134589187562605, -0.08733802, 6.606583, 7.332805, -0.007959604, 0.021625996, 9.870363
1134589197201980, -0.09332009, 6.5635123, 7.245467, 2.9683113E-4, 0.042055607, 9.776678
1134589206841355, -0.10767702, 6.586244, 7.2095747, 0.007897377, 0.08244324, 9.765312
1134589216480626, -0.096909314, 6.576673, 7.2215385, 0.01028657, 0.063892365, 9.767727
1134589226120001, -0.07298109, 6.582655, 7.318448, 5.2142143E-4, -8.6164474E-4, 9.843594
1134589235759376, -0.04546363, 6.5850477, 7.420143, -0.0073235035, -0.07237196, 9.920591
1134589245398751, -0.029910283, 6.626922, 7.507481, -0.0048954487, -0.10232973, 10.01343
1134589255038126, -0.08135597, 6.6628146, 7.4847493, -0.028904438, -0.03905058, 10.02092
1134589264677501, -0.16271193, 6.6568327, 7.446464, -0.09037423, 0.018929482, 9.989054
1134589274316876, -0.20578274, 6.606583, 7.448857, -0.14646912, 0.002304554, 9.957575
1134589283956251, -0.17706887, 6.5479593, 7.554141, -0.17337918, -0.112909794, 9.996468
1134589293595522, -0.09332009, 6.5371914, 7.661818, -0.13716865, -0.22202444, 10.06871
1134589303234897, -0.033499517, 6.5898337, 7.688139, -0.07106757, -0.22937298, 10.123085
1134589312874272, 0.0035892338, 6.6676, 7.5254273, 0.041450024, -0.102237225, 10.053696
1134589322513647, -0.0047856453, 6.7441707, 7.288538, 0.13842916, 0.09080267, 9.928707
1134589332153022, -0.031106694, 6.7968125, 7.056434, 0.20049644, 0.26741886, 9.791791
1134589341792397, -0.046660043, 6.7573314, 6.9678993, 0.20004106, 0.3019204, 9.699699
1134589351431772, 0.0047856453, 6.6819572, 6.9942207, 0.19839764, 0.2040577, 9.668852
1134589361071043, 0.0526421, 6.613762, 7.0672016, 0.18872786, 0.08908844, 9.677107
1134589370710418, 0.039481573, 6.546763, 7.085148, 0.1404674, 0.046376705, 9.6456785
1134589380349793, 0.047856454, 6.506085, 7.1509504, 0.10741758, -0.019646645, 9.667244
1134589389989168, 0.025124637, 6.5108705, 7.2562346, 0.05451536, -0.06651831, 9.748724
1134589399628543, -0.0023928226, 6.535995, 7.3698936, 6.887913E-4, -0.09812164, 9.850124
1134589409267918, -0.040677983, 6.5778694, 7.470392, -0.050717592, -0.1050148, 9.953049
1134589418907293, -0.09092726, 6.6053867, 7.476374, -0.081557035, -0.056592464, 9.976257
1134589428546668, -0.148355, 6.650851, 7.440482, -0.09814811, 0.022568226, 9.980305
1134589438186043, -0.19501504, 6.680761, 7.399804, -0.11461568, 0.08779335, 9.970301
1134589447825418, -0.16271193, 6.6819572, 7.3363943, -0.06134057, 0.1079216, 9.923825
1134589457464688, -0.07058827, 6.686743, 7.3340015, 0.026097298, 0.06360769, 9.924736
1134589467104063, -0.02871387, 6.660422, 7.429714, 0.02340293, -0.032442093, 9.978031
1134589476743438, -0.013160525, 6.6556363, 7.550552, -0.0034008026, -0.11392784, 10.064568
1134589486382813, -0.04546363, 6.6281185, 7.6546397, -0.07276583, -0.17270422, 10.123854
1134589496022188, -0.11844472, 6.623333, 7.645068, -0.1339798, -0.13517952, 10.11402
1134589505661563, -0.16390835, 6.593423, 7.499106, -0.13391495, -0.04567194, 9.985823
1134589515300938, -0.17347965, 6.567102, 7.361519, -0.107743025, 0.023332596, 9.865938
1134589524940313, -0.20697916, 6.5946193, 7.281359, -0.099832535, 0.10270405, 9.824944
1134589534579688, -0.17467605, 6.611369, 7.2729845, -0.06499672, 0.10039282, 9.829685
1134589544218959, -0.0741775, 6.641279, 7.24786, 0.04109025, 0.08681917, 9.830277
1134589553858334, 0.019142581, 6.6329045, 7.245467, 0.12120843, 0.03955078, 9.822237
1134589563497709, 0.06699903, 6.6257257, 7.243074, 0.16004229, 0.0122590065, 9.815348
1134589573137084, 0.07178468, 6.6053867, 7.2933235, 0.13950062, -0.035307407, 9.839113
1134589582776459, 0.0047856453, 6.593423, 7.3363943, 0.061017036, -0.038226604, 9.863609
1134589592415834, -0.05742774, 6.5575304, 7.3842506, -0.02341652, -0.06063652, 9.875599
1134589602055209, -0.096909314, 6.5228343, 7.4045897, -0.07745123, -0.073405266, 9.867793
1134589611694584, -0.16031912, 6.530013, 7.379465, -0.12227702, -0.019376755, 9.854338
1134589621333959, -0.20458634, 6.5407805, 7.3579297, -0.14980245, 0.02346468, 9.845802
1134589630973334, -0.18424734, 6.5778694, 7.3340015, -0.109470844, 0.053834915, 9.852665
1134589640612709, -0.11485548, 6.6161547, 7.368697, -0.042546988, 0.026049614, 9.903631
1134589650251980, -0.032303106, 6.6652074, 7.389036, 0.042657137, 0.003479004, 9.950983
1134589659891355, 0.03589234, 6.6735826, 7.3926253, 0.10367632, -0.02732563, 9.958786
1134589669530730, 0.11246266, 6.7178497, 7.3782687, 0.19384432, -0.032444, 9.977093
1134589679170105, 0.11246266, 6.6999035, 7.3698936, 0.18877554, -0.04271078, 9.958878
1134589688809480, 0.06699903, 6.65444, 7.344769, 0.14037704, -0.03554344, 9.910133
1134589698448855, 0.040677983, 6.617351, 7.3435726, 0.102871895, -0.04643345, 9.884649
1134589708088230, 0.05383851, 6.576673, 7.3627152, 0.09136152, -0.09034252, 9.871607
1134589717727605, 0.043070808, 6.5958157, 7.3627152, 0.085315466, -0.06439829, 9.884574
1134589727366980, 0.0059820567, 6.6185474, 7.3842506, 0.05393195, -0.04484558, 9.91602
1134589737006355, -0.022731815, 6.6364937, 7.3232336, 0.05107808, 0.020878315, 9.882826
1134589746645730, -0.06819545, 6.6448684, 7.240681, 0.03563595, 0.099644184, 9.827267
1134589756285105, -0.106480606, 6.6532435, 7.1820574, 0.024044037, 0.15740871, 9.789463
1134589765924480, -0.1363909, 6.619744, 7.1677003, -0.008979797, 0.157022, 9.7565775
1134589775563751, -0.17826529, 6.586244, 7.263413, -0.08656621, 0.09679747, 9.805646
1134589785203126, -0.13160525, 6.558727, 7.4105716, -0.099545, -0.030448914, 9.8964615
1134589794842501, -0.10049855, 6.573084, 7.4907312, -0.08518934, -0.08043051, 9.965585
1134589804481876, -0.15194423, 6.579066, 7.4141607, -0.10206199, -0.005806446, 9.912949
1134589814121251, -0.14356937, 6.6149583, 7.3902326, -0.06439996, 0.026471615, 9.919122
1134589823760626, -0.17706887, 6.606583, 7.344769, -0.0806036, 0.064805984, 9.87994
1134589833400001, -0.15553348, 6.643672, 7.4440713, -0.07721281, 0.017592907, 9.978502
1134589843039376, -0.16869399, 6.6628146, 7.3806615, -0.056320667, 0.07000446, 9.944228
1134589852678751, -0.17826529, 6.6364937, 7.361519, -0.06243658, 0.0653224, 9.912548
1134589862318126, -0.13519448, 6.652047, 7.361519, -0.019536734, 0.05376959, 9.922536
1134589871957501, -0.083748795, 6.606583, 7.422536, -0.008317232, -0.037887096, 9.937128
1134589881596876, -0.059820566, 6.5958157, 7.4380894, 0.005305767, -0.06623411, 9.941284
1134589891236251, -0.076570325, 6.579066, 7.5026956, -0.032188177, -0.10550165, 9.978389
1134589900875626, -0.111266255, 6.602994, 7.5230346, -0.060758114, -0.085042, 10.009848
1134589910515001, -0.17347965, 6.6161547, 7.556534, -0.1185658, -0.06581974, 10.044224
1134589920154376, -0.21535404, 6.658029, 7.5062847, -0.121105194, 0.01016283, 10.035202
1134589929793647, -0.21415763, 6.643672, 7.4033933, -0.08783293, 0.05450201, 9.94906
1134589939433022, -0.20697916, 6.6101727, 7.3256264, -0.06830382, 0.07621813, 9.868716
1134589949072397, -0.17228323, 6.593423, 7.2358956, -0.013570547, 0.09495497, 9.790399
1134589958711772, -0.13399807, 6.5551376, 7.2658057, -0.004974842, 0.0323143, 9.786655
1134589968351147, -0.076570325, 6.5515485, 7.2873416, 0.035791874, -0.010765076, 9.799622
1134589977990522, -0.058624156, 6.570691, 7.389036, 0.026695251, -0.06637812, 9.88788
1134589987629897, -0.06580263, 6.586244, 7.436893, 0.010041237, -0.07983112, 9.933973
1134589997269272, -0.09571291, 6.6017976, 7.436893, -0.011185408, -0.053008556, 9.944714
1134590006908647, -0.104087785, 6.613762, 7.3866434, 0.0020952225, -0.011834621, 9.915395
1134590016548022, -0.096909314, 6.597012, 7.351948, 0.0132677555, -0.0056405067, 9.8783045
1134590026187397, -0.06819545, 6.6245294, 7.34118, 0.05163765, 0.0049524307, 9.888341
1134590035826772, -0.015553347, 6.6281185, 7.3232336, 0.103708506, -0.0054631233, 9.876799
1134590045466147, 0.008374879, 6.6161547, 7.365108, 0.10877061, -0.04819727, 9.89971
1134590055105522, -0.04426722, 6.6424756, 7.3375907, 0.07699251, 0.009635448, 9.897406
1134590064744897, -0.08973085, 6.647261, 7.3340015, 0.037809372, 0.03615141, 9.898434
1134590074384272, -0.12921242, 6.678368, 7.3052874, 0.020780325, 0.091180325, 9.898272
