timestamp_acc,device_acc_x,device_acc_y,device_acc_z,earth_acc_x,earth_acc_y,earth_acc_z
1127194381009865, 5.029713, 1.1988041, 8.703893, 0.008318424, -0.029224396, 10.123832
1127194390648823, 5.005785, 1.1964114, 8.708678, 0.020350218, -0.014734745, 10.115816
1127194400287782, 4.9842496, 1.1892328, 8.719446, 0.031778097, 0.0074853897, 10.113589
1127194409926740, 4.9878387, 1.2011969, 8.717052, 0.035504818, -0.0032041073, 10.1147
1127194419565698, 4.974678, 1.174876, 8.693125, 0.016193628, 0.013036966, 10.08453
1127194429204657, 4.9782677, 1.1413764, 8.659625, -0.021372318, 0.020415545, 10.053562
1127194438843615, 4.9866424, 1.1569297, 8.657232, -0.017076015, 0.0047159195, 10.057458
1127194448482469, 5.0045886, 1.160519, 8.622537, -0.03511119, -0.023708105, 10.036884
1127194458121427, 5.015356, 1.1880364, 8.662018, -0.008583784, -0.03446436, 10.079412
1127194467760386, 5.011767, 1.1988041, 8.705089, 0.012881041, -0.02117896, 10.115973
1127194477399344, 5.0009995, 1.1904292, 8.745767, 0.027133942, 0.0064013004, 10.144693
1127194487038302, 4.989035, 1.1772687, 8.763713, 0.032216072, 0.02763462, 10.152699
1127194496677261, 4.9806604, 1.1569297, 8.737391, 0.017146587, 0.033344507, 10.123541
1127194506316219, 4.95075, 1.1353943, 8.700303, 0.0122962, 0.04930067, 10.074311
1127194515955177, 4.92084, 1.1138589, 8.632108, -0.0011217594, 0.054178, 9.998285
1127194525594032, 4.918447, 1.1294123, 8.538788, -0.012126923, 0.007422924, 9.918538
1127194535232990, 4.9375896, 1.1473584, 8.483752, -0.022455692, -0.03553915, 9.882738
1127194544871948, 4.9722853, 1.1581261, 8.4682, -0.041327953, -0.06986952, 9.887805
1127194554510907, 5.0081778, 1.180858, 8.495717, -0.036996126, -0.094233036, 9.931931
1127194564149865, 5.0189457, 1.1832508, 8.579466, -0.019199133, -0.0661819, 10.009616
1127194573788823, 4.9974103, 1.1533405, 8.641679, -0.009695053, -0.007272482, 10.049019
1127194583427782, 4.9926243, 1.1330016, 8.693125, -0.010723591, 0.027148724, 10.088587
1127194593066636, 4.9902315, 1.1234303, 8.718249, -0.009368658, 0.045928, 10.107928
1127194602705594, 4.975875, 1.1246266, 8.720642, -0.0022144318, 0.050833702, 10.1030245
1127194612344552, 4.9531426, 1.1557333, 8.72782, 0.036376238, 0.045067787, 10.101526
1127194621983511, 4.961518, 1.174876, 8.719446, 0.042430878, 0.022778988, 10.100664
1127194631622469, 4.971089, 1.2071791, 8.734999, 0.06384587, 0.0015041828, 10.122507
1127194641261427, 5.002196, 1.2358929, 8.738588, 0.066244125, -0.035960674, 10.14429
1127194650900386, 5.015356, 1.2155539, 8.76132, 0.049745083, -0.019025326, 10.168051
1127194660539240, 5.046463, 1.1940185, 8.740981, 0.009094238, -0.029550552, 10.163478
1127194670178198, 5.0596237, 1.1569297, 8.703893, -0.03595805, -0.02788043, 10.133803
1127194679817157, 5.040481, 1.1330016, 8.653643, -0.052915573, -0.015391111, 10.078325
1127194689456115, 5.023731, 1.1222339, 8.57468, -0.0696969, -0.02837491, 10.000839
1127194699095073, 4.9782677, 1.134198, 8.532805, -0.04344201, -0.02764225, 9.943625
1127194708734032, 4.9698925, 1.1377872, 8.476574, -0.044906378, -0.044198036, 9.891548
1127194718372990, 4.928018, 1.1796615, 8.486146, 0.014882326, -0.04316306, 9.883802
1127194728011844, 4.912465, 1.2047862, 8.53161, 0.060457468, -0.031640768, 9.918039
1127194737650802, 4.9495535, 1.1940185, 8.59143, 0.045123816, -0.020571232, 9.9866905
1127194747289761, 4.95075, 1.1928221, 8.633304, 0.054977417, -0.005592108, 10.023155
1127194756928719, 4.9698925, 1.1629118, 8.689535, 0.03559923, 0.024138927, 10.077618
1127194766567677, 5.0069814, 1.1700903, 8.713464, 0.022270441, 0.0046772957, 10.117456
1127194776206636, 5.029713, 1.1688938, 8.690732, -0.0038490295, -0.018908978, 10.109045
1127194785845594, 5.050052, 1.1569297, 8.685946, -0.026716948, -0.024967194, 10.113647
1127194795484552, 5.0440702, 1.1796615, 8.676374, -0.011397839, -0.038991213, 10.105054
1127194805123407, 5.0416775, 1.1928221, 8.639286, -0.011677742, -0.060817003, 10.073467
1127194814762365, 5.005785, 1.2167503, 8.644072, 0.028998137, -0.05054617, 10.0625515
1127194824401323, 5.005785, 1.2107682, 8.648857, 0.026002645, -0.044377804, 10.065979
1127194834040282, 4.968696, 1.1976078, 8.659625, 0.043969393, -0.0069289207, 10.055314
1127194843679240, 4.9543395, 1.1760724, 8.672786, 0.040918827, 0.021767616, 10.057022
1127194853318198, 4.9663033, 1.1653047, 8.660822, 0.022560596, 0.015141726, 10.051428
1127194862957052, 4.9543395, 1.146162, 8.676374, 0.020750761, 0.04108286, 10.056664
1127194872596011, 4.985446, 1.146162, 8.691928, 0.0052244663, 0.029387236, 10.085487
1127194882234969, 5.011767, 1.146162, 8.672786, -0.016704798, 0.004815817, 10.082083
1127194891873927, 5.0177493, 1.1270195, 8.665607, -0.036016226, 0.0118916035, 10.076672
1127194901512886, 5.0273204, 1.1330016, 8.658429, -0.03974271, -5.514622E-4, 10.075935
1127194911151844, 5.0440702, 1.1222339, 8.653643, -0.058507204, -0.004288912, 10.078896
1127194920790802, 5.052445, 1.1294123, 8.646464, -0.05944252, -0.015949488, 10.077715
1127194930429657, 5.0081778, 1.1569297, 8.62134, -0.01687193, -0.018728733, 10.03729
1127194940068615, 4.941179, 1.1509477, 8.6141615, 0.021550894, 0.022432566, 9.997137
1127194949707573, 4.918447, 1.180858, 8.58784, 0.051679134, 0.0053989887, 9.966638
1127194959346532, 4.92084, 1.1856437, 8.578269, 0.05240965, -0.002573967, 9.960138
1127194968985490, 4.9567323, 1.1653047, 8.601001, 0.022362947, 0.0010683537, 9.995191
1127194978624448, 5.0009995, 1.1306087, 8.583055, -0.035158157, -0.008898497, 9.997789
1127194988263302, 5.011767, 1.1437693, 8.612965, -0.024358034, -0.013036728, 10.030375
1127194997902261, 4.991428, 1.1533405, 8.611769, -0.0045518875, -0.010053158, 10.0203285
1127195007541219, 5.0344987, 1.1736795, 8.632108, -0.012051344, -0.041773796, 10.061565
1127195017180177, 5.0548377, 1.2155539, 8.6548395, 0.010309935, -0.07311201, 10.096028
1127195026819136, 5.0368915, 1.1952149, 8.628518, -4.956722E-4, -0.059284925, 10.062139
1127195036458094, 5.003392, 1.160519, 8.620144, -0.008346558, -0.016919136, 10.034305
1127195046096948, 5.0105705, 1.1485549, 8.617751, -0.022279501, -0.013612747, 10.034438
1127195055735907, 5.022535, 1.14018, 8.620144, -0.03610134, -0.01098609, 10.041481
1127195065374865, 5.020142, 1.1413764, 8.597412, -0.04000902, -0.020225763, 10.020882
1127195075013823, 4.9806604, 1.1533405, 8.598608, -0.0065135956, -0.0035247803, 10.003657
1127195084652782, 4.9543395, 1.1772687, 8.589037, 0.024883509, -0.008869886, 9.985104
1127195094291740, 4.9519463, 1.1928221, 8.629715, 0.046878576, -0.0025410652, 10.020698
1127195103930594, 4.9639106, 1.18684, 8.663215, 0.04288864, 0.006944895, 10.0547695
1127195113569552, 4.9806604, 1.1952149, 8.685946, 0.04352355, -9.353161E-4, 10.083615
1127195123208511, 4.9902315, 1.1760724, 8.730213, 0.035406828, 0.025806427, 10.124241
1127195132847469, 5.023731, 1.1497513, 8.7469635, -9.1814995E-4, 0.028936148, 10.152257
1127195142486427, 5.042874, 1.1306087, 8.752945, -0.025515318, 0.031251907, 10.164706
1127195152125386, 5.0333023, 1.1042876, 8.7266245, -0.043192625, 0.04300332, 10.134291
1127195161764240, 5.040481, 1.1210374, 8.700303, -0.04006815, 0.017497778, 10.11714
1127195171403198, 5.022535, 1.154537, 8.658429, -0.015565157, -0.012791872, 10.07605
1127195181042157, 4.9878387, 1.1676974, 8.610572, 0.0058128834, -0.0194242, 10.019162
1127195190681115, 4.968696, 1.1629118, 8.565108, 0.004701853, -0.021837473, 9.97
1127195200320073, 4.968696, 1.180858, 8.539984, 0.013611078, -0.042598248, 9.950461
1127195209958927, 4.9459643, 1.1772687, 8.551949, 0.03346777, -0.019081593, 9.949013
1127195219597886, 4.9722853, 1.1688938, 8.566305, 0.0157578, -0.022801876, 9.973502
1127195229236844, 4.9734817, 1.1700903, 8.585447, 0.02102542, -0.016033173, 9.990688
1127195238875802, 4.95075, 1.1557333, 8.599805, 0.029014349, 0.012892246, 9.990059
1127195248514761, 4.959125, 1.154537, 8.618947, 0.028151989, 0.016829014, 10.010548
1127195258153719, 4.961518, 1.1892328, 8.624929, 0.05191064, -0.007000923, 10.020857
1127195267792573, 4.9603214, 1.1820544, 8.640483, 0.05019903, 0.00380826, 10.032818
1127195277431532, 4.9974103, 1.2143575, 8.640483, 0.047183037, -0.041311502, 10.054989
1127195287070490, 5.0368915, 1.2323036, 8.6345005, 0.03275013, -0.07919216, 10.07155
1127195296709448, 5.0823555, 1.2203395, 8.659625, 0.0016198158, -0.08680892, 10.114401
1127195306348407, 5.096712, 1.2035898, 8.645268, -0.023303509, -0.089057684, 10.107288
1127195315987261, 5.1050873, 1.1892328, 8.647661, -0.036265135, -0.08064437, 10.111896
1127195325626219, 5.09073, 1.1593226, 8.646464, -0.049080133, -0.052103043, 10.100287
1127195335265177, 5.0512486, 1.0911272, 8.642876, -0.07219386, 0.0183568, 10.069727
1127195344904136, 5.003392, 1.0636097, 8.641679, -0.05984187, 0.0660665, 10.041706
1127195354543094, 4.9579287, 1.0552348, 8.6141615, -0.040156126, 0.08700943, 9.994457
1127195364181948, 4.9088755, 1.0432707, 8.5938225, -0.021573544, 0.11437774, 9.951166
1127195373820907, 4.883751, 1.0671989, 8.59143, 0.010663986, 0.111732244, 9.939315
1127195383459865, 4.9088755, 1.1150553, 8.572288, 0.02591157, 0.054445267, 9.940869
1127195393098823, 4.9363933, 1.1365907, 8.549556, 0.020454407, 0.010622501, 9.937513
1127195402737782, 4.981857, 1.1617154, 8.565108, 0.014972687, -0.027749538, 9.9764
1127195412376636, 5.0536413, 1.3878372, 8.596215, 0.14073062, -0.21122742, 10.064585
1127195422015594, 5.005785, 0.6759724, 8.5112705, -0.36862206, 0.26527596, 9.886875
1127195431654552, 5.176872, 1.7204394, 8.724232, 0.33798885, -0.45338416, 10.273867
1127195441293511, 5.048856, 0.81954175, 8.544769, -0.2853136, 0.15463734, 9.953411
1127195450932365, 5.1589255, 1.3698909, 8.787642, 0.11430669, -0.18084073, 10.279494
1127195460571323, 5.0799623, 1.2263216, 8.657232, 0.02454114, -0.09338045, 10.111786
1127195470210282, 5.0620165, 0.8135597, 8.708678, -0.25797057, 0.21727967, 10.10016
1127195479849240, 5.066802, 1.6319051, 8.721839, 0.34505296, -0.31977916, 10.207094
1127195489488198, 4.9064827, 0.50368917, 8.602198, -0.42423105, 0.46599793, 9.895856
1127195499127052, 5.0177493, 1.8580267, 8.729017, 0.56016743, -0.42210197, 10.2143955
1127195508766011, 4.8083773, 0.4869394, 8.477771, -0.41113973, 0.48193955, 9.738013
1127195518404969, 4.9663033, 1.7838492, 8.671589, 0.5240325, -0.3638134, 10.130931
1127195528043927, 4.8526444, 0.7752745, 8.43111, -0.23659611, 0.25435638, 9.752547
1127195537682782, 5.0249276, 1.3818551, 8.665607, 0.17624354, -0.1391828, 10.109489
1127195547321740, 5.0548377, 1.1892328, 8.532805, -0.018457413, -0.09687352, 9.98823
1127195556960698, 5.123033, 0.8554341, 8.639286, -0.28124237, 0.12778115, 10.075667
1127195566599657, 5.197211, 1.5601203, 8.678768, 0.203269, -0.36537647, 10.226984
1127195576238511, 5.0656056, 0.43070808, 8.606983, -0.57173896, 0.434448, 9.970477
1127195585877469, 5.150551, 1.7778672, 8.781659, 0.41311836, -0.43765497, 10.317186
1127195595516427, 4.8933225, 0.38763726, 8.504091, -0.5182922, 0.53152394, 9.790979
1127195605155386, 4.999803, 1.7730815, 8.725428, 0.49626398, -0.37394905, 10.192587
1127195614794240, 4.82752, 0.7812566, 8.455039, -0.19852781, 0.2885511, 9.761163
1127195624433198, 4.9232326, 1.5146568, 8.683554, 0.34570634, -0.16282225, 10.089128
1127195634072157, 4.853841, 1.2323036, 8.535198, 0.1419146, 0.0023088455, 9.894837
1127195643711115, 4.9902315, 0.96789676, 8.609376, -0.12594748, 0.12573385, 9.996447
1127195653349969, 5.1014977, 1.6091732, 8.652447, 0.2915548, -0.3471589, 10.162384
1127195662988927, 5.0416775, 0.5407779, 8.677571, -0.45951676, 0.40499854, 10.031751
1127195672627886, 5.2019963, 1.8161523, 8.855837, 0.43309546, -0.45726228, 10.410973
1127195682266844, 4.9902315, 0.4211368, 8.645268, -0.5197785, 0.49143267, 9.965379
1127195691905698, 5.127819, 1.7635103, 8.782856, 0.4310783, -0.40923977, 10.304842
1127195701544657, 4.9232326, 0.6556334, 8.453842, -0.35219264, 0.30003333, 9.793949
1127195711183615, 4.9974103, 1.4763715, 8.62134, 0.25629854, -0.19774747, 10.068589
1127195720822573, 4.9459643, 1.1234303, 8.374879, -0.038446665, -0.043764114, 9.790806
1127195730461427, 5.032106, 1.0037891, 8.447861, -0.16407132, 0.024855137, 9.882738
1127195740100386, 5.111069, 1.5768701, 8.539984, 0.23762417, -0.3643682, 10.067356
1127195749739344, 5.0883374, 0.5395815, 8.4813595, -0.526592, 0.31768417, 9.886233
1127195759378302, 5.180461, 1.7587247, 8.703893, 0.36519194, -0.45259738, 10.264006
1127195769017157, 4.9435716, 0.37208393, 8.56152, -0.5456295, 0.5497484, 9.862913
1127195778656115, 5.0452666, 1.7790636, 8.775677, 0.47978652, -0.35938716, 10.26026
1127195788295073, 4.7952166, 0.6197411, 8.506484, -0.28384876, 0.44474554, 9.770367
1127195797933927, 4.889733, 1.5337993, 8.740981, 0.39481997, -0.13109303, 10.123918
1127195807572886, 4.820341, 1.1018949, 8.566305, 0.07378602, 0.12579703, 9.889902
1127195817211844, 4.962714, 1.0779666, 8.683554, -0.004047632, 0.10345888, 10.059023
1127195826850802, 5.0883374, 1.558924, 8.627322, 0.26006496, -0.3143773, 10.128457
1127195836489657, 5.1146584, 0.63170516, 8.606983, -0.4523182, 0.27486825, 10.017924
1127195846128615, 5.2905307, 1.8424734, 8.755338, 0.3825878, -0.5754912, 10.37125
1127195855767573, 5.1050873, 0.424726, 8.575876, -0.60116625, 0.39705992, 9.963378
1127195865406427, 5.227121, 1.8077775, 8.760123, 0.3910936, -0.5003545, 10.340566
1127195875045386, 5.0045886, 0.55752766, 8.46461, -0.47014403, 0.32123446, 9.832707
1127195884684344, 5.0512486, 1.5206388, 8.703893, 0.27317965, -0.22518516, 10.171524
1127195894323302, 4.846662, 0.9906286, 8.477771, -0.046783686, 0.14507055, 9.814318
1127195903962157, 4.8729835, 1.0552348, 8.581859, 0.010437489, 0.1386671, 9.924135
1127195913601115, 4.8658047, 1.451247, 8.517252, 0.2937863, -0.14665055, 9.910497
1127195923240073, 4.8155556, 0.6412765, 8.495717, -0.2875607, 0.40736508, 9.773914
1127195932878927, 4.9268217, 1.7946169, 8.659625, 0.5449418, -0.34446692, 10.102856
1127195942517886, 4.834698, 0.43788654, 8.472985, -0.45730543, 0.5192189, 9.740578
1127195952156844, 5.1050873, 1.8855443, 8.707481, 0.5173973, -0.5100639, 10.242538
1127195961795698, 5.005785, 0.634098, 8.499306, -0.40772295, 0.28203988, 9.871798
1127195971434657, 5.2534423, 1.6307086, 8.806784, 0.24765205, -0.38863063, 10.373281
1127195981073615, 5.197211, 0.96909314, 8.660822, -0.24408698, 0.011326075, 10.143975
1127195990712573, 5.2606206, 1.1090733, 8.825927, -0.13419914, -0.04894924, 10.333476
1127196000351427, 5.231907, 1.3615161, 8.810373, 0.067276716, -0.20413399, 10.334557
1127196009990386, 5.1014977, 0.5168497, 8.780462, -0.48824453, 0.41893888, 10.147661
1127196019629344, 5.046463, 1.5768701, 8.843872, 0.34769452, -0.20899558, 10.295767
1127196029268198, 4.7653065, 0.29072794, 8.532805, -0.5156374, 0.6662214, 9.741237
1127196038907157, 4.833502, 1.7970098, 8.606983, 0.59455967, -0.3178792, 10.010874
1127196048546115, 4.6097727, 0.5838487, 8.255239, -0.2679205, 0.4554193, 9.4583645
1127196058184969, 4.8382874, 1.7838492, 8.452646, 0.5363941, -0.370301, 9.879955
1127196067823927, 4.816752, 1.1330016, 8.254042, 0.019882202, -0.027982712, 9.623556
1127196077462886, 5.046463, 1.416551, 8.504091, 0.1516602, -0.24180484, 9.985565
1127196087101740, 5.144569, 1.5720844, 8.53161, 0.21575546, -0.40033984, 10.075693
1127196096740698, 5.2163534, 0.80757767, 8.676374, -0.36229563, 0.11426711, 10.148778
1127196106379657, 5.3419766, 1.7718852, 8.880961, 0.32962358, -0.5030489, 10.496955
1127196116018511, 5.1876397, 0.34337005, 8.775677, -0.67728543, 0.48464823, 10.166042
1127196125657469, 5.261817, 1.6881363, 8.967103, 0.32568598, -0.36321235, 10.521761
1127196135296427, 4.938786, 0.35174492, 8.653643, -0.54456186, 0.5714381, 9.938702
1127196144935282, 4.9639106, 1.5613167, 8.779266, 0.36860466, -0.16872835, 10.197515
1127196154574240, 4.709075, 0.79920274, 8.46461, -0.123137, 0.34561157, 9.712317
1127196164213198, 4.7401814, 1.2155539, 8.560323, 0.18373132, 0.106441975, 9.858038
1127196173852052, 4.7485566, 1.3974084, 8.414361, 0.27960575, -0.08556414, 9.757946
1127196183491011, 4.834698, 0.8673982, 8.443074, -0.15973783, 0.22442913, 9.76403
1127196193129969, 5.0452666, 1.8329022, 8.60459, 0.4683162, -0.46724224, 10.120059
1127196202768823, 5.035695, 0.56350976, 8.545966, -0.4851246, 0.33344865, 9.917801
1127196212407782, 5.288138, 1.9298115, 8.845069, 0.4612162, -0.5874233, 10.457823
1127196222046740, 5.1122656, 0.4953143, 8.641679, -0.5711572, 0.36854863, 10.029814
1127196231685594, 5.2749777, 1.6486548, 8.88455, 0.25731862, -0.37331247, 10.453379
1127196241324552, 5.0452666, 0.73459655, 8.648857, -0.34515023, 0.26031733, 10.030462
1127196250963407, 5.050052, 1.1772687, 8.8187475, 0.025500298, 0.042211533, 10.230194
1127196260602365, 4.9172506, 1.1964114, 8.630911, 0.07856941, 0.028405428, 10.00482
1127196270241323, 4.861019, 0.71425754, 8.584251, -0.25877094, 0.359828, 9.880921
1127196279880177, 4.9363933, 1.6821543, 8.6141615, 0.42942846, -0.29686213, 10.056285
1127196289519136, 4.8215375, 0.50488555, 8.477771, -0.41331697, 0.4752872, 9.745666
1127196299158094, 5.0045886, 1.9130617, 8.650054, 0.5700598, -0.46710396, 10.148201
1127196308796948, 4.9028935, 0.56350976, 8.398808, -0.4373591, 0.3536625, 9.725201
1127196318435907, 5.1266227, 1.8293129, 8.657232, 0.43089795, -0.488086, 10.205508
1127196328074865, 4.985446, 0.86141616, 8.513663, -0.23858237, 0.15515447, 9.899404
1127196337713719, 5.1086764, 1.3998013, 8.719446, 0.13741207, -0.18315291, 10.199721
1127196347352677, 5.0799623, 1.3208381, 8.606983, 0.06956506, -0.1622405, 10.079663
1127196356991532, 5.099105, 0.86261255, 8.687142, -0.26674056, 0.16444087, 10.10511
1127196366630490, 5.1457653, 1.6211374, 8.720642, 0.28150523, -0.35183287, 10.244685
1127196376269448, 5.0177493, 0.40558344, 8.595019, -0.5709386, 0.47722173, 9.932923
1127196385908302, 5.1026945, 1.7635103, 8.733803, 0.41009998, -0.406909, 10.25149
1127196395547261, 4.847859, 0.39720857, 8.456235, -0.50681424, 0.52479863, 9.72806
1127196405186219, 4.9986067, 1.7300107, 8.624929, 0.42070603, -0.36691785, 10.102318
1127196414825073, 4.820341, 0.73100734, 8.413164, -0.25413156, 0.30372572, 9.715688
1127196424464032, 4.9268217, 1.422533, 8.644072, 0.24817252, -0.120328665, 10.046944
1127196434102886, 4.8969116, 1.262214, 8.516056, 0.112184525, -0.0514493, 9.903581
1127196443741844, 4.9722853, 0.951147, 8.615358, -0.13872838, 0.15273786, 9.990501
1127196453380802, 5.0799623, 1.6773686, 8.695518, 0.35333896, -0.36753678, 10.1966505
1127196463019657, 4.9902315, 0.55393845, 8.679964, -0.4277556, 0.42321682, 10.009443
1127196472658615, 5.12423, 1.8735801, 8.889337, 0.5215167, -0.44523692, 10.4076
1127196482297573, 4.942375, 0.44147578, 8.63809, -0.50884676, 0.5011847, 9.936219
1127196491936427, 5.099105, 1.7288144, 8.85464, 0.42136323, -0.34917998, 10.348663
1127196501575386, 4.9495535, 0.6580262, 8.601001, -0.35037303, 0.33299065, 9.93351
1127196511214240, 5.0715876, 1.3890336, 8.775677, 0.16556191, -0.1390264, 10.228205
1127196520853198, 4.9866424, 1.1509477, 8.548359, -0.018088102, -0.03222108, 9.96315
1127196530492157, 5.0081778, 0.95473623, 8.589037, -0.17022824, 0.10730076, 9.986212
1127196540131011, 5.0213385, 1.6402799, 8.55793, 0.33181012, -0.35691595, 10.04515
1127196549769969, 4.914858, 0.6305088, 8.482556, -0.38352823, 0.32509136, 9.810931
1127196559408823, 5.0129633, 1.922633, 8.673982, 0.5768032, -0.47394514, 10.173837
1127196569047782, 4.816752, 0.47736812, 8.478967, -0.4429176, 0.483711, 9.741238
1127196578686740, 5.028517, 1.8161523, 8.72782, 0.50700974, -0.39257836, 10.21509
1127196588325594, 4.90409, 0.6269195, 8.510074, -0.3741851, 0.34949875, 9.828649
1127196597964552, 5.058427, 1.410569, 8.770891, 0.18014598, -0.12985611, 10.220402
1127196607603407, 4.989035, 1.0648061, 8.586644, -0.0803411, 0.045996428, 9.9873
1127196617242365, 5.0596237, 0.99661064, 8.708678, -0.14808393, 0.10041952, 10.1193905
1127196626881323, 5.0883374, 1.5732809, 8.675179, 0.25875533, -0.30694723, 10.171721
1127196636520177, 5.0213385, 0.5922236, 8.623733, -0.45001483, 0.34420276, 9.980599
1127196646159136, 5.1326046, 1.869991, 8.766106, 0.47309625, -0.4846351, 10.306622
1127196655797990, 4.932804, 0.4546363, 8.530413, -0.52423453, 0.4581287, 9.839843
1127196665436948, 5.069195, 1.8221345, 8.745767, 0.4905299, -0.4189899, 10.251302
1127196675075907, 4.8885365, 0.65084773, 8.486146, -0.3542068, 0.3278656, 9.803219
1127196684714761, 5.005785, 1.5421742, 8.681161, 0.2980057, -0.21653104, 10.132278
1127196694353719, 4.877769, 1.0420742, 8.526823, -0.039815187, 0.10349488, 9.877903
1127196703992573, 4.944768, 1.0013963, 8.644072, -0.08575559, 0.13731766, 10.007362
1127196713631532, 4.9926243, 1.4691931, 8.611769, 0.24012136, -0.20650816, 10.05719
1127196723270490, 4.9471607, 0.5778667, 8.595019, -0.4258964, 0.37843108, 9.917565
1127196732909344, 5.1026945, 1.7886349, 8.756535, 0.45048296, -0.40995526, 10.273392
1127196742548302, 4.979464, 0.42711884, 8.584251, -0.5581658, 0.4556322, 9.906952
1127196752187157, 5.139783, 1.8376877, 8.792427, 0.47831333, -0.4602158, 10.327665
1127196761826115, 4.9232326, 0.61854464, 8.513663, -0.38820314, 0.34684992, 9.84034
1127196771465073, 5.0775695, 1.6115661, 8.719446, 0.3094977, -0.3087573, 10.208648
1127196781103927, 4.944768, 1.079163, 8.5220375, -0.050226927, 0.029869556, 9.911459
1127196790742886, 4.955536, 1.1700903, 8.650054, 0.039580584, 0.02704835, 10.03731
1127196800381740, 4.959125, 1.5409778, 8.599805, 0.30341756, -0.24168229, 10.038611
1127196810020698, 4.932804, 0.66999036, 8.623733, -0.3253746, 0.35473752, 9.945777
1127196819659657, 5.0536413, 1.8005991, 8.780462, 0.4865855, -0.39320517, 10.270666
1127196829298511, 4.901697, 0.3900301, 8.62134, -0.5185137, 0.5489788, 9.896263
1127196838937469, 5.0979085, 1.7659031, 8.830712, 0.43835187, -0.36728597, 10.332547
1127196848576323, 4.938786, 0.48215377, 8.550752, -0.49287963, 0.43106937, 9.864618
1127196858215282, 5.087141, 1.5517455, 8.766106, 0.27234268, -0.25791788, 10.246504
1127196867854136, 4.9459643, 0.94277215, 8.555537, -0.14960694, 0.1342113, 9.92513
1127196877493094, 5.0368915, 1.146162, 8.658429, -0.030973911, -0.0020866394, 10.0822315
1127196887132052, 5.06082, 1.4548361, 8.554341, 0.16360343, -0.26430488, 10.040348
1127196896770907, 4.9926243, 0.7405786, 8.571091, -0.32585979, 0.24919772, 9.9383135
1127196906409865, 5.0883374, 1.841277, 8.713464, 0.479766, -0.4547615, 10.23567
1127196916048719, 4.9112687, 0.51086766, 8.567501, -0.4482305, 0.45506215, 9.867909
1127196925687677, 5.0333023, 1.8807586, 8.779266, 0.5679443, -0.4239006, 10.268626
1127196935326636, 4.834698, 0.5395815, 8.526823, -0.39340782, 0.46399593, 9.798066
1127196944965490, 4.9974103, 1.6139588, 8.742178, 0.36885118, -0.23890233, 10.188794
1127196954604448, 4.9136615, 0.87218386, 8.505288, -0.19124365, 0.18360877, 9.857708
1127196964243302, 5.026124, 1.1617154, 8.657232, -0.008824587, -0.0027742386, 10.077652
1127196973882261, 5.0620165, 1.3483555, 8.560323, 0.08322096, -0.19032335, 10.033846
1127196983521219, 5.0309095, 0.70348984, 8.573483, -0.37658286, 0.2609849, 9.954881
1127196993160073, 5.113462, 1.7491534, 8.700303, 0.38678622, -0.4296143, 10.225855
1127197002799032, 4.9579287, 0.43788654, 8.590233, -0.52186465, 0.49130392, 9.902081
1127197012437886, 5.1421757, 1.8747765, 8.793623, 0.48264432, -0.47984242, 10.3354435
1127197022076844, 4.924429, 0.52163535, 8.512466, -0.45859933, 0.421005, 9.828358
1127197031715802, 5.0656056, 1.6845472, 8.745767, 0.37911236, -0.3276043, 10.234034
1127197041354657, 4.9136615, 0.90329057, 8.493324, -0.17384195, 0.16726089, 9.850806
1127197050993615, 4.996214, 1.2693924, 8.639286, 0.08724356, -0.05701375, 10.059818
1127197060632469, 4.9495535, 1.3627125, 8.534002, 0.16060185, -0.13758302, 9.956885
1127197070271427, 4.9292145, 0.7501499, 8.562716, -0.28386497, 0.28493357, 9.900415
1127197079910386, 5.042874, 1.7252251, 8.68475, 0.40505922, -0.36398125, 10.17523
1127197089549240, 4.914858, 0.46899325, 8.615358, -0.46882296, 0.49835062, 9.90616
1127197099188198, 5.0919266, 1.8568304, 8.847462, 0.5140333, -0.4079337, 10.35483
1127197108827052, 4.9232326, 0.4761717, 8.636893, -0.46356964, 0.48996258, 9.930052
1127197118466011, 5.111069, 1.7156538, 8.895318, 0.40639687, -0.3150761, 10.388876
1127197128104865, 4.9722853, 0.81834537, 8.644072, -0.233284, 0.23796058, 10.000112
1127197137743823, 5.066802, 1.2897314, 8.801998, 0.09415293, -0.053589344, 10.237154
1127197147382782, 5.0045886, 1.3040884, 8.623733, 0.1009562, -0.1068871, 10.054536
1127197157021636, 4.9674997, 0.8279166, 8.601001, -0.23489714, 0.22407436, 9.961592
1127197166660594, 5.0715876, 1.707279, 8.620144, 0.357103, -0.407012, 10.131609
1127197176299448, 4.9435716, 0.5096712, 8.496913, -0.48005462, 0.41688275, 9.823032
1127197185938407, 5.0955157, 1.8915263, 8.688339, 0.49684227, -0.5076134, 10.223741
1127197195577365, 4.894519, 0.47736812, 8.451449, -0.4780047, 0.43891907, 9.756538
1127197205216219, 5.0512486, 1.7288144, 8.705089, 0.41232765, -0.3622229, 10.197121
1127197214855177, 4.8789654, 0.76689965, 8.484949, -0.248106, 0.2798996, 9.81055
1127197224494032, 5.0141597, 1.3268201, 8.703893, 0.13809872, -0.076915264, 10.130894
1127197234132990, 4.991428, 1.2203395, 8.566305, 0.036051035, -0.059446335, 9.989012
1127197243771844, 5.0141597, 0.8219346, 8.630911, -0.25895977, 0.21949863, 10.009733
1127197253410802, 5.0775695, 1.6390835, 8.676374, 0.32314456, -0.34297323, 10.17476
1127197263049761, 4.9639106, 0.49172506, 8.60459, -0.48670673, 0.45420408, 9.923609
1127197272688615, 5.10748, 1.9154545, 8.790034, 0.53604126, -0.4833424, 10.3198395
1127197282327573, 4.912465, 0.4869394, 8.563912, -0.46189952, 0.46303654, 9.863176
1127197291966427, 5.0799623, 1.7934206, 8.79123, 0.46225727, -0.38280988, 10.293099
1127197301605386, 4.924429, 0.75972116, 8.553144, -0.26707172, 0.2758634, 9.891211
1127197311244344, 5.0644093, 1.3998013, 8.748159, 0.16502023, -0.13885498, 10.202524
1127197320883198, 4.9902315, 1.1988041, 8.562716, 0.018184662, -0.045165777, 9.982849
1127197330522157, 5.015356, 0.87338024, 8.608179, -0.2278831, 0.1734457, 9.996766
1127197340161011, 5.0440702, 1.6175481, 8.623733, 0.3193406, -0.32940078, 10.110261
1127197349799969, 4.9316072, 0.5383851, 8.555537, -0.427109, 0.4242239, 9.871445
1127197359438927, 5.0536413, 1.8520447, 8.740981, 0.5052005, -0.44333315, 10.24316
1127197369077782, 4.8765726, 0.4331009, 8.52802, -0.4708104, 0.5128126, 9.808722
1127197378716740, 5.072784, 1.8125632, 8.745767, 0.46763396, -0.42788386, 10.252083
1127197388355594, 4.935197, 0.6795616, 8.534002, -0.33587432, 0.31394196, 9.870957
1127197397994552, 5.069195, 1.4285151, 8.7577305, 0.19330621, -0.16537786, 10.216188
1127197407633511, 5.0009995, 1.1569297, 8.569894, -0.009054661, -0.032061815, 9.989517
1127197417272365, 5.0452666, 0.9762716, 8.658429, -0.1525724, 0.10074663, 10.0669155
1127197426911323, 5.0596237, 1.6187445, 8.662018, 0.32276058, -0.32542038, 10.15089
1127197436550177, 4.9459643, 0.5563313, 8.602198, -0.4293728, 0.41217113, 9.920465
1127197446189136, 5.072784, 1.8735801, 8.763713, 0.5248089, -0.4488592, 10.274687
1127197455828094, 4.851448, 0.45583272, 8.535198, -0.4625175, 0.50829816, 9.804165
1127197465466948, 5.0105705, 1.814956, 8.76132, 0.5158957, -0.37561154, 10.234911
1127197475105907, 4.863412, 0.6771688, 8.517252, -0.2997229, 0.3400395, 9.8208685
1127197484744761, 5.0344987, 1.5254245, 8.748159, 0.2840637, -0.20907354, 10.201912
1127197494383719, 4.9639106, 1.0935199, 8.581859, -0.037763834, 0.037206173, 9.974051
1127197504022677, 5.038088, 0.97507524, 8.695518, -0.14288235, 0.11798072, 10.095087
1127197513661532, 5.1050873, 1.5361922, 8.663215, 0.22924769, -0.30759335, 10.164936
1127197523300490, 5.0309095, 0.54317075, 8.652447, -0.47566676, 0.3875692, 10.004672
1127197532939344, 5.1421757, 1.7814565, 8.827123, 0.43636835, -0.4175868, 10.352239
1127197542578302, 4.9674997, 0.36610186, 8.63809, -0.56648064, 0.5283396, 9.941159
1127197552217261, 5.113462, 1.7587247, 8.845069, 0.44279873, -0.37845492, 10.350679
1127197561856115, 4.9088755, 0.57906306, 8.55793, -0.3906808, 0.38852692, 9.867471
1127197571495073, 5.0368915, 1.5014962, 8.749356, 0.26546276, -0.19816303, 10.201288
1127197581133927, 4.9136615, 1.0420742, 8.535198, -0.048249483, 0.081238985, 9.903065
1127197590772886, 4.928018, 1.0671989, 8.618947, -0.020986557, 0.09866667, 9.985006
1127197600411844, 4.971089, 1.5397813, 8.541181, 0.2883737, -0.27232695, 9.993854
1127197610050698, 4.9268217, 0.6257231, 8.496913, -0.37723923, 0.33522773, 9.828934
1127197619689657, 5.048856, 1.8496519, 8.660822, 0.5031996, -0.47521782, 10.1706915
1127197629328615, 4.892126, 0.4749753, 8.474181, -0.4753523, 0.4529574, 9.774412
1127197638967469, 5.111069, 1.8855443, 8.72782, 0.5083804, -0.5110924, 10.263211
1127197648606427, 4.9698925, 0.6149554, 8.489735, -0.40363383, 0.31580782, 9.843321
1127197658245282, 5.143372, 1.5780666, 8.756535, 0.26372123, -0.3143747, 10.269035
1127197667884240, 5.022535, 0.9846465, 8.601001, -0.13735127, 0.08823252, 10.007294
1127197677523198, 5.09073, 1.0468599, 8.729017, -0.10765791, 0.06541872, 10.158312
1127197687162052, 5.0739803, 1.3926228, 8.632108, 0.12693024, -0.19860506, 10.106552
1127197696801011, 4.981857, 0.5706882, 8.590233, -0.43354154, 0.3836782, 9.929829
1127197706439865, 5.070391, 1.7204394, 8.706285, 0.38465607, -0.3765638, 10.206784
1127197716078823, 4.875376, 0.3912265, 8.541181, -0.52108216, 0.55559087, 9.812947
1127197725717782, 5.0189457, 1.8436699, 8.749356, 0.5309156, -0.4066999, 10.231955
1127197735356636, 4.8263235, 0.61016977, 8.517252, -0.32674575, 0.4207201, 9.794157
1127197744995594, 5.011767, 1.6977077, 8.775677, 0.42565143, -0.2887149, 10.234648
1127197754634552, 4.9196434, 1.0612168, 8.6141615, -0.030703783, 0.10584974, 9.976006
1127197764273407, 5.0620165, 1.2442678, 8.819944, 0.072086334, -0.015939236, 10.244911
1127197773912365, 5.10748, 1.4679967, 8.732606, 0.18768811, -0.23343158, 10.218123
1127197783551323, 5.070391, 0.6831509, 8.745767, -0.3732283, 0.3144269, 10.120565
1127197793190177, 5.151747, 1.7264216, 8.82832, 0.38404202, -0.3855288, 10.352012
1127197802829136, 4.9698925, 0.3696911, 8.628518, -0.5685618, 0.543978, 9.933209
1127197812467990, 5.1122656, 1.8005991, 8.756535, 0.43720472, -0.43200016, 10.279909
1127197822106948, 4.8765726, 0.4749753, 8.422736, -0.47694516, 0.43588376, 9.722736
1127197831745907, 5.0189457, 1.6151553, 8.612965, 0.33417487, -0.31036854, 10.088296
1127197841384761, 4.8933225, 0.9200403, 8.410771, -0.15942693, 0.13257885, 9.771856
1127197851023719, 4.9770713, 1.2801601, 8.562716, 0.094242096, -0.08669138, 9.985677
1127197860662677, 4.9782677, 1.4392828, 8.462217, 0.18466926, -0.2374928, 9.918331
1127197870301532, 4.961518, 0.7692925, 8.532805, -0.28434634, 0.24837995, 9.893164
1127197879940490, 5.0847483, 1.7898313, 8.713464, 0.4413805, -0.4229424, 10.22785
1127197889579448, 4.9722853, 0.45702913, 8.641679, -0.4927373, 0.4840021, 9.956611
1127197899218302, 5.1326046, 1.8520447, 8.898908, 0.5007161, -0.41958737, 10.418132
1127197908857261, 4.968696, 0.47736812, 8.662018, -0.46918488, 0.47562528, 9.97497
1127197918496115, 5.151747, 1.6630118, 8.907282, 0.34572554, -0.31074858, 10.412959
1127197928135073, 4.989035, 0.8279166, 8.664411, -0.23153615, 0.23790717, 10.026852
1127197937774032, 5.0548377, 1.2394822, 8.787642, 0.06477976, -0.020043135, 10.213019
1127197947412886, 4.985446, 1.3268201, 8.596215, 0.12734866, -0.11914849, 10.0239525
1127197957051844, 4.9698925, 0.7860422, 8.565108, -0.27518868, 0.23377466, 9.927155
1127197966690802, 5.06082, 1.7264216, 8.641679, 0.3937446, -0.3952284, 10.146912
1127197976329657, 4.932804, 0.43908295, 8.536395, -0.51626444, 0.4691856, 9.844223
1127197985968615, 5.10748, 1.8053846, 8.7469635, 0.454239, -0.42366552, 10.269826
1127197995607573, 4.910072, 0.42711884, 8.504091, -0.5165212, 0.47169685, 9.804159
1127198005246427, 5.0883374, 1.6737795, 8.7469635, 0.3716178, -0.32853508, 10.244807
1127198014885386, 4.944768, 0.8003992, 8.502895, -0.25618482, 0.2137816, 9.863027
1127198024524344, 5.022535, 1.3304094, 8.687142, 0.14005923, -0.09845495, 10.120917
1127198034163198, 4.938786, 1.3196417, 8.547162, 0.1533258, -0.10379958, 9.957548
1127198043802157, 4.9459643, 0.8554341, 8.538788, -0.20167065, 0.19715476, 9.900792
1127198053441115, 5.0189457, 1.7395821, 8.617751, 0.43850148, -0.39588428, 10.106067
1127198063079969, 4.935197, 0.5180461, 8.539984, -0.44951677, 0.42662787, 9.857574
1127198072718927, 5.130212, 1.8975084, 8.781659, 0.522387, -0.48984528, 10.321063
1127198082357886, 5.0081778, 0.47976094, 8.567501, -0.5225892, 0.41258168, 9.913162
1127198091996740, 5.1720862, 1.7443677, 8.809176, 0.38280964, -0.4090922, 10.347995
1127198101635698, 4.996214, 0.76331043, 8.59143, -0.29698014, 0.24553394, 9.96037
1127198111274657, 5.076373, 1.3531412, 8.809176, 0.15128088, -0.100030184, 10.255205
1127198120913511, 4.962714, 1.2071791, 8.656036, 0.07200384, 0.0017588139, 10.050253
1127198130552469, 4.935197, 0.83030945, 8.688339, -0.18478966, 0.2833693, 10.020898
1127198140191427, 5.0009995, 1.625923, 8.691928, 0.366768, -0.27983403, 10.148418
1127198149830282, 4.912465, 0.4989035, 8.611769, -0.43373036, 0.4775808, 9.905937
1127198159469240, 5.0883374, 1.8604196, 8.770891, 0.5160371, -0.45486403, 10.286285
1127198169108198, 4.930411, 0.44506502, 8.506484, -0.508461, 0.45593262, 9.818396
1127198178747052, 5.111069, 1.7958134, 8.738588, 0.4421569, -0.4269693, 10.263191
1127198188386011, 4.941179, 0.7537391, 8.452646, -0.30504084, 0.22780776, 9.812527
1127198198024969, 5.06082, 1.4344971, 8.699107, 0.19551444, -0.17928958, 10.162371
1127198207663823, 4.985446, 1.2119647, 8.579466, 0.048615932, -0.046111584, 9.996313
1127198217302782, 5.035695, 0.92482597, 8.682357, -0.17155075, 0.15462255, 10.07688
1127198226941740, 5.0919266, 1.6139588, 8.715857, 0.32307303, -0.3176, 10.2124195
1127198236580594, 4.989035, 0.485743, 8.650054, -0.47508383, 0.45364285, 9.97589
1127198246219552, 5.143372, 1.8005991, 8.848659, 0.46825528, -0.40887928, 10.373465
1127198255858511, 4.962714, 0.35533416, 8.555537, -0.57915354, 0.5149276, 9.866684
1127198265497365, 5.1050873, 1.6701902, 8.73141, 0.35253882, -0.3445711, 10.239431
1127198275136323, 4.898108, 0.6197411, 8.46102, -0.36277127, 0.34777284, 9.783243
1127198284775282, 4.9603214, 1.4321043, 8.675179, 0.2498095, -0.12553072, 10.091397
1127198294414136, 4.822734, 1.18684, 8.484949, 0.1085546, 0.03459096, 9.83101
1127198304053094, 4.9196434, 1.0755738, 8.551949, -0.016708374, 0.07938576, 9.924163
1127198313692052, 5.0620165, 1.7096717, 8.567501, 0.36759377, -0.42613697, 10.081286
1127198323331011, 5.081159, 0.6687939, 8.577073, -0.41420054, 0.26444936, 9.979487
1127198332969865, 5.288138, 1.8891335, 8.813962, 0.4171846, -0.56923413, 10.426941
1127198342608823, 5.15414, 0.40797627, 8.629715, -0.6364417, 0.42879152, 10.030685
1127198352247782, 5.271388, 1.7108682, 8.892925, 0.31095552, -0.404989, 10.466042
1127198361886636, 4.983053, 0.4833502, 8.610572, -0.4850676, 0.47599864, 9.937028
1127198371525594, 5.038088, 1.288535, 8.7984085, 0.123131275, -0.014289618, 10.219554
1127198381164552, 4.837091, 0.89491564, 8.590233, -0.09636688, 0.288769, 9.894329
1127198390803407, 4.85743, 0.8865408, 8.612965, -0.10918975, 0.2923622, 9.923021
1127198400442365, 4.8993044, 1.1700903, 8.477771, 0.03246832, 0.017713547, 9.861214
1127198410081323, 4.95075, 1.2071791, 8.572288, 0.052597046, 0.0039134026, 9.97239
1127198419720282, 5.0249276, 1.314856, 8.499306, 0.07070851, -0.15114427, 9.959372
1127198429359136, 5.052445, 1.4297116, 8.513663, 0.14507318, -0.23574114, 9.998856
1127198438998094, 5.035695, 1.4751751, 8.566305, 0.20892298, -0.23505926, 10.040769
1127198448637052, 4.968696, 1.5050855, 8.602198, 0.2888832, -0.19872642, 10.041319
1127198458275907, 4.9196434, 1.4548361, 8.646464, 0.2989285, -0.12542772, 10.048668
1127198467914865, 4.9674997, 1.3974084, 8.648857, 0.22673726, -0.11784792, 10.068081
1127198477553823, 5.022535, 1.2897314, 8.668, 0.1159327, -0.08011842, 10.099686
1127198487192677, 5.1050873, 1.1736795, 8.690732, -0.019985199, -0.0500257, 10.147186
1127198496831636, 5.2055855, 1.079163, 8.69791, -0.15042853, -0.043937206, 10.192732
1127198506470594, 5.206782, 1.012164, 8.668, -0.21290445, -0.01414299, 10.159908
1127198516109552, 5.143372, 1.0145568, 8.65125, -0.17572689, 0.015668392, 10.114178
1127198525748407, 5.042874, 1.0205388, 8.6345005, -0.112440586, 0.06523466, 10.050363
1127198535387365, 5.0081778, 1.0253245, 8.620144, -0.08876014, 0.07849741, 10.021277
1127198545026323, 4.9363933, 0.9906286, 8.682357, -0.050994396, 0.17098427, 10.03498
1127198554665282, 4.8622155, 0.971486, 8.732606, -0.0037631989, 0.24996924, 10.038966
1127198564304136, 4.85743, 0.9559326, 8.732606, -0.012776613, 0.25618172, 10.034992
1127198573943094, 4.87418, 1.0133604, 8.734999, 0.017366648, 0.20520353, 10.051981
1127198583582052, 4.8969116, 1.0839486, 8.675179, 0.037430763, 0.11666131, 10.0199
1127198593220907, 4.9172506, 1.1282159, 8.565108, 0.027624369, 0.02747178, 9.940412
1127198602859865, 4.962714, 1.2251252, 8.549556, 0.0684886, -0.070871115, 9.960655
1127198612498823, 5.0536413, 1.3100704, 8.476574, 0.056198597, -0.21404529, 9.952833
1127198622137782, 5.1086764, 1.3256238, 8.483752, 0.042103767, -0.2579248, 9.988073
1127198631776636, 5.12423, 1.3794622, 8.673982, 0.12697649, -0.2234962, 10.165262
1127198641415594, 5.2833524, 1.3280165, 8.586644, -0.029512644, -0.32980227, 10.163576
1127198651054552, 5.2630134, 1.262214, 8.851051, 0.0061216354, -0.15748096, 10.373465
1127198660693407, 5.1792645, 1.1246266, 8.940782, -0.021766186, 0.023665428, 10.39356
1127198670332365, 5.1266227, 1.006182, 8.922835, -0.08273721, 0.1253314, 10.33872
1127198679971323, 5.009374, 0.9092726, 8.835498, -0.10891819, 0.22285175, 10.194367
1127198689610282, 4.881358, 0.9176475, 8.7984085, -0.03488922, 0.2836585, 10.099508
1127198699249240, 4.8191447, 0.94755775, 8.572288, -0.036744595, 0.20932102, 9.8772955
1127198708888094, 4.7509494, 1.0253245, 8.512466, 0.046179295, 0.17944169, 9.800541
1127198718527052, 4.800002, 1.1473584, 8.392825, 0.07159972, 0.023046494, 9.7360325
1127198728166011, 4.8598228, 1.2442678, 8.35454, 0.093111515, -0.091893435, 9.744091
1127198737804865, 4.9495535, 1.3016955, 8.4347, 0.099666834, -0.14797735, 9.864321
1127198747443823, 5.1122656, 1.3040884, 8.513663, 0.022494555, -0.21204805, 10.013638
1127198757082782, 5.1900325, 1.268196, 8.635697, -0.020174265, -0.18830967, 10.153038
1127198766721740, 5.2019963, 1.2095718, 8.760123, -0.036047697, -0.101629734, 10.259238
1127198776360594, 5.1924253, 1.1270195, 8.813962, -0.07902789, -0.020497084, 10.291294
1127198785999552, 5.1326046, 1.079163, 8.819944, -0.07381272, 0.04975629, 10.261175
1127198795638511, 5.026124, 1.0624132, 8.762517, -0.03661847, 0.09983373, 10.156822
1127198805277469, 4.9292145, 1.0851451, 8.71466, 0.02607131, 0.1237371, 10.069956
1127198814916323, 4.8909297, 1.1102697, 8.632108, 0.042415857, 0.101931095, 9.982736
1127198824555282, 4.877769, 1.14018, 8.592627, 0.061660767, 0.07204127, 9.945698
1127198834194240, 4.889733, 1.1557333, 8.544769, 0.050304174, 0.038332462, 9.912332
1127198843833198, 4.9292145, 1.1629118, 8.551949, 0.03212738, 0.013080597, 9.93902
1127198853472157, 5.0069814, 1.1832508, 8.575876, 0.002970457, -0.03577137, 10.000714
1127198863111011, 5.0775695, 1.1916257, 8.586644, -0.034028053, -0.08273721, 10.046102
1127198872749969, 5.1553364, 1.2083755, 8.640483, -0.05706191, -0.11979699, 10.133017
1127198882388927, 5.1696935, 1.2011969, 8.683554, -0.059524298, -0.10471034, 10.176356
1127198892027886, 5.13739, 1.18684, 8.738588, -0.032970905, -0.05489683, 10.20589
1127198901666740, 5.0943193, 1.166501, 8.754142, -0.01429224, -0.010519266, 10.195465
1127198911305698, 5.002196, 1.0660025, 8.915657, 0.017045021, 0.1840887, 10.276823
1127198920944657, 4.959125, 0.9822537, 8.8905325, -0.02345419, 0.26051307, 10.224035
1127198930583615, 4.9136615, 0.8925229, 8.785249, -0.09536934, 0.30214643, 10.10054
1127198940222469, 4.9136615, 0.8709874, 8.556734, -0.17911243, 0.21677685, 9.901581
1127198949861427, 4.8598228, 1.0971092, 8.483752, 5.209446E-4, 0.072738886, 9.838207
1127198959500386, 4.9316072, 1.3663018, 8.268398, 0.099996805, -0.23951602, 9.720421
1127198969139344, 4.9603214, 1.5661024, 8.212168, 0.2183336, -0.4116249, 9.709793
1127198978778198, 5.089534, 1.6917256, 8.440681, 0.29528487, -0.47183347, 9.985019
1127198988417157, 5.3072805, 1.6127625, 8.534002, 0.13080668, -0.51404715, 10.164452
1127198998056115, 5.2941203, 1.3926228, 8.811569, 0.05401969, -0.25039387, 10.370402
1127199007695073, 5.3096733, 1.1629118, 8.99462, -0.075104, -0.02511549, 10.509135
1127199017334032, 5.21755, 0.9212367, 9.026923, -0.18485141, 0.20249486, 10.46335
1127199026972886, 4.959125, 0.7728817, 8.961121, -0.151752, 0.42815208, 10.260878
1127199036611844, 4.738985, 0.71425754, 8.71466, -0.125386, 0.49738455, 9.932287
1127199046250802, 4.599005, 0.7585248, 8.4705925, -0.07431245, 0.45264792, 9.657471
1127199055889761, 4.5882373, 0.90329057, 8.292327, -0.018089771, 0.29820585, 9.51532
1127199065528615, 4.6935215, 1.1222339, 8.26481, 0.065059185, 0.07457423, 9.570049
1127199075167573, 4.8765726, 1.3268201, 8.315059, 0.1107111, -0.1498332, 9.728664
1127199084806532, 5.1003013, 1.4153546, 8.3581295, 0.046248674, -0.32911944, 9.887576
1127199094445490, 5.276174, 1.4751751, 8.568698, 0.035787344, -0.39212155, 10.162762
1127199104084448, 5.42094, 1.4871392, 8.812766, 0.025853872, -0.40051126, 10.445187
1127199113723302, 5.45085, 1.3986049, 8.986245, -0.0066199303, -0.290035, 10.598882
1127199123362261, 5.339584, 1.2909278, 9.066405, 0.005361557, -0.11915827, 10.600147
1127199133001219, 5.160122, 1.1617154, 9.031709, 0.011300564, 0.061747074, 10.466339
1127199142640177, 4.7916274, 1.1976078, 9.466006, 0.38244367, 0.44944072, 10.660721
1127199152279136, 5.572884, 0.7920243, 8.070991, -0.7793877, -0.34708476, 9.802924
1127199161917990, 4.5882373, 0.7704889, 9.765109, 0.27165985, 0.99598455, 10.767412
1127199171556948, 4.918447, 0.6771688, 8.618947, -0.31384015, 0.3874843, 9.934149
1127199181195907, 4.7712884, 0.7465607, 8.142776, -0.2976396, 0.23109174, 9.45967
1127199190834865, 4.2759743, 1.0815558, 8.023134, 0.23536849, 0.26011324, 9.148845
1127199200473719, 4.549952, 1.6127625, 8.172686, 0.4884498, -0.19607496, 9.477281
1127199210112677, 4.930411, 1.8544376, 7.756335, 0.31997442, -0.76353765, 9.339338
1127199219751636, 4.9698925, 1.855634, 8.238488, 0.42841077, -0.5762644, 9.772426
1127199229390594, 5.4233327, 1.7754744, 8.407183, 0.14200664, -0.7229018, 10.134238
1127199239029552, 5.5872407, 1.5816557, 8.721839, -0.020138264, -0.5730715, 10.462341
1127199248668511, 5.538188, 1.2610176, 9.085547, -0.13169336, -0.18450093, 10.712492
1127199258307365, 5.5106707, 1.0576276, 9.180064, -0.24547076, -0.005970001, 10.756365
1127199267946323, 5.160122, 0.7896315, 9.26142, -0.20395017, 0.42695808, 10.620753
1127199277585282, 4.81077, 0.63529444, 9.116654, -0.1328013, 0.67643714, 10.304625
1127199287224240, 4.566702, 0.63529444, 8.842676, -0.0560627, 0.71085477, 9.947001
1127199296863094, 4.473382, 0.7477571, 8.581859, 0.010001659, 0.58623934, 9.688901
1127199306502052, 4.5619164, 0.930808, 8.342576, 0.01603961, 0.3157208, 9.54862
1127199316141011, 4.7892346, 1.1784651, 8.237292, 0.019525528, -0.02229762, 9.60092
1127199325779969, 5.0476594, 1.396212, 8.304291, 0.032367706, -0.29302073, 9.813389
1127199335418927, 5.279763, 1.5182459, 8.295917, -0.025043726, -0.5189171, 9.936464
1127199345057782, 5.4053864, 1.5361922, 8.37129, -0.064780235, -0.5780792, 10.065695
1127199354696740, 5.4017973, 1.5182459, 8.629715, 0.008735418, -0.45838642, 10.283301
1127199364335698, 5.3383875, 1.4380864, 8.825927, 0.042805195, -0.28053355, 10.410713
1127199373974657, 5.1122656, 1.2861422, 8.924032, 0.10384321, -0.0080235, 10.364213
