timestamp_acc,device_acc_x,device_acc_y,device_acc_z,earth_acc_x,earth_acc_y,earth_acc_z
701475968200157, 0.14476576, 3.5856447, 9.38465, 0.010865629, -0.025271893, 10.047323
701475977838907, 0.11006984, 3.583252, 9.42174, -0.026212096, -0.035333395, 10.080628
701475987477553, 0.104087785, 3.6000016, 9.403793, -0.02704662, -0.011518717, 10.069822
701475997116303, 0.12083755, 3.586841, 9.373882, -0.0098749995, -0.014414549, 10.037401
701476006755053, 0.12921242, 3.5808592, 9.3511505, -0.0018612742, -0.0122179985, 10.014146
701476016393699, 0.148355, 3.583252, 9.306884, 0.01851046, 0.0035777092, 9.973938
701476026032449, 0.14476576, 3.5653057, 9.280562, 0.010679662, -0.0020489693, 9.942892
701476035671199, 0.16271193, 3.5593238, 9.274581, 0.027757347, -0.008841991, 9.935406
701476045309845, 0.12921242, 3.574877, 9.287741, -0.0034883618, 0.006643772, 9.952815
701476054948595, 0.10049855, 3.5772698, 9.287741, -0.03009975, 0.013822556, 9.953291
701476064587345, 0.10049855, 3.5784662, 9.29492, -0.025755286, 0.010989189, 9.960436
701476074225991, 0.086141616, 3.5904303, 9.326026, -0.038306117, 0.013296366, 9.993586
701476083864741, 0.09332009, 3.6167514, 9.353543, -0.027739465, 0.026879787, 10.028803
701476093503491, 0.111266255, 3.6191442, 9.379865, -0.011941433, 0.016372204, 10.054455
701476103142136, 0.12562318, 3.6011982, 9.349955, 0.0015785694, 0.008082867, 10.020278
701476112780886, 0.13399807, 3.5712879, 9.318848, 0.0069965124, -0.009822607, 9.980621
701476122419636, 0.14955142, 3.5772698, 9.287741, 0.023043752, 0.003674984, 9.953934
701476132058282, 0.16151553, 3.574877, 9.251849, 0.036634147, 0.0131344795, 9.91973
701476141697032, 0.16271193, 3.562913, 9.232706, 0.038029492, 0.0074510574, 9.897584
701476151335782, 0.13758731, 3.583252, 9.257831, 0.01436609, 0.020405293, 9.928012
701476160974428, 0.11964113, 3.5784662, 9.298509, -0.005910456, 0.0043461323, 9.964033
701476170613178, 0.12921242, 3.595216, 9.35833, 0.0030828118, -0.0020694733, 10.025995
701476180251928, 0.12203395, 3.5964124, 9.397811, -0.0047655106, -0.011332512, 10.0631895
701476189890574, 0.11246266, 3.5940197, 9.424132, -0.016476989, -0.020660639, 10.086784
701476199529324, 0.101694964, 3.5988052, 9.427721, -0.026781559, -0.015978575, 10.091715
701476209168074, 0.12562318, 3.5880375, 9.366704, -0.0022580028, -0.008536816, 10.031195
701476218806720, 0.14476576, 3.5653057, 9.30808, 0.01732272, -0.011949539, 9.968563
701476228445470, 0.15553348, 3.5593238, 9.262616, 0.029390693, -0.0049841404, 9.924119
701476238084220, 0.14237295, 3.5653057, 9.24826, 0.017516553, 0.006021738, 9.912702
701476247722866, 0.1363909, 3.5976088, 9.24826, 0.015503287, 0.0351367, 9.924225
701476257361616, 0.12203395, 3.6011982, 9.281759, -0.0013773441, 0.027367592, 9.956596
701476267000366, 0.09930214, 3.6083765, 9.332008, -0.02600193, 0.020019293, 10.005775
701476276639011, 0.12203395, 3.6131623, 9.340384, -0.0048234463, 0.01836729, 10.0156
701476286277761, 0.12921242, 3.6047873, 9.329616, -0.0014326572, 0.014612913, 10.002635
701476295916511, 0.10887343, 3.5796626, 9.297313, -0.023353636, 0.0060555935, 9.963197
701476305555157, 0.104087785, 3.574877, 9.275777, -0.027166188, 0.010173321, 9.9413185
701476315193907, 0.12801601, 3.586841, 9.250652, 0.0022737384, 0.023319244, 9.922493
701476324832657, 0.1471586, 3.591627, 9.2590275, 0.022595167, 0.020243168, 9.932276
701476334471303, 0.14476576, 3.603591, 9.251849, 0.023453474, 0.034465075, 9.929844
701476344110053, 0.13878371, 3.6023946, 9.314062, 0.012449026, 0.0126850605, 9.987391
701476353748803, 0.13758731, 3.6000016, 9.3511505, 0.008038819, -0.0014629364, 10.021122
701476363387449, 0.12562318, 3.5856447, 9.372686, -0.008016169, -0.01883459, 10.035909
701476373026199, 0.14356937, 3.6059837, 9.378669, 0.011642516, -0.0043530464, 10.049031
701476382664949, 0.17467605, 3.6047873, 9.357133, 0.041323364, -0.0022292137, 10.028921
701476392303595, 0.16390835, 3.5940197, 9.32483, 0.03142041, 0.0011672974, 9.994764
701476401942345, 0.15433706, 3.5760734, 9.266206, 0.020260215, 0.005856514, 9.933493
701476411581095, 0.14476576, 3.5796626, 9.238688, 0.013239622, 0.020468473, 9.908971
701476421219741, 0.08853444, 3.583252, 9.232706, -0.04176539, 0.034384966, 9.9039135
701476430858491, 0.078963146, 3.5844483, 9.212367, -0.04772389, 0.044350147, 9.88524
701476440497241, 0.11006984, 3.6179478, 9.242277, -0.012318134, 0.060714483, 9.925598
701476450135886, 0.12083755, 3.629912, 9.274581, -0.0014280081, 0.059837103, 9.960177
701476459774636, 0.13399807, 3.6059837, 9.32124, 0.0050976872, 0.020895243, 9.995306
701476469413386, 0.148355, 3.5928233, 9.378669, 0.01299721, -0.013849497, 10.044374
701476479052032, 0.16031912, 3.562913, 9.436096, 0.015670896, -0.059112787, 10.08743
701476488690782, 0.12083755, 3.5641093, 9.455238, -0.024719298, -0.0563004, 10.105209
701476498329428, 0.13040884, 3.5581272, 9.455238, -0.016217947, -0.06344652, 10.103195
701476507968178, 0.1363909, 3.5533416, 9.410972, -0.008284569, -0.053762436, 10.060232
701476517606928, 0.14356937, 3.5688949, 9.336794, 0.005370915, -0.016028166, 9.996653
701476527245574, 0.19262223, 3.5712879, 9.262616, 0.059482276, 0.0041873455, 9.928934
701476536884324, 0.18664017, 3.574877, 9.21476, 0.056051373, 0.02330637, 9.885479
701476546523074, 0.15194423, 3.5653057, 9.1872425, 0.020667851, 0.027669907, 9.855897
701476556161720, 0.14476576, 3.5712879, 9.177671, 0.014877439, 0.0346663, 9.849025
701476565800470, 0.13399807, 3.5712879, 9.205189, 0.0022776127, 0.026719093, 9.874556
701476575439220, 0.08973085, 3.5808592, 9.281759, -0.042493343, 0.015398979, 9.948849
701476585077866, 0.07178468, 3.6000016, 9.352347, -0.06026101, 0.012707472, 10.021364
701476594716616, 0.09451649, 3.6275191, 9.419347, -0.03741753, 0.011848211, 10.094076
701476604355366, 0.09092726, 3.6251264, 9.471989, -0.044985354, -0.007989883, 10.1423025
701476613994011, 0.096909314, 3.6263227, 9.420543, -0.03535366, 0.010465145, 10.094795
701476623632761, 0.17467605, 3.611966, 9.352347, 0.04323721, 0.008533001, 10.027028
701476633271511, 0.23449662, 3.5844483, 9.255438, 0.100997984, 0.0029923916, 9.927546
701476642910157, 0.2548356, 3.548556, 9.160921, 0.12248075, -8.6927414E-4, 9.826732
701476652548907, 0.23449662, 3.5210385, 9.126225, 0.098413825, -0.012866497, 9.784214
701476662187657, 0.16510476, 3.5377884, 9.164511, 0.028671324, 3.4284592E-4, 9.825001
701476671826303, 0.08853444, 3.583252, 9.24467, -0.043269575, 0.02972126, 9.915074
701476681465053, 0.06819545, 3.62393, 9.341579, -0.06413591, 0.0367136, 10.019838
701476691103699, 0.049052864, 3.6466618, 9.461221, -0.08477306, 0.024079561, 10.139402
701476700742449, 0.04426722, 3.6646078, 9.505488, -0.089873254, 0.027903557, 10.187089
701476710381199, 0.08255238, 3.62393, 9.45165, -0.05670607, 0.0015156269, 10.122755
701476720019845, 0.12083755, 3.5892339, 9.349955, -0.018893242, -0.0035743713, 10.015912
701476729658595, 0.13519448, 3.5449667, 9.254242, -0.004760921, -0.013504267, 9.910897
701476739297345, 0.148355, 3.534199, 9.164511, 0.012644708, 7.8344345E-4, 9.823475
701476748935991, 0.17706887, 3.525824, 9.134601, 0.04182154, -0.0016980171, 9.792955
701476758574741, 0.19860429, 3.5653057, 9.172886, 0.068652034, 0.015477657, 9.843157
701476768213386, 0.20578274, 3.583252, 9.288938, 0.0697422, -0.009740353, 9.957984
701476777852136, 0.18424734, 3.5976088, 9.407382, 0.042107344, -0.03308773, 10.073367
701476787490886, 0.1591227, 3.5964124, 9.479167, 0.009474397, -0.04940343, 10.139605
701476797129532, 0.13280165, 3.5904303, 9.492328, -0.020401776, -0.053834677, 10.149374
701476806768282, 0.096909314, 3.5796626, 9.412168, -0.05134368, -0.029830456, 10.070191
701476816407032, 0.08135597, 3.5736806, 9.322437, -0.062449038, -0.0015823841, 9.984074
701476826045678, 0.101694964, 3.6083765, 9.201599, -0.026658118, 0.065639496, 9.884084
701476835684428, 0.14476576, 3.595216, 9.132208, 0.021032035, 0.06509566, 9.8152485
701476845323178, 0.18185452, 3.6167514, 9.115458, 0.06406671, 0.078565836, 9.807919
701476854961824, 0.17467605, 3.6107693, 9.129815, 0.056305766, 0.06584096, 9.819073
701476864600574, 0.13878371, 3.6203406, 9.190832, 0.017714858, 0.058900118, 9.878955
701476874239220, 0.104087785, 3.6227336, 9.280562, -0.022920072, 0.0398643, 9.96302
701476883877970, 0.059820566, 3.629912, 9.365508, -0.07179284, 0.02570796, 10.044241
701476893516720, 0.038285162, 3.6251264, 9.415757, -0.097476125, 0.009775877, 10.089099
701476903155366, 0.050249275, 3.6107693, 9.420543, -0.08687657, -0.006629944, 10.088569
701476912794116, 0.11246266, 3.6059837, 9.385847, -0.02182585, -0.0093922615, 10.055313
701476922432866, 0.1794617, 3.5844483, 9.329616, 0.04656166, -0.021311998, 9.995978
701476932071511, 0.2428715, 3.5569308, 9.266206, 0.109782636, -0.034871817, 9.927742
701476941710261, 0.25603202, 3.554538, 9.220742, 0.12218547, -0.022460938, 9.884682
701476951348907, 0.2536392, 3.5449667, 9.219545, 0.11633992, -0.02989912, 9.880117
701476960987657, 0.1794617, 3.5389848, 9.286545, 0.03590691, -0.045909166, 9.939475
701476970626407, 0.1052842, 3.583252, 9.3511505, -0.035770357, -0.014636278, 10.014654
701476980265053, 0.08015956, 3.5892339, 9.387043, -0.06165439, -0.01729083, 10.049951
701476989903803, 0.047856454, 3.6047873, 9.383454, -0.09025395, 0.0034050941, 10.051759
701476999542449, 0.03589234, 3.5294135, 9.32124, -0.10831851, -0.042316675, 9.966447
701477009181199, 0.18065812, 4.0833516, 9.333204, 0.12583196, 0.4368539, 10.178822
701477018819949, 0.07298109, 3.0388846, 9.096315, -0.1329456, -0.41980624, 9.5806675
701477028458595, 0.25244278, 4.048656, 9.203992, 0.19809663, 0.4378214, 10.046785
701477038097345, 0.1591227, 3.2949169, 9.159725, -0.0060837865, -0.2244935, 9.733034
701477047735991, 0.101694964, 3.609573, 9.182457, -0.016284406, 0.066135645, 9.866724
701477057374741, 0.19381863, 3.8117664, 9.415757, 0.09051138, 0.1563456, 10.158296
701477067013491, -0.034695927, 3.1429725, 9.317652, -0.22832212, -0.3870113, 9.82325
701477076652136, 0.2440679, 4.197011, 9.702896, 0.18263853, 0.4100418, 10.564999
701477086290886, -0.061016977, 2.8773692, 9.373882, -0.29525274, -0.63835454, 9.78049
701477095929532, 0.23808585, 4.3058844, 9.601201, 0.19127697, 0.5421293, 10.509515
701477105568282, -0.009571291, 2.9120653, 9.230313, -0.23729068, -0.5594299, 9.659692
701477115207032, 0.2632105, 4.1228333, 9.269794, 0.22204387, 0.48347092, 10.134747
701477124845678, 0.20937198, 3.2973096, 9.119047, 0.039116263, -0.2228322, 9.69649
701477134484428, 0.17706887, 3.6454654, 9.050852, 0.06709272, 0.13052583, 9.757929
701477144123074, 0.2644069, 3.7507496, 9.169296, 0.16269988, 0.1663661, 9.907568
701477153761824, 0.039481573, 3.150151, 9.019745, -0.14270723, -0.29248238, 9.548555
701477163400574, 0.2739782, 4.186243, 9.431311, 0.22367865, 0.4716115, 10.309069
701477173039220, -0.10887343, 2.9012976, 9.230313, -0.34243625, -0.5618067, 9.653765
701477182677970, 0.1698904, 4.3728833, 9.619147, 0.14538544, 0.6114428, 10.549122
701477192316616, -0.07537391, 2.952743, 9.355937, -0.2975731, -0.5625987, 9.790448
701477201955366, 0.17467605, 4.1467614, 9.510274, 0.11832857, 0.44233704, 10.366379
701477211594011, 0.09810573, 3.2243285, 9.30808, -0.09054184, -0.33033442, 9.845251
701477221232761, 0.16151553, 3.6323047, 9.223135, 0.043219447, 0.06794882, 9.913601
701477230871511, 0.29790643, 3.6610186, 9.24826, 0.18143618, 0.05875492, 9.949158
701477240510157, 0.078963146, 3.1465619, 8.999406, -0.10235679, -0.2867353, 9.5290985
701477250148907, 0.33020952, 4.1180477, 9.342776, 0.28053945, 0.44296265, 10.201957
701477259787553, -0.029910283, 2.8785655, 9.139386, -0.261814, -0.55896163, 9.562136
701477269426303, 0.28594232, 4.3740797, 9.547362, 0.27142578, 0.6035867, 10.484679
701477279064949, -0.010767702, 2.9168508, 9.29133, -0.24050024, -0.576957, 9.718346
701477288703699, 0.20458634, 4.193422, 9.491131, 0.15321892, 0.48131657, 10.365957
701477298342449, 0.061016977, 3.2219357, 9.340384, -0.12265372, -0.32511926, 9.874544
701477307981095, 0.104087785, 3.7734814, 9.273384, -7.7581406E-4, 0.19172597, 10.010441
701477317619845, 0.12801601, 3.6789649, 9.326026, 0.007417321, 0.08645582, 10.025888
701477327258491, -0.046660043, 3.2135608, 9.097511, -0.2100431, -0.24329042, 9.643162
701477336897241, 0.24047868, 4.0773697, 9.425328, 0.16716826, 0.4001794, 10.263115
701477346535886, -0.013160525, 2.8606195, 9.174082, -0.22720665, -0.59854436, 9.58839
701477356174636, 0.36610186, 4.287938, 9.51147, 0.31165224, 0.5393081, 10.421158
701477365813282, 0.10767702, 2.853441, 9.194421, -0.116834104, -0.62584925, 9.606547
701477375452032, 0.3385844, 4.2245283, 9.352347, 0.31348592, 0.5251529, 10.249567
701477385090782, 0.13998012, 3.1956146, 9.201599, -0.05095762, -0.31502032, 9.7364855
701477394729428, 0.10049855, 3.8488553, 9.213564, 0.024505496, 0.2779107, 9.9817705
701477404368178, 0.08733802, 3.6753755, 9.280562, -0.0264104, 0.10431337, 9.9816475
701477414006824, -0.106480606, 3.290131, 9.097511, -0.27530074, -0.14221239, 9.669799
701477423645574, 0.13040884, 4.065406, 9.401401, 0.079169095, 0.40460443, 10.235278
701477433284220, -0.12921242, 2.8869405, 9.172886, -0.36949956, -0.5364115, 9.595243
701477442922970, 0.2440679, 4.273581, 9.561719, 0.2137543, 0.51736045, 10.461176
701477452561616, 0.0071784677, 2.812763, 9.29133, -0.2345191, -0.67477727, 9.681436
701477462200366, 0.30029923, 4.1922255, 9.54497, 0.25569957, 0.4586668, 10.416122
701477471839011, 0.16869399, 3.0735807, 9.381062, -0.03987342, -0.4900911, 9.8609295
701477481477761, 0.25004998, 3.8440695, 9.408579, 0.15611643, 0.1924212, 10.163629
701477491116407, 0.276371, 3.6047873, 9.363115, 0.14229745, -0.019479752, 10.035844
701477500755157, 0.078963146, 3.3379877, 9.111869, -0.07372296, -0.145257, 9.702991
701477510393907, 0.25004998, 4.054638, 9.298509, 0.19034857, 0.4162681, 10.136831
701477520032553, -0.08853444, 2.9539394, 9.02453, -0.3018952, -0.43684554, 9.481233
701477529671303, 0.19142582, 4.322634, 9.399008, 0.17542672, 0.6253557, 10.32673
701477539309949, -0.101694964, 2.8354948, 9.142975, -0.35238394, -0.5914748, 9.548317
701477548948699, 0.20697916, 4.258028, 9.410972, 0.19247472, 0.56564, 10.314217
701477558587345, 0.086141616, 3.117848, 9.249456, -0.117357075, -0.40720773, 9.751988
701477568226095, 0.18065812, 3.940979, 9.309277, 0.10749149, 0.31016755, 10.105388
701477577864741, 0.20817557, 3.5676985, 9.305687, 0.07384205, -0.029947758, 9.968013
701477587503491, 0.05742774, 3.4025939, 9.107083, -0.08917028, -0.08612323, 9.721346
701477597142136, 0.25244278, 4.024728, 9.317652, 0.19712299, 0.3708663, 10.14418
701477606780886, -0.062213387, 2.9766715, 9.090333, -0.28058955, -0.44384146, 9.551067
701477616419532, 0.2428715, 4.261617, 9.504292, 0.21747905, 0.52012753, 10.4035635
701477626058282, -0.0634098, 2.7960134, 9.272188, -0.30501765, -0.6784971, 9.656178
701477635696928, 0.25603202, 4.2185464, 9.562916, 0.21429878, 0.4629445, 10.4427395
701477645335678, 0.08015956, 2.9862428, 9.348758, -0.14882249, -0.54567885, 9.798136
701477654974324, 0.20697916, 3.8967116, 9.416953, 0.11719245, 0.23693347, 10.190011
701477664613074, 0.19142582, 3.4624143, 9.379865, 0.0388996, -0.13811898, 9.999313
701477674251720, 0.10049855, 3.438486, 9.174082, -0.04146248, -0.078305006, 9.797409
701477683890470, 0.3385844, 3.9744785, 9.318848, 0.26368237, 0.32422853, 10.128052
701477693529116, 0.05623133, 2.9874392, 9.053245, -0.14384505, -0.44411945, 9.522147
701477703167866, 0.28594232, 4.29392, 9.426525, 0.26284188, 0.5763302, 10.3429985
701477712806511, -0.09092726, 2.853441, 9.132208, -0.3312088, -0.56188226, 9.545795
701477722445261, 0.18065812, 4.2975097, 9.407382, 0.16311097, 0.61539435, 10.324472
701477732083907, -0.08135597, 2.993421, 9.219545, -0.30396962, -0.4748633, 9.677258
701477741722657, 0.0526421, 3.9804604, 9.376275, -0.014344752, 0.349164, 10.180336
701477751361303, 0.08733802, 3.4444683, 9.372686, -0.06641644, -0.1390307, 9.984764
701477761000053, 0.08135597, 3.4887354, 9.255438, -0.056007266, -0.058404922, 9.891131
701477770638699, 0.3062813, 3.9158542, 9.424132, 0.2232163, 0.23338008, 10.204788
701477780277449, 0.10289137, 3.0532417, 9.165708, -0.1008625, -0.43360114, 9.65116
701477789916095, 0.41874397, 4.24726, 9.474381, 0.3716601, 0.5103216, 10.372074
701477799554845, 0.07178468, 2.8115666, 9.135797, -0.16097155, -0.6350541, 9.536438
701477809193491, 0.3385844, 4.274778, 9.357133, 0.30388355, 0.5900321, 10.271506
701477818832241, 0.06460621, 2.9647074, 9.086744, -0.14865643, -0.4852264, 9.544896
701477828470886, 0.15314065, 4.0103707, 9.2590275, 0.07757616, 0.4131019, 10.082631
701477838109636, 0.043070808, 3.394219, 9.256635, -0.113526106, -0.1388793, 9.857773
701477847748282, -0.011964113, 3.574877, 9.245867, -0.14162302, 0.043725252, 9.911812
701477857387032, 0.15672988, 3.9278183, 9.449257, 0.0570395, 0.26995277, 10.230576
701477867025678, -0.05383851, 3.0604203, 9.219545, -0.25637326, -0.4159224, 9.702082
701477876664428, 0.2644069, 4.2077785, 9.536594, 0.1984564, 0.48112345, 10.413986
701477886303074, -0.019142581, 2.78046, 9.190832, -0.26316974, -0.658803, 9.575983
701477895941824, 0.29192436, 4.253242, 9.428918, 0.2367894, 0.5712569, 10.329442
701477905580470, 0.06580263, 2.8809586, 9.12503, -0.16381443, -0.5529742, 9.551847
701477915219220, 0.25244278, 4.034299, 9.272188, 0.19422442, 0.42388916, 10.104225
701477924857866, 0.16390835, 3.324827, 9.284152, -0.01139456, -0.22140288, 9.86041
701477934496511, 0.10767702, 3.566502, 9.298509, -0.029644012, 0.0062868595, 9.959562
701477944135261, 0.2416751, 3.7974095, 9.49472, 0.12616134, 0.13405633, 10.227148
701477953773907, -0.0059820567, 3.0616167, 9.263813, -0.22462678, -0.4160161, 9.745165
701477963412657, 0.2727818, 4.193422, 9.552148, 0.21317405, 0.4818523, 10.422338
701477973051303, -0.069391854, 2.82712, 9.217153, -0.32612342, -0.5932877, 9.617432
701477982690053, 0.25004998, 4.3034916, 9.432507, 0.21375144, 0.62950087, 10.349531
701477992328699, 0.041874398, 2.906083, 9.114262, -0.16241527, -0.5185473, 9.550999
701478001967449, 0.26679972, 4.0845485, 9.26142, 0.20225203, 0.48629832, 10.111936
701478011606095, 0.1902294, 3.269792, 9.227921, 0.016799092, -0.24918962, 9.788763
701478021244845, 0.20219351, 3.6191442, 9.233903, 0.0720225, 0.07707691, 9.919321
701478030883491, 0.32063824, 3.7938204, 9.393025, 0.20002162, 0.16756916, 10.131966
701478040522241, 0.0035892338, 3.1441689, 9.193225, -0.18740958, -0.31651354, 9.709063
701478050160886, 0.1902294, 4.1587257, 9.529416, 0.111928165, 0.47333145, 10.387705
701478059799532, -0.16749759, 2.8223343, 9.256635, -0.405545, -0.6036396, 9.651428
701478069438282, 0.14476576, 4.298706, 9.564112, 0.122559726, 0.59780264, 10.4689865
701478079076928, -0.062213387, 2.8606195, 9.260223, -0.3041241, -0.5782461, 9.670155
701478088715678, 0.18544376, 4.074977, 9.425328, 0.12890685, 0.42312217, 10.2606535
701478098354324, 0.13280165, 3.176472, 9.29492, -0.053354025, -0.3388331, 9.817612
701478107993074, 0.24526432, 3.621537, 9.21476, 0.12632227, 0.07388997, 9.902831
701478117631720, 0.37088752, 3.6981075, 9.2793665, 0.25170583, 0.10274935, 9.99231
701478127270470, 0.1363909, 3.158526, 9.010174, -0.04691547, -0.25453472, 9.545214
701478136909116, 0.29910284, 4.17069, 9.381062, 0.244331, 0.5185101, 10.254749
701478146547866, -0.1052842, 2.9036903, 9.1681, -0.34255558, -0.50202584, 9.59829
701478156186511, 0.15672988, 4.345366, 9.548559, 0.1116513, 0.6464734, 10.471453
701478165825157, -0.101694964, 2.8701909, 9.2997055, -0.34248394, -0.5826647, 9.709587
701478175463907, 0.1363909, 4.126423, 9.424132, 0.08213663, 0.50315905, 10.276202
701478185102553, 0.11246266, 3.1441689, 9.280562, -0.0913493, -0.35365963, 9.792541
701478194741303, 0.18903299, 3.6514473, 9.260223, 0.064560235, 0.116379976, 9.95504
701478204379949, 0.27038896, 3.5940197, 9.339187, 0.1320849, 0.020210028, 10.009626
701478214018699, 0.06699903, 3.1800613, 9.194421, -0.124115765, -0.27509975, 9.7243805
701478223657345, 0.31106696, 4.066602, 9.529416, 0.22955889, 0.39192843, 10.355555
701478233296095, 0.06580263, 2.8510482, 9.346365, -0.1846779, -0.624146, 9.750062
701478242934741, 0.43788654, 4.304688, 9.676575, 0.3791976, 0.53079295, 10.579822
701478252573491, 0.12203395, 2.8474588, 9.315259, -0.13334155, -0.63540244, 9.719847
701478262212136, 0.2955136, 4.180261, 9.442079, 0.24034077, 0.52431846, 10.31417
701478271850782, 0.12083755, 3.1453655, 9.2075815, -0.081142426, -0.3161342, 9.725275
701478281489532, 0.09451649, 3.778267, 9.196814, -0.0064468384, 0.26274395, 9.939646
701478291128178, 0.11246266, 3.6346977, 9.257831, -0.016896188, 0.10287666, 9.945866
701478300766928, -0.078963146, 3.2279177, 9.069994, -0.25831527, -0.17201495, 9.622585
701478310405574, 0.17228323, 4.007978, 9.38465, 0.10420126, 0.38943672, 10.198173
701478320044324, -0.09332009, 2.8558338, 9.18485, -0.33637017, -0.5574329, 9.596984
701478329682970, 0.26919255, 4.2592244, 9.567701, 0.24050933, 0.53779984, 10.459795
701478339321616, -0.0035892338, 2.8163524, 9.269794, -0.2658201, -0.6265774, 9.664248
701478348960366, 0.28115666, 4.214957, 9.449257, 0.2577324, 0.53537893, 10.333457
701478358599011, 0.11724831, 3.1513474, 9.247063, -0.0882287, -0.34372973, 9.763555
701478368237761, 0.17826529, 3.8835511, 9.285348, 0.09852952, 0.3026197, 10.061321
701478377876407, 0.14237295, 3.5904303, 9.327223, 0.002302587, 0.0294137, 9.995383
701478387515157, -0.03589234, 3.269792, 9.1669035, -0.21700972, -0.1734643, 9.728708
701478397153803, 0.19621146, 3.9649072, 9.428918, 0.11234784, 0.33195496, 10.224512
701478406792553, -0.0849452, 2.8235307, 9.171689, -0.34360301, -0.5707116, 9.573696
701478416431199, 0.2656033, 4.1874394, 9.493524, 0.21956497, 0.49193168, 10.365422
701478426069845, 0.032303106, 2.7649066, 9.2075815, -0.21844468, -0.6732383, 9.58772
701478435708595, 0.34456646, 4.2317066, 9.446864, 0.31495762, 0.53339195, 10.338551
701478445347241, 0.17228323, 3.12383, 9.263813, -0.029620051, -0.38476348, 9.770225
701478454985991, 0.2739782, 3.9493537, 9.367901, 0.20269573, 0.3189869, 10.16303
701478464624636, 0.28594232, 3.6143587, 9.42174, 0.1534071, 0.0021548271, 10.094107
701478474263386, 0.13399807, 3.4037902, 9.255438, -0.028789222, -0.11162448, 9.861722
701478483902032, 0.3481557, 3.9780676, 9.42174, 0.25769317, 0.32423925, 10.22467
701478493540782, 0.041874398, 2.8606195, 9.081959, -0.18578732, -0.53628445, 9.504986
701478503179428, 0.29192436, 4.1778684, 9.394221, 0.22478145, 0.5242541, 10.269657
701478512818074, -0.106480606, 2.7194428, 9.083155, -0.34710348, -0.6448338, 9.453789
701478522456824, 0.11365908, 4.1922255, 9.382257, 0.05135262, 0.5674193, 10.261083
701478532095470, -0.10767702, 3.0436704, 9.270991, -0.300091, -0.41363764, 9.745032
701478541734220, 0.039481573, 3.9864426, 9.454042, -0.03170806, 0.37486982, 10.2533245
701478551372866, 0.058624156, 3.5377884, 9.521041, -0.07973856, -0.06602597, 10.156716
701478561011511, 0.011964113, 3.434897, 9.378669, -0.1327039, -0.107129335, 9.98644
701478570650261, 0.30867413, 3.9649072, 9.530613, 0.22727567, 0.2830515, 10.320687
701478580288907, 0.12562318, 2.9455647, 9.175279, -0.08614248, -0.5089724, 9.623483
701478589927657, 0.47377887, 4.193422, 9.439685, 0.4259857, 0.4913714, 10.319593
701478599566303, 0.12203395, 2.7230322, 9.060423, -0.12955499, -0.6654608, 9.437237
701478609205053, 0.36011982, 4.211368, 9.300901, 0.32933265, 0.57798123, 10.194586
701478618843699, 0.07776674, 2.9910283, 9.115458, -0.12991291, -0.44216704, 9.582875
701478628482449, 0.124426775, 3.9828532, 9.347562, 0.061581314, 0.3810115, 10.15414
701478638121095, 0.0047856453, 3.455236, 9.46481, -0.15265101, -0.118088484, 10.07393
701478647759845, -0.06580263, 3.5114672, 9.395418, -0.20546812, -0.026070118, 10.028246
701478657398491, 0.15074782, 3.9433718, 9.564112, 0.06457752, 0.27407837, 10.342429
701478667037136, -0.076570325, 3.0005996, 9.253045, -0.28959054, -0.45007825, 9.712975
701478676675886, 0.27038896, 4.214957, 9.513863, 0.2356928, 0.5114775, 10.394009
701478686314532, -0.0035892338, 2.7613173, 9.092726, -0.2358109, -0.6247108, 9.479277
701478695953282, 0.3361916, 4.2185464, 9.284152, 0.30429113, 0.5827725, 10.181967
701478705591928, 0.10049855, 2.8869405, 9.062816, -0.11347991, -0.51776814, 9.497273
701478715230678, 0.24765715, 3.940979, 9.273384, 0.17189497, 0.34630036, 10.071686
701478724869324, 0.18305093, 3.3427732, 9.406186, 0.0050768256, -0.23229957, 9.9814825
701478734508074, 0.0741775, 3.5234313, 9.412168, -0.07224089, -0.043509245, 10.049968
701478744146720, 0.20338993, 3.8835511, 9.632308, 0.09358728, 0.19231915, 10.385516
701478753785366, -0.0526421, 3.071188, 9.348758, -0.25811252, -0.4231217, 9.82795
701478763424116, 0.2321038, 4.2460637, 9.585648, 0.18255502, 0.53691983, 10.471197
701478773062761, -0.06819545, 2.8091738, 9.180064, -0.31910303, -0.6025083, 9.576265
701478782701511, 0.27038896, 4.2520456, 9.372686, 0.2407375, 0.59359217, 10.275698
701478792340157, 0.0741775, 2.87378, 9.084352, -0.15751737, -0.52992225, 9.512302
701478801978907, 0.2548356, 3.9756749, 9.239884, 0.18829793, 0.3834784, 10.053053
701478811617553, 0.19262223, 3.2913275, 9.247063, 0.011277795, -0.23603463, 9.814392
701478821256199, 0.11485548, 3.5808592, 9.254242, -0.014004827, 0.04678154, 9.923425
701478830894949, 0.2536392, 3.9050865, 9.426525, 0.16133785, 0.26068354, 10.201933
701478840533595, 0.0059820567, 3.1752756, 9.194421, -0.18869972, -0.28562808, 9.721243
701478850172345, 0.31226337, 4.278367, 9.527023, 0.26545572, 0.56536174, 10.429574
701478859810991, -0.0035892338, 2.8498518, 9.203992, -0.24858251, -0.58182406, 9.614304
701478869449741, 0.24526432, 4.278367, 9.475577, 0.20175683, 0.58393025, 10.381207
701478879088386, -0.06580263, 2.8307092, 9.176475, -0.31748024, -0.5880461, 9.580102
701478888727136, 0.069391854, 4.0007997, 9.376275, -0.0034794211, 0.39203644, 10.186857
701478898365782, -0.0035892338, 3.2685957, 9.3511505, -0.18690348, -0.25188828, 9.900977
701478908004532, 0.0634098, 3.609573, 9.345169, -0.061718583, 0.05073142, 10.017926
701478917643178, 0.30508488, 3.778267, 9.438489, 0.19678718, 0.12677264, 10.168513
701478927281824, 0.16510476, 3.1106694, 9.1669035, -0.047298014, -0.36433387, 9.674745
701478936920574, 0.4833502, 4.1790648, 9.445667, 0.43676966, 0.45400405, 10.320947
701478946559220, 0.11365908, 2.8558338, 9.114262, -0.15034801, -0.56852865, 9.533764
701478956197970, 0.3361916, 4.331009, 9.439685, 0.2994721, 0.63016295, 10.367813
701478965836616, -0.04426722, 2.894119, 9.192028, -0.30271456, -0.530668, 9.617588
701478975475366, 0.11844472, 4.145565, 9.41456, 0.07702249, 0.5142479, 10.274401
701478985114011, -0.0047856453, 3.2398818, 9.347562, -0.20677245, -0.26775932, 9.887332
701478994752761, 0.02871387, 3.6466618, 9.349955, -0.09782362, 0.09444833, 10.035046
701479004391407, 0.19381863, 3.694518, 9.420543, 0.066244185, 0.08157158, 10.120406
701479014030157, 0.062213387, 3.138187, 9.199206, -0.14277065, -0.32680178, 9.713409
701479023668803, 0.38524446, 4.1024942, 9.4839525, 0.31192374, 0.40147424, 10.327912
701479033307553, 0.07776674, 2.812763, 9.18485, -0.18776053, -0.62473226, 9.584029
701479042946199, 0.36490545, 4.2891345, 9.462418, 0.32557523, 0.59304976, 10.373499
701479052584845, 0.041874398, 2.8953154, 9.140582, -0.18615004, -0.5225079, 9.572208
701479062223595, 0.23808585, 4.1778684, 9.329616, 0.18483311, 0.56162477, 10.208007
701479071862241, 0.08015956, 3.1944182, 9.242277, -0.11874783, -0.29561496, 9.7738905
701479081500991, 0.07178468, 3.7196429, 9.315259, -0.045149863, 0.17030907, 10.029152
701479091139636, 0.12203395, 3.6753755, 9.450453, -0.014022827, 0.07340813, 10.140451
701479100778386, -0.041874398, 3.196811, 9.296116, -0.23544794, -0.28763247, 9.82349
701479110417032, 0.25722843, 4.1036906, 9.616755, 0.18653584, 0.38003874, 10.450319
701479120055782, -0.015553347, 2.8677979, 9.323633, -0.2826705, -0.59754467, 9.732302
701479129694428, 0.33499518, 4.2951164, 9.60479, 0.30122185, 0.5404968, 10.508538
701479139333178, 0.0634098, 2.8199415, 9.199206, -0.21940267, -0.61126566, 9.599986
701479148971824, 0.31345975, 4.132405, 9.30808, 0.2651909, 0.50901365, 10.172804
701479158610574, 0.15074782, 3.0963125, 9.136993, -0.060946584, -0.3497827, 9.642017
701479168249220, 0.16031912, 3.7423747, 9.164511, 0.043551385, 0.22406292, 9.8978405
701479177887970, 0.22492532, 3.6203406, 9.251849, 0.08491331, 0.07143974, 9.936894
701479187526616, 0.078963146, 3.2745779, 9.141779, -0.10151303, -0.18495488, 9.70859
701479197165366, 0.28953153, 4.1001015, 9.497113, 0.20050281, 0.42786098, 10.337628
701479206804011, -0.07178468, 2.9132617, 9.290133, -0.30690598, -0.54659915, 9.716269
701479216442761, 0.21894327, 4.319045, 9.646665, 0.14587379, 0.5849018, 10.554469
701479226081407, -0.09332009, 2.8426733, 9.318848, -0.32891178, -0.61133265, 9.718463
701479235720053, 0.20338993, 4.180261, 9.498309, 0.1182183, 0.5133221, 10.366116
701479245358803, 0.11724831, 3.0364919, 9.275777, -0.10271901, -0.44425297, 9.750188
701479254997449, 0.28235307, 3.749553, 9.312865, 0.16166657, 0.16475987, 10.04067
701479264636199, 0.36610186, 3.5198421, 9.3511505, 0.20939386, -0.07401967, 9.995899
701479274274845, 0.20219351, 3.2626138, 9.171689, 0.022931516, -0.22164154, 9.734257
701479283913595, 0.3469593, 4.004389, 9.471989, 0.25394255, 0.3336358, 10.280968
701479293552241, -0.05742774, 2.914458, 9.241081, -0.28977504, -0.52723837, 9.6712475
701479303190991, 0.20338993, 4.338187, 9.611969, 0.14792019, 0.62746143, 10.527849
701479312829636, -0.14117654, 2.8510482, 9.267402, -0.38590747, -0.5819771, 9.671895
701479322468386, 0.13280165, 4.24726, 9.434899, 0.065345645, 0.605422, 10.329733
701479332107032, 0.011964113, 3.0819557, 9.189635, -0.18765283, -0.35998154, 9.684174
701479341745782, 0.14476576, 3.8823547, 9.233903, 0.052063346, 0.3309741, 10.012311
701479351384428, 0.2428715, 3.5006995, 9.274581, 0.09527022, -0.04578924, 9.915673
701479361023178, 0.09810573, 3.3080773, 9.178867, -0.07025415, -0.17054534, 9.755543
701479370661824, 0.3385844, 3.932604, 9.454042, 0.23874867, 0.2750802, 10.238469
701479380300574, 0.049052864, 2.8989046, 9.24826, -0.19389421, -0.5591972, 9.673989
701479389939220, 0.36011982, 4.2484565, 9.611969, 0.3019833, 0.5122926, 10.498351
701479399577970, 0.0, 2.7912276, 9.270991, -0.28136867, -0.64852524, 9.656215
701479409216616, 0.276371, 4.2687955, 9.473185, 0.2403329, 0.59324884, 10.374512
701479418855366, 0.1052842, 3.062813, 9.236296, -0.11677718, -0.400347, 9.722507
701479428494011, 0.18903299, 3.9493537, 9.329616, 0.11147684, 0.36076188, 10.125823
701479438132761, 0.1363909, 3.4947174, 9.345169, -0.020273626, -0.052167892, 9.978011
701479447771407, 0.050249275, 3.4169507, 9.247063, -0.114288986, -0.07682395, 9.857346
701479457410157, 0.2632105, 3.9050865, 9.480363, 0.16030568, 0.2509067, 10.2522
701479467048803, 0.01794617, 2.87378, 9.238688, -0.24514568, -0.56036234, 9.6559925
701479476687553, 0.34097722, 4.1694937, 9.592826, 0.27914512, 0.4448874, 10.452149
701479486326303, 0.05383851, 2.737389, 9.23151, -0.22543478, -0.688189, 9.601695
701479495964949, 0.33738798, 4.240082, 9.413364, 0.30170816, 0.5743451, 10.309348
701479505603699, 0.09451649, 3.0041888, 9.157332, -0.13871711, -0.43483543, 9.627175
701479515242345, 0.20458634, 4.034299, 9.284152, 0.15155631, 0.4493978, 10.11375
701479524881095, 0.10289137, 3.5210385, 9.30808, -0.050386906, -0.014821768, 9.952179
701479534519741, -0.05742774, 3.522235, 9.220742, -0.20085675, 0.04624796, 9.868588
701479544158491, 0.14356937, 3.9314077, 9.433703, 0.048683465, 0.31354833, 10.216194
701479553797136, -0.09571291, 2.9862428, 9.193225, -0.31689477, -0.43482423, 9.651566
701479563435886, 0.22851457, 4.186243, 9.580862, 0.15221262, 0.48291206, 10.445736
701479573074532, -0.032303106, 2.737389, 9.293723, -0.29978666, -0.7084327, 9.657943
701479582713282, 0.34217364, 4.2161536, 9.543773, 0.28037935, 0.50296783, 10.423293
701479592351928, 0.19501504, 2.8881369, 9.286545, -0.03179133, -0.5960176, 9.708916
701479601990678, 0.3589234, 3.9613178, 9.409775, 0.2697798, 0.32221627, 10.20726
701479611629324, 0.26081768, 3.3786657, 9.357133, 0.07840818, -0.18380809, 9.949845
701479621268074, 0.16390835, 3.5569308, 9.254242, 0.018636703, 0.032954454, 9.915553
701479630906720, 0.2943172, 3.9146578, 9.400204, 0.1873405, 0.29138732, 10.181111
701479640545470, -0.01794617, 3.0903304, 9.12144, -0.23381549, -0.31303573, 9.622811
701479650184116, 0.23928227, 4.23051, 9.450453, 0.17624861, 0.57484746, 10.339439
701479659822866, -0.10049855, 2.7900312, 9.142975, -0.3569885, -0.59853363, 9.53429
701479669461616, 0.20937198, 4.260421, 9.445667, 0.17088974, 0.5927248, 10.345778
701479679100261, -0.0035892338, 2.8785655, 9.238688, -0.26473588, -0.5603008, 9.656888
701479688739011, 0.2105684, 4.001996, 9.480363, 0.12645149, 0.34375238, 10.286079
701479698377657, 0.14356937, 3.2829528, 9.46481, -0.0651297, -0.29151344, 10.014581
701479708016407, 0.13040884, 3.5234313, 9.404989, -0.03048265, -0.047617912, 10.044014
701479717655053, 0.28594232, 3.790231, 9.51147, 0.15941715, 0.13566637, 10.240693
701479727293803, 0.038285162, 3.0819557, 9.201599, -0.18056703, -0.36679435, 9.695474
701479736932449, 0.30987054, 4.2006, 9.433703, 0.25406593, 0.5362272, 10.314249
701479746571199, -0.0011964113, 2.8295128, 9.072387, -0.26216212, -0.5501423, 9.483828
701479756209949, 0.34456646, 4.3094735, 9.348758, 0.2996813, 0.65176535, 10.274967
701479765848595, 0.047856454, 2.92044, 9.069994, -0.18235892, -0.484802, 9.514608
701479775487345, 0.2009971, 4.1084766, 9.304491, 0.12881309, 0.50338435, 10.159899
701479785125991, 0.08135597, 3.31047, 9.337991, -0.1045444, -0.21572566, 9.90487
701479794764741, 0.0849452, 3.635894, 9.378669, -0.056791723, 0.07041669, 10.058737
701479804403386, 0.24765715, 3.7794633, 9.518648, 0.1172868, 0.12588692, 10.243082
701479814042136, 0.03708875, 3.12383, 9.249456, -0.18027765, -0.34402323, 9.755065
701479823680782, 0.3361916, 4.165904, 9.524631, 0.2570061, 0.47600913, 10.387192
701479833319532, -0.008374879, 2.7972097, 9.188439, -0.27414617, -0.61761594, 9.580985
701479842958282, 0.30149564, 4.261617, 9.466006, 0.24247372, 0.57981825, 10.366417
701479852596928, 0.078963146, 2.8378878, 9.12503, -0.17729908, -0.5625062, 9.538248
701479862235678, 0.3062813, 4.058227, 9.35833, 0.22734374, 0.43964148, 10.192958
701479871874324, 0.20697916, 3.1884363, 9.333204, -0.011914432, -0.34316063, 9.858995
701479881513074, 0.18305093, 3.65384, 9.419347, 0.039544642, 0.06601119, 10.104563
701479891151720, 0.22612174, 3.7387853, 9.552148, 0.08552694, 0.09038639, 10.259517
701479900790470, -0.050249275, 3.178865, 9.292527, -0.25789315, -0.28582764, 9.813794
701479910429220, 0.20697916, 4.156333, 9.560523, 0.13051373, 0.47336245, 10.415396
701479920067866, -0.1268196, 2.8558338, 9.211171, -0.3805486, -0.5498903, 9.621347
701479929706616, 0.22612174, 4.2963133, 9.468399, 0.17841375, 0.6347511, 10.37908
701479939345261, -0.0011964113, 2.8199415, 9.126225, -0.26444992, -0.5751164, 9.53097
701479948984011, 0.26081768, 4.1072803, 9.302098, 0.19661659, 0.4979005, 10.157768
701479958622657, 0.17826529, 3.1357942, 9.189635, -0.030274212, -0.3420415, 9.705487
701479968261407, 0.20578274, 3.6813576, 9.268599, 0.075448334, 0.12714195, 9.973956
701479977900157, 0.30029923, 3.65384, 9.370294, 0.15580201, 0.05611825, 10.0606
701479987538803, 0.16151553, 3.5318062, 9.302098, 0.003274858, -0.00737834, 9.951317
701479997177553, 0.1471586, 3.591627, 9.44806, -0.012515426, -1.4519691E-4, 10.108766
701480006816199, 0.11365908, 3.5772698, 9.424132, -0.046551347, 0.0040555, 10.080769
701480016454949, 0.07776674, 3.5784662, 9.357133, -0.07631081, 0.036401987, 10.017997
701480026093699, 0.07537391, 3.5808592, 9.284152, -0.07149345, 0.064481735, 9.9506
701480035732345, 0.06460621, 3.5533416, 9.24467, -0.0805549, 0.052025557, 9.903794
701480045371095, 0.10767702, 3.5557344, 9.247063, -0.03927797, 0.04347849, 9.907551
701480055009741, 0.1794617, 3.546163, 9.265009, 0.031300426, 0.013834715, 9.92203
701480064648491, 0.26799613, 3.5509489, 9.341579, 0.11545956, -0.021378756, 9.996619
701480074287241, 0.29312077, 3.5521452, 9.438489, 0.13344705, -0.05753112, 10.087994
701480083925886, 0.29312077, 3.5353954, 9.515059, 0.12318045, -0.09589338, 10.153667
701480093564636, 0.24526432, 3.5162528, 9.5353985, 0.06739575, -0.11002183, 10.165203
701480103203282, 0.19860429, 3.522235, 9.469596, 0.02408588, -0.071460724, 10.105104
701480112842032, 0.12921242, 3.501896, 9.38465, -0.04353887, -0.049176693, 10.017352
701480122480782, 0.043070808, 3.5186458, 9.267402, -0.11443287, 0.014832258, 9.912322
701480132119428, 0.021535404, 3.5437703, 9.18485, -0.12554234, 0.07037473, 9.843756
701480141758178, 0.04426722, 3.5880375, 9.1669035, -0.08660948, 0.10610509, 9.843239
701480151396928, 0.059820566, 3.621537, 9.203992, -0.06935257, 0.12103391, 9.890052
701480161035574, 0.09930214, 3.635894, 9.276974, -0.03184545, 0.10099387, 9.963967
701480170674324, 0.17826529, 3.6083765, 9.35833, 0.03306365, 0.03733611, 10.031352
701480180312970, 0.23449662, 3.5892339, 9.378669, 0.08397448, 0.0029933453, 10.044401
701480189951720, 0.23688944, 3.5593238, 9.348758, 0.08065903, -0.01139617, 10.005876
701480199590470, 0.19860429, 3.5377884, 9.329616, 0.03749448, -0.015249491, 9.979755
701480209229116, 0.15792629, 3.5234313, 9.30808, -0.0031721592, -0.014155626, 9.953877
701480218867866, 0.13758731, 3.5306098, 9.2997055, -0.01931554, -0.001562357, 9.948281
701480228506616, 0.12562318, 3.5198421, 9.3308115, -0.030901253, -0.02088666, 9.97335
701480238145261, 0.15553348, 3.5246277, 9.397811, -0.0020394921, -0.045324802, 10.038127
701480247784011, 0.1591227, 3.5102708, 9.467203, -0.0047136545, -0.082110405, 10.097944
701480257422657, 0.17347965, 3.5210385, 9.458828, 0.011716843, -0.06944704, 10.094171
701480267061407, 0.18185452, 3.5365918, 9.439685, 0.02278632, -0.046401262, 10.081942
701480276700157, 0.20219351, 3.554538, 9.393025, 0.04605621, -0.015172482, 10.04501
701480286338803, 0.17706887, 3.5688949, 9.335598, 0.024972856, 0.024413347, 9.996027
701480295977553, 0.16749759, 3.574877, 9.270991, 0.019498408, 0.053655863, 9.937595
701480305616303, 0.16031912, 3.566502, 9.2075815, 0.01519537, 0.067323446, 9.875244
701480315254949, 0.15433706, 3.5653057, 9.178867, 0.011718214, 0.074714184, 9.8479
701480324893699, 0.14476576, 3.583252, 9.215957, 0.004257858, 0.07829547, 9.888803
701480334532345, 0.11365908, 3.5688949, 9.284152, -0.03438276, 0.047204018, 9.94696
701480344171095, 0.08733802, 3.5688949, 9.37149, -0.066028476, 0.023664713, 10.028187
701480353809845, 0.10049855, 3.5569308, 9.468399, -0.0617882, -0.017273426, 10.114759
701480363448491, 0.13280165, 3.5365918, 9.524631, -0.038373232, -0.06120205, 10.160634
701480373087241, 0.18305093, 3.5162528, 9.495916, 0.009562552, -0.07679057, 10.127387
701480382725991, 0.20937198, 3.493521, 9.42174, 0.037237227, -0.07537365, 10.0504055
701480392364636, 0.21535404, 3.4743786, 9.315259, 0.047441542, -0.057410717, 9.944154
701480402003386, 0.24885355, 3.501896, 9.257831, 0.08929461, -0.019644022, 9.900722
701480411642136, 0.21655045, 3.5330026, 9.243474, 0.064615965, 0.017689943, 9.897794
701480421280782, 0.15314065, 3.5521452, 9.312865, 5.4222345E-4, 0.023339033, 9.968453
701480430919532, 0.12203395, 3.5904303, 9.385847, -0.028339446, 0.03976798, 10.049768
701480440558282, 0.09930214, 3.595216, 9.4432745, -0.054196298, 0.02888894, 10.104807
701480450196928, 0.096909314, 3.5940197, 9.461221, -0.058184445, 0.021647453, 10.121125
701480459835678, 0.104087785, 3.554538, 9.428918, -0.05560577, -0.006440878, 10.077049
701480469474428, 0.11006984, 3.5413775, 9.333204, -0.043785214, 0.010908365, 9.982992
701480479113074, 0.13758731, 3.51386, 9.241081, -0.014075637, 0.011866808, 9.887537
701480488751824, 0.16749759, 3.5401812, 9.212367, 0.022229731, 0.037690878, 9.870499
701480498390574, 0.18424734, 3.542574, 9.221938, 0.039197326, 0.031496763, 9.880556
701480508029220, 0.19142582, 3.5760734, 9.272188, 0.04882759, 0.042091608, 9.93953
701480517667970, 0.18544376, 3.5533416, 9.355937, 0.031446517, -0.004585743, 10.009653
701480527306720, 0.18903299, 3.554538, 9.430114, 0.02965939, -0.02964449, 10.079472
701480536945366, 0.17587246, 3.542574, 9.468399, 0.011065304, -0.049497843, 10.110824
701480546584116, 0.15194423, 3.5090744, 9.433703, -0.016529799, -0.062678576, 10.066142
701480556222866, 0.1268196, 3.5210385, 9.352347, -0.034237385, -0.018900394, 9.993934
701480565861511, 0.10887343, 3.5102708, 9.263813, -0.04650891, 0.0029895306, 9.9070635
701480575500261, 0.10887343, 3.5174494, 9.233903, -0.04305029, 0.020056963, 9.88165
701480585139011, 0.11844472, 3.5593238, 9.24467, -0.026239157, 0.051749706, 9.906732
701480594777657, 0.1363909, 3.591627, 9.287741, -0.0033986568, 0.06267834, 9.958744
701480604416407, 0.16869399, 3.5760734, 9.363115, 0.01997006, 0.016479254, 10.02417
701480614055157, 0.16630118, 3.5712879, 9.428918, 0.012282014, -0.009957075, 10.083948
701480623693803, 0.19980069, 3.5497525, 9.430114, 0.041472733, -0.034873724, 10.077936
701480633332553, 0.17706887, 3.5294135, 9.404989, 0.015485764, -0.039675713, 10.046897
701480642971303, 0.17228323, 3.542574, 9.335598, 0.017981768, -0.0025596619, 9.98662
701480652609949, 0.16271193, 3.5294135, 9.285348, 0.008835912, 0.004288435, 9.93483
701480662248699, 0.10767702, 3.5234313, 9.255438, -0.04548043, 0.017276049, 9.903885
701480671887449, 0.11964113, 3.5521452, 9.247063, -0.029501975, 0.04519868, 9.906426
701480681526095, 0.13280165, 3.591627, 9.287741, -0.013861895, 0.06616163, 9.958664
701480691164845, 0.1698904, 3.5617166, 9.333204, 0.015345812, 0.01743412, 9.991139
701480700803595, 0.18544376, 3.5557344, 9.376275, 0.026448488, -0.005710125, 10.02953
701480710442241, 0.21415763, 3.522235, 9.365508, 0.04948777, -0.035395622, 10.00805
701480720080991, 0.2117648, 3.51386, 9.364311, 0.046005905, -0.041173697, 10.003927
701480729719741, 0.19980069, 3.5234313, 9.372686, 0.03532082, -0.033080578, 10.014957
701480739358491, 0.11724831, 3.528217, 9.387043, -0.045161605, -0.01924181, 10.02877
701480748997136, 0.111266255, 3.5533416, 9.396614, -0.047859013, 0.0016777515, 10.046526
701480758635886, 0.12323037, 3.5796626, 9.381062, -0.029826462, 0.02827096, 10.041505
701480768274636, 0.13758731, 3.548556, 9.35833, -0.01869297, 0.0050492287, 10.009454
701480777913282, 0.17108682, 3.5688949, 9.335598, 0.017632246, 0.025571585, 9.995934
701480787552032, 0.20458634, 3.5389848, 9.300901, 0.047083974, 0.00475049, 9.953431
701480797190782, 0.23449662, 3.525824, 9.255438, 0.0762676, 0.004062414, 9.906752
701480806829428, 0.21535404, 3.5186458, 9.242277, 0.056254268, 0.004449129, 9.8916
701480816468178, 0.17108682, 3.5401812, 9.266206, 0.013245881, 0.021961689, 9.920891
701480826106928, 0.12921242, 3.5353954, 9.3200445, -0.031042814, 0.0041451454, 9.968851
701480835745678, 0.096909314, 3.5521452, 9.379865, -0.061673522, 0.0037653446, 10.030214
701480845384324, 0.08255238, 3.562913, 9.419347, -0.07707083, 0.0016767979, 10.070715
701480855023074, 0.09571291, 3.562913, 9.424132, -0.06385547, 0.0011587143, 10.075401
701480864661824, 0.13998012, 3.5569308, 9.403793, -0.019892871, -0.0028221607, 10.054963
701480874300470, 0.20338993, 3.5605202, 9.349955, 0.04689789, 0.009924889, 10.006899
701480883939220, 0.22971097, 3.5581272, 9.303294, 0.07313186, 0.018933773, 9.96286
701480893577970, 0.23449662, 3.5533416, 9.29133, 0.0782913, 0.016816378, 9.950056
701480903216616, 0.19501504, 3.5270207, 9.284152, 0.035112917, -4.863739E-5, 9.933387
701480912855366, 0.1363909, 3.5186458, 9.302098, -0.02524501, -0.006398201, 9.946248
701480922494116, 0.12083755, 3.5330026, 9.341579, -0.04048884, -0.004026413, 9.988
701480932132761, 0.124426775, 3.5174494, 9.360723, -0.040625215, -0.025625944, 10.000437
701480941771511, 0.13399807, 3.5210385, 9.385847, -0.031876504, -0.031848192, 10.025358
701480951410261, 0.15433706, 3.5353954, 9.38824, -0.010745704, -0.020113707, 10.033014
701480961049011, 0.15314065, 3.5294135, 9.373882, -0.0119796395, -0.020328999, 10.017451
