timestamp_acc,device_acc_x,device_acc_y,device_acc_z,earth_acc_x,earth_acc_y,earth_acc_z
268986635506225, 5.861219, 0.0035892338, 8.228917, 0.04868841, -0.051638275, 10.102671
268986645146433, 5.889933, -0.0047856453, 8.210971, 0.0057959557, -0.039419107, 10.104939
268986654786537, 5.875576, -0.058624156, 8.220542, 0.023938179, 0.0142029375, 10.104572
268986664426746, 5.8743796, -0.09092726, 8.271988, 0.05456114, 0.045327827, 10.145805
268986674066850, 5.9090757, -0.11485548, 8.243274, 0.010512352, 0.06828673, 10.142838
268986683707058, 5.898308, -0.11844472, 8.224132, 0.009441376, 0.06569121, 10.121069
268986693347266, 5.8743796, -0.15074782, 8.199007, 0.016588211, 0.09597852, 10.086887
268986702987371, 5.831309, -0.1268196, 8.1344, 0.01606369, 0.07105999, 10.009167
268986712627579, 5.849255, -0.09212367, 8.096115, -0.020400524, 0.037189476, 9.988371
268986722267683, 5.8420763, -0.049052864, 8.114061, -0.004867077, -0.006161079, 9.998509
268986731907891, 5.8480587, -0.03708875, 8.072187, -0.0340662, -0.0155534595, 9.967948
268986741547996, 5.858826, -0.020338992, 8.105687, -0.024195671, -0.030768529, 10.001345
268986751188204, 5.9030933, -0.0071784677, 8.129615, -0.045987606, -0.04139164, 10.046559
268986760828308, 5.899504, -0.029910283, 8.146365, -0.028764725, -0.015299991, 10.058195
268986770468516, 5.918647, -0.025124637, 8.116454, -0.05943489, -0.016441688, 10.045101
268986780108725, 5.9030933, 0.0, 8.100901, -0.05284643, -0.040440798, 10.023308
268986789748829, 5.885147, -0.0059820567, 8.148758, -0.005944252, -0.0341696, 10.051669
268986799389037, 5.8767724, -0.032303106, 8.17149, 0.01511097, -0.008655712, 10.065308
268986809029141, 5.8624153, -0.050249275, 8.159525, 0.022133827, 0.011126414, 10.047271
268986818669350, 5.8707905, -0.05623133, 8.17149, 0.020634651, 0.018498883, 10.0619
268986828309454, 5.8839507, -0.059820566, 8.187042, 0.01907444, 0.022400908, 10.082223
268986837949662, 5.881558, -0.058624156, 8.202596, 0.031184673, 0.02113548, 10.09343
268986847589871, 5.9138613, -0.038285162, 8.232507, 0.022260189, 8.600913E-4, 10.136513
268986857229975, 5.946164, -0.0011964113, 8.202596, -0.020019531, -0.034305416, 10.131035
268986866870183, 5.936593, 0.0059820567, 8.181061, -0.024886608, -0.041382253, 10.107947
268986876510287, 5.8935223, 0.010767702, 8.220542, 0.035783768, -0.04436808, 10.114731
268986886150496, 5.8947186, -0.02632105, 8.172686, 0.009932518, -0.0038915426, 10.076759
268986895790600, 5.8624153, -0.047856454, 8.172686, 0.037331104, 0.020056687, 10.057894
268986905430808, 5.8875403, -0.022731815, 8.1679, 0.015093803, -0.003817901, 10.0686655
268986915071016, 5.9042897, -0.02751746, 8.149954, -0.0071616173, 0.0011873245, 10.0639515
268986924711121, 5.922236, -0.076570325, 8.145168, -0.020178795, 0.049808472, 10.070731
268986934351329, 5.8839507, -0.051445685, 8.153543, 0.020860195, 0.01737696, 10.055002
268986943991433, 5.9030933, -0.031106694, 8.17149, 0.014902592, -0.0026788563, 10.0807
268986953631641, 5.8911295, -0.076570325, 8.092526, -0.01883936, 0.04214394, 10.009902
268986963271746, 5.8540406, -0.08015956, 8.069795, -1.8882751E-4, 0.044090167, 9.9697485
268986972911954, 5.85763, -0.10049855, 8.007581, -0.038901806, 0.0659941, 9.921562
268986982552162, 5.851648, -0.07178468, 8.015956, -0.026974678, 0.036123082, 9.92474
268986992192266, 5.8935223, -0.014356935, 7.9968133, -0.073581696, -0.019015357, 9.933634
268987001832475, 5.8863435, -0.0023928226, 8.062616, -0.028710842, -0.032127067, 9.982634
268987011472579, 5.901897, -0.021535404, 8.166703, 0.020486355, -0.015916854, 10.076071
268987021112787, 5.9114685, -0.020338992, 8.1942215, 0.02730608, -0.014536589, 10.103969
268987030752996, 5.925825, -0.023928227, 8.165507, -8.134842E-4, -0.009040892, 10.089172
268987040393100, 5.930611, -0.0011964113, 8.132008, -0.026942253, -0.02724886, 10.064801
268987050033308, 5.919843, 0.020338992, 8.082955, -0.048303127, -0.046283096, 10.018715
268987059673412, 5.922236, -0.0071784677, 8.055437, -0.06405878, -0.01701808, 9.99793
268987069313621, 5.910272, -0.033499517, 8.053044, -0.054212093, 0.008782804, 9.98904
268987078953829, 5.905486, -0.015553347, 8.092526, -0.028536797, -0.0116429925, 10.018135
268987088593933, 5.898308, -0.016749758, 8.124829, -0.0051460266, -0.012109324, 10.040069
268987098234141, 5.8731833, -0.013160525, 8.158329, 0.03464079, -0.01710327, 10.052428
268987107874246, 5.881558, -0.05742774, 8.215756, 0.06118679, 0.025641948, 10.103972
268987117514454, 5.866005, -0.0634098, 8.276773, 0.10507393, 0.029051006, 10.144316
268987127154662, 5.8911295, -0.08135597, 8.262417, 0.076541424, 0.04899296, 10.147477
268987136794766, 5.9150577, -0.062213387, 8.276773, 0.060073853, 0.028315023, 10.173119
268987146434975, 5.9174504, -0.047856454, 8.237292, 0.034413815, 0.014278382, 10.14249
268987156075079, 5.919843, -0.04546363, 8.189436, 0.004230976, 0.012801006, 10.10511
268987165715287, 5.9318075, -0.008374879, 8.097312, -0.058753014, -0.024444303, 10.037373
268987175355496, 5.922236, 0.014356935, 8.0817585, -0.05384493, -0.04886043, 10.019114
268987184995600, 5.942575, 0.02751746, 8.067402, -0.07491827, -0.0631332, 10.019398
268987194635808, 5.948557, 0.043070808, 8.07458, -0.07276106, -0.079240784, 10.028682
268987204275912, 5.9030933, -0.0011964113, 8.105687, -0.017614841, -0.035132647, 10.027319
268987213916121, 5.8863435, -0.023928227, 8.143971, 0.021373272, -0.013134185, 10.048546
268987223556329, 5.875576, -0.039481573, 8.141579, 0.028829098, 0.0021583363, 10.04034
268987233196433, 5.881558, -0.03589234, 8.123632, 0.01347065, -0.0015787631, 10.029319
268987242836641, 5.889933, -0.0634098, 8.16431, 0.031931877, 0.025022298, 10.067257
268987252476746, 5.8887367, -0.061016977, 8.17149, 0.035884857, 0.023807764, 10.072354
268987262116954, 5.9234324, -0.07178468, 8.158329, -0.0015072823, 0.036201745, 10.082123
268987271757162, 5.930611, -0.05742774, 8.148758, -0.013729572, 0.022201344, 10.078543
268987281397266, 5.953343, -0.050249275, 8.126026, -0.04562807, 0.01595974, 10.073469
268987291037475, 5.946164, -0.050249275, 8.140383, -0.027967453, 0.014868379, 10.080884
268987300677683, 5.942575, -0.019142581, 8.12124, -0.03696251, -0.016144142, 10.063173
268987310317787, 5.9246287, 0.020338992, 8.116454, -0.022202492, -0.056753416, 10.04862
268987319957996, 5.9042897, -0.0035892338, 8.060223, -0.03187895, -0.033416405, 9.991281
268987329598100, 5.8875403, -0.05742774, 8.068598, -0.013277054, 0.020291565, 9.988398
268987339238308, 5.866005, -0.07776674, 8.006385, -0.028030872, 0.039712533, 9.925518
268987348878516, 5.905486, -0.083748795, 8.133204, 0.024048328, 0.0386412, 10.051304
268987358518621, 5.8636117, -0.049052864, 8.408379, 0.22341013, -0.0029063225, 10.248672
268987368158829, 5.9521465, -0.051445685, 8.187042, 0.019948483, 0.0058536083, 10.122149
268987377798933, 5.9497533, -0.049052864, 8.002795, -0.083305836, 0.011114925, 9.971941
268987387439141, 5.992824, 0.0059820567, 8.053044, -0.091062546, -0.04247968, 10.037699
268987397079350, 5.9353967, 0.020338992, 8.098508, -0.015567303, -0.05598049, 10.040508
268987406719454, 5.9138613, 0.034695927, 8.051848, -0.035546303, -0.05315523, 9.99015
268987416359662, 5.8911295, 0.023928227, 8.002795, -0.045532227, -0.041768193, 9.937146
268987425999871, 5.877969, 0.038285162, 8.017152, -0.03543949, -0.04735343, 9.940987
268987435639975, 5.9066825, 0.0035892338, 8.049456, -0.0454154, -0.0045714527, 9.9840145
268987445280183, 5.9030933, -0.03589234, 8.128419, -0.0034718513, 0.041946545, 10.045755
268987454920287, 5.919843, -0.02871387, 8.1679, 0.005952835, 0.034467325, 10.087554
268987464560496, 5.928218, -0.050249275, 8.22772, 0.033634186, 0.055679843, 10.140881
268987474200704, 5.8911295, -0.051445685, 8.2145605, 0.057057858, 0.055131093, 10.10845
268987483840808, 5.8863435, -0.06460621, 8.220542, 0.06452322, 0.068296105, 10.110475
268987493481016, 5.928218, -0.0526421, 8.2014, 0.021811962, 0.054955058, 10.119584
268987503121225, 5.9138613, -0.019142581, 8.112865, -0.01593113, 0.018395513, 10.039528
268987512761329, 5.922236, -0.0023928226, 8.038688, -0.066679, 0.0027453154, 9.984436
268987522401537, 5.928218, 0.010767702, 8.066205, -0.045712948, -0.013906233, 10.010258
268987532041641, 5.946164, 0.0741775, 8.085348, -0.05030918, -0.07719416, 10.03627
268987541681850, 5.9653068, 0.08015956, 8.118847, -0.040444374, -0.08468175, 10.074631
268987551322058, 5.916254, 0.047856454, 8.17149, 0.035399437, -0.054607797, 10.088278
268987560962162, 5.9174504, 0.016749758, 8.207381, 0.058515072, -0.024468832, 10.117984
268987570602371, 5.95095, 0.0, 8.155936, 0.0016436577, -0.0072966367, 10.0961895
268987580242475, 5.9521465, -0.0047856453, 8.105687, -0.028457642, -0.0032640696, 10.056313
268987589882683, 5.9617176, 0.0059820567, 8.0817585, -0.046815395, -0.015313908, 10.042634
268987599522891, 5.9234324, -0.015553347, 8.037491, -0.029179573, 0.0046247244, 9.984373
268987609162996, 5.8672013, 0.013160525, 8.006385, -0.002981186, -0.024749659, 9.926017
268987618803204, 5.866005, 0.0071784677, 7.9764743, -0.016898632, -0.018459588, 9.901191
268987628443412, 5.858826, -0.020338992, 7.999206, 0.003174305, 0.008487403, 9.915316
268987638083516, 5.8636117, -0.020338992, 8.036295, 0.014534473, 0.008961394, 9.94807
268987647723725, 5.9210396, -0.06699903, 8.067402, -0.011470795, 0.056699246, 10.007139
268987657363829, 5.905486, -0.11006984, 8.051848, -0.019447803, 0.09843436, 9.985443
268987667004037, 5.962914, -0.16510476, 8.117651, -0.028826714, 0.15051635, 10.072556
268987676644246, 5.916254, 0.013160525, 8.112865, 5.888939E-4, -0.033052582, 10.040903
268987686284350, 5.953343, -0.27996024, 8.2660055, 0.065481186, 0.2587923, 10.187064
268987695924558, 5.9700923, 0.44506502, 8.191829, 0.004650116, -0.4647761, 10.135588
268987705564662, 5.8013983, -0.6161518, 8.140383, 0.10939741, 0.59276974, 9.996918
268987715204871, 6.0622163, 0.701097, 8.216953, -0.03725052, -0.7268292, 10.209342
268987724845079, 5.7224355, -0.66161543, 7.962117, 0.057264805, 0.63916016, 9.806504
268987734485183, 6.1878395, 0.67836523, 8.22772, -0.13980293, -0.703949, 10.292223
268987744125391, 5.7391853, -0.46779683, 7.960921, 0.038961887, 0.44786754, 9.814848
268987753765496, 6.117251, 0.26679972, 8.298309, -0.04663992, -0.27939323, 10.30891
268987763405704, 5.825327, -0.058624156, 7.9633136, -0.015947342, 0.042452514, 9.86662
268987773045912, 6.005985, -0.19980069, 8.203793, -0.022616386, 0.18065105, 10.167637
268987782686016, 5.9581285, 0.4103691, 8.116454, -0.017990112, -0.42943078, 10.06776
268987792326225, 5.800202, -0.6269195, 8.12124, 0.08338165, 0.60618937, 9.980756
268987801966433, 6.064609, 0.64845496, 8.19781, -0.027584553, -0.66855574, 10.195898
268987811606537, 5.692525, -0.7932207, 7.9884386, 0.07362175, 0.77005523, 9.810751
268987821246746, 6.0981083, 0.5778667, 8.3174515, 0.010168076, -0.5959334, 10.3124
268987830886850, 5.704489, -0.587438, 7.9597244, 0.06247139, 0.5699017, 9.793612
268987840527058, 6.1028943, 0.28594232, 8.299505, -0.02422142, -0.30859166, 10.30112
268987850167266, 5.800202, -0.083748795, 7.9298143, -0.01802826, 0.054572396, 9.824867
268987859807371, 5.983253, -0.15553348, 8.185846, -0.017098427, 0.12928477, 10.139753
268987869447579, 5.930611, 0.37328035, 8.015956, -0.06304741, -0.40360603, 9.969965
268987879087683, 5.831309, -0.5623133, 8.115258, 0.06336737, 0.53994864, 9.99411
268987888727891, 6.0861444, 0.6723832, 8.166703, -0.1005826, -0.7077924, 10.1822
268987898368100, 5.7284174, -0.76570326, 8.024331, 0.08537817, 0.74437493, 9.860506
268987908008204, 6.1495543, 0.63529444, 8.268398, -0.08015633, -0.6616488, 10.302564
268987917648412, 5.7355957, -0.6089734, 7.9680996, 0.0526433, 0.5730243, 9.819745
268987927288516, 6.141179, 0.31345975, 8.321041, -0.04394102, -0.34360194, 10.340795
268987936928725, 5.7726846, -0.2416751, 7.954939, 0.025278568, 0.2052195, 9.829577
268987946568933, 5.979664, -0.2548356, 8.228917, 0.027729988, 0.21958852, 10.172876
268987956209037, 5.8935223, 0.20458634, 8.012366, -0.01851368, -0.24034259, 9.94562
268987965849246, 5.9138613, -0.6053841, 8.082955, -0.008911133, 0.5664306, 10.017659
268987975489350, 6.0526447, 0.6197411, 8.209774, 0.0029597282, -0.66325605, 10.197013
268987985129558, 5.770292, -0.7405786, 8.049456, 0.11057806, 0.7123076, 9.905497
268987994769766, 6.1902323, 0.76689965, 8.420342, 0.019227982, -0.80942327, 10.447668
268988004409871, 5.7403817, -0.5072784, 8.013563, 0.12033272, 0.46889007, 9.858609
268988014050079, 6.2081785, 0.506082, 8.333005, -0.05348158, -0.54036593, 10.389502
268988023690287, 5.844469, -0.16749759, 7.9740815, 0.025958538, 0.1451514, 9.886866
268988033330391, 6.1028943, -0.069391854, 8.147561, -0.07289457, 0.04560898, 10.179662
268988042970600, 5.9641104, 0.23808585, 7.9561353, -0.06620169, -0.26350528, 9.942513
268988052610704, 5.9294147, -0.53599226, 8.009974, -0.0090966225, 0.51135135, 9.9671135
268988062250912, 6.096912, 0.64606214, 8.043473, -0.11203146, -0.6762641, 10.090456
268988071891016, 5.7750773, -0.72502524, 7.8077803, -0.017652035, 0.6968734, 9.71353
268988081531225, 6.15434, 0.73579293, 8.002795, -0.16671896, -0.7588069, 10.092495
268988091171433, 5.686543, -0.6089734, 7.7216387, -0.004014015, 0.5802498, 9.591383
268988100811537, 6.151947, 0.4749753, 8.110473, -0.108192444, -0.49752477, 10.178045
268988110451746, 5.7655063, -0.26679972, 7.8089767, -0.004412174, 0.2382868, 9.7075
268988120091850, 6.0921264, 0.008374879, 8.099705, -0.08404398, -0.037657775, 10.134635
268988129732058, 5.966503, 0.2213361, 7.925029, -0.07865429, -0.25134933, 9.918916
268988139372266, 5.977271, -0.4953143, 8.116454, 0.004228115, 0.47195202, 10.08103
268988149012371, 6.0717874, 0.56350976, 8.177471, -0.008223534, -0.5971341, 10.1832485
268988158652579, 5.7750773, -0.7860422, 8.092526, 0.15182495, 0.76573175, 9.942283
268988168292683, 6.174679, 0.68195444, 8.27797, -0.038523674, -0.72116876, 10.324484
268988177932891, 5.7140603, -0.7046863, 8.053044, 0.16564417, 0.67331415, 9.875111
268988187573100, 6.1854467, 0.48933223, 8.41795, 0.021037579, -0.5314936, 10.444051
268988197213204, 5.779863, -0.32662028, 7.999206, 0.08855629, 0.28897226, 9.869623
268988206853412, 6.1292152, 0.04546363, 8.238488, -0.04345894, -0.08166304, 10.26808
268988216493516, 5.928218, 0.1268196, 7.9501534, -0.052257538, -0.16890317, 9.9163265
268988226133725, 5.9617176, -0.485743, 8.008778, -0.055930138, 0.4408743, 9.986042
268988235773933, 6.038288, 0.50009996, 8.030313, -0.080076694, -0.54441625, 10.044608
268988245414037, 5.757131, -0.83030945, 7.958528, 0.07497072, 0.7815628, 9.826275
268988255054246, 6.1567326, 0.5982057, 8.175078, -0.0814805, -0.6445013, 10.230987
268988264694350, 5.7248282, -0.79920274, 7.928618, 0.1008997, 0.75430346, 9.782446
268988274334558, 6.2261243, 0.50368917, 8.333005, -0.04198599, -0.5535587, 10.399477
268988283974766, 5.8337016, -0.3924229, 8.039884, 0.08374357, 0.3449941, 9.934776
268988293614871, 6.1567326, 0.10289137, 8.309076, -0.005915642, -0.15406972, 10.340837
268988303255079, 5.9617176, 0.11724831, 7.972885, -0.04789257, -0.16920023, 9.954487
268988312895183, 6.007181, -0.30029923, 8.067402, -0.034546375, 0.24753782, 10.059669
268988322535391, 6.0370917, 0.5694918, 8.068598, -0.040255547, -0.6241763, 10.07382
268988332175496, 5.8037915, -0.6795616, 7.90469, 0.045106888, 0.626622, 9.809956
268988341815704, 6.155536, 0.72502524, 8.12124, -0.09709358, -0.78141594, 10.185813
268988351455912, 5.7427745, -0.6855437, 7.844869, 0.052919388, 0.6334841, 9.725601
268988361096016, 6.1794643, 0.5694918, 8.258827, -0.025216103, -0.6125748, 10.312247
268988370736225, 5.7726846, -0.45702913, 7.884351, 0.05349779, 0.40873727, 9.773731
268988380376329, 6.202196, 0.16510476, 8.202596, -0.09258795, -0.20720053, 10.282293
268988390016537, 5.9318075, 0.0071784677, 7.946564, -0.034091473, -0.050922018, 9.916175
268988399656746, 6.058627, -0.357727, 8.136793, -0.02284813, 0.31768256, 10.145979
268988409296850, 6.058627, 0.40438703, 8.129615, -0.004901886, -0.446218, 10.137159
268988418937058, 5.8277197, -0.72382885, 8.047063, 0.08677292, 0.68731153, 9.937883
268988428577162, 6.13759, 0.67118675, 8.147561, -0.063370705, -0.71563065, 10.197407
268988438217371, 5.6889358, -0.77407813, 7.816155, 0.08124399, 0.745871, 9.669154
268988447857475, 6.1710896, 0.5778667, 8.145168, -0.09590006, -0.6098784, 10.2165985
268988457497683, 5.733203, -0.47377887, 7.806584, 0.03815651, 0.43354237, 9.687489
268988467137891, 6.128019, 0.22013968, 8.179864, -0.046599865, -0.25433254, 10.219803
268988476777996, 5.8683977, -0.02751746, 7.8987074, -0.013897419, -0.008152522, 9.840131
268988486418204, 6.0693946, -0.27517462, 8.106883, -0.057700634, 0.23969136, 10.127884
268988496058308, 6.0861444, 0.41635114, 8.031509, -0.11163998, -0.45085412, 10.074915
268988505698516, 5.9342003, -0.73579293, 8.019546, -0.0062613487, 0.7093879, 9.978276
268988515338725, 6.186643, 0.5347959, 8.212168, -0.07429075, -0.5729859, 10.279417
268988524978829, 5.7463636, -0.83389866, 7.984849, 0.13138962, 0.81112146, 9.838634
268988534619037, 6.209375, 0.613759, 8.2660055, -0.04754305, -0.6538682, 10.335863
268988544259141, 5.7762737, -0.4941179, 8.023134, 0.12927389, 0.46233636, 9.886847
268988553899350, 6.1028943, 0.29072794, 8.353344, 0.102394104, -0.31733662, 10.343935
268988563539454, 5.838487, -0.07178468, 7.9573317, 0.07222891, 0.039020248, 9.869421
268988573179662, 6.0490556, -0.1794617, 8.115258, -7.1525574E-4, 0.14550492, 10.122229
268988582819871, 6.0251274, 0.44027936, 8.030313, -0.0026159286, -0.47901362, 10.037554
268988592459975, 5.9413786, -0.526421, 8.073383, 0.04526949, 0.49930146, 10.025231
268988602100183, 6.209375, 0.76689965, 8.126026, -0.074512005, -0.8100578, 10.223259
268988611740287, 5.8420763, -0.6759724, 7.9226356, 0.023836613, 0.6562257, 9.844987
268988621380496, 6.282356, 0.6891329, 8.10808, -0.15991545, -0.7264281, 10.25332
268988631020704, 5.79422, -0.5515456, 7.832905, 0.013976097, 0.52313584, 9.744624
268988640660808, 6.1734824, 0.32422748, 8.221739, -0.013461113, -0.34176916, 10.280906
268988650301016, 5.825327, -0.18305093, 7.9501534, 0.082036495, 0.17356317, 9.855761
268988659941121, 6.056234, -0.22612174, 8.158329, 0.018045902, 0.2133444, 10.160788
268988669581329, 6.013163, 0.2656033, 8.003992, -0.021689892, -0.2822317, 10.010616
268988679221433, 5.9294147, -0.6221339, 8.092526, 0.06991863, 0.61565715, 10.032452
268988688861641, 6.155536, 0.6029913, 8.109276, -0.05998087, -0.6146629, 10.1800375
268988698501850, 5.790631, -0.782453, 7.9704924, 0.10382223, 0.7790835, 9.851629
268988708141954, 6.2105713, 0.6472585, 8.127222, -0.09531355, -0.6576171, 10.227429
268988717782162, 5.784649, -0.61854464, 7.834101, 0.026862621, 0.60130167, 9.739385
268988727422266, 6.2883377, 0.27038896, 8.103293, -0.18651056, -0.28398746, 10.254961
268988737062475, 5.871987, -0.36131623, 7.9130645, 0.013055801, 0.34516877, 9.8543415
268988746702579, 6.0454664, -0.20219351, 8.319844, 0.1303196, 0.18667422, 10.2838
268988756342787, 5.9880385, 0.26679972, 8.149954, 0.08865595, -0.28273654, 10.112454
268988765982996, 5.9353967, -0.5347959, 8.340183, 0.22327471, 0.5247194, 10.234667
268988775623100, 6.131608, 0.70229346, 8.267202, 0.058428288, -0.7153958, 10.291807
268988785263308, 5.837291, -0.5982057, 8.238488, 0.23503304, 0.60015845, 10.094011
268988794903412, 6.2931237, 0.88295156, 8.196614, -0.114313126, -0.89897376, 10.33181
268988804543621, 5.8073807, -0.4953143, 7.877172, 0.046940804, 0.48476923, 9.786912
268988814183829, 6.227321, 0.5132605, 8.090134, -0.12548542, -0.51239014, 10.208572
268988823823933, 5.8169518, -0.19262223, 7.733603, -0.03919363, 0.1916073, 9.677004
268988833464141, 6.114858, 0.10887343, 7.830512, -0.20324802, -0.1101363, 9.933118
268988843104246, 5.9497533, 0.32183465, 7.6773715, -0.15011024, -0.32121724, 9.711821
268988852744454, 5.986842, -0.3804588, 7.820941, -0.12540531, 0.388318, 9.848229
268988862384662, 6.134001, 0.6723832, 7.9537425, -0.11783695, -0.66546804, 10.044071
268988872024766, 5.8911295, -0.6855437, 7.879565, -0.024814606, 0.68825054, 9.838121
268988881664975, 6.273981, 0.721436, 8.072187, -0.1542592, -0.7186202, 10.222687
268988891305079, 5.81097, -0.695115, 7.820941, 0.0040636063, 0.6922181, 9.743639
268988900945287, 6.222535, 0.46061835, 8.16431, -0.08558035, -0.47264495, 10.264374
268988910585391, 5.8097734, -0.36490545, 7.98126, 0.10851812, 0.3602204, 9.871454
268988920225600, 6.111269, -0.0059820567, 8.233703, 0.032701492, 0.0023531169, 10.253801
268988929865808, 5.877969, 0.08853444, 8.136793, 0.16253567, -0.09517193, 10.0364485
268988939505912, 5.940182, -0.485743, 8.286345, 0.17607164, 0.47757465, 10.194418
268988949146121, 6.0753765, 0.55513483, 8.279166, 0.09469032, -0.5764425, 10.2675085
268988958786225, 5.85763, -0.695115, 8.086544, 0.11802912, 0.6831216, 9.98532
268988968426433, 6.2488565, 0.7680961, 8.195417, -0.0895257, -0.8001373, 10.303145
268988978066641, 5.825327, -0.60059845, 7.9369926, 0.05554056, 0.586073, 9.846037
268988987706746, 6.2727847, 0.59940207, 8.193025, -0.112054825, -0.63274753, 10.316001
268988997346954, 5.8169518, -0.34576288, 7.8520474, 0.022415161, 0.31834057, 9.772886
268989006987058, 6.1734824, 0.10887343, 8.120044, -0.08664942, -0.14060652, 10.199587
268989016627266, 5.9294147, 0.059820566, 7.9094753, -0.018703938, -0.088771045, 9.8849945
268989026267371, 6.023931, -0.4223332, 8.0614195, -0.0101623535, 0.3927984, 10.064701
268989035907579, 6.0801625, 0.45583272, 8.099705, -0.019927502, -0.48490608, 10.126492
268989045547787, 5.8468623, -0.77407813, 7.978867, 0.08172464, 0.73932654, 9.89414
268989055187891, 6.1651077, 0.59342, 8.110473, -0.079223156, -0.63666254, 10.184735
268989064828100, 5.71765, -0.8039884, 7.8400836, 0.10707235, 0.7641736, 9.706152
268989074468204, 6.186643, 0.5563313, 8.17149, -0.055298805, -0.59070694, 10.24721
268989084108412, 5.7655063, -0.37806597, 7.8723865, 0.08562517, 0.33397308, 9.759077
268989093748621, 6.2033925, 0.21774685, 8.111669, -0.10521221, -0.26187357, 10.210241
268989103388725, 5.933004, 0.08135597, 7.9034934, -0.022674084, -0.12778342, 9.882081
268989113028933, 6.0801625, -0.28713873, 8.116454, -0.030191898, 0.24062023, 10.142427
268989122669037, 6.096912, 0.45702913, 8.124829, 0.0016207695, -0.50178784, 10.155899
268989132309246, 5.8971114, -0.7262217, 8.088937, 0.0759635, 0.6824175, 10.013129
268989141949454, 6.222535, 0.62452674, 8.257631, -0.006795883, -0.6680602, 10.336929
268989151589558, 5.802595, -0.7788638, 8.008778, 0.1036005, 0.7332292, 9.892872
268989161229766, 6.2668023, 0.587438, 8.244471, -0.062533855, -0.6323166, 10.353042
268989170869871, 5.7750773, -0.51086766, 7.874779, 0.061431408, 0.46425653, 9.767567
268989180510079, 6.1639113, 0.19980069, 8.190632, -0.030494213, -0.24091683, 10.249937
268989190150287, 5.8600225, -0.047856454, 7.9537425, 0.060671806, 0.009718418, 9.879291
268989199790391, 6.005985, -0.30867413, 8.105687, 0.019277096, 0.26969072, 10.089411
268989209430600, 6.0311093, 0.4019942, 8.065009, 0.008276463, -0.44741696, 10.068764
268989219070704, 5.8731833, -0.63170516, 8.123632, 0.11351299, 0.6024476, 10.025513
268989228710912, 6.2033925, 0.6975078, 8.240881, -0.0032367706, -0.7371285, 10.311998
268989238351121, 5.832505, -0.7405786, 7.946564, 0.030674458, 0.69751984, 9.860375
268989247991225, 6.306284, 0.6472585, 8.219346, -0.10447407, -0.70021355, 10.355897
268989257631433, 5.790631, -0.51206404, 7.920243, 0.0660429, 0.48551407, 9.812429
268989267271641, 6.1974106, 0.25124636, 8.2253275, -0.039871216, -0.2854733, 10.297765
268989276911746, 5.8636117, -0.10049855, 7.8987074, 0.0138988495, 0.06502128, 9.837541
268989286551954, 6.0430737, -0.20219351, 8.082955, -0.018595695, 0.17128813, 10.092775
268989296192058, 6.000003, 0.4031906, 7.9704924, -0.043513298, -0.4327274, 9.9750805
268989305832266, 5.8683977, -0.6233303, 8.048259, 0.101365566, 0.5933535, 9.961865
268989315472475, 6.1328044, 0.65324056, 8.13799, -0.046866417, -0.68587846, 10.187849
268989325112579, 5.77747, -0.7800602, 7.9561353, 0.11791086, 0.7495595, 9.834227
268989334752787, 6.229714, 0.6197411, 8.239685, -0.06342602, -0.6418027, 10.328113
268989344392891, 5.759524, -0.6041877, 7.989635, 0.14144468, 0.583115, 9.849436
268989354033100, 6.222535, 0.31106696, 8.321041, -0.010340691, -0.34709525, 10.389217
268989363673308, 5.898308, -0.11964113, 8.023134, 0.054956913, 0.08883898, 9.958118
268989373313412, 6.1100726, -0.13160525, 8.163115, -0.03191185, 0.10165368, 10.196833
268989382953621, 6.06102, 0.39840496, 8.037491, -0.04518938, -0.42786765, 10.065329
268989392593829, 5.9342003, -0.53240305, 8.04108, 0.015318871, 0.51843524, 9.994406
268989402233933, 6.172286, 0.6975078, 8.085348, -0.08939695, -0.72462994, 10.16973
268989411874141, 5.771488, -0.73459655, 7.884351, 0.046439648, 0.716298, 9.77228
268989421514350, 6.2201424, 0.6723832, 8.123632, -0.12410927, -0.6950125, 10.229235
268989431154454, 5.71765, -0.6149554, 7.8699937, 0.08667755, 0.6005044, 9.728226
268989440794662, 6.196214, 0.36610186, 8.257631, -0.03237152, -0.37502915, 10.323463
268989450434766, 5.828916, -0.2321038, 7.9561353, 0.062603, 0.21691759, 9.863024
268989460074975, 6.1040907, -0.14356937, 8.177471, -0.021743774, 0.12821317, 10.20464
268989469715183, 6.007181, 0.2727818, 7.9657063, -0.058819294, -0.2886045, 9.97629
268989479355287, 5.9521465, -0.52283174, 8.04467, 0.017242432, 0.5137363, 10.007692
268989488995496, 6.148358, 0.6867401, 8.09133, -0.08244753, -0.69880706, 10.161123
268989498635704, 5.8133626, -0.70947194, 7.9573317, 0.0680809, 0.70677716, 9.854617
268989508275808, 6.239285, 0.72023964, 8.209774, -0.06369877, -0.7298047, 10.31073
268989517916016, 5.7463636, -0.6041877, 7.9597244, 0.12348795, 0.5928776, 9.817139
268989527556225, 6.206982, 0.4534399, 8.263613, -0.020920277, -0.45965296, 10.334786
268989537196329, 5.8061843, -0.22492532, 7.9334035, 0.075037, 0.21404764, 9.831063
268989546836537, 6.0825553, -0.029910283, 8.178668, -7.481575E-4, 0.025019914, 10.192564
268989556476746, 5.9342003, 0.23569304, 7.966903, 0.0029120445, -0.24053578, 9.933981
268989566116850, 5.933004, -0.50368917, 8.10808, 0.05305624, 0.5031318, 10.046853
268989575757058, 6.134001, 0.6113662, 8.085348, -0.083176136, -0.611292, 10.148499
268989585397266, 5.8504515, -0.73818576, 7.9968133, 0.045281887, 0.74558854, 9.907763
268989595037371, 6.236892, 0.70348984, 8.200203, -0.094166756, -0.70135474, 10.302247
268989604677579, 5.77747, -0.6652047, 7.944171, 0.08590078, 0.66988426, 9.82219
268989614317787, 6.256035, 0.4833502, 8.282756, -0.074020386, -0.4942408, 10.379108
268989623957891, 5.790631, -0.29072794, 7.987242, 0.115924835, 0.28159225, 9.86505
268989633598100, 6.114858, -0.0023928226, 8.195417, -0.016857147, -3.4858286E-4, 10.225266
268989643238308, 5.928218, 0.17587246, 7.9633136, -0.0031747818, -0.1833449, 9.927509
268989652878412, 5.960521, -0.4319045, 8.178668, 0.09374905, 0.4253306, 10.120044
268989662518621, 6.0717874, 0.6017949, 8.166703, 0.0012145042, -0.6127976, 10.175868
268989672158829, 5.828916, -0.6855437, 8.056634, 0.13005495, 0.6867851, 9.943189
268989681798933, 6.215357, 0.7585248, 8.143971, -0.10527325, -0.7608236, 10.24404
268989691439141, 5.7655063, -0.6305088, 7.880761, 0.062607765, 0.6226951, 9.764903
268989701079350, 6.2584276, 0.57906306, 8.181061, -0.11518097, -0.579085, 10.299728
268989710719454, 5.820541, -0.2727818, 7.861619, 0.0176363, 0.27898914, 9.781616
268989720359662, 6.174679, 0.11964113, 8.120044, -0.09799862, -0.11760026, 10.20062
268989729999871, 5.928218, 0.15074782, 7.893922, -0.033144474, -0.1475704, 9.872063
268989739639975, 5.983253, -0.40797627, 8.098508, 0.026148796, 0.41757536, 10.068592
268989749280183, 6.0717874, 0.5395815, 8.097312, -0.014205456, -0.5381907, 10.120987
268989758920391, 5.8217373, -0.715454, 8.0817585, 0.14800501, 0.73060024, 9.958094
268989768560496, 6.204589, 0.7393822, 8.200203, -0.06599522, -0.72726226, 10.28366
268989778200704, 5.770292, -0.695115, 7.911868, 0.06860876, 0.7001779, 9.791943
268989787840912, 6.2679987, 0.58504516, 8.2348995, -0.10071421, -0.5712366, 10.349262
268989797481016, 5.802595, -0.34337005, 7.885547, 0.044725895, 0.3481531, 9.790131
268989807121225, 6.1914287, 0.22851457, 8.195417, -0.0708375, -0.21659644, 10.271267
268989816761433, 5.9318075, 0.12323037, 7.9357963, -0.017867565, -0.11791613, 9.9077835
268989826401537, 6.01436, -0.34217364, 8.16431, 0.045444965, 0.35058382, 10.14005
268989836041746, 6.07418, 0.5288138, 8.135597, -0.0069150925, -0.52005935, 10.153459
268989845681954, 5.855237, -0.6903293, 8.085348, 0.124507904, 0.69359094, 9.981815
268989855322162, 6.2081785, 0.7178468, 8.199007, -0.08496189, -0.71740466, 10.283901
268989864962266, 5.7607207, -0.72741807, 7.999206, 0.1399765, 0.7307334, 9.856408
268989874602475, 6.229714, 0.5886344, 8.267202, -0.06509256, -0.58457613, 10.351642
268989884242683, 5.7583275, -0.42711884, 7.928618, 0.11245012, 0.44194934, 9.797743
268989893882787, 6.15434, 0.23449662, 8.200203, -0.0453887, -0.2186184, 10.253016
268989903522996, 5.8887367, 0.09810573, 7.8376904, -0.04548216, -0.085242696, 9.803412
268989913163204, 6.046663, -0.19740787, 8.055437, -0.041493416, 0.2130849, 10.071943
268989922803412, 6.0598235, 0.52163535, 7.9968133, -0.076725006, -0.5111956, 10.033712
268989932443516, 5.861219, -0.6305088, 8.070991, 0.113474846, 0.65255487, 9.972644
268989942083725, 6.1770716, 0.7082755, 8.172686, -0.07603979, -0.6862445, 10.245679
268989951723933, 5.7379885, -0.73100734, 7.944171, 0.13193464, 0.74300706, 9.79792
268989961364037, 6.1770716, 0.60777694, 8.257631, -0.03543949, -0.5950357, 10.313038
268989971004246, 5.7487564, -0.4941179, 7.9501534, 0.11833668, 0.5079216, 9.809449
268989980644454, 6.224928, 0.2632105, 8.329415, -0.03700733, -0.24953814, 10.398775
268989990284662, 5.919843, -0.029910283, 8.015956, 0.021513462, 0.046033107, 9.964859
268989999924766, 6.1028943, -0.25244278, 8.242078, 0.0064606667, 0.26885736, 10.255173
268990009564975, 6.0598235, 0.4235296, 8.094919, -0.034306526, -0.41420949, 10.112163
268990019205183, 5.9138613, -0.59342, 8.09133, 0.060309887, 0.6124932, 10.020815
268990028845391, 6.1794643, 0.7645068, 8.106883, -0.11250973, -0.7493447, 10.193998
268990038485496, 5.771488, -0.65922266, 7.893922, 0.050455093, 0.68186873, 9.777073
268990048125704, 6.2033925, 0.7190432, 8.109276, -0.1085906, -0.71381044, 10.209708
268990057765912, 5.7260246, -0.45104706, 7.789834, 0.03506708, 0.46273512, 9.667315
268990067406121, 6.172286, 0.36729828, 8.126026, -0.08987522, -0.3469656, 10.204698
268990077046225, 5.8241305, -0.0634098, 7.812566, -0.013041019, 0.07958114, 9.744445
268990086686433, 6.0418773, -0.16630118, 8.09133, -0.023550987, 0.18985729, 10.09777
268990096326641, 6.0346985, 0.3912265, 8.014759, -0.047450542, -0.37170053, 10.033274
268990105966850, 5.9234324, -0.5886344, 8.128419, 0.085497856, 0.6117801, 10.056001
268990115606954, 6.1974106, 0.6759724, 8.215756, -0.033036232, -0.650146, 10.292703
268990125247162, 5.814559, -0.74177504, 8.090134, 0.13866472, 0.7636289, 9.960283
268990134887371, 6.2584276, 0.6843473, 8.3174515, -0.031476974, -0.6566811, 10.410765
268990144527579, 5.7463636, -0.5383851, 8.072187, 0.17761612, 0.56216216, 9.905716
268990154167683, 6.1974106, 0.45583272, 8.349754, 0.015878677, -0.4362895, 10.399206
268990163807891, 5.8265233, -0.04426722, 7.9776707, 0.06902075, 0.07193505, 9.878443
268990173448100, 6.0837517, 0.0011964113, 8.213364, 0.0047302246, 0.024845496, 10.221094
268990183088308, 5.9988065, 0.39960137, 7.98126, -0.054009438, -0.37715903, 9.985024
268990192728412, 5.933004, -0.52283174, 8.112865, 0.057250977, 0.55444807, 10.048969
268990202368621, 6.1328044, 0.65922266, 8.169097, -0.04121971, -0.6382127, 10.216212
268990212008829, 5.790631, -0.7501499, 8.01117, 0.11796141, 0.7856933, 9.881385
268990221649037, 6.242874, 0.7046863, 8.141579, -0.14138746, -0.6730536, 10.26072
268990231289246, 5.7487564, -0.5694918, 7.826923, 0.042914867, 0.59312004, 9.709769
268990240929350, 6.2512493, 0.4869394, 8.157132, -0.14009047, -0.46363577, 10.277132
268990250569558, 5.866005, -0.12083755, 7.8520474, -0.027387619, 0.14611599, 9.800876
268990260209766, 6.13759, 0.021535404, 8.115258, -0.08061361, 0.005322233, 10.174546
268990269849975, 5.983253, 0.3385844, 7.993224, -0.02110672, -0.3133359, 9.985337
268990279490183, 5.9210396, -0.46301118, 8.179864, 0.1227088, 0.49201632, 10.095847
268990289130287, 6.0658054, 0.66759753, 8.2014, 0.046433926, -0.63533825, 10.2027855
268990298770496, 5.7463636, -0.715454, 8.069795, 0.18950558, 0.7529481, 9.902086
268990308410704, 6.209375, 0.7286145, 8.203793, -0.078783035, -0.7074283, 10.289935
268990318050912, 5.771488, -0.62931234, 7.9764743, 0.11364508, 0.6530447, 9.843315
268990327691121, 6.2715883, 0.4833502, 8.286345, -0.0754056, -0.45052785, 10.393331
268990337331225, 5.838487, -0.25962126, 7.9298143, 0.03458023, 0.29280165, 9.846338
268990346971433, 6.151947, 0.049052864, 8.13799, -0.08218527, -0.017614074, 10.2014065
268990356611641, 5.989235, 0.25842485, 7.9106717, -0.07682133, -0.23264544, 9.922521
268990366251850, 5.9988065, -0.38883367, 8.031509, -0.028439045, 0.4162967, 10.023368
268990375892058, 6.1387863, 0.67836523, 8.049456, -0.10341501, -0.64877605, 10.124575
268990385532162, 5.788238, -0.6628119, 7.9884386, 0.10518217, 0.689089, 9.862671
268990395172371, 6.1938214, 0.7537391, 8.191829, -0.062316895, -0.7219727, 10.271928
268990404812579, 5.704489, -0.6472585, 7.9980097, 0.19115686, 0.6685061, 9.820635
268990414452787, 6.2117677, 0.54675996, 8.331808, -0.0042557716, -0.5159975, 10.394121
268990424092996, 5.8013983, -0.28115666, 7.940582, 0.08652353, 0.29916227, 9.833164
268990433733204, 6.172286, 0.106480606, 8.203793, -0.05368519, -0.07981101, 10.26652
268990443373308, 5.953343, 0.20817557, 7.952546, -0.028518677, -0.18412283, 9.934482
268990453013516, 6.013163, -0.40438703, 8.132008, 0.022675991, 0.43462515, 10.112456
268990462653725, 6.108876, 0.5802595, 8.073383, -0.07940531, -0.5506738, 10.125464
268990472293933, 5.8468623, -0.6664011, 7.982456, 0.053342342, 0.702422, 9.892081
268990481934141, 6.2141604, 0.7812566, 8.093722, -0.13049889, -0.75047374, 10.205599
268990491574350, 5.753542, -0.62811595, 7.8759756, 0.068772316, 0.6533504, 9.751778
268990501214454, 6.2009997, 0.6305088, 8.22772, -0.047451496, -0.6039073, 10.304288
268990510854662, 5.7726846, -0.33140594, 7.9130645, 0.085775375, 0.36936194, 9.793187
268990520494871, 6.1292152, 0.16869399, 8.212168, -0.011914253, -0.13108465, 10.247834
268990530135079, 5.922236, 0.13519448, 7.9680996, 0.004208088, -0.10282591, 9.928302
268990539775287, 6.02752, -0.33020952, 8.182257, 0.03708458, 0.36609042, 10.161395
268990549415496, 6.1160545, 0.56590253, 8.151151, -0.04331875, -0.5308961, 10.192346
268990559055704, 5.85763, -0.68075806, 8.177471, 0.17470455, 0.7188662, 10.054798
268990568695808, 6.2261243, 0.7429714, 8.288737, -0.04402876, -0.7048299, 10.369237
268990578336016, 5.770292, -0.6879365, 8.02792, 0.13450813, 0.72938097, 9.88266
268990587976225, 6.224928, 0.62452674, 8.285149, -0.05127287, -0.59808433, 10.364512
268990597616433, 5.751149, -0.37088752, 7.911868, 0.094311714, 0.39776456, 9.779767
268990607256641, 6.1675005, 0.2656033, 8.1738825, -0.071352005, -0.23074067, 10.240246
268990616896850, 5.938986, 0.12323037, 7.8604226, -0.073770046, -0.09334286, 9.851845
268990626537058, 6.087341, -0.2632105, 8.068598, -0.0733304, 0.29595202, 10.106152
268990636177266, 6.105287, 0.56111693, 7.989635, -0.117763996, -0.529647, 10.056304
268990645817371, 5.889933, -0.6436693, 8.02792, 0.060362816, 0.68421257, 9.95396
268990655457579, 6.094519, 0.4331009, 8.045866, -0.06767702, -0.39557254, 10.094831
268990665097787, 5.9497533, -0.09092726, 7.9561353, -0.019378185, 0.11975972, 9.934445
268990674737996, 5.992824, 0.05742774, 8.038688, -1.4448166E-4, -0.021290809, 10.026829
268990684378204, 5.9545393, 0.025124637, 8.072187, 0.049626827, 0.012416467, 10.030692
268990694018412, 5.9437714, 0.050249275, 8.068598, 0.052509308, -0.009949699, 10.021495
268990703658621, 5.946164, 0.061016977, 8.065009, 0.048504353, -0.021284267, 10.020088
268990713298829, 5.983253, 0.078963146, 8.070991, 0.018444538, -0.03800997, 10.047122
268990722939037, 5.9988065, 0.06819545, 8.080562, 0.0067634583, -0.02618955, 10.064047
268990732579141, 6.033502, 0.076570325, 8.145168, 0.012113571, -0.03427778, 10.136641
268990742219350, 6.0370917, 0.059820566, 8.196614, 0.040070057, -0.017103363, 10.180011
268990751859558, 6.0550375, 0.05503492, 8.2145605, 0.034813404, -0.014986932, 10.205101
268990761499766, 6.0346985, 0.038285162, 8.177471, 0.029332161, 0.0014536083, 10.163132
268990771139975, 6.007181, 0.016749758, 8.13799, 0.028131962, 0.02257561, 10.114944
268990780780183, 5.994021, 0.03589234, 8.124829, 0.032333374, 0.0027085468, 10.0966015
268990790420391, 5.9748783, 0.022731815, 8.093722, 0.030059338, 0.016756477, 10.060162
268990800060600, 5.977271, 0.023928227, 8.056634, 0.006257534, 0.015312418, 10.031821
268990809700808, 5.9748783, 0.015553347, 8.032705, -0.004507065, 0.02560516, 10.011148
268990819341016, 5.962914, 0.0023928226, 8.01117, -0.007438183, 0.03873361, 9.986673
268990828981225, 5.992824, 0.023928227, 7.9944205, -0.041498184, 0.018138887, 9.991158
268990838621329, 6.0047884, 0.032303106, 8.023134, -0.0326128, 0.009534039, 10.021379
268990848261537, 6.026324, 0.034695927, 8.080562, -0.01563549, 0.0071372166, 10.080325
268990857901746, 6.0526447, 0.04426722, 8.076973, -0.039376736, -0.0022562444, 10.093186
268990867541954, 6.0526447, 0.05742774, 8.079366, -0.038658142, -0.014772534, 10.095159
268990877182162, 6.023931, 0.05623133, 8.068598, -0.022603989, -0.014012545, 10.069383
268990886822371, 5.9820566, 0.05383851, 8.076973, 0.01584053, -0.012151942, 10.05112
268990896462579, 5.933004, 0.046660043, 8.078169, 0.055790424, -0.0046341717, 10.022794
268990906102787, 5.9449677, 0.05503492, 8.088937, 0.050305843, -0.013061948, 10.038618
268990915742996, 5.962914, 0.03708875, 8.110473, 0.048469543, 0.004473202, 10.066536
268990925383204, 5.983253, 0.046660043, 8.123632, 0.038898468, -0.0055670124, 10.08927
268990935023412, 6.020342, 0.040677983, 8.080562, -0.016544819, 4.0038303E-4, 10.076774
268990944663621, 6.0418773, 0.02871387, 8.106883, -0.019238949, 0.0109656975, 10.110697
268990954303829, 6.0370917, 0.01794617, 8.116454, -0.008159637, 0.019070111, 10.115493
268990963944037, 6.0370917, 0.014356935, 8.112865, -0.010416031, 0.022590697, 10.112598
268990973584246, 6.029913, 0.019142581, 8.105687, -0.008574009, 0.017153695, 10.102573
268990983224454, 5.9988065, 0.040677983, 8.060223, -0.009949207, -0.0045287907, 10.0476055
268990992864662, 5.9820566, 0.019142581, 8.037491, -0.009649277, 0.018074747, 10.019292
268991002504871, 5.9318075, 0.041874398, 8.049456, 0.038618565, -0.002702821, 9.999018
268991012144975, 5.960521, 0.083748795, 8.086544, 0.03819847, -0.04339593, 10.046079
268991021785183, 5.9748783, 0.08135597, 8.080562, 0.022395134, -0.039830547, 10.049834
268991031425391, 5.9952173, 0.05383851, 8.0817585, 0.005859852, -0.011001926, 10.062813
268991041065600, 6.0119667, 0.062213387, 8.048259, -0.027976513, -0.018518858, 10.045942
268991050705808, 6.0215383, 0.03589234, 8.053044, -0.03147936, 0.008006223, 10.055382
268991060346016, 6.0346985, 0.040677983, 8.039884, -0.04603815, 0.0022235475, 10.052703
268991069986225, 6.020342, 0.040677983, 8.060223, -0.020563602, 0.0020279586, 10.060465
268991079626433, 6.0083776, 0.058624156, 8.099705, 0.012370586, -0.015487472, 10.085082
268991089266641, 5.985646, 0.05503492, 8.12124, 0.041146755, -0.010745271, 10.088791
268991098906850, 5.9844494, 0.031106694, 8.128419, 0.046519756, 0.013176056, 10.093734
268991108547058, 5.9904313, 0.06580263, 8.094919, 0.018472672, -0.020549228, 10.07058
268991118187266, 6.003592, 0.034695927, 8.114061, 0.017516136, 0.009261932, 10.093657
268991127827475, 6.0346985, 0.07058827, 8.116454, -0.0057144165, -0.027990399, 10.114276
268991137467683, 6.0370917, 0.086141616, 8.124829, -0.0032515526, -0.04351245, 10.122492
268991147107891, 6.026324, 0.0741775, 8.084151, -0.01890564, -0.033157185, 10.08336
268991156748100, 6.0191455, 0.03708875, 8.047063, -0.035248756, 0.004338011, 10.049151
268991166388308, 5.99761, -0.021535404, 8.043473, -0.017921448, 0.061506353, 10.033202
268991176028516, 5.9988065, -0.014356935, 8.09133, 0.009912014, 0.053570658, 10.072364
268991185668725, 5.9521465, 0.0059820567, 8.103293, 0.055415154, 0.029058471, 10.05423
268991195308933, 5.9617176, 0.014356935, 8.096115, 0.04473877, 0.019336239, 10.054202
268991204949141, 5.985646, 0.022731815, 8.09133, 0.023293018, 0.010743588, 10.064663
268991214589350, 5.9820566, 0.03589234, 8.096115, 0.030615807, -0.005859107, 10.0664
268991224229558, 6.0215383, 0.06460621, 8.075776, -0.014707565, -0.03218648, 10.073728
268991233869766, 6.0490556, 0.076570325, 8.025527, -0.066988945, -0.042745546, 10.049861
268991243509975, 6.029913, 0.076570325, 7.9968133, -0.06663847, -0.04119633, 10.015418
268991253150183, 6.02752, 0.06460621, 7.984849, -0.071135044, -0.029158711, 10.004353
268991262790391, 5.994021, 0.049052864, 7.938189, -0.07010412, -0.01368998, 9.94688
268991272430600, 5.960521, 0.046660043, 7.960921, -0.029052734, -0.012464598, 9.945112
268991282070808, 5.962914, 0.022731815, 7.966903, -0.028219223, 0.011381313, 9.951256
268991291711016, 5.936593, -0.0011964113, 8.006385, 0.017141819, 0.033680275, 9.967142
268991301351225, 5.98086, -0.008374879, 8.042277, -0.0024476051, 0.03941466, 10.0223465
268991310991433, 5.989235, -0.0047856453, 8.126026, 0.04085207, 0.034513637, 10.094573
268991320631641, 6.007181, 0.0011964113, 8.176275, 0.05151844, 0.025637, 10.14566
268991330271850, 6.070591, 0.021535404, 8.175078, -0.0023694038, 0.0052550957, 10.182554
268991339912058, 6.0490556, 0.058624156, 8.2014, 0.03006363, -0.033338662, 10.19095
268991349552266, 6.0287166, 0.05742774, 8.175078, 0.030096054, -0.032167412, 10.157692
268991359192579, 6.023931, 0.058624156, 8.140383, 0.013008118, -0.032780457, 10.126982
268991368832787, 5.994021, 0.0634098, 8.141579, 0.038187504, -0.037613876, 10.11013
268991378472996, 5.973682, 0.032303106, 8.161918, 0.066958904, -0.0063687973, 10.114262
268991388113204, 5.9820566, 0.043070808, 8.1344, 0.0426445, -0.016732361, 10.097189
268991397753412, 6.0011992, 0.07298109, 8.165507, 0.044879913, -0.046756554, 10.133658
268991407393621, 5.9964137, 0.0526421, 8.130812, 0.027965546, -0.026616476, 10.102889
268991417033829, 5.9844494, 0.020338992, 8.068598, 2.6798248E-4, 0.006194556, 10.04571
268991426674037, 6.0227346, -0.0047856453, 8.060223, -0.032387733, 0.030007603, 10.06174
268991436314246, 6.0047884, 0.01794617, 8.047063, -0.025965214, 0.0073565617, 10.040533
268991445954454, 6.023931, 0.046660043, 8.009974, -0.061512947, -0.021889858, 10.022242
268991455594662, 6.0119667, 0.031106694, 7.9968133, -0.05786705, -0.006745726, 10.004517
268991465234871, 5.983253, 0.011964113, 8.025527, -0.015316963, 0.011194274, 10.010405
268991474875079, 5.986842, 0.025124637, 8.033902, -0.012351513, -0.001366593, 10.0192995
268991484515287, 6.0011992, 0.031106694, 8.062616, -0.0070648193, -0.00630378, 10.050923
268991494155496, 5.9904313, 0.023928227, 8.043473, -0.00982666, 0.002876982, 10.029118
268991503795704, 5.973682, 0.0011964113, 8.024331, -0.007665634, 0.029543437, 10.003691
268991513435912, 5.973682, 0.010767702, 8.062616, 0.014975071, 0.019475207, 10.034451
268991523076121, 6.007181, 0.04426722, 8.073383, -0.005789757, -0.013324709, 10.063175
268991532716329, 6.0155563, 0.0526421, 8.130812, 0.02189684, -0.021936707, 10.114288
268991542356537, 5.9844494, 0.008374879, 8.111669, 0.035017967, 0.021678276, 10.080238
268991551996850, 6.0047884, 0.020338992, 8.117651, 0.021503448, 0.008794371, 10.097209
268991561637058, 6.01436, 0.029910283, 8.110473, 0.0083322525, -0.0023570545, 10.097183
268991571277266, 6.0023956, 0.0, 8.123632, 0.024618626, 0.026449315, 10.100538
268991580917475, 5.9916277, -0.0059820567, 8.116454, 0.028282166, 0.031435154, 10.088344
268991590557683, 5.992824, 0.022731815, 8.0817585, 0.0052781105, 0.0022433288, 10.0612755
268991600197891, 6.0023956, 0.058624156, 8.088937, 0.0013446808, -0.03249424, 10.072836
268991609838100, 6.0047884, 0.09451649, 8.086544, -0.0027270317, -0.06834099, 10.072434
268991619478308, 6.0083776, 0.104087785, 8.072187, -0.015185356, -0.07145215, 10.063117
268991629118516, 6.0191455, 0.10289137, 8.105687, -0.0038442612, -0.07035883, 10.09643