timestamp_acc,device_acc_x,device_acc_y,device_acc_z,earth_acc_x,earth_acc_y,earth_acc_z
778610558238858, 0.89491564, 5.2606206, 8.403593, -0.015674591, -0.011340022, 9.954646
778610567878233, 0.89371926, 5.24746, 8.329415, -0.04168129, -0.02057743, 9.884916
778610577517660, 0.8853444, 5.2331033, 8.292327, -0.04436922, -0.028063178, 9.84526
778610587157087, 0.88295156, 5.259424, 8.297112, -0.058506012, -0.040575266, 9.862968
778610596796462, 0.8781659, 5.278567, 8.346166, -0.04476261, -0.043911815, 9.914079
778610606435889, 0.8757731, 5.261817, 8.398808, -0.0064668655, -0.027297258, 9.949516
778610616075316, 0.8781659, 5.2570314, 8.457432, 0.023426056, -0.01180923, 9.99675
778610625714691, 0.8817552, 5.258228, 8.500503, 0.04093933, -0.0011782646, 10.034107
778610635354066, 0.8817552, 5.2498527, 8.525627, 0.058386326, 0.007462263, 10.050936
778610644993493, 0.8853444, 5.2462635, 8.49811, 0.04542494, 0.0072256327, 10.026108
778610654632920, 0.90329057, 5.221139, 8.4502535, 0.030088425, 0.024229646, 9.974041
778610664272295, 0.9320044, 5.227121, 8.419147, -0.0040664673, 0.03974092, 9.9534855
778610673911670, 0.9296116, 5.2462635, 8.395218, -0.02639389, 0.022055507, 9.943135
778610683551097, 0.9236295, 5.2570314, 8.386844, -0.034178257, 0.009727836, 9.941196
778610693190524, 0.92243314, 5.2630134, 8.373683, -0.043591022, 0.0030753613, 9.93312
778610702829899, 0.9068798, 5.2630134, 8.385647, -0.029785633, -0.007817984, 9.941824
778610712469326, 0.89491564, 5.282156, 8.415557, -0.02158451, -0.021197796, 9.976108
778610722108753, 0.87218386, 5.2773705, 8.419147, -0.004910469, -0.03683281, 9.974566
778610731748128, 0.8769695, 5.2701917, 8.43111, 0.003033638, -0.026303291, 9.981329
778610741387503, 0.86859465, 5.265406, 8.447861, 0.01894617, -0.027677417, 9.992207
778610751026930, 0.8925229, 5.2510495, 8.458628, 0.021871567, 0.0020700693, 9.9959
778610760666358, 0.9212367, 5.2534423, 8.423932, -0.011719227, 0.018268347, 9.970432
778610770305733, 0.91525465, 5.2534423, 8.4347, -0.0033388138, 0.014935613, 9.978992
778610779945108, 0.9236295, 5.272585, 8.423932, -0.024952888, 0.0095899105, 9.98074
778610789584535, 0.9200403, 5.2737813, 8.403593, -0.03329563, 0.001547575, 9.9638605
778610799223962, 0.92602235, 5.2570314, 8.396415, -0.027832985, 0.013394713, 9.94951
778610808863337, 0.9176475, 5.2498527, 8.368897, -0.031482697, 0.00421679, 9.921718
778610818502764, 0.91405827, 5.2606206, 8.368897, -0.036696434, -0.0035668612, 9.927071
778610828142191, 0.92482597, 5.2701917, 8.368897, -0.048866272, 0.0011446476, 9.933091
778610837781566, 0.8961121, 5.2570314, 8.38804, -0.016065598, -0.013110995, 9.939728
778610847420941, 0.88414794, 5.2402816, 8.432307, 0.023383617, -0.0068222284, 9.96722
778610857060368, 0.9020941, 5.2402816, 8.456235, 0.024203777, 0.012991667, 9.989069
778610866699795, 0.8913264, 5.245067, 8.4813595, 0.03861618, 0.0067112446, 10.011849
778610876339170, 0.8781659, 5.2498527, 8.475378, 0.038220406, -0.008760214, 10.008129
778610885978545, 0.88295156, 5.2510495, 8.437093, 0.015145779, -0.013072252, 9.976837
778610895617972, 0.8709874, 5.2426744, 8.4012, 0.009809494, -0.026022673, 9.9410095
778610905257399, 0.8961121, 5.2570314, 8.355737, -0.035616398, -0.01990962, 9.91242
778610914896774, 0.8781659, 5.258228, 8.3377905, -0.03471136, -0.038297415, 9.896274
778610924536201, 0.8745767, 5.237889, 8.360522, -0.0066952705, -0.02706778, 9.904441
778610934175628, 0.89013004, 5.24746, 8.382058, -0.010560989, -0.013778925, 9.929087
778610943815003, 0.9056834, 5.255835, 8.426325, -0.0027828217, 0.0033566952, 9.972311
778610953454378, 0.92243314, 5.2606206, 8.472985, 0.008553982, 0.023541212, 10.015781
778610963093805, 0.9415757, 5.2570314, 8.492127, 0.010815144, 0.0445199, 10.031803
778610972733233, 0.9391829, 5.252246, 8.4682, 0.0040283203, 0.03910637, 10.008848
778610982372608, 0.9451649, 5.245067, 8.429914, -0.0123353, 0.039918184, 9.973253
778610992012035, 0.9403793, 5.252246, 8.409575, -0.025689602, 0.02834022, 9.959412
778611001651462, 0.9176475, 5.267799, 8.372486, -0.043087006, -0.006177187, 9.934203
778611011290837, 0.8889336, 5.271388, 8.35454, -0.03946638, -0.036367178, 9.918324
778611020930212, 0.86261255, 5.259424, 8.3784685, -0.005214691, -0.048552513, 9.929853
778611030569639, 0.87218386, 5.2701917, 8.435896, 0.011087894, -0.03331542, 9.984925
778611040209066, 0.8817552, 5.2510495, 8.439486, 0.021048546, -0.014700532, 9.978741
778611049848441, 0.8877372, 5.241478, 8.429914, 0.020086765, -0.006876588, 9.96615
778611059487816, 0.9068798, 5.245067, 8.410771, -0.002448082, 0.004945278, 9.953603
778611069127243, 0.91525465, 5.237889, 8.409575, -0.0022072792, 0.015286207, 9.949568
778611078766670, 0.9200403, 5.2402816, 8.386844, -0.017140388, 0.014045477, 9.9320545
778611088406045, 0.9284152, 5.2342997, 8.376076, -0.021842957, 0.0219388, 9.920561
778611098045420, 0.9128618, 5.2426744, 8.390432, -0.012663841, 0.0069367886, 9.9356985
778611107684847, 0.9176475, 5.2498527, 8.425129, -0.0030355453, 0.014549375, 9.969234
778611117324274, 0.90089774, 5.259424, 8.4682, 0.01964426, 0.0024869442, 10.009155
778611126963649, 0.89491564, 5.2606206, 8.5112705, 0.042886734, 0.004496813, 10.045641
778611136603024, 0.8865408, 5.2570314, 8.496913, 0.042472363, -0.0036722422, 10.030855
778611146242451, 0.8997013, 5.2510495, 8.428718, 0.006930828, -0.0022701025, 9.97127
778611155881878, 0.9128618, 5.259424, 8.374879, -0.031000137, -0.0048692226, 9.931389
778611165521253, 0.9212367, 5.2606206, 8.32463, -0.059551716, -0.007932305, 9.890331
778611175160680, 0.91166544, 5.2570314, 8.300702, -0.0639534, -0.019340158, 9.867356
778611184800108, 0.9020941, 5.2486563, 8.322237, -0.041467667, -0.017995, 9.88027
778611194439483, 0.8913264, 5.2510495, 8.367701, -0.015580654, -0.019450903, 9.9189625
778611204078858, 0.8985049, 5.2426744, 8.4347, 0.019825459, 0.0044927597, 9.971797
778611213718285, 0.9176475, 5.2426744, 8.492127, 0.037527084, 0.032149673, 10.022051
778611223357712, 0.90089774, 5.2486563, 8.513663, 0.051481724, 0.018590093, 10.041886
778611232997087, 0.8805587, 5.2546387, 8.4909315, 0.04534149, -0.0073549747, 10.023993
778611242636462, 0.8925229, 5.261817, 8.433503, 0.005818844, -0.012616992, 9.980337
778611252275889, 0.90807617, 5.258228, 8.396415, -0.017602444, -0.0047186613, 9.948519
778611261915316, 0.9176475, 5.2462635, 8.352147, -0.033459663, 0.0012769699, 9.905686
778611271554691, 0.9128618, 5.2486563, 8.322237, -0.04651642, -0.0098205805, 9.881249
778611281194066, 0.9020941, 5.239085, 8.327023, -0.031339645, -0.013186693, 9.879269
778611290833493, 0.910469, 5.2642097, 8.365308, -0.034347534, -0.01010406, 9.925622
778611300472920, 0.8913264, 5.2977095, 8.41795, -0.021845818, -0.032277107, 9.986018
778611310112295, 0.91166544, 5.2845488, 8.462217, -9.813309E-4, -2.975464E-4, 10.01832
778611319751670, 0.89491564, 5.2833524, 8.477771, 0.015872955, -0.011241913, 10.029302
778611329391097, 0.9176475, 5.2642097, 8.457432, 0.0076084137, 0.013266921, 10.004093
778611339030524, 0.9164511, 5.2498527, 8.422736, 0.0014543533, 0.012273312, 9.967104
778611348669899, 0.93679005, 5.245067, 8.382058, -0.025069237, 0.024457574, 9.932068
778611358309274, 0.92243314, 5.2462635, 8.359326, -0.029538631, 0.007178664, 9.912194
778611367948701, 0.8925229, 5.2606206, 8.350951, -0.029109001, -0.026997566, 9.909972
778611377588128, 0.8805587, 5.2606206, 8.356933, -0.020225048, -0.035559654, 9.9139385
778611387227503, 0.8757731, 5.2534423, 8.390432, 0.0040602684, -0.029802442, 9.938012
778611396866878, 0.86141616, 5.259424, 8.407183, 0.015131474, -0.04133725, 9.954012
778611406506253, 0.8865408, 5.261817, 8.416754, 0.0043940544, -0.018191814, 9.965644
778611416145680, 0.8961121, 5.2701917, 8.420342, -0.004494667, -0.013237596, 9.973961
778611425785108, 0.9056834, 5.259424, 8.427522, 0.001396656, 0.0016429424, 9.975216
778611435424483, 0.91525465, 5.261817, 8.438289, 3.194809E-4, 0.010468483, 9.986443
778611445063858, 0.930808, 5.261817, 8.438289, -0.0076522827, 0.023761034, 9.987854
778611454703285, 0.9200403, 5.252246, 8.425129, -0.0013999939, 0.015915394, 9.970711
778611464342712, 0.90807617, 5.224728, 8.409575, 0.016762257, 0.015322447, 9.941975
778611473982087, 0.910469, 5.235496, 8.402397, 0.0046076775, 0.010827422, 9.941806
778611483621462, 0.9128618, 5.2510495, 8.361719, -0.02757454, -0.0023636818, 9.915869
778611493260889, 0.89491564, 5.2462635, 8.347362, -0.021915436, -0.017907977, 9.899586
778611502900316, 0.8889336, 5.259424, 8.356933, -0.023407936, -0.027158141, 9.91407
778611512539691, 0.89371926, 5.265406, 8.385647, -0.015788078, -0.020383358, 9.941912
778611522179066, 0.8985049, 5.271388, 8.444271, 0.006503582, -0.008096337, 9.995021
778611531818441, 0.8913264, 5.2689953, 8.489735, 0.03392315, -0.004933715, 10.031509
778611541457868, 0.90329057, 5.261817, 8.4813595, 0.02864027, 0.007229805, 10.021739
778611551097295, 0.90448695, 5.261817, 8.458628, 0.016994476, 0.003991723, 10.0026455
778611560736670, 0.910469, 5.2426744, 8.41795, 0.0073637962, 0.009957433, 9.95873
778611570376045, 0.9200403, 5.2570314, 8.366505, -0.031868458, 0.00242424, 9.923721
778611580015472, 0.91525465, 5.252246, 8.349754, -0.033596516, -0.0023678541, 9.906617
778611589654899, 0.9212367, 5.267799, 8.333005, -0.055974007, -0.007594943, 9.901222
778611599294274, 0.9068798, 5.099105, 8.350951, 0.08092308, 0.06211388, 9.826052
778611608933649, 0.96909314, 5.7343993, 8.472985, -0.34136486, -0.15905452, 10.269962
778611618573024, 0.849452, 4.597809, 8.242078, 0.41268587, 0.2301619, 9.464144
778611628212451, 0.9595219, 5.9342003, 8.550752, -0.43939495, -0.25009096, 10.440074
778611637851878, 0.9020941, 4.694718, 8.311469, 0.34264207, 0.24332619, 9.579043
778611647491253, 0.87936234, 5.6446686, 8.562716, -0.17900372, -0.17787433, 10.290383
778611657130628, 0.95353985, 5.123033, 8.396415, 0.06003666, 0.101371765, 9.881327
778611666770055, 0.8039884, 5.157729, 8.4347, 0.13332272, -0.034098983, 9.918356
778611676409483, 1.0313065, 5.5716877, 8.439486, -0.27303457, -0.044682026, 10.161478
778611686048858, 0.7956135, 4.6815577, 8.268398, 0.38512945, 0.15598929, 9.5259495
778611695688233, 0.9942178, 5.889933, 8.480164, -0.4577551, -0.2190975, 10.360279
778611705327608, 0.7800602, 4.4949174, 8.209774, 0.49178267, 0.22364247, 9.376636
778611714967035, 0.9451649, 5.962914, 8.505288, -0.45929384, -0.29269648, 10.415998
778611724606462, 0.8757731, 4.686343, 8.251649, 0.33434463, 0.2234577, 9.521384
778611734245837, 0.89013004, 5.6853466, 8.530413, -0.224967, -0.19953203, 10.285572
778611743885212, 0.96909314, 5.0775695, 8.382058, 0.07133865, 0.13308263, 9.846672
778611753524587, 0.8279166, 5.180461, 8.493324, 0.13352776, -0.010113955, 9.982047
778611763164014, 1.0217353, 5.5537415, 8.465807, -0.24249935, -0.04459071, 10.173351
778611772803441, 0.80877405, 4.7377887, 8.366505, 0.3812523, 0.17201757, 9.639721
778611782442816, 1.0444671, 5.918647, 8.562716, -0.46172094, -0.18122947, 10.449658
778611792082191, 0.8063812, 4.5092745, 8.280363, 0.50136566, 0.2529416, 9.446315
778611801721566, 0.9619147, 5.9820566, 8.510074, -0.48717976, -0.29220724, 10.431152
778611811360941, 0.85184485, 4.62413, 8.158329, 0.33929682, 0.20746934, 9.40789
778611821000368, 0.8853444, 5.7080784, 8.419147, -0.29481792, -0.23343158, 10.203265
778611830639795, 0.92602235, 5.029713, 8.258827, 0.07176232, 0.09352815, 9.713387
778611840279170, 0.8255238, 5.2570314, 8.4347, 0.057206154, -0.060637593, 9.972716
778611849918545, 0.9834501, 5.508278, 8.453842, -0.1935134, -0.049071193, 10.135871
778611859557920, 0.7477571, 4.761717, 8.392825, 0.41692853, 0.10453355, 9.668912
778611869197347, 1.0013963, 5.8827543, 8.636893, -0.3702898, -0.18207788, 10.48977
778611878836774, 0.79920274, 4.508078, 8.395218, 0.5633836, 0.28657007, 9.5415745
778611888476149, 0.9774681, 5.9497533, 8.609376, -0.4174242, -0.23898327, 10.4997635
778611898115524, 0.86859465, 4.5714874, 8.219346, 0.39320827, 0.26385856, 9.433258
778611907754899, 0.9284152, 5.7667027, 8.400003, -0.36545706, -0.23489451, 10.221943
778611917394274, 0.93320084, 4.9986067, 8.189436, 0.058779716, 0.10603392, 9.638936
778611927033701, 0.8039884, 5.306084, 8.334201, -0.013605595, -0.12513268, 9.91181
778611936673128, 1.0049855, 5.4999027, 8.335398, -0.2540555, -0.053492546, 10.033464
778611946312503, 0.8003992, 4.8586264, 8.322237, 0.29086804, 0.09074271, 9.665077
778611955951878, 1.0277174, 5.8743796, 8.566305, -0.40935373, -0.16570961, 10.42838
778611965591253, 0.78723866, 4.51406, 8.38804, 0.56448793, 0.2634014, 9.537697
778611975230628, 0.971486, 5.979664, 8.678768, -0.40371752, -0.25204825, 10.573301
778611984870055, 0.8554341, 4.551149, 8.299505, 0.4526751, 0.28532767, 9.488951
778611994509483, 0.92482597, 5.7762737, 8.488539, -0.32622862, -0.22340155, 10.301437
778612004148858, 0.9391829, 4.9160542, 8.242078, 0.13661933, 0.16414857, 9.640327
778612013788233, 0.8147561, 5.389833, 8.3581295, -0.068068504, -0.15204704, 9.977211
778612023427608, 0.9631111, 5.45085, 8.282756, -0.22481632, -0.074460626, 9.959282
778612033066983, 0.76570326, 4.8658047, 8.280363, 0.28142595, 0.055533648, 9.630395
778612042706358, 1.0360922, 5.8265233, 8.5112705, -0.41297865, -0.15297425, 10.357105
778612052345785, 0.79920274, 4.546363, 8.364112, 0.5286927, 0.25677288, 9.535254
778612061985212, 0.9726824, 6.003592, 8.657232, -0.43504906, -0.25945628, 10.567892
778612071624587, 0.84347, 4.5296135, 8.300702, 0.48200107, 0.29210973, 9.476962
778612081263962, 0.9379865, 5.818148, 8.537591, -0.33606958, -0.22286475, 10.3662195
778612090903337, 0.94396853, 4.88734, 8.280363, 0.16331339, 0.19046557, 9.658087
778612100542712, 0.85184485, 5.3994045, 8.425129, -0.061573982, -0.110882044, 10.042206
778612110182139, 0.99661064, 5.3359947, 8.338987, -0.13789272, 0.024406195, 9.949129
778612119821566, 0.7788638, 4.8825545, 8.297112, 0.2722404, 0.05959916, 9.6545515
778612129460941, 1.0013963, 5.8013983, 8.453842, -0.4078064, -0.17913806, 10.292137
778612139100316, 0.7513463, 4.5535417, 8.306684, 0.51240325, 0.20273077, 9.486654
778612148739691, 0.9523434, 6.007181, 8.608179, -0.4501648, -0.29174912, 10.526451
778612158379066, 0.8207382, 4.540381, 8.323434, 0.49117422, 0.2654426, 9.500341
778612168018441, 0.90807617, 5.877969, 8.592627, -0.35037088, -0.26226187, 10.441112
778612177657816, 0.88295156, 4.837091, 8.3174515, 0.25635576, 0.1722269, 9.657208
778612187297243, 0.83988076, 5.454439, 8.471788, -0.07273817, -0.13381636, 10.109615
778612196936670, 1.0037891, 5.3156557, 8.318648, -0.14192724, 0.038251877, 9.921799
778612206576045, 0.82911307, 4.9639106, 8.281559, 0.1803937, 0.05832994, 9.688969
778612216215420, 1.0707881, 5.7667027, 8.420342, -0.43826866, -0.10422242, 10.251863
778612225854795, 0.79920274, 4.5834517, 8.303095, 0.47401023, 0.22372246, 9.503337
778612235494170, 1.0193424, 6.0047884, 8.626125, -0.4670329, -0.22146535, 10.5470085
778612245133545, 0.8554341, 4.510471, 8.334201, 0.50279593, 0.30817413, 9.4966955
778612254772972, 0.9415757, 5.861219, 8.599805, -0.34057856, -0.22193086, 10.441833
778612264412399, 0.8913264, 4.7653065, 8.304291, 0.29715157, 0.21098197, 9.608903
778612274051774, 0.8446664, 5.5130634, 8.471788, -0.11324215, -0.15991604, 10.141011
778612283691149, 0.9595219, 5.2689953, 8.322237, -0.08081484, 0.025185823, 9.8962345
778612293330524, 0.7573284, 5.0069814, 8.298309, 0.19740915, -0.019490957, 9.719363
778612302969899, 0.997807, 5.7116675, 8.389236, -0.376616, -0.1464299, 10.189936
778612312609274, 0.7848458, 4.60738, 8.260024, 0.43624258, 0.19227159, 9.478641
778612322248649, 0.99661064, 5.985646, 8.5423765, -0.4915824, -0.2531103, 10.463636
778612331888076, 0.8171489, 4.51406, 8.27797, 0.4907298, 0.26691222, 9.447604
778612341527503, 0.9499506, 5.9246287, 8.563912, -0.41479445, -0.25891626, 10.44534
778612351166878, 0.9128618, 4.759324, 8.30788, 0.2933097, 0.23150575, 9.61071
778612360806253, 0.87218386, 5.5740805, 8.55793, -0.13048172, -0.14487529, 10.248476
778612370445628, 0.9810573, 5.215157, 8.427522, -0.0029592514, 0.09194839, 9.958664
778612380085003, 0.80518484, 5.087141, 8.43111, 0.17892766, 0.00364995, 9.878204
778612389724378, 1.0097711, 5.676972, 8.456235, -0.32738686, -0.10013938, 10.229288
778612399363753, 0.78723866, 4.619344, 8.274381, 0.43837118, 0.17636955, 9.497379
778612409003128, 1.0492527, 5.953343, 8.495717, -0.52683926, -0.18403304, 10.411964
778612418642503, 0.8111669, 4.490132, 8.189436, 0.47768092, 0.23499167, 9.359634
778612428281930, 0.91884387, 5.953343, 8.482556, -0.4587407, -0.29459453, 10.389566
778612437921358, 0.8650054, 4.7078786, 8.222935, 0.31114006, 0.1890055, 9.507707
778612447560733, 0.85902333, 5.621937, 8.499306, -0.18589592, -0.18842077, 10.223124
778612457200108, 0.9619147, 5.15414, 8.379665, 0.025340557, 0.097340465, 9.884286
778612466839483, 0.7860422, 5.1122656, 8.433503, 0.1724279, -0.020647168, 9.891762
778612476478858, 0.997807, 5.6147585, 8.472985, -0.27021646, -0.07781708, 10.209485
778612486118233, 0.7716853, 4.662415, 8.364112, 0.45664, 0.16579652, 9.59458
778612495757608, 1.0085747, 5.9473605, 8.572288, -0.4575138, -0.20666051, 10.4699745
778612505396983, 0.8327023, 4.4841495, 8.270791, 0.5049343, 0.2955866, 9.4268055
778612515036358, 0.9942178, 5.9581285, 8.505288, -0.48613214, -0.24216926, 10.417904
778612524675785, 0.9176475, 4.6731825, 8.195417, 0.29331183, 0.2568909, 9.470668
778612534315212, 0.88295156, 5.6853466, 8.476574, -0.2542491, -0.20537364, 10.239544
778612543954587, 0.9415757, 5.1014977, 8.377272, 0.066429615, 0.103016496, 9.85269
778612553593962, 0.7501499, 5.1852465, 8.506484, 0.17241573, -0.07303798, 9.988729
778612563233337, 0.9762716, 5.611169, 8.534002, -0.23212337, -0.0819428, 10.257042
778612572872712, 0.7728817, 4.705486, 8.380861, 0.42974782, 0.16678345, 9.631474
778612582512087, 1.0241281, 5.9138613, 8.544769, -0.45383215, -0.19566476, 10.430315
778612592151462, 0.83748794, 4.4685965, 8.2145605, 0.47141027, 0.2979635, 9.37218
778612601790837, 1.0085747, 5.960521, 8.433503, -0.5384159, -0.2567966, 10.359208
778612611430212, 0.90089774, 4.5930233, 8.116454, 0.3048308, 0.2664944, 9.360577
778612621069639, 0.8877372, 5.676972, 8.423932, -0.27441692, -0.21346462, 10.191068
778612630709066, 0.9236295, 5.029713, 8.336594, 0.10241318, 0.11565089, 9.778858
778612640348441, 0.77647096, 5.2510495, 8.519645, 0.1188941, -0.07645059, 10.036971
778612649987816, 0.96789676, 5.538188, 8.580662, -0.15526962, -0.042021036, 10.257206
778612659627191, 0.7537391, 4.7306104, 8.502895, 0.4823029, 0.14932835, 9.74634
778612669266566, 1.006182, 5.8827543, 8.665607, -0.38270664, -0.15667093, 10.513846
778612678905941, 0.80757767, 4.4925246, 8.336594, 0.53157425, 0.27545226, 9.485531
778612688545316, 0.9738788, 5.9748783, 8.512466, -0.5023608, -0.26444054, 10.430121
778612698184691, 0.86859465, 4.604987, 8.128419, 0.3264296, 0.23842382, 9.373803
778612707824066, 0.9020941, 5.771488, 8.34138, -0.39813662, -0.2671417, 10.172149
778612717463441, 0.9379865, 5.015356, 8.181061, 0.026997328, 0.1023947, 9.64117
778612727102816, 0.8111669, 5.2977095, 8.376076, 7.009506E-5, -0.09723127, 9.943487
778612736742191, 0.9810573, 5.483153, 8.437093, -0.19196129, -0.035501838, 10.108109
778612746381618, 0.762114, 4.802395, 8.457432, 0.40147376, 0.12553167, 9.746541
778612756021045, 0.9798609, 5.844469, 8.687142, -0.32997227, -0.1597631, 10.50952
778612765660420, 0.7800602, 4.485346, 8.449057, 0.60759187, 0.29145646, 9.573885
778612775299795, 0.9738788, 5.98086, 8.645268, -0.4430728, -0.24462664, 10.545315
778612784939170, 0.86261255, 4.5631127, 8.2253275, 0.39101386, 0.27222574, 9.433722
778612794578545, 0.8997013, 5.782256, 8.411968, -0.37236547, -0.26351786, 10.237043
778612804217920, 0.93679005, 4.928018, 8.2145605, 0.103545904, 0.15681183, 9.623235
778612813857295, 0.8386843, 5.3647084, 8.366505, -0.069422245, -0.113153815, 9.973177
778612823496670, 1.0145568, 5.444868, 8.322237, -0.2418356, -0.014274001, 9.993841
778612833136045, 0.77647096, 4.851448, 8.32463, 0.29605865, 0.08424628, 9.66148
778612842775420, 1.0013963, 5.8636117, 8.5423765, -0.4133911, -0.18269575, 10.399647
778612852414795, 0.7752745, 4.536792, 8.379665, 0.5454929, 0.24397945, 9.541763
778612862054170, 0.97507524, 5.983253, 8.6548395, -0.44053364, -0.23817778, 10.554883
778612871693597, 0.8458628, 4.53081, 8.330612, 0.48696184, 0.29490042, 9.503617
778612881333024, 0.92602235, 5.802595, 8.565108, -0.33479834, -0.2085402, 10.379458
778612890972399, 0.9272188, 4.880162, 8.322237, 0.1953795, 0.19187534, 9.688154
778612900611774, 0.8255238, 5.3994045, 8.463413, -0.04875517, -0.11827111, 10.072142
778612910251149, 0.9738788, 5.389833, 8.34138, -0.17802715, -0.015612364, 9.977247
778612919890524, 0.74536425, 4.900501, 8.321041, 0.27656627, 0.026412249, 9.6815815
778612929529899, 0.9667004, 5.8061843, 8.487342, -0.3883791, -0.1910007, 10.3195915
778612939169274, 0.7429714, 4.570291, 8.309076, 0.502969, 0.18697298, 9.496966
778612948808649, 0.95832545, 5.9617176, 8.549556, -0.4615612, -0.2550714, 10.453576
778612958448024, 0.8315059, 4.506881, 8.248059, 0.4645052, 0.27351797, 9.420365
778612968087399, 0.87936234, 5.8157554, 8.537591, -0.32770348, -0.24942875, 10.3594
778612977726774, 0.8961121, 4.8251266, 8.316256, 0.2443645, 0.19542503, 9.651274
778612987366149, 0.83389866, 5.430511, 8.52802, -0.041164875, -0.10678601, 10.143957
778612997005576, 0.9631111, 5.3132625, 8.435896, -0.07500887, 0.037809014, 10.01577
778613006645003, 0.7956135, 4.959125, 8.40479, 0.2455082, 0.06008184, 9.787875
778613016284378, 1.0396814, 5.7667027, 8.516056, -0.39494085, -0.10015142, 10.329231
778613025923753, 0.79920274, 4.564309, 8.333005, 0.4895804, 0.23564184, 9.519214
778613035563128, 0.96909314, 5.9880385, 8.556734, -0.48519468, -0.25760555, 10.474335
778613045202503, 0.8219346, 4.5152564, 8.232507, 0.45508552, 0.2547152, 9.410914
778613054841878, 0.9056834, 5.8683977, 8.513663, -0.4003911, -0.2617736, 10.368798
778613064481253, 0.8853444, 4.779663, 8.285149, 0.2700708, 0.19639206, 9.600063
778613074120628, 0.7956135, 5.511867, 8.519645, -0.08697176, -0.18456519, 10.176267
778613083760003, 0.9379865, 5.279763, 8.41795, -0.0481596, 0.0269413, 9.980709
778613093399378, 0.7573284, 4.9722853, 8.402397, 0.25482416, 0.02221477, 9.789383
778613103038753, 0.9906286, 5.7140603, 8.472985, -0.3516965, -0.13194442, 10.260713
778613112678128, 0.78364944, 4.6121655, 8.309076, 0.44478393, 0.20882547, 9.522894
778613122317503, 1.012164, 5.959325, 8.562716, -0.48191452, -0.21465409, 10.4680395
778613131956930, 0.84107715, 4.4985065, 8.285149, 0.47924852, 0.31116056, 9.447813
778613141596358, 0.96909314, 5.9114685, 8.547162, -0.43123102, -0.23286736, 10.425853
778613151235733, 0.90448695, 4.7581277, 8.287541, 0.26728535, 0.23214543, 9.592491
778613160875108, 0.8315059, 5.5597234, 8.520842, -0.13685846, -0.18094671, 10.2056465
778613170514483, 0.94755775, 5.2103715, 8.396415, -0.015919209, 0.0641737, 9.926794
778613180153858, 0.80757767, 5.066802, 8.427522, 0.17330647, 0.021009207, 9.864955
778613189793233, 0.99661064, 5.6793647, 8.46461, -0.3349061, -0.10718489, 10.235937
778613199432608, 0.7645068, 4.6002016, 8.301898, 0.4588368, 0.17985678, 9.509205
778613209071983, 0.9846465, 5.9318075, 8.536395, -0.46482038, -0.22643173, 10.428738
778613218711358, 0.80997044, 4.487739, 8.257631, 0.4953053, 0.27127945, 9.416231
778613228350733, 0.9272188, 5.907879, 8.541181, -0.4267397, -0.2629758, 10.41457
778613237990108, 0.84825563, 4.692325, 8.293523, 0.34019518, 0.20997071, 9.558249
778613247629483, 0.80518484, 5.595616, 8.563912, -0.124341965, -0.2081418, 10.258707
778613257268858, 0.8997013, 5.157729, 8.414361, 0.04875183, 0.05109644, 9.910002
778613266908285, 0.7704889, 5.1026945, 8.438289, 0.16959715, -0.02110517, 9.889726
778613276547712, 1.0253245, 5.65424, 8.435896, -0.34903812, -0.08494663, 10.200834
778613286187087, 0.82911307, 4.6875396, 8.305488, 0.35761023, 0.202577, 9.564133
778613295826462, 1.032503, 5.942575, 8.53161, -0.5092859, -0.19723809, 10.434095
778613305465837, 0.83030945, 4.4721856, 8.27797, 0.4994998, 0.3068868, 9.427139
778613315105212, 0.95473623, 5.9210396, 8.541181, -0.43976593, -0.24729371, 10.424369
778613324744587, 0.86261255, 4.658826, 8.299505, 0.3559847, 0.24002266, 9.547052
778613334383962, 0.8386843, 5.663811, 8.569894, -0.19376183, -0.21913767, 10.302411
778613344023337, 0.92243314, 5.117051, 8.413164, 0.06237316, 0.088362336, 9.889627
778613353662712, 0.7704889, 5.1732826, 8.46461, 0.1331284, -0.052544236, 9.949154
778613363302087, 0.9810573, 5.5920267, 8.435896, -0.2844453, -0.09198058, 10.164064
778613372941462, 0.78364944, 4.7246284, 8.309076, 0.35594463, 0.15126944, 9.582661
778613382580889, 1.0277174, 5.9210396, 8.519645, -0.48854017, -0.20028818, 10.412516
778613392220316, 0.8255238, 4.4805603, 8.273184, 0.4868679, 0.30827284, 9.42711
778613401859691, 0.94396853, 5.9449677, 8.541181, -0.4445839, -0.27900004, 10.435994
778613411499066, 0.8554341, 4.6037908, 8.252846, 0.37131548, 0.25656247, 9.477998
778613421138441, 0.8709874, 5.6614184, 8.538788, -0.21671152, -0.19361293, 10.277972
778613430777816, 0.93679005, 5.023731, 8.391629, 0.10973263, 0.14671063, 9.823508
778613440417191, 0.78723866, 5.1816573, 8.502895, 0.13410258, -0.0348258, 9.987459
778613450056566, 0.9834501, 5.5166526, 8.487342, -0.2116251, -0.042669296, 10.168039
778613459695941, 0.7728817, 4.738985, 8.370093, 0.38358808, 0.14550078, 9.640823
778613469335316, 0.9798609, 5.899504, 8.583055, -0.42303658, -0.21384585, 10.450283
778613478974691, 0.7800602, 4.5152564, 8.3377905, 0.5200634, 0.2570392, 9.496223
778613488614118, 0.95832545, 5.960521, 8.565108, -0.4607067, -0.26359117, 10.465447
778613498253545, 0.87338024, 4.595416, 8.226524, 0.35834002, 0.2747568, 9.4526415
778613507892920, 0.8925229, 5.743971, 8.455039, -0.32656574, -0.23791397, 10.252523
778613517532295, 0.93679005, 5.0177493, 8.300702, 0.06595445, 0.12614715, 9.74355
778613527171670, 0.79920274, 5.271388, 8.447861, 0.041968346, -0.080215216, 9.989214
778613536811045, 0.99900347, 5.4783673, 8.421539, -0.22264719, -0.021363616, 10.093703
778613546450420, 0.77647096, 4.7784667, 8.364112, 0.35281658, 0.1273644, 9.656828
778613556089795, 0.9906286, 5.8683977, 8.583055, -0.40885687, -0.18319404, 10.434921
778613565729170, 0.7680961, 4.49731, 8.360522, 0.5484631, 0.2639222, 9.504927
778613575368545, 0.9631111, 5.9724855, 8.622537, -0.4531064, -0.2569443, 10.520218
778613585007920, 0.8709874, 4.570291, 8.300702, 0.40743756, 0.2925347, 9.502434
778613594647295, 0.8997013, 5.743971, 8.534002, -0.2945838, -0.2134062, 10.319862
778613604286722, 0.9164511, 4.9136615, 8.328219, 0.16268396, 0.17292261, 9.71014
778613613926149, 0.8135597, 5.3156557, 8.467003, 0.01210022, -0.08555651, 10.029992
778613623565524, 0.9846465, 5.447261, 8.390432, -0.21107483, -0.027282476, 10.049688
778613633204899, 0.7812566, 4.84068, 8.333005, 0.28824162, 0.0941633, 9.663828
778613642844274, 1.0049855, 5.8193445, 8.530413, -0.41301966, -0.1619426, 10.365609
778613652483649, 0.80997044, 4.526024, 8.343773, 0.5043571, 0.2695707, 9.509599
778613662123024, 0.97866446, 5.994021, 8.622537, -0.4774871, -0.2516718, 10.532942
778613671762399, 0.8279166, 4.564309, 8.319844, 0.4472649, 0.2584288, 9.5116415
778613681401774, 0.82672024, 5.831309, 8.559127, -0.30531502, -0.31090975, 10.380577
778613691041201, 0.8853444, 4.8765726, 8.350951, 0.21578956, 0.17117655, 9.707077
778613700680628, 0.80877405, 5.332405, 8.427522, -0.013051987, -0.10880482, 10.004989
778613710320003, 0.9798609, 5.365905, 8.328219, -0.18164062, -0.010701418, 9.953853
778613719959378, 0.76689965, 4.881358, 8.330612, 0.2654214, 0.06889057, 9.681926
778613729598753, 0.9607183, 5.8169518, 8.4502535, -0.41823912, -0.23258114, 10.2926035
778613739238128, 0.77766734, 4.549952, 8.338987, 0.48510504, 0.26202273, 9.515333
778613748877503, 0.97507524, 5.9676995, 8.663215, -0.41958523, -0.24580383, 10.553627
778613758516878, 0.8470592, 4.5212383, 8.40479, 0.49261236, 0.33626354, 9.562628
778613768156253, 0.9200403, 5.8540406, 8.65125, -0.320848, -0.23450613, 10.478667
778613777795680, 0.9343972, 4.8502517, 8.362915, 0.20838833, 0.21782613, 9.708014
778613787435108, 0.8578269, 5.42094, 8.4813595, -0.08276224, -0.102262855, 10.101418
778613797074483, 0.997807, 5.3072805, 8.343773, -0.14252186, 0.04323733, 9.937765
778613806713858, 0.8003992, 4.935197, 8.306684, 0.20430541, 0.053846955, 9.6929455
778613816353233, 1.0205388, 5.7667027, 8.425129, -0.4332695, -0.14988601, 10.250315
778613825992608, 0.76331043, 4.570291, 8.313862, 0.47695255, 0.20259607, 9.503787
778613835631983, 0.95473623, 5.986842, 8.58784, -0.4674039, -0.2698431, 10.498263
778613845271358, 0.79920274, 4.5272202, 8.309076, 0.49208236, 0.25263953, 9.4799385
778613854910785, 0.89491564, 5.858826, 8.589037, -0.34796906, -0.25642276, 10.426477
778613864550212, 0.8805587, 4.7952166, 8.362915, 0.28369832, 0.19394386, 9.674179
778613874189587, 0.8243274, 5.4987063, 8.550752, -0.08791065, -0.1509006, 10.198048
778613883828962, 0.96909314, 5.2737813, 8.40479, -0.07370567, 0.052820683, 9.969162
778613893468337, 0.80877405, 4.959125, 8.37129, 0.21411991, 0.0556221, 9.760973
778613903107712, 1.0289137, 5.709275, 8.458628, -0.38405514, -0.096990705, 10.249194
778613912747087, 0.79441714, 4.6085763, 8.313862, 0.43726754, 0.20445049, 9.526667
778613922386462, 0.9738788, 5.9545393, 8.55793, -0.47134686, -0.23954904, 10.457705
778613932025889, 0.8255238, 4.4913282, 8.288737, 0.49764824, 0.2843827, 9.446065
778613941665316, 0.9499506, 5.8971114, 8.567501, -0.41230202, -0.23192108, 10.433437
778613951304691, 0.8985049, 4.7676992, 8.283952, 0.26098132, 0.21504235, 9.594152
778613960944066, 0.82911307, 5.548956, 8.500503, -0.13772774, -0.18021035, 10.182604
778613970583441, 0.9487542, 5.2438707, 8.382058, -0.053061962, 0.0466727, 9.932383
778613980222816, 0.7896315, 5.0620165, 8.385647, 0.15970516, 0.0021721125, 9.825532
778613989862191, 0.997807, 5.6757755, 8.467003, -0.34154034, -0.10165298, 10.235879
778613999501618, 0.73818576, 4.5858445, 8.350951, 0.49632502, 0.18782306, 9.541052
778614009141045, 0.9403793, 5.933004, 8.627322, -0.4135232, -0.24625933, 10.501614
778614018780420, 0.79441714, 4.4841495, 8.364112, 0.5393603, 0.28876066, 9.50383
778614028419795, 0.90089774, 5.925825, 8.609376, -0.39861155, -0.2804774, 10.479066
778614038059170, 0.85184485, 4.7042894, 8.322237, 0.3330903, 0.21970546, 9.589391
778614047698545, 0.81834537, 5.5968122, 8.543573, -0.15147161, -0.19730556, 10.243279
778614057337972, 0.9320044, 5.1936216, 8.350951, -0.027132511, 0.05464065, 9.878107
778614066977399, 0.80518484, 5.1146584, 8.340183, 0.0898695, -0.015274048, 9.816232
778614076616774, 1.012164, 5.65424, 8.374879, -0.37799406, -0.099327326, 10.1479435
778614086256149, 0.7704889, 4.6612186, 8.27797, 0.392478, 0.16248727, 9.521815
778614095895524, 0.96430755, 5.9748783, 8.562716, -0.48305607, -0.26231587, 10.471247
778614105534899, 0.7932207, 4.5020957, 8.333005, 0.5132749, 0.27539957, 9.486713
778614115174274, 0.90329057, 5.9545393, 8.592627, -0.41830873, -0.28664625, 10.480867
778614124813701, 0.84107715, 4.6935215, 8.315059, 0.34547544, 0.21415341, 9.576613
778614134453128, 0.8279166, 5.639883, 8.550752, -0.18170404, -0.20674443, 10.272941
778614144092503, 0.94755775, 5.1254263, 8.384451, 0.025354862, 0.111693144, 9.871867
778614153731878, 0.7956135, 5.1529436, 8.425129, 0.107378244, -0.021000862, 9.907405
778614163371253, 0.9846465, 5.582455, 8.419147, -0.29693222, -0.07796061, 10.145004
778614173010628, 0.79800636, 4.6875396, 8.352147, 0.3919053, 0.19734871, 9.600816
778614182650055, 1.038485, 5.916254, 8.5938225, -0.46693134, -0.15911996, 10.473346
778614192289483, 0.83030945, 4.4805603, 8.3377905, 0.5033972, 0.3202188, 9.483019
778614201928858, 0.96789676, 5.959325, 8.620144, -0.44678783, -0.23465288, 10.512021
778614211568233, 0.8530413, 4.6552362, 8.364112, 0.38190174, 0.25317323, 9.59934
778614221207608, 0.87338024, 5.7009, 8.639286, -0.21163797, -0.18331552, 10.383734
778614230846983, 0.94755775, 5.0883374, 8.456235, 0.080956936, 0.1405009, 9.9131565
778614240486410, 0.81236327, 5.194818, 8.516056, 0.107185364, -0.014241934, 10.007876
778614250125837, 1.0001999, 5.5250273, 8.437093, -0.26132154, -0.029189587, 10.131226
778614259765212, 0.76689965, 4.6600223, 8.285149, 0.39219904, 0.15478683, 9.527323
778614269404587, 0.99900347, 5.8564334, 8.472985, -0.47712517, -0.18080473, 10.335712
778614279043962, 0.7968099, 4.4398823, 8.288737, 0.5306606, 0.29022133, 9.417261
778614288683389, 0.9128618, 5.877969, 8.580662, -0.3984871, -0.24038947, 10.430486
778614298322816, 0.7920243, 4.516453, 8.344969, 0.5077424, 0.25521255, 9.504801
778614307962191, 0.81954175, 5.6889358, 8.645268, -0.17980337, -0.21192074, 10.377817
778614317601566, 0.8554341, 4.981857, 8.4705925, 0.20634174, 0.11455107, 9.861335
778614327240941, 0.7298109, 5.2426744, 8.547162, 0.12847233, -0.099063516, 10.052161
778614336880316, 0.9236295, 5.5022955, 8.43111, -0.2102294, -0.08112812, 10.107481
778614346519743, 0.7429714, 4.7784667, 8.285149, 0.32046628, 0.07974553, 9.587513
778614356159170, 0.9667004, 5.877969, 8.452646, -0.47847605, -0.22018087, 10.327383
778614365798545, 0.77407813, 4.5152564, 8.216953, 0.4569273, 0.22287095, 9.393967
778614375437920, 0.971486, 6.033502, 8.487342, -0.5604739, -0.29326117, 10.439432
778614385077295, 0.87936234, 4.636094, 8.238488, 0.32770538, 0.25992334, 9.484956
778614394716722, 0.9379865, 5.831309, 8.544769, -0.37026834, -0.21261752, 10.378572
778614404356149, 0.9774681, 5.0081778, 8.367701, 0.08462143, 0.18583429, 9.798674
778614413995524, 0.8542377, 5.3922257, 8.532805, -0.030727863, -0.072118044, 10.129581
778614423634899, 1.0253245, 5.5166526, 8.472985, -0.2362709, -0.002285719, 10.159744
778614433274274, 0.82672024, 4.8586264, 8.397611, 0.28808713, 0.13879931, 9.73177
778614442913701, 1.0193424, 5.8827543, 8.549556, -0.45175505, -0.1684767, 10.416731
778614452553128, 0.7968099, 4.5415773, 8.322237, 0.49126887, 0.24148118, 9.498463
778614462192503, 0.96789676, 6.023931, 8.553144, -0.5249977, -0.27244735, 10.489566
778614471831878, 0.83030945, 4.5655055, 8.2014, 0.39789605, 0.23404169, 9.411861
778614481471305, 0.90448695, 5.8241305, 8.4682, -0.38713598, -0.25497591, 10.3069935
778614491110733, 0.9056834, 4.9340005, 8.299505, 0.1482203, 0.15549362, 9.695374
778614500750108, 0.7908279, 5.375476, 8.487342, -0.0010957718, -0.11945176, 10.0767975
778614510389483, 0.94277215, 5.3886366, 8.435896, -0.123221874, -0.011227846, 10.053619
778614520028858, 0.74416786, 4.85743, 8.410771, 0.33721256, 0.084373236, 9.7349205
778614529668285, 0.96789676, 5.770292, 8.553144, -0.34234524, -0.15281022, 10.356102
778614539307712, 0.73818576, 4.482953, 8.392825, 0.5893197, 0.260983, 9.521864
778614548947087, 0.91525465, 5.925825, 8.618947, -0.3919959, -0.2551905, 10.489071
778614558586462, 0.77647096, 4.479364, 8.287541, 0.51526403, 0.25853956, 9.434969
778614568225889, 0.8219346, 5.8157554, 8.5220375, -0.33307981, -0.29717863, 10.340428
778614577865316, 0.8542377, 4.82752, 8.285149, 0.22910643, 0.15346897, 9.623009
778614587504691, 0.8147561, 5.5944195, 8.49452, -0.18351698, -0.20421028, 10.200141
778614597144066, 0.8470592, 5.133801, 8.372486, 0.064386845, 0.022770047, 9.857346
778614606783441, 0.86261255, 5.2510495, 8.423932, -0.0017242432, -0.011169791, 9.96394
778614616422868, 0.90089774, 5.227121, 8.453842, 0.009222984, 0.03863406, 9.979994
778614626062295, 0.8997013, 5.2642097, 8.4813595, -0.00262928, 0.023820758, 10.022688
778614635701670, 0.89491564, 5.2570314, 8.49811, 0.013081551, 0.026981592, 10.032659
778614645341045, 0.9056834, 5.2630134, 8.538788, 0.022948265, 0.04003167, 10.071164
778614654980472, 0.8877372, 5.2606206, 8.529217, 0.030088902, 0.022697091, 10.060233
778614664619899, 0.91884387, 5.2630134, 8.493324, -0.0048513412, 0.040110707, 10.033869
778614674259274, 0.92482597, 5.265406, 8.443074, -0.031253338, 0.032681108, 9.993162
778614683898649, 0.9092726, 5.2438707, 8.383254, -0.037490845, 0.01760161, 9.929866
778614693538076, 0.90448695, 5.2570314, 8.323434, -0.06958628, -0.0041285753, 9.885806
778614703177503, 0.89491564, 5.231907, 8.29472, -0.061157227, -0.0064235926, 9.847452
778614712816878, 0.9164511, 5.2929235, 8.374879, -0.07360268, 7.903576E-5, 9.949277
778614722456253, 0.90448695, 5.3144593, 8.409575, -0.06549168, -0.013430476, 9.988897
778614732095680, 0.89371926, 5.3012986, 8.5220375, 0.0046195984, 0.0047301054, 10.076088
778614741735108, 0.8554341, 5.276174, 8.566305, 0.06183815, -0.008920908, 10.096905
778614751374483, 0.84825563, 5.2438707, 8.569894, 0.09032202, 1.9669533E-4, 10.082294
778614761013858, 0.8745767, 5.241478, 8.5220375, 0.053901672, 0.01602149, 10.042904
778614770653285, 0.8745767, 5.24746, 8.405986, -0.008052826, -0.009351611, 9.947923
778614780292712, 0.90089774, 5.2534423, 8.313862, -0.068086624, -0.0070626736, 9.875521
778614789932087, 0.91525465, 5.2642097, 8.268398, -0.10542154, -0.008827686, 9.844025
778614799571462, 0.930808, 5.255835, 8.26122, -0.10761595, 0.008642912, 9.834952
778614809210889, 0.90329057, 5.2438707, 8.3174515, -0.057539463, 0.0021711588, 9.873744
778614818850316, 0.86979103, 5.245067, 8.413164, 0.0053915977, -0.009301424, 9.952311
778614828489691, 0.84347, 5.2666025, 8.519645, 0.053785324, -0.021507502, 10.051344
778614838129066, 0.8542377, 5.2701917, 8.59143, 0.078728676, -7.9512596E-5, 10.114897
778614847768493, 0.8602197, 5.265406, 8.601001, 0.08086395, 0.009747267, 10.121021
778614857407920, 0.86261255, 5.237889, 8.562716, 0.07742071, 0.016687512, 10.074394
778614867047295, 0.88295156, 5.229514, 8.484949, 0.035047054, 0.023267388, 10.006
778614876686722, 0.9056834, 5.2139606, 8.392825, -0.010095596, 0.03258562, 9.921895
778614886326149, 0.87936234, 5.237889, 8.333005, -0.043660164, -0.013391376, 9.881582
778614895965524, 0.8781659, 5.2259245, 8.306684, -0.046350956, -0.0140064955, 9.852924
778614905604899, 0.8769695, 5.231907, 8.3377905, -0.03327036, -0.011576772, 9.882278
778614915244326, 0.8805587, 5.2235317, 8.40479, 0.0039539337, 0.009050965, 9.934841
778614924883753, 0.87218386, 5.2199426, 8.484949, 0.048476696, 0.018324494, 10.00001
778614934523128, 0.8662018, 5.224728, 8.543573, 0.077008724, 0.022776484, 10.051581
778614944162555, 0.8709874, 5.227121, 8.562716, 0.07885265, 0.028787255, 10.069482
778614953801983, 0.863809, 5.2307105, 8.556734, 0.07711506, 0.019079208, 10.065679
778614963441358, 0.87218386, 5.2283173, 8.518449, 0.055775642, 0.019769192, 10.032771
778614973080733, 0.8961121, 5.2331033, 8.4502535, 0.0067038536, 0.024480939, 9.979707
778614982720160, 0.9056834, 5.24746, 8.38804, -0.03578949, 0.014145613, 9.935483
778614992359587, 0.8781659, 5.255835, 8.35454, -0.04472637, -0.020138264, 9.909132
778615001998962, 0.8817552, 5.2342997, 8.331808, -0.03831005, -0.010817766, 9.878908
778615011638389, 0.87218386, 5.267799, 8.333005, -0.05567026, -0.034469604, 9.896723
778615021277816, 0.8913264, 5.2737813, 8.362915, -0.05467224, -0.014976263, 9.926851
778615030917191, 0.8805587, 5.271388, 8.409575, -0.023797512, -0.013891578, 9.964092
778615040556618, 0.86859465, 5.2570314, 8.471788, 0.023019314, -0.0042009354, 10.008072
778615050196045, 0.84347, 5.282156, 8.502895, 0.032046318, -0.032262087, 10.045385
778615059835420, 0.84825563, 5.2809596, 8.513663, 0.035360813, -0.02539885, 10.054285
778615069474795, 0.86979103, 5.278567, 8.510074, 0.024600506, -0.006213188, 10.051891
778615079114222, 0.9056834, 5.2905307, 8.452646, -0.029752254, 0.006771326, 10.012806
778615088753649, 0.9212367, 5.2737813, 8.403593, -0.048593998, 0.01834488, 9.96389
778615098393024, 0.9164511, 5.258228, 8.335398, -0.06859112, 0.007449627, 9.897621
778615108032451, 0.9284152, 5.252246, 8.319844, -0.07584715, 0.01876843, 9.882396
778615117671878, 0.91405827, 5.2689953, 8.361719, -0.05910921, 0.0074282885, 9.925353
778615127311253, 0.8673982, 5.2809596, 8.405986, -0.021843433, -0.028800726, 9.96495
778615136950680, 0.849452, 5.2869415, 8.465807, 0.011883736, -0.034130216, 10.01708
778615146590108, 0.86979103, 5.2893343, 8.476574, 0.004963398, -0.015698195, 10.02924
778615156229483, 0.8673982, 5.276174, 8.502895, 0.02649498, -0.00583148, 10.044348
778615165868910, 0.8853444, 5.271388, 8.505288, 0.021937847, 0.01239121, 10.045429
778615175508337, 0.8925229, 5.2689953, 8.465807, -4.6014786E-4, 0.011673093, 10.011428
778615185147712, 0.8961121, 5.239085, 8.411968, -0.008432865, 0.018613338, 9.950468
778615194787139, 0.8805587, 5.229514, 8.350951, -0.02367258, -0.0028312206, 9.892472
778615204426566, 0.8877372, 5.231907, 8.342576, -0.032819748, 0.0014035702, 9.887287
778615214065941, 0.87338024, 5.245067, 8.347362, -0.032292843, -0.016015649, 9.897003
778615223705368, 0.84825563, 5.237889, 8.403593, 0.011806488, -0.022011638, 9.938549
778615233344795, 0.8350951, 5.2307105, 8.480164, 0.061323166, -0.013115168, 9.998346
778615242984170, 0.8171489, 5.2235317, 8.538788, 0.10249233, -0.012611508, 10.042572
778615252623597, 0.8279166, 5.221139, 8.551949, 0.100594044, 1.0228157E-4, 10.05343
778615262263024, 0.84107715, 5.2163534, 8.547162, 0.09410334, 0.0112736225, 10.048022
778615271902399, 0.87338024, 5.2235317, 8.484949, 0.042011738, 0.021880269, 10.002008
778615281541826, 0.89491564, 5.2366924, 8.390432, -0.022951126, 0.01496768, 9.930883
778615291181253, 0.8925229, 5.237889, 8.349754, -0.04057169, 0.0044146776, 9.896909
778615300820628, 0.86979103, 5.241478, 8.318648, -0.045677662, -0.022884369, 9.870508
778615310460055, 0.8769695, 5.265406, 8.346166, -0.052884102, -0.02177167, 9.907007
778615320099483, 0.8889336, 5.2606206, 8.402397, -0.026767254, 0.0010175705, 9.953086
778615329738858, 0.8554341, 5.265406, 8.445468, 0.0070552826, -0.02303183, 9.989076
778615339378285, 0.86261255, 5.2534423, 8.496913, 0.037842274, -0.0015324354, 10.026907
778615349017712, 0.88414794, 5.2773705, 8.499306, 0.010809898, 0.006342292, 10.0434265
778615358657087, 0.90329057, 5.261817, 8.458628, -0.0076231956, 0.021461487, 10.002525
778615368296514, 0.9020941, 5.276174, 8.414361, -0.03913927, 0.0049459934, 9.972548
778615377935941, 0.90807617, 5.265406, 8.384451, -0.047109604, 0.009105921, 9.942123
778615387575316, 0.9068798, 5.2773705, 8.368897, -0.06273937, -9.109974E-4, 9.935167
778615397214743, 0.92482597, 5.296513, 8.389236, -0.074142456, 0.009573936, 9.964039
778615406854170, 0.91166544, 5.2929235, 8.410771, -0.053234577, 0.00387609, 9.979198
778615416493545, 0.910469, 5.282156, 8.429914, -0.035522938, 0.011400104, 9.989605
778615426132972, 0.90089774, 5.282156, 8.4502535, -0.02124691, 0.0074059963, 10.005952
778615435772399, 0.89730847, 5.261817, 8.451449, -0.004814625, 0.014184475, 9.995932
778615445411774, 0.89491564, 5.2701917, 8.46102, -0.005517006, 0.0104135275, 10.0082245
778615455051201, 0.89371926, 5.2462635, 8.439486, 0.0013942719, 0.016274571, 9.977307
778615464690628, 0.87338024, 5.261817, 8.4347, -0.0024065971, -0.009245753, 9.97966
778615474330003, 0.8566305, 5.2534423, 8.435896, 0.011207104, -0.01968062, 9.974783
778615483969430, 0.83988076, 5.2510495, 8.443074, 0.024980545, -0.031419516, 9.978116
778615493608858, 0.8446664, 5.2486563, 8.422736, 0.013239384, -0.029925704, 9.960083
778615503248233, 0.863809, 5.227121, 8.394022, 0.0025787354, -0.0071178675, 9.926154
778615512887660, 0.87218386, 5.2199426, 8.408379, 0.010477066, 0.0063962936, 9.935251
778615522527087, 0.86859465, 5.2079782, 8.419147, 0.024258614, 0.011174202, 9.937747
778615532166462, 0.85902333, 5.218746, 8.446664, 0.033805847, 0.0021879673, 9.965854
778615541805889, 0.8650054, 5.237889, 8.483752, 0.034667492, 0.0048555136, 10.007826
778615551445316, 0.8745767, 5.2402816, 8.488539, 0.030702114, 0.013025165, 10.013972
