timestamp_acc,device_acc_x,device_acc_y,device_acc_z,earth_acc_x,earth_acc_y,earth_acc_z
778714995786832, 3.9888353, -4.1001015, 8.309076, 0.10397196, 0.019984603, 10.087179
778715005426103, 4.139583, -4.092923, 7.9034934, -0.18698215, -0.15033376, 9.813044
778715015065374, 4.240082, -4.025924, 7.704889, -0.30101585, -0.25480044, 9.664167
778715024704645, 4.226921, -3.9421754, 7.692925, -0.23509312, -0.27678132, 9.615448
778715034343915, 4.193422, -3.932604, 7.745567, -0.17612267, -0.24763274, 9.641144
778715043983186, 4.176672, -3.999603, 7.9070826, -0.122756004, -0.1805675, 9.793657
778715053622457, 4.130012, -4.048656, 8.159525, 0.005631447, -0.081826925, 10.000988
778715063261728, 4.045067, -4.1347976, 8.359326, 0.084662914, 0.0584867, 10.164982
778715072900999, 3.9338005, -4.2245283, 8.4705925, 0.10668039, 0.21798491, 10.247607
778715082540270, 3.940979, -4.253242, 8.46461, 0.091999054, 0.20633101, 10.257679
778715092179540, 3.9254255, -4.23051, 8.352147, 0.053296566, 0.18743229, 10.150201
778715101818811, 3.926622, -4.1922255, 8.209774, 0.0038661957, 0.14296067, 10.018635
778715111458082, 3.9864426, -4.1515474, 8.099705, -0.043910503, 0.05223763, 9.936179
778715121097353, 4.052245, -4.15394, 8.018349, -0.115326405, -0.012080431, 9.89729
778715130736624, 4.0881376, -4.1383867, 7.9776707, -0.14146948, -0.048647285, 9.872181
778715140375895, 4.130012, -4.132405, 7.9944205, -0.14156008, -0.08408666, 9.900375
778715150015165, 4.133601, -4.121637, 8.036295, -0.112267494, -0.082529664, 9.931626
778715159654436, 4.0869412, -4.1024942, 8.118847, -0.036119938, -0.03860247, 9.972282
778715169293707, 4.034299, -4.082155, 8.200203, 0.04162264, 0.008590102, 10.00905
778715178932978, 4.0127635, -4.074977, 8.244471, 0.07661152, 0.028639793, 10.03356
778715188572249, 4.028317, -4.0510488, 8.279166, 0.10493183, 0.006384611, 10.058423
778715198211520, 4.0642095, -4.052245, 8.274381, 0.08425999, -0.026540518, 10.069563
778715207850790, 4.06062, -4.0737805, 8.208578, 0.02740717, -0.024477363, 10.023159
778715217490061, 4.052245, -4.0881376, 8.191829, 0.0059781075, -0.012756109, 10.011964
778715227129332, 4.068995, -4.063013, 8.182257, 0.013661385, -0.040716887, 10.000614
778715236768603, 4.0570307, -4.0881376, 8.195417, 0.0101594925, -0.01705718, 10.016829
778715246407874, 4.0271206, -4.104887, 8.232507, 0.03208542, 0.022201657, 10.041933
778715256047145, 4.022335, -4.1072803, 8.27797, 0.062492847, 0.033920884, 10.078128
778715265686415, 4.0031924, -4.095316, 8.283952, 0.081020355, 0.045857072, 10.070372
778715275325686, 4.0103707, -4.126423, 8.222935, 0.029164314, 0.043095827, 10.036154
778715284964957, 4.0414777, -4.1276193, 8.183454, -1.02996826E-4, 0.012652278, 10.016962
778715294604228, 4.074977, -4.1575294, 8.140383, -0.055107594, -0.005118847, 10.007661
778715304243499, 4.0797625, -4.17069, 8.085348, -0.09492779, -0.007997751, 9.9701
778715313882770, 4.0773697, -4.1694937, 8.0614195, -0.10444546, -0.0054125786, 9.949129
778715323522040, 4.1108694, -4.1443686, 8.072187, -0.08977604, -0.044256687, 9.961185
778715333161311, 4.1024942, -4.1180477, 8.050652, -0.076500416, -0.05090618, 9.929417
778715342800582, 4.063013, -4.085745, 8.080562, -0.020516872, -0.025252938, 9.924505
778715352439853, 4.042674, -4.0761733, 8.123632, 0.022372246, 5.6505203E-5, 9.947428
778715362079124, 4.0977087, -4.0941195, 8.189436, 0.029186249, -0.02076292, 10.030883
778715371718395, 4.054638, -4.089334, 8.295917, 0.10691166, 0.0424639, 10.098106
778715381357665, 4.0558343, -4.1168513, 8.362915, 0.12227678, 0.066886306, 10.164507
778715390996936, 4.0558343, -4.1347976, 8.299505, 0.0733552, 0.07419622, 10.120141
778715400636207, 4.098905, -4.071388, 8.203793, 0.05266571, 1.7392635E-4, 10.033776
778715410275478, 4.1587257, -4.0498524, 8.151151, 0.018961906, -0.058826208, 10.006685
778715419914749, 4.1144586, -4.095316, 8.133204, -0.009185314, 0.010845423, 9.9924555
778715429554020, 4.1611185, -4.0965123, 8.05783, -0.063560486, -0.029453278, 9.950882
778715439193290, 4.219743, -4.0773697, 8.0614195, -0.060575485, -0.07888603, 9.970344
778715448832561, 4.258028, -4.0510488, 8.106883, -0.01846075, -0.10764253, 10.012563
778715458471832, 4.274778, -4.068995, 8.139186, -0.009343624, -0.096910715, 10.053225
778715468111103, 4.23051, -4.133601, 8.163115, -0.010227203, -3.1495094E-4, 10.080684
778715477750374, 4.17069, -4.17069, 8.2049885, 0.004717827, 0.07654488, 10.104715
778715487389645, 4.152744, -4.1814575, 8.116454, -0.040187836, 0.09038031, 10.029801
778715497028811, 4.1898327, -4.1479583, 8.032705, -0.068745136, 0.03320086, 9.963875
778715506668082, 4.226921, -4.1001015, 7.9920278, -0.061464787, -0.024659872, 9.927025
778715516307353, 4.2891345, -4.0761733, 8.014759, -0.036230564, -0.076298, 9.961983
778715525946624, 4.269992, -4.0737805, 8.012366, -0.029961586, -0.06154394, 9.9509735
778715535585895, 4.1922255, -4.0797625, 8.04467, 0.014822483, 0.016994596, 9.94663
778715545225165, 4.1790648, -4.1240296, 8.120044, 0.033127785, 0.06710899, 10.020065
778715554864436, 4.162315, -4.1467614, 8.132008, 0.032369614, 0.09569287, 10.031942
778715564503707, 4.145565, -4.1431723, 8.109276, 0.031891823, 0.10517359, 10.0049925
778715574142978, 4.1383867, -4.1671004, 8.112865, 0.017467022, 0.12348068, 10.014689
778715583782249, 4.1754756, -4.1778684, 8.0614195, -0.029874325, 0.087871075, 9.993351
778715593421520, 4.2448673, -4.1611185, 8.015956, -0.06278467, 0.013052225, 9.97924
778715603060790, 4.2592244, -4.1108694, 7.966903, -0.052824974, -0.027813196, 9.925133
778715612700061, 4.2831526, -4.074977, 7.9884386, -0.018290043, -0.056596637, 9.93793
778715622339332, 4.336991, -4.072584, 8.013563, -0.017488003, -0.09873092, 9.98011
778715631978603, 4.3405805, -4.0737805, 8.018349, -0.015764713, -0.09577918, 9.986031
778715641617874, 4.2891345, -4.074977, 8.026724, 0.0034770966, -0.04388261, 9.971382
778715651257145, 4.269992, -4.040281, 8.0614195, 0.055992603, -0.036866903, 9.97691
778715660896415, 4.2568316, -4.052245, 8.096115, 0.06937122, -0.014039636, 10.004169
778715670535686, 4.290331, -4.104887, 8.078169, 0.008834362, -0.02467382, 10.025626
778715680174957, 4.2759743, -4.1371903, 8.124829, 0.013292313, 0.0127801895, 10.070393
778715689814228, 4.24726, -4.113262, 8.202596, 0.08554506, 0.042169213, 10.110966
778715699453499, 4.258028, -4.106084, 8.209774, 0.09504986, 0.03059125, 10.118357
778715709092770, 4.2329035, -4.1383867, 8.196614, 0.071088314, 0.068612695, 10.110313
778715718731936, 4.2388854, -4.145565, 8.099705, 0.011064529, 0.04945624, 10.037754
778715728371207, 4.2592244, -4.1144586, 8.005188, -0.022323608, -0.0029114485, 9.957525
778715738010478, 4.2424746, -4.113262, 7.9657063, -0.035485268, 0.007979631, 9.918098
778715747649749, 4.249653, -4.1778684, 7.9561353, -0.082411766, 0.041467547, 9.940105
778715757289020, 4.3405805, -4.2077785, 8.014759, -0.09937906, -0.009873986, 10.038548
778715766928290, 4.3740797, -4.186243, 8.019546, -0.07651949, -0.041424513, 10.048023
778715776567561, 4.3298125, -4.1443686, 8.01117, -0.03573799, -0.024934173, 10.005001
778715786206832, 4.3154554, -4.106084, 7.9680996, -0.021774292, -0.038318515, 9.948456
778715795846103, 4.322634, -4.098905, 7.975278, -0.009009361, -0.04642713, 9.954346
778715805485374, 4.2771707, -4.092923, 8.035098, 0.04208088, 0.0023379326, 9.980343
778715815124645, 4.23051, -4.085745, 8.076973, 0.09167433, 0.046180964, 9.9908695
778715824763915, 4.223332, -4.112066, 8.088937, 0.082028866, 0.065874815, 10.00827
778715834403186, 4.325027, -4.150351, 8.114061, 0.03680849, 0.0022611618, 10.088009
778715844042457, 4.354937, -4.135994, 8.063812, 0.013583183, -0.04245746, 10.054602
778715853681728, 4.35733, -4.1240296, 8.023134, 8.325577E-4, -0.056396604, 10.018057
778715863320895, 4.362116, -4.1479583, 8.043473, -0.0077848434, -0.044789076, 10.046344
778715872960165, 4.325027, -4.1575294, 8.062616, 0.0080599785, 3.9362907E-4, 10.049707
778715882599436, 4.273581, -4.162315, 8.023134, -0.0015563965, 0.044046044, 9.997854
778715892238707, 4.2556353, -4.139583, 7.989635, 0.0055003166, 0.049689412, 9.953811
778715901877978, 4.261617, -4.159922, 8.001599, -0.0027108192, 0.059224248, 9.974388
778715911517249, 4.298706, -4.176672, 7.9657063, -0.046466827, 0.027347565, 9.968603
778715921156520, 4.338187, -4.1778684, 8.037491, -0.014780998, 0.011590958, 10.043673
778715930795790, 4.3561335, -4.191029, 8.01117, -0.03987646, -0.0016833544, 10.0358305
778715940435061, 4.4051867, -4.1874394, 8.000402, -0.053699493, -0.047628045, 10.04697
778715950074332, 4.3908296, -4.180261, 8.036295, -0.018696308, -0.032147884, 10.06651
778715959713603, 4.358526, -4.1671004, 8.009974, -0.008620262, -0.016569853, 10.026007
778715969352874, 4.3322053, -4.165904, 7.993224, -0.0053792, 0.0017341375, 10.000718
778715978992145, 4.342973, -4.199404, 7.995617, -0.029298306, 0.009197593, 10.021244
778715988631311, 4.3322053, -4.211368, 7.989635, -0.034632206, 0.02275014, 10.016794
778715998270582, 4.331009, -4.1874394, 7.993224, -0.009689808, 0.011530042, 10.009181
778716007909853, 4.3728833, -4.168297, 8.033902, 0.020161629, -0.026812315, 10.051829
778716017549124, 4.3669014, -4.1479583, 8.05783, 0.055302143, -0.028251171, 10.059829
778716027188395, 4.375276, -4.150351, 8.023134, 0.035452843, -0.04089558, 10.036744
778716036827665, 4.3537407, -4.1443686, 8.030313, 0.051843166, -0.021895409, 10.030635
778716046466936, 4.3094735, -4.165904, 8.029117, 0.048329353, 0.025927544, 10.019483
778716056106207, 4.28076, -4.1407795, 8.005188, 0.063360214, 0.036364675, 9.977407
778716065745478, 4.1922255, -4.109673, 7.9094753, 0.05755329, 0.08057308, 9.849577
778716075384749, 4.4913282, -4.1587257, 7.989635, -0.014966011, -0.13439965, 10.063947
778716085024020, 4.1898327, -4.4195433, 7.8293157, -0.22795248, 0.20802546, 9.914133
778716094663186, 4.523631, -3.7806597, 8.122437, 0.35838032, -0.30133462, 10.025535
778716104302457, 4.152744, -4.753342, 7.838887, -0.48248196, 0.3866191, 10.04517
778716113941728, 4.409972, -3.522235, 8.146365, 0.61745167, -0.29972386, 9.886668
778716123580999, 4.2771707, -4.8729835, 7.8053875, -0.62761307, 0.31719983, 10.122732
778716133220270, 4.2999024, -3.5676985, 8.114061, 0.59944963, -0.17781496, 9.83182
778716142859540, 4.449454, -4.6731825, 7.9226356, -0.4351344, 0.11479795, 10.207933
778716152498811, 4.2556353, -3.918247, 7.9597244, 0.23578978, -0.031107068, 9.836856
778716162138082, 4.6504507, -4.243671, 8.09133, -0.03482437, -0.20018196, 10.250062
778716171777353, 4.2424746, -4.412365, 7.884351, -0.1874075, 0.17524803, 9.978213
778716181416624, 4.587041, -3.8165522, 8.124829, 0.3562646, -0.30711222, 10.069689
778716191055895, 4.2556353, -4.7892346, 7.771888, -0.5457282, 0.30060267, 10.052924
778716200695061, 4.473382, -3.522235, 8.10449, 0.604131, -0.3267367, 9.880705
778716210334332, 4.345366, -4.871787, 7.7551384, -0.63294697, 0.2587812, 10.113907
778716219973603, 4.354937, -3.5688949, 7.952546, 0.5138273, -0.24240589, 9.727419
778716229612874, 4.4458647, -4.735396, 7.8436728, -0.48955107, 0.13925314, 10.1712265
778716239252145, 4.220939, -3.9134614, 7.944171, 0.27159977, 0.008397102, 9.806504
778716248891415, 4.5284166, -4.351348, 8.062616, -0.07159805, -0.048033476, 10.219548
778716258530686, 4.2053857, -4.415954, 7.8400836, -0.16565943, 0.202214, 9.928972
778716268169957, 4.5427737, -3.8548372, 8.126026, 0.3622675, -0.25888586, 10.06631
778716277809228, 4.1694937, -4.761717, 7.7647095, -0.4699602, 0.36746955, 9.999673
778716287448395, 4.4542394, -3.5174494, 8.1020975, 0.6458311, -0.32289672, 9.865866
778716297087665, 4.339384, -4.881358, 7.8053875, -0.5818639, 0.27815247, 10.15707
778716306726936, 4.4602213, -3.5330026, 8.007581, 0.57726145, -0.35623324, 9.799842
778716316366207, 4.54397, -4.7808595, 7.861619, -0.5064068, 0.059564352, 10.249359
778716326005478, 4.2520456, -3.9050865, 7.940582, 0.29905605, -0.031403184, 9.812847
778716335644749, 4.537988, -4.3932223, 8.002795, -0.11005306, -0.058562517, 10.194259
778716345284020, 4.1898327, -4.3812585, 7.836494, -0.1081419, 0.19829476, 9.905037
778716354923290, 4.575077, -3.95055, 8.080562, 0.28518057, -0.25561666, 10.083996
778716364562457, 4.1874394, -4.8083773, 7.745567, -0.4956293, 0.35886538, 10.013717
778716374201728, 4.462614, -3.6586258, 8.115258, 0.57627344, -0.28378367, 9.937065
778716383840999, 4.3070807, -5.026124, 7.7946196, -0.6616225, 0.34586072, 10.1986065
778716393480270, 4.369294, -3.586841, 8.115258, 0.6641731, -0.22893095, 9.865092
778716403119540, 4.4171505, -4.863412, 7.8759756, -0.51308966, 0.20420265, 10.241585
778716412758811, 4.214957, -3.8620157, 7.911868, 0.36639118, -0.0225451, 9.754175
778716422398082, 4.5248275, -4.402794, 7.926225, -0.12671423, -0.068597555, 10.132273
778716432037353, 4.206582, -4.287938, 7.696514, -0.098620415, 0.104860544, 9.762038
778716441676624, 4.685147, -3.938586, 7.9154572, 0.20771408, -0.40030503, 9.995707
778716451315790, 4.28076, -4.741378, 7.6666036, -0.48822117, 0.21481895, 9.964831
778716460955061, 4.5535417, -3.65384, 8.073383, 0.55377007, -0.35912418, 9.941286
778716470594332, 4.334598, -5.0129633, 7.804191, -0.62432575, 0.32034087, 10.21428
778716480233603, 4.4434714, -3.62393, 8.141579, 0.64821196, -0.26706266, 9.933333
778716489872874, 4.51406, -4.9375896, 7.881958, -0.5468378, 0.1486466, 10.322823
778716499512145, 4.3034916, -3.8751762, 7.9716887, 0.3929124, -0.083651304, 9.844973
778716509151415, 4.5020957, -4.5523453, 7.9908314, -0.17091751, 0.028619766, 10.237972
778716518790686, 4.112066, -4.3202415, 7.8149586, -0.0029754639, 0.23128259, 9.828208
778716528429853, 4.516453, -4.071388, 7.993224, 0.20967817, -0.18439007, 10.039333
778716538069124, 4.145565, -4.7509494, 7.6797643, -0.42481232, 0.3457483, 9.921493
778716547708395, 4.506881, -3.6921253, 8.037491, 0.5369067, -0.32144403, 9.907242
778716557347665, 4.3298125, -5.0273204, 7.719246, -0.66587687, 0.31098723, 10.152234
778716566986936, 4.4458647, -3.6083765, 8.04467, 0.62328863, -0.3048694, 9.849942
778716576626207, 4.4482574, -4.959125, 7.7874413, -0.59648466, 0.19201851, 10.228955
778716586265478, 4.316652, -3.8165522, 7.9011, 0.41203976, -0.13556147, 9.769279
778716595904749, 4.6037908, -4.5451665, 7.9298143, -0.20748138, -0.075124025, 10.231652
778716605543915, 4.2281175, -4.168297, 7.8484583, 0.12632704, 0.074239135, 9.840148
778716615183186, 4.604987, -4.0271206, 8.025527, 0.24892807, -0.2728436, 10.084457
778716624822457, 4.2257247, -4.6899323, 7.6917286, -0.38322878, 0.26111782, 9.939812
778716634461728, 4.57747, -3.7064822, 8.066205, 0.5354681, -0.37552047, 9.966301
778716644100999, 4.3262234, -5.028517, 7.733603, -0.6539931, 0.32954895, 10.162405
778716653740270, 4.442275, -3.6717863, 8.080562, 0.60552216, -0.27040625, 9.903107
778716663379540, 4.4051867, -5.0620165, 7.800602, -0.64634657, 0.290074, 10.265339
778716673018707, 4.3034916, -3.8584266, 7.9513497, 0.407804, -0.10216606, 9.821136
778716682657978, 4.5320063, -4.6767716, 7.945368, -0.28424168, 0.043409824, 10.269249
778716692297249, 4.1587257, -4.2352962, 7.864012, 0.10285044, 0.16042101, 9.850843
778716701936520, 4.536792, -4.188636, 8.033902, 0.16081142, -0.1456039, 10.130335
778716711575790, 4.1850467, -4.692325, 7.6797643, -0.35931492, 0.28582716, 9.914661
778716721215061, 4.6061835, -3.7531424, 7.9944205, 0.47085047, -0.39586687, 9.941596
778716730854332, 4.3645086, -5.0213385, 7.688139, -0.6538944, 0.25535274, 10.142853
778716740493603, 4.479364, -3.6323047, 8.033902, 0.6214967, -0.32527924, 9.864577
778716750132770, 4.4243293, -5.0333023, 7.752745, -0.63198566, 0.22190976, 10.225716
778716759772040, 4.3070807, -3.790231, 7.925029, 0.4781437, -0.13620329, 9.771169
778716769411311, 4.508078, -4.723432, 7.8867435, -0.32113695, 0.061551213, 10.233639
778716779050582, 4.1850467, -4.182654, 7.813762, 0.13353062, 0.09835684, 9.799827
778716788689853, 4.57747, -4.2388854, 7.96451, 0.09253836, -0.17898178, 10.115049
778716798329124, 4.194618, -4.666004, 7.676175, -0.32739115, 0.2638433, 9.905214
778716807968395, 4.578666, -3.8153558, 8.039884, 0.46635723, -0.3429234, 9.991283
778716817607561, 4.273581, -5.0045886, 7.716853, -0.58926964, 0.35151458, 10.118718
778716827246832, 4.462614, -3.6143587, 8.093722, 0.67005014, -0.31606948, 9.896362
778716836886103, 4.4075794, -5.026124, 7.8089767, -0.5825043, 0.2695464, 10.259476
778716846525374, 4.3465624, -3.7064822, 7.9800634, 0.56090856, -0.20133471, 9.795757
778716856164645, 4.5128636, -4.715057, 7.895118, -0.31600285, 0.05540824, 10.238537
778716865803915, 4.202993, -4.092923, 7.861619, 0.22585773, 0.052512407, 9.806552
778716875443186, 4.557131, -4.2664027, 7.972885, 0.06695795, -0.15278411, 10.124659
778716885082353, 4.2006, -4.642076, 7.706085, -0.30166483, 0.2553841, 9.920757
778716894721624, 4.5595236, -3.8847475, 8.032705, 0.4055748, -0.30284643, 10.00743
778716904360895, 4.258028, -5.0213385, 7.733603, -0.6120057, 0.36788213, 10.131307
778716914000165, 4.4614177, -3.7064822, 8.068598, 0.577682, -0.28104663, 9.916241
778716923639436, 4.3501515, -5.109873, 7.751549, -0.70177984, 0.33466434, 10.223337
778716933278707, 4.3441696, -3.7172499, 7.9477606, 0.5217972, -0.20998597, 9.774472
778716942917978, 4.486542, -4.766503, 7.8687973, -0.3881111, 0.09688151, 10.2277355
778716952557145, 4.24726, -4.0295134, 7.8317084, 0.21661186, -0.017433524, 9.775717
778716962196415, 4.584648, -4.261617, 7.9561353, 0.024353981, -0.17980647, 10.121636
778716971835686, 4.208975, -4.459025, 7.735996, -0.17800665, 0.17640793, 9.868191
778716981474957, 4.557131, -3.81057, 8.048259, 0.4333787, -0.33509707, 9.988106
778716991114228, 4.2388854, -4.898108, 7.7874413, -0.507143, 0.34879684, 10.11064
778717000753499, 4.4662037, -3.586841, 8.183454, 0.7125735, -0.32647765, 9.958263
778717010392770, 4.347759, -5.0273204, 7.8293157, -0.59764624, 0.31685042, 10.247807
778717020032040, 4.3501515, -3.6789649, 8.008778, 0.5578885, -0.22826493, 9.809984
778717029671207, 4.4482574, -4.8394837, 7.891529, -0.44140434, 0.16687405, 10.2596855
778717039310478, 4.2161536, -4.0295134, 7.911868, 0.2732973, 0.014545679, 9.825258
778717048949749, 4.5655055, -4.3800616, 8.012366, -0.034816265, -0.11197555, 10.208479
778717058589020, 4.220939, -4.506881, 7.8017983, -0.17332315, 0.19099832, 9.946347
778717068228290, 4.5966125, -3.9433718, 8.053044, 0.33138847, -0.3118322, 10.065956
778717077867561, 4.249653, -4.938786, 7.7072816, -0.5780711, 0.3177153, 10.070663
778717087506832, 4.4781675, -3.6406796, 8.073383, 0.6219549, -0.31020236, 9.899748
778717097145999, 4.325027, -5.022535, 7.7503524, -0.642468, 0.29291272, 10.173551
778717106785270, 4.345366, -3.6179478, 7.908279, 0.56448483, -0.23753333, 9.702452
778717116424540, 4.4685965, -4.8011985, 7.7503524, -0.4970498, 0.08213282, 10.140712
778717126063811, 4.2687955, -3.9110687, 7.873583, 0.32019043, -0.06862664, 9.767556
778717135703082, 4.493721, -4.3968115, 7.987242, -0.055701256, -0.046832442, 10.164459
778717145342353, 4.1515474, -4.4434714, 7.7850485, -0.12749195, 0.21781206, 9.875379
778717154981624, 4.5798626, -3.9481573, 8.126026, 0.36037493, -0.289773, 10.118378
778717164620790, 4.281956, -4.863412, 7.797013, -0.48246384, 0.2793454, 10.122773
778717174260061, 4.51406, -3.6634114, 8.195417, 0.6390655, -0.3441862, 10.021743
778717183899332, 4.2867417, -5.0943193, 7.88794, -0.62584734, 0.4047761, 10.295258
778717193538603, 4.3334017, -3.65384, 8.090134, 0.6304691, -0.20871735, 9.855868
778717203177874, 4.398008, -4.881358, 7.8628154, -0.4885893, 0.20158756, 10.233018
778717212817145, 4.2125645, -3.9086757, 7.891529, 0.3422699, -0.03990388, 9.756072
778717222456415, 4.517649, -4.4339004, 7.9597244, -0.10628319, -0.067555666, 10.169069
778717232095686, 4.208975, -4.328616, 7.7419777, -0.08118343, 0.10372114, 9.81699
778717241734853, 4.578666, -3.9541395, 8.003992, 0.29453897, -0.29923725, 10.024321
778717251374124, 4.2364926, -4.8299127, 7.685746, -0.52002335, 0.27093542, 10.000141
778717261013395, 4.5212383, -3.6610186, 8.106883, 0.60123587, -0.33377504, 9.954562
778717270652665, 4.322634, -5.0440702, 7.783852, -0.64276075, 0.30948544, 10.208195
778717280291936, 4.382455, -3.6729827, 8.021938, 0.57994366, -0.23939419, 9.8313055
778717289931207, 4.4255257, -4.9734817, 7.8580294, -0.5687189, 0.20601654, 10.281223
778717299570478, 4.26401, -3.9050865, 7.911868, 0.34343815, -0.07482338, 9.793139
778717309209749, 4.54397, -4.536792, 7.9908314, -0.17154932, -0.04086566, 10.249508
778717318848915, 4.1575294, -4.3334017, 7.85444, -0.010106087, 0.17863393, 9.885527
778717328488186, 4.520042, -4.0390844, 8.097312, 0.28960228, -0.19087291, 10.108965
778717338127457, 4.174279, -4.7246284, 7.7706914, -0.37515593, 0.29751527, 9.995054
778717347766728, 4.49731, -3.6131623, 8.132008, 0.65448403, -0.32734537, 9.943582
778717357405999, 4.237689, -4.9866424, 7.812566, -0.5744877, 0.35781384, 10.168715
778717367045270, 4.3262234, -3.5844483, 8.094919, 0.6870589, -0.20279145, 9.827463
778717376684540, 4.392026, -4.95075, 7.8436728, -0.5703211, 0.21599829, 10.244564
778717386323811, 4.2723846, -3.8165522, 7.90469, 0.4168496, -0.11812043, 9.752732
778717395962978, 4.5188456, -4.5451665, 7.928618, -0.20824099, -0.03080678, 10.192998
778717405602249, 4.2257247, -4.2508492, 7.7587276, -0.0076141357, 0.064046025, 9.8040905
778717415241520, 4.638487, -4.06062, 7.9477606, 0.16308165, -0.32666826, 10.051756
778717424880790, 4.2867417, -4.723432, 7.6773715, -0.44190788, 0.18832064, 9.969867
778717434520061, 4.5762734, -3.6981075, 8.069795, 0.5343423, -0.3911767, 9.965004
778717444159332, 4.281956, -5.0129633, 7.771888, -0.619153, 0.33622515, 10.167143
778717453798603, 4.3740797, -3.62393, 8.139186, 0.6832931, -0.25016212, 9.898603
778717463437874, 4.3669014, -5.0309095, 7.9190464, -0.5610428, 0.29450035, 10.329069
778717473077145, 4.2556353, -3.8464625, 8.042277, 0.4687853, -0.06774378, 9.867096
778717482716311, 4.499703, -4.668397, 8.020741, -0.25711966, 0.047194242, 10.310443
778717492355582, 4.152744, -4.2628136, 7.8604226, 0.055774212, 0.14585853, 9.857925
778717501994853, 4.5296135, -4.1671004, 8.045866, 0.15030384, -0.18092799, 10.127327
778717511634124, 4.1443686, -4.7078786, 7.7144604, -0.37759686, 0.30138838, 9.930729
778717521273395, 4.476971, -3.7268212, 8.055437, 0.5178242, -0.31393564, 9.922491
778717530912665, 4.2245283, -5.0069814, 7.7216387, -0.6220131, 0.36186266, 10.100613
778717540551936, 4.395615, -3.6000016, 8.069795, 0.6614244, -0.30093932, 9.842508
778717550191207, 4.3740797, -5.042874, 7.8257265, -0.62806845, 0.2719028, 10.26337
778717559830478, 4.3202415, -3.7998023, 7.9633136, 0.46497083, -0.17271543, 9.811795
778717569469749, 4.549952, -4.7018967, 7.945368, -0.3176756, 0.0022859573, 10.287752
778717579108915, 4.21735, -4.206582, 7.88794, 0.11097336, 0.06881571, 9.883518
778717588748186, 4.505685, -4.24726, 8.045866, 0.10545969, -0.1265142, 10.151317
778717598387457, 4.1467614, -4.6803613, 7.7312098, -0.34150362, 0.2889762, 9.933422
778717608026728, 4.51406, -3.7950168, 8.07458, 0.4708953, -0.3121462, 9.982914
778717617665999, 4.281956, -4.9806604, 7.739585, -0.6220012, 0.29416466, 10.127679
778717627305270, 4.476971, -3.5880375, 8.100901, 0.64995384, -0.36614, 9.898758
778717636944540, 4.406383, -5.0069814, 7.834101, -0.6023121, 0.22419119, 10.2687
778717646583811, 4.31067, -3.7292142, 8.042277, 0.5495949, -0.16018772, 9.840702
778717656223082, 4.499703, -4.7210393, 7.993224, -0.30418634, 0.060063362, 10.311695
778717665862353, 4.2077785, -4.0941195, 7.928618, 0.22357559, 0.04572797, 9.862967
778717675501624, 4.499703, -4.206582, 8.035098, 0.13121414, -0.13647962, 10.122727
778717685140790, 4.1276193, -4.587041, 7.733603, -0.2713437, 0.26786578, 9.886427
778717694780061, 4.5092745, -3.7974095, 8.066205, 0.47213602, -0.3087101, 9.974934
778717704419332, 4.261617, -4.9770713, 7.702496, -0.62345123, 0.30057108, 10.088709
778717714058603, 4.447061, -3.644269, 8.063812, 0.6135473, -0.3129046, 9.879663
778717723697874, 4.359723, -5.0859447, 7.7790666, -0.68811655, 0.29899752, 10.238407
778717733337145, 4.325027, -3.7459638, 7.9776707, 0.51006293, -0.19802678, 9.802139
778717742976415, 4.490132, -4.7653065, 7.9070826, -0.37824726, 0.07339597, 10.258797
778717752615686, 4.1850467, -4.0833516, 7.9166536, 0.23185349, 0.058243632, 9.838935
778717762254957, 4.485346, -4.2759743, 8.039884, 0.08465433, -0.09919703, 10.150125
778717771894228, 4.1371903, -4.499703, 7.780263, -0.16161919, 0.23527563, 9.89013
778717781533499, 4.5296135, -3.8009987, 8.078169, 0.47777462, -0.33192348, 9.994165
778717791172770, 4.2831526, -4.898108, 7.757531, -0.536211, 0.2548269, 10.107606
778717800812040, 4.4638104, -3.615555, 8.115258, 0.66447973, -0.34234786, 9.914461
778717810451311, 4.3537407, -5.0333023, 7.789834, -0.6308508, 0.25242257, 10.222965
778717820090582, 4.348955, -3.7172499, 8.013563, 0.53913116, -0.2266779, 9.82886
778717829729749, 4.4817567, -4.8251266, 7.8903327, -0.43291092, 0.08031285, 10.267984
778717839369020, 4.1922255, -4.0594234, 7.9106717, 0.24754715, 0.01537323, 9.827049
778717849008290, 4.4805603, -4.438686, 8.065009, -0.026510239, -0.032782078, 10.238161
778717858647561, 4.089334, -4.636094, 7.8460655, -0.21396351, 0.3443507, 9.980601
778717868286832, 4.49731, -4.025924, 8.110473, 0.3176093, -0.22235024, 10.10264
778717877926103, 4.226921, -5.003392, 7.763513, -0.5797248, 0.36284006, 10.134358
778717887565374, 4.5152564, -3.723232, 8.090134, 0.53864384, -0.36375487, 9.963823
778717897204645, 4.3669014, -5.1003013, 7.6977105, -0.72528934, 0.26073992, 10.185461
778717906843915, 4.3704906, -3.702893, 7.966903, 0.52357125, -0.27287018, 9.79467
778717916483186, 4.4255257, -4.8299127, 7.8197446, -0.4538479, 0.13423645, 10.190083
778717926122457, 4.191029, -3.9338005, 7.899904, 0.36357403, -0.03697598, 9.762911
778717935761728, 4.5272202, -4.3465624, 8.01117, 0.017389297, -0.12282443, 10.176039
778717945400999, 4.1443686, -4.4051867, 7.826923, -0.047680378, 0.18969703, 9.8895855
778717955040270, 4.510471, -3.9278183, 8.115258, 0.4178338, -0.24582171, 10.069483
778717964679540, 4.2041893, -4.855037, 7.759924, -0.4612074, 0.30767894, 10.057615
778717974318811, 4.469793, -3.6227336, 8.128419, 0.66445446, -0.33332324, 9.930854
778717983958082, 4.298706, -5.0847483, 7.743174, -0.678175, 0.32055175, 10.184675
778717993597353, 4.308277, -3.7005002, 8.029117, 0.5721643, -0.19142509, 9.816194
778718003236624, 4.4051867, -4.9256253, 7.8400836, -0.5270848, 0.1901555, 10.238183
778718012875895, 4.2364926, -3.9948175, 7.9680996, 0.33463764, -0.033390164, 9.863262
778718022515165, 4.5296135, -4.5224347, 8.051848, -0.10549116, -0.038906693, 10.2853985
778718032154436, 4.162315, -4.475775, 7.856833, -0.087341785, 0.21622443, 9.951527
778718041793707, 4.5690947, -4.054638, 8.1020975, 0.28273773, -0.2632146, 10.139599
778718051432978, 4.261617, -4.8789654, 7.7479596, -0.49491882, 0.28661323, 10.083128
778718061072249, 4.5535417, -3.6382868, 8.076973, 0.60580635, -0.4346162, 9.932445
778718070711520, 4.359723, -4.9974103, 7.670193, -0.6479101, 0.23220146, 10.116296
778718080350790, 4.4051867, -3.5700915, 7.96451, 0.6247983, -0.3488034, 9.750519
778718089990061, 4.4518466, -4.883751, 7.7682986, -0.5259495, 0.1261884, 10.184494
778718099629332, 4.28076, -3.8476589, 7.908279, 0.4015355, -0.13864505, 9.77189
778718109268603, 4.566702, -4.485346, 8.042277, -0.08761406, -0.08326614, 10.277973
778718118907874, 4.1204405, -4.3525443, 7.926225, 0.05116415, 0.21731472, 9.934681
778718128547145, 4.462614, -4.048656, 8.161918, 0.33694363, -0.16224957, 10.138225
778718138186415, 4.1024942, -4.853841, 7.795816, -0.41078424, 0.4230839, 10.040779
778718147825686, 4.438686, -3.735196, 8.143971, 0.58329487, -0.27697146, 9.9780245
778718157464957, 4.2352962, -5.0847483, 7.780263, -0.64573145, 0.4053434, 10.185462
778718167104228, 4.342973, -3.656233, 8.054241, 0.6114888, -0.24170256, 9.8319845
778718176743499, 4.4135613, -5.002196, 7.810173, -0.5963793, 0.20246398, 10.252007
778718186382770, 4.241278, -3.9314077, 7.9836526, 0.38851833, -0.045590878, 9.850385
778718196022040, 4.4925246, -4.6600223, 7.9884386, -0.2330265, 0.027477264, 10.279041
778718205661311, 4.2053857, -4.386044, 7.8496547, -0.03290224, 0.12997401, 9.925812
778718215300582, 4.6169515, -4.1467614, 8.036295, 0.19589424, -0.27660918, 10.147858
778718224939853, 4.258028, -4.8263235, 7.7096744, -0.47038412, 0.22528529, 10.02952
778718234579124, 4.551149, -3.7339997, 8.094919, 0.57841635, -0.3597784, 9.985962
778718244218395, 4.29392, -5.0105705, 7.726424, -0.6243067, 0.27417266, 10.137864
778718253857665, 4.369294, -3.554538, 8.049456, 0.728019, -0.27980804, 9.793411
778718263496936, 4.354937, -4.9112687, 7.7946196, -0.52488136, 0.20286882, 10.174747
778718273136207, 4.23051, -3.7794633, 7.91785, 0.48693895, -0.11970949, 9.727408
778718282775478, 4.4745784, -4.610969, 7.946564, -0.21518326, 0.016350508, 10.216859
778718292414749, 4.193422, -4.2891345, 7.874779, 0.054363728, 0.11498594, 9.8983555
778718302054020, 4.5619164, -4.186243, 8.118847, 0.19422054, -0.19186091, 10.206707
778718311693290, 4.1611185, -4.7892346, 7.804191, -0.37759304, 0.33443487, 10.045032
778718321332561, 4.4662037, -3.7998023, 8.16431, 0.54827404, -0.25156736, 10.033821
778718330971832, 4.2221355, -5.0739803, 7.798209, -0.6093936, 0.39936447, 10.1908245
778718340611103, 4.402794, -3.6574295, 8.0614195, 0.6340513, -0.2838714, 9.862315
778718350250374, 4.4111686, -5.040481, 7.7587276, -0.6568594, 0.19486928, 10.227085
778718359889645, 4.3130627, -3.842873, 7.90469, 0.4084201, -0.16610003, 9.780588
778718369529020, 4.551149, -4.743771, 7.826923, -0.39500904, -0.027900934, 10.213728
778718379168290, 4.267599, -4.2771707, 7.7814593, 0.009055138, 0.019277334, 9.851765
778718388807561, 4.5882373, -4.267599, 8.020741, 0.09401798, -0.2050736, 10.175741
778718398446832, 4.1838503, -4.738985, 7.7479596, -0.35348177, 0.2703278, 9.989765
778718408086103, 4.517649, -3.81057, 8.112865, 0.5266428, -0.31417704, 10.018589
778718417725374, 4.2161536, -5.015356, 7.810173, -0.5412097, 0.3711604, 10.17339
778718427364645, 4.3405805, -3.5820556, 8.148758, 0.7533488, -0.249228, 9.871391
778718437003915, 4.319045, -4.9878387, 7.8077803, -0.56055975, 0.27985704, 10.203018
778718446643186, 4.2951164, -3.731607, 7.9657063, 0.53222084, -0.19401693, 9.77264
778718456282457, 4.516453, -4.709075, 7.905886, -0.32082367, 0.012152314, 10.245667
778718465921728, 4.2652063, -4.1814575, 7.8604226, 0.1272769, -0.0041633844, 9.871505
778718475560999, 4.5714874, -4.2975097, 8.048259, 0.0706501, -0.17566311, 10.20322
778718485200270, 4.199404, -4.7198424, 7.7623167, -0.34278297, 0.25425196, 9.9991665
778718494839540, 4.570291, -3.888337, 8.122437, 0.44670963, -0.33593094, 10.083069
778718504478915, 4.1982074, -5.0392847, 7.8149586, -0.55661297, 0.39996886, 10.1795435
778718514118186, 4.3848476, -3.682554, 8.157132, 0.6774187, -0.2502525, 9.940089
778718523757457, 4.3262234, -5.0548377, 7.826923, -0.5988345, 0.306167, 10.250658
778718533396728, 4.31067, -3.711268, 7.9657063, 0.5614598, -0.21157837, 9.769743
778718543035999, 4.5320063, -4.7282176, 7.8460655, -0.36552477, -0.011421323, 10.213822
778718552675270, 4.2364926, -4.0797625, 7.8281193, 0.19553423, -0.02127564, 9.789437
778718562314540, 4.523631, -4.3058844, 7.9657063, 0.029591084, -0.14161682, 10.12104
778718571953811, 4.135994, -4.615755, 7.6869426, -0.28611088, 0.26516473, 9.866536
778718581593082, 4.520042, -3.8751762, 8.066205, 0.4245472, -0.29421782, 10.012223
778718591232457, 4.1814575, -4.999803, 7.8113694, -0.5238552, 0.41569173, 10.151496
778718600871728, 4.4051867, -3.6777685, 8.2348995, 0.7003038, -0.24808764, 10.009659
778718610510999, 4.334598, -5.0847483, 7.879565, -0.58267355, 0.33286357, 10.30925
778718620150270, 4.365705, -3.7363925, 8.054241, 0.56506824, -0.22546005, 9.875257
778718629789540, 4.534399, -4.8705907, 7.905886, -0.45623875, 0.079413176, 10.323374
778718639428811, 4.287938, -4.0737805, 7.899904, 0.23647022, -0.0505749, 9.865704
778718649068082, 4.597809, -4.3561335, 8.005188, -0.0036973953, -0.17366564, 10.206304
778718658707353, 4.191029, -4.5858445, 7.708478, -0.26270533, 0.20793116, 9.894598
778718668346624, 4.510471, -3.9290147, 8.014759, 0.36014223, -0.27183366, 9.990708
778718677985999, 4.1551366, -4.9567323, 7.6773715, -0.57291365, 0.38257718, 10.015079
778718687625270, 4.4255257, -3.6430724, 8.087741, 0.650156, -0.29331994, 9.887369
778718697264540, 4.328616, -5.0548377, 7.763513, -0.6282768, 0.31142545, 10.201408
778718706903811, 4.35733, -3.6897326, 8.018349, 0.58929276, -0.23857892, 9.822941
778718716543082, 4.4889355, -4.8442693, 7.865208, -0.44292593, 0.09821737, 10.260271
778718726182353, 4.23051, -4.0271206, 7.8987074, 0.28878117, -0.021725178, 9.819401
778718735821728, 4.5415773, -4.4171505, 7.999206, -0.04249859, -0.10092032, 10.203551
778718745460999, 4.1515474, -4.520042, 7.77787, -0.16037655, 0.23028576, 9.9036665
778718755100270, 4.5224347, -3.9780676, 8.079366, 0.35149813, -0.2573173, 10.067961
778718764739540, 4.2077785, -4.95075, 7.7276206, -0.5413413, 0.35234106, 10.075427
778718774378811, 4.4614177, -3.735196, 8.124829, 0.59320784, -0.27867007, 9.971922
778718784018082, 4.298706, -5.156533, 7.800602, -0.69771767, 0.35469198, 10.261847
778718793657457, 4.319045, -3.7543387, 8.076973, 0.5831151, -0.1581533, 9.880368
778718803296728, 4.4817567, -4.9519463, 7.9094753, -0.51478386, 0.1465807, 10.338339
778718812935999, 4.314259, -3.9948175, 7.946564, 0.30892944, -0.09212637, 9.880049
778718822575270, 4.59063, -4.430311, 8.008778, -0.053244114, -0.13927555, 10.238155
778718832214540, 4.226921, -4.388437, 7.798209, -0.06374359, 0.1102134, 9.895508
778718841853811, 4.5918264, -3.9146578, 8.065009, 0.39247656, -0.32801294, 10.059432
778718851493186, 4.199404, -4.8215375, 7.7240314, -0.4441762, 0.29287612, 10.012983
778718861132457, 4.456632, -3.6346977, 8.126026, 0.663877, -0.3248558, 9.9276705
778718870771728, 4.3058844, -5.040481, 7.7611203, -0.6135764, 0.31666982, 10.183581
778718880410999, 4.3968115, -3.6670008, 8.014759, 0.5902095, -0.2946502, 9.827515
778718890050270, 4.447061, -4.9531426, 7.8317084, -0.5428214, 0.16789949, 10.262691
778718899689540, 4.21735, -3.9541395, 7.9190464, 0.35103893, -0.026304126, 9.798399
778718909328915, 4.4805603, -4.523631, 7.9980097, -0.11719942, 0.0047483444, 10.222185
778718918968186, 4.139583, -4.408776, 7.8376904, -0.047484875, 0.2149378, 9.897191
778718928607457, 4.546363, -4.0211387, 8.073383, 0.30582476, -0.24323916, 10.092859
778718938246728, 4.2077785, -4.802395, 7.757531, -0.4188528, 0.29486632, 10.034206
778718947885999, 4.520042, -3.7124643, 8.115258, 0.58457804, -0.32931805, 9.981001
778718957525374, 4.3322053, -5.103891, 7.733603, -0.6998286, 0.2922268, 10.200548
778718967164645, 4.4638104, -3.662215, 7.9944205, 0.5659075, -0.34110808, 9.839288
778718976803915, 4.4889355, -4.989035, 7.7910304, -0.5983577, 0.12816525, 10.264829
778718986443186, 4.2628136, -3.9625144, 7.9070826, 0.32988834, -0.062366247, 9.812355
778718996082561, 4.479364, -4.6265225, 7.98126, -0.19965649, 0.046468735, 10.253189
778719005721832, 4.1479583, -4.3537407, 7.8699937, 0.029043198, 0.19298124, 9.902491
778719015361103, 4.554738, -4.0761733, 8.09133, 0.2861061, -0.22239804, 10.134058
778719025000374, 4.2867417, -4.45065, 7.8424764, -0.10370684, 0.107751966, 9.983311
778719034639645, 4.4207397, -4.2687955, 7.9920278, 0.0944252, -0.04943812, 10.081008
778719044279020, 4.3812585, -4.2975097, 7.8963146, 0.025253296, -0.026466489, 10.000725
778719053918290, 4.3836513, -4.316652, 7.865208, -0.014732361, -0.02485168, 9.9855175
778719063557561, 4.395615, -4.26401, 7.8987074, 0.04361677, -0.049463272, 9.994422
778719073196832, 4.3561335, -4.284349, 7.9369926, 0.058303356, 0.0030983686, 10.016186
778719082836207, 4.3154554, -4.287938, 7.9561353, 0.07725954, 0.04171431, 10.015085
778719092475478, 4.339384, -4.328616, 7.98126, 0.053606987, 0.04469192, 10.0629425
778719102114749, 4.3645086, -4.35733, 8.01117, 0.043487072, 0.038533688, 10.109932
778719111754020, 4.3441696, -4.3704906, 7.995617, 0.030060291, 0.058382154, 10.094482
778719121393395, 4.3609195, -4.418347, 7.8987074, -0.067337036, 0.044920802, 10.046015
778719131032665, 4.406383, -4.4231324, 7.8484583, -0.11221552, -0.0017635822, 10.028261
778719140671936, 4.438686, -4.4135613, 7.8281193, -0.12055254, -0.038212538, 10.0222225
778719150311207, 4.432704, -4.4135613, 7.8460655, -0.10604668, -0.028614402, 10.033796
778719159950582, 4.406383, -4.415954, 7.895118, -0.07076931, 0.004936099, 10.062043
778719169589853, 4.3812585, -4.3992043, 7.9477606, -0.020766735, 0.030075192, 10.085335
778719179229124, 4.3525443, -4.392026, 7.9680996, 0.0046038628, 0.05467856, 10.08574
778719188868499, 4.359723, -4.35733, 8.007581, 0.0499568, 0.03948927, 10.104988
778719198507770, 4.3728833, -4.3262234, 8.006385, 0.06479311, 0.014360309, 10.096344
778719208147040, 4.402794, -4.3130627, 7.978867, 0.04467535, -0.020455599, 10.082013
778719217786311, 4.398008, -4.2687955, 7.9298143, 0.045107365, -0.044671297, 10.022126
778719227425686, 4.377669, -4.2520456, 7.9094753, 0.047389984, -0.03600788, 9.990003
778719237064957, 4.3764725, -4.2281175, 7.885547, 0.048975945, -0.048632145, 9.9603
778719246704228, 4.3465624, -4.2257247, 7.911868, 0.075406075, -0.017782927, 9.966995
778719256343499, 4.3238306, -4.261617, 7.9298143, 0.06733608, 0.023624778, 9.98668
778719265982874, 4.3561335, -4.298706, 7.9501534, 0.047136307, 0.0143966675, 10.03281
778719275622145, 4.3764725, -4.3262234, 7.945368, 0.020945072, 0.0067692995, 10.049782
778719285261415, 4.4075794, -4.3501515, 7.952546, -0.00233078, -0.0064600706, 10.079362
778719294900790, 4.4039903, -4.3130627, 7.9776707, 0.045492172, -0.01773715, 10.081592
778719304540061, 4.4075794, -4.3357944, 7.928618, -0.003144741, -0.018786073, 10.054277
778719314179332, 4.3812585, -4.3537407, 7.9094753, -0.02280426, 0.010139942, 10.035419
778719323818707, 4.3968115, -4.322634, 7.90469, -0.006424427, -0.019134998, 10.025009
778719333457978, 4.3465624, -4.331009, 7.8927255, -0.012145519, 0.028892517, 9.997221
778719343097249, 4.365705, -4.351348, 7.8664045, -0.048451424, 0.01672721, 9.993565
778719352736520, 4.3944187, -4.331009, 7.8867435, -0.03225851, -0.013148665, 10.013393
778719362375895, 4.4039903, -4.336991, 7.91785, -0.02291727, -0.01234293, 10.044714
778719372015165, 4.4195433, -4.3334017, 7.944171, -0.009781361, -0.02265346, 10.070749
778719381654436, 4.362116, -4.3274198, 7.962117, 0.02102995, 0.026511073, 10.057275
778719391293811, 4.3465624, -4.3118663, 7.984849, 0.05036354, 0.03705132, 10.061744
778719400933082, 4.3274198, -4.301099, 7.9944205, 0.068724155, 0.050053477, 10.056318
778719410572353, 4.319045, -4.2963133, 7.9716887, 0.06128025, 0.048511267, 10.032655
778719420211728, 4.351348, -4.3058844, 7.960921, 0.03777504, 0.02182281, 10.042372
778719429850999, 4.382455, -4.301099, 7.9393854, 0.019905567, -0.01268816, 10.036865
778719439490270, 4.3872404, -4.3202415, 7.905886, -0.01596117, -0.015404701, 10.020725
778719449129645, 4.418347, -4.3357944, 7.8903327, -0.04460144, -0.037058234, 10.028703
778719458768915, 4.4434714, -4.328616, 7.9334035, -0.020980358, -0.051977158, 10.070606
778719468408186, 4.408776, -4.3238306, 7.9310107, -0.008831024, -0.023580313, 10.051523
778719478047561, 4.377669, -4.325027, 7.9226356, -0.007813454, 0.0038548708, 10.031846
778719487686832, 4.328616, -4.316652, 7.948957, 0.024715424, 0.04921484, 10.027626
778719497326103, 4.3465624, -4.3357944, 7.9657063, 0.012426853, 0.046088457, 10.056932
778719506965478, 4.3704906, -4.358526, 7.9357963, -0.030346394, 0.028511882, 10.053511
778719516604749, 4.375276, -4.338187, 7.891529, -0.040510178, 0.0052779913, 10.011866
778719526244020, 4.395615, -4.339384, 7.8580294, -0.0667963, -0.018598557, 9.994774
778719535883395, 4.4051867, -4.371687, 7.884351, -0.079580784, -0.006193757, 10.03364
778719545522665, 4.3872404, -4.351348, 7.9166536, -0.037691116, 0.008899808, 10.042609
778719555162040, 4.345366, -4.3357944, 7.9357963, -0.0035347939, 0.04238975, 10.032764
778719564801311, 4.389633, -4.2855453, 7.945368, 0.029536724, -0.018155217, 10.038052
778719574440582, 4.3788652, -4.2352962, 7.9704924, 0.085384846, -0.027913213, 10.031594
778719584079957, 4.3764725, -4.249653, 7.952546, 0.059135437, -0.02214539, 10.022577
778719593719228, 4.4350967, -4.2520456, 7.944171, 0.032055855, -0.07242131, 10.042586
778719603358499, 4.4374895, -4.2185464, 7.9800634, 0.07765722, -0.08292782, 10.057631
778719612997874, 4.4004006, -4.2317066, 7.9704924, 0.06569624, -0.045736432, 10.039583
778719622637145, 4.3812585, -4.261617, 7.9716887, 0.0464983, -0.01394546, 10.045013
778719632276520, 4.3764725, -4.2520456, 7.9680996, 0.053158283, -0.015181422, 10.035984
778719641915790, 4.3704906, -4.269992, 7.9537425, 0.03129387, -0.004423499, 10.029708
778719651555061, 4.3836513, -4.29392, 7.954939, 0.0092663765, -0.004217863, 10.046647
778719661194436, 4.388437, -4.302295, 7.962117, 0.0063853264, -0.003957629, 10.058001
778719670833707, 4.4051867, -4.3298125, 7.9680996, -0.0140833855, -0.0059369802, 10.081831
778719680472978, 4.4075794, -4.3441696, 7.9657063, -0.024765968, -0.0039424896, 10.087141
778719690112353, 4.3968115, -4.319045, 7.9680996, 0.0044956207, -0.008970141, 10.073561
778719699751624, 4.4039903, -4.3130627, 7.9513497, -0.0026769638, -0.02155602, 10.060873
778719709390999, 4.401597, -4.301099, 7.9070826, -0.015308857, -0.037065744, 10.019674
778719719030270, 4.3848476, -4.3130627, 7.8783684, -0.034787655, -0.024276614, 9.994814
778719728669540, 4.3944187, -4.3118663, 7.881958, -0.03432083, -0.03244877, 10.001307
778719738308915, 4.368098, -4.316652, 7.908279, -0.013685226, -0.0034753084, 10.012714
778719747948186, 4.321438, -4.316652, 7.9477606, 0.023297787, 0.04389751, 10.023608
778719757587561, 4.3262234, -4.3334017, 7.9836526, 0.030858994, 0.05317223, 10.061289
778719767226832, 4.3262234, -4.3298125, 8.030313, 0.061107635, 0.058368564, 10.096647
778719776866103, 4.3130627, -4.339384, 8.015956, 0.048419476, 0.068856, 10.083712
778719786505478, 4.3202415, -4.351348, 7.9776707, 0.014976978, 0.057412148, 10.061731
778719796144749, 4.3405805, -4.3669014, 7.9537425, -0.016435146, 0.040653467, 10.058358
778719805784124, 4.3740797, -4.371687, 7.8987074, -0.058421135, 0.0014277697, 10.031471
778719815423395, 4.347759, -4.371687, 7.8831544, -0.060283184, 0.019974828, 10.007735
778719825062665, 4.304688, -4.35733, 7.8927255, -0.026791096, 0.053277254, 9.990407
778719834702040, 4.341777, -4.342973, 7.925029, -0.0071587563, 0.022298336, 10.0258665
778719844341311, 4.4279184, -4.3154554, 7.945368, 0.013471603, -0.058487415, 10.067515
778719853980686, 4.4745784, -4.2915273, 7.9334035, 0.021416187, -0.109605074, 10.068043
778719863619957, 4.4554358, -4.2927237, 7.893922, 0.0029797554, -0.10079718, 10.02907
778719873259332, 4.4231324, -4.3154554, 7.8460655, -0.034830093, -0.07640529, 9.987038
778719882898603, 4.3788652, -4.321438, 7.850851, -0.029799938, -0.033672094, 9.974121
778719892537874, 4.3740797, -4.3130627, 7.9070826, 0.009257317, -0.016441345, 10.012827
778719902177249, 4.341777, -4.3070807, 7.9310107, 0.032770634, 0.012656689, 10.015073
778719911816520, 4.322634, -4.322634, 7.9357963, 0.025816917, 0.03670168, 10.017245
778719921455895, 4.3441696, -4.319045, 7.962117, 0.039653778, 0.019256592, 10.045861
778719931095165, 4.341777, -4.3070807, 7.960921, 0.048862934, 0.013237715, 10.038708
778719940734540, 4.3202415, -4.316652, 7.952546, 0.040879726, 0.03259504, 10.0268755
778719950373811, 4.348955, -4.348955, 7.914261, -0.011706352, 0.009975195, 10.02308
778719960013082, 4.3812585, -4.3788652, 7.911868, -0.044342995, -0.005393505, 10.048162
778719969652457, 4.359723, -4.3800616, 7.911868, -0.033699512, 0.010853052, 10.039349
778719979291728, 4.375276, -4.3932223, 7.908279, -0.04652071, 0.0016790628, 10.048987
778719988931103, 4.3812585, -4.389633, 7.9357963, -0.026446342, -0.00241673, 10.071766
778719998570374, 4.3525443, -4.3836513, 7.9298143, -0.015019894, 0.015859127, 10.051992
