timestamp_acc,device_acc_x,device_acc_y,device_acc_z,earth_acc_x,earth_acc_y,earth_acc_z
788019637385115, 6.8602223, 0.13758731, 7.3603225, 0.0037706047, 4.4822693E-4, 10.062601
788019647024177, 6.8685975, 0.15792629, 7.3842506, -0.0164066, -0.011440277, 10.086097
788019656663240, 6.8458657, 0.13399807, 7.344769, 0.00714013, -0.002699852, 10.041386
788019666302302, 6.867401, 0.1052842, 7.314859, 0.036905985, 0.03234625, 10.033794
788019675941365, 6.8949184, 0.08973085, 7.304091, 0.051723465, 0.0575099, 10.044487
788019685580427, 6.897311, 0.13160525, 7.312466, 0.009797077, 0.054271698, 10.052828
788019695219490, 6.8602223, 0.14117654, 7.2789664, -0.0017140694, 0.048316956, 10.00318
788019704858552, 6.8542404, 0.13758731, 7.3232336, 0.0016257167, 0.0137319565, 10.031406
788019714497615, 6.882954, 0.14356937, 7.3603225, -0.003655374, 0.009255886, 10.078191
788019724136677, 6.875776, 0.14356937, 7.3770723, -0.0035599768, -0.0058922768, 10.085537
788019733775740, 6.815955, 0.11485548, 7.373483, 0.024929516, -0.045170307, 10.041715
788019743414802, 6.8051877, 0.14356937, 7.389036, -0.0036852136, -0.06287098, 10.046147
788019753053969, 6.802795, 0.17587246, 7.3974113, -0.036566712, -0.06973553, 10.051092
788019762692927, 6.856633, 0.18783657, 7.381858, -0.048506193, -0.017179966, 10.076601
788019772331990, 6.8410797, 0.2117648, 7.365108, -0.0727614, -0.017231941, 10.054077
788019781971157, 6.8506513, 0.18783657, 7.344769, -0.04668793, 0.0051546097, 10.0454035
788019791610219, 6.815955, 0.13758731, 7.3399835, 0.004011497, -0.017048359, 10.017546
788019801249282, 6.8614187, 0.1363909, 7.3698936, 0.005936224, -0.0042009354, 10.0704
788019810888344, 6.8602223, 0.15194423, 7.3986077, -0.010303192, -0.024028778, 10.090811
788019820527407, 6.862615, 0.12083755, 7.4069824, 0.020914223, -0.027947903, 10.098131
788019830166469, 6.849455, 0.13878371, 7.391429, 0.0024962947, -0.026781082, 10.078033
788019839805532, 6.835098, 0.1160519, 7.3926253, 0.025159225, -0.03798437, 10.068806
788019849444594, 6.820741, 0.1363909, 7.3567333, 0.004476942, -0.025155544, 10.033045
788019859083657, 6.8219376, 0.13758731, 7.3304124, 0.00380373, -0.0069155693, 10.014622
788019868722719, 6.836294, 0.15792629, 7.318448, -0.016517267, 0.011745453, 10.015944
788019878361782, 6.867401, 0.18424734, 7.308877, -0.04224632, 0.040965557, 10.0305195
788019888000844, 6.8685975, 0.16749759, 7.3292155, -0.024593584, 0.027887344, 10.045979
788019897639907, 6.8650084, 0.14237295, 7.318448, 0.0012721941, 0.031662464, 10.035302
788019907278969, 6.882954, 0.13280165, 7.3112698, 0.010816403, 0.048667908, 10.042154
788019916918032, 6.884151, 0.13878371, 7.3232336, 0.004382465, 0.041027546, 10.051808
788019926557094, 6.8781686, 0.14356937, 7.3375907, -5.461946E-4, 0.026893139, 10.058296
788019936196157, 6.8949184, 0.124426775, 7.3399835, 0.017812647, 0.03958273, 10.07119
788019945835219, 6.8685975, 0.106480606, 7.348358, 0.035608754, 0.014904499, 10.059118
788019955474282, 6.8506513, 0.1471586, 7.3495545, -0.005151257, 7.982254E-4, 10.048334
788019965113344, 6.8602223, 0.16390835, 7.348358, -0.02227816, 0.00845623, 10.054218
788019974752407, 6.8542404, 0.1363909, 7.342376, 0.006422907, 0.007004738, 10.045378
788019984391469, 6.826723, 0.106480606, 7.3160553, 0.035820864, 0.004750252, 10.006941
788019994030532, 6.8614187, 0.15074782, 7.3340015, -0.009396911, 0.013958931, 10.044355
788020003669594, 6.8913293, 0.19262223, 7.3639116, -0.050593775, 0.015771389, 10.087215
788020013308657, 6.8721867, 0.19142582, 7.34118, -0.050165005, 0.0151023865, 10.057523
788020022947719, 6.815955, 0.13040884, 7.3375907, 0.011192948, -0.026564598, 10.015669
788020032586782, 6.8219376, 0.11365908, 7.3746796, 0.028281702, -0.047632694, 10.046621
788020042225844, 6.826723, 0.15314065, 7.3866434, -0.011589268, -0.04876089, 10.059205
788020051864907, 6.8506513, 0.14117654, 7.4045897, 0.001222007, -0.04363203, 10.088478
788020061503969, 6.8339014, 0.09451649, 7.3926253, 0.047902644, -0.04450512, 10.067661
788020071143136, 6.8195443, 0.0634098, 7.353144, 0.07847338, -0.028103352, 10.028559
788020080782198, 6.8422766, 0.08973085, 7.335198, 0.05135592, 3.4093857E-4, 10.031317
788020090421261, 6.8817577, 0.124426775, 7.3196445, 0.015790138, 0.037833214, 10.047368
788020100060323, 6.884151, 0.11964113, 7.308877, 0.020050732, 0.043450832, 10.041078
788020109699386, 6.8745794, 0.13040884, 7.3028946, 0.008986438, 0.039099693, 10.030329
788020119338448, 6.9044895, 0.16749759, 7.320841, -0.027732432, 0.04778576, 10.064377
788020128977511, 6.8949184, 0.20817557, 7.3112698, -0.06797868, 0.046411514, 10.051424
788020138616573, 6.8662047, 0.19621146, 7.320841, -0.055565327, 0.016382217, 10.038657
788020148255636, 6.835098, 0.19501504, 7.3375907, -0.05368285, -0.019046307, 10.029636
788020157894698, 6.843473, 0.17587246, 7.350751, -0.033167355, -0.021995544, 10.044701
788020167533761, 6.8446693, 0.14955142, 7.331609, -0.007047139, -0.0080266, 10.031164
788020177172823, 6.8518476, 0.1268196, 7.368697, 0.017524853, -0.02819109, 10.062828
788020186811886, 6.8458657, 0.12323037, 7.3770723, 0.021176457, -0.038760662, 10.064806
788020196450948, 6.8865438, 0.12921242, 7.3172517, 0.013809383, 0.03171444, 10.048988
788020206090011, 6.8650084, 0.1268196, 7.331609, 0.016372256, 0.003996372, 10.044731
788020215729073, 6.8949184, 0.14356937, 7.3363943, -2.1076202E-4, 0.022424698, 10.068897
788020225368136, 6.9044895, 0.13160525, 7.283752, 0.01095707, 0.06673622, 10.036819
788020235007198, 6.855437, 0.124426775, 7.2753773, 0.018139545, 0.03650427, 9.997097
788020244646261, 6.8578296, 0.15074782, 7.283752, -0.008028209, 0.03298521, 10.005221
788020254285323, 6.8721867, 0.15194423, 7.3112698, -0.00937297, 0.025089264, 10.035139
788020263924386, 6.8662047, 0.14237295, 7.3172517, -2.7375203E-4, 0.015580654, 10.035286
788020273563448, 6.8709903, 0.16630118, 7.3399835, -0.024131954, 0.003930092, 10.055492
788020283202511, 6.893722, 0.17467605, 7.3232336, -0.032187488, 0.031063557, 10.05891
788020292841573, 6.876972, 0.1698904, 7.3136625, -0.027535202, 0.024091244, 10.040415
788020302480636, 6.867401, 0.1471586, 7.318448, -0.004601497, 0.011733532, 10.03705
788020312119698, 6.908079, 0.16031912, 7.2969127, -0.016442884, 0.05577469, 10.04932
788020321758761, 6.847062, 0.1471586, 7.3292155, -0.00486486, -0.011154652, 10.031012
788020331397823, 6.8303123, 0.10887343, 7.355537, 0.033275638, -0.040581226, 10.038237
788020341036886, 6.8410797, 0.096909314, 7.4141607, 0.044415094, -0.07129192, 10.088236
788020350675948, 6.8709903, 0.096909314, 7.393822, 0.044299867, -0.034707546, 10.093826
788020360315011, 6.8482585, 0.111266255, 7.3950186, 0.029369459, -0.052145004, 10.079372
788020369954073, 6.8422766, 0.15194423, 7.332805, -0.011281017, -0.013097286, 10.030432
788020379593136, 6.8482585, 0.16271193, 7.3028946, -0.020888835, 0.010372162, 10.012834
788020389232198, 6.8853474, 0.15792629, 7.2693954, -0.015722746, 0.059969902, 10.013651
788020398871261, 6.896115, 0.12323037, 7.281359, 0.020084016, 0.057767868, 10.02926
788020408510323, 6.88774, 0.11006984, 7.3112698, 0.032998964, 0.027671337, 10.045191
788020418149386, 6.859026, 0.14596218, 7.301698, -0.0036157928, 0.013780594, 10.019089
788020427788448, 6.8650084, 0.1471586, 7.3363943, -0.0054648183, -0.0053133965, 10.048513
788020437427511, 6.855437, 0.1471586, 7.359126, -0.0055714548, -0.027618885, 10.058559
788020447066573, 6.8805614, 0.17706887, 7.34118, -0.03615737, 0.0028853416, 10.063055
788020456705636, 6.879365, 0.20578274, 7.3232336, -0.06552857, 0.014374733, 10.04954
788020466344698, 6.8518476, 0.19262223, 7.308877, -0.0524472, 0.004207611, 10.020071
788020475983761, 6.8458657, 0.14117654, 7.3028946, 0.0011010468, 0.0038580894, 10.010899
788020485622823, 6.890133, 0.1052842, 7.3052874, 0.037666008, 0.0342803, 10.042393
788020495261886, 6.9128647, 0.09571291, 7.3459654, 0.047577746, 0.024389267, 10.087479
788020504900948, 6.863812, 0.09451649, 7.3627152, 0.048051503, -0.022834778, 10.066162
788020514540011, 6.856633, 0.10887343, 7.359126, 0.03311196, -0.026288986, 10.058838
788020524179073, 6.8339014, 0.12203395, 7.3375907, 0.0194242, -0.02901411, 10.027768
788020533818136, 6.8303123, 0.14356937, 7.3256264, -0.0020477176, -0.023691654, 10.016886
788020543457198, 6.8255267, 0.16749759, 7.3100734, -0.02589893, -0.015158653, 10.002606
788020553096261, 6.8662047, 0.1698904, 7.301698, -0.027244704, 0.020145416, 10.024336
788020562735323, 6.8817577, 0.14955142, 7.2873416, -0.0064554987, 0.04129553, 10.0241995
788020572374386, 6.936793, 0.1591227, 7.2861447, -0.015202509, 0.08240414, 10.061079
788020582013448, 6.8913293, 0.13758731, 7.301698, 0.005023606, 0.03625822, 10.041058
788020591652511, 6.884151, 0.12562318, 7.3172517, 0.016267424, 0.020127296, 10.047329
788020601291573, 6.853044, 0.14356937, 7.328019, -0.0022013877, -0.009738445, 10.034171
788020610930636, 6.9248285, 0.1698904, 7.34118, -0.027503971, 0.034719467, 10.09322
788020620569698, 6.8865438, 0.16031912, 7.391429, -0.018044144, -0.02777052, 10.1035795
788020630208657, 6.806384, 0.13758731, 7.34118, 0.004412025, -0.05218506, 10.011792
788020639847719, 6.838687, 0.13160525, 7.3340015, 0.011491068, -0.022476673, 10.028554
788020649486782, 6.8339014, 0.14237295, 7.347162, 8.891076E-4, -0.035007477, 10.035042
788020659125844, 6.8374906, 0.14596218, 7.3256264, -0.0033312142, -0.017755985, 10.0218315
788020668764907, 6.875776, 0.13399807, 7.3136625, 0.008062616, 0.018949509, 10.039099
788020678403969, 6.8518476, -0.10049855, 7.2729845, 0.24162008, 0.03237009, 9.989735
788020688043032, 6.9128647, 0.4642076, 7.3375907, -0.32602227, 0.023869514, 10.086456
788020697682094, 6.8925257, -0.09571291, 7.2263246, 0.23314354, 0.08830929, 9.98367
788020707321157, 6.8805614, 0.27756742, 7.3698936, -0.13407804, -0.018054962, 10.085445
788020716960219, 6.9415784, 0.2847459, 7.2263246, -0.14286648, 0.12483311, 10.022493
788020726599282, 6.789634, -0.07776674, 7.351948, 0.218774, -0.07278633, 10.0051565
788020736238344, 6.9798636, 0.6257231, 7.344769, -0.4795188, 0.069835186, 10.140062
788020745877407, 6.7609205, -0.3493521, 7.373483, 0.48954177, -0.10744047, 9.9974575
788020755516469, 6.9451675, 0.6735796, 7.3663044, -0.53179973, 0.03508663, 10.132496
788020765155532, 6.739385, -0.485743, 7.263413, 0.63209677, -0.059406757, 9.899967
788020774794594, 6.8865438, 0.5132605, 7.3842506, -0.3738949, -0.021096706, 10.10321
788020784433657, 6.829116, -0.2213361, 7.2095747, 0.3651812, 0.04568529, 9.926144
788020794072719, 6.8446693, 0.22612174, 7.372287, -0.082464404, -0.04441595, 10.061932
788020803711782, 6.969096, 0.2117648, 7.2418776, -0.06914017, 0.13647842, 10.051594
788020813350844, 6.8410797, -0.050249275, 7.4045897, 0.18966818, -0.07594156, 10.079142
788020822989907, 6.9942207, 0.57547385, 7.350751, -0.42983925, 0.0935936, 10.153339
788020832628865, 6.7429743, -0.3493521, 7.347162, 0.4823225, -0.11867666, 9.966133
788020842267927, 6.9128647, 0.73100734, 7.367501, -0.59257996, 0.02087164, 10.111901
788020851906990, 6.735796, -0.41994038, 7.253842, 0.5537517, -0.06116247, 9.892176
788020861546052, 6.914061, 0.62452674, 7.3782687, -0.47645468, 0.0065631866, 10.119589
788020871185115, 6.8745794, -0.20458634, 7.2490563, 0.35032558, 0.050111294, 9.986255
788020880824177, 6.856633, 0.32542387, 7.37109, -0.18526697, -0.035429955, 10.070585
788020890463240, 6.9128647, 0.18065812, 7.2119675, -0.038853902, 0.111409664, 9.99094
788020900102302, 6.8051877, -0.069391854, 7.3782687, 0.21039341, -0.08649254, 10.035064
788020909741365, 6.99781, 0.52283174, 7.3100734, -0.37871835, 0.11375141, 10.125389
788020919380427, 6.748956, -0.36370903, 7.3363943, 0.5016607, -0.102599144, 9.961988
788020929019490, 6.9942207, 0.6735796, 7.3603225, -0.52256644, 0.07964802, 10.162073
788020938658552, 6.775277, -0.4354937, 7.274181, 0.5804611, -0.04878044, 9.933199
788020948297511, 6.914061, 0.64008003, 7.335198, -0.50141644, 0.030124187, 10.087952
788020957936573, 6.8171515, -0.2105684, 7.198807, 0.3476073, 0.034323215, 9.910534
788020967575636, 6.875776, 0.3493521, 7.373483, -0.20450383, -0.028088093, 10.085831
788020977214698, 6.926025, 0.14237295, 7.243074, -9.821877E-4, 0.09226322, 10.02216
788020986853761, 6.832705, -0.031106694, 7.3842506, 0.1728525, -0.072348595, 10.058771
788020996492823, 6.9882383, 0.46061835, 7.292127, -0.31747198, 0.11436796, 10.104895
788021006131886, 6.695118, -0.35174492, 7.351948, 0.4867658, -0.15829897, 9.936674
788021015770948, 6.960721, 0.73100734, 7.361519, -0.591508, 0.053851604, 10.140276
788021025410011, 6.745367, -0.3804588, 7.328019, 0.52413356, -0.10318518, 9.952851
788021035049073, 6.9296145, 0.6735796, 7.4249287, -0.5346371, -0.0064082146, 10.1644945
788021044688032, 6.836294, -0.2548356, 7.2442703, 0.39178392, 0.027877808, 9.956156
788021054327094, 6.882954, 0.37328035, 7.3639116, -0.22660483, -0.013319492, 10.084149
788021063966157, 6.8985076, 0.061016977, 7.186843, 0.08229052, 0.11116266, 9.961161
788021073605219, 6.8339014, -0.033499517, 7.3375907, 0.17666666, -0.03834486, 10.025511
788021083244282, 7.0061846, 0.44745782, 7.2490563, -0.3092013, 0.1447258, 10.085588
788021092883344, 6.808777, -0.33140594, 7.3543406, 0.46947616, -0.07125759, 10.016493
788021102522407, 7.0348988, 0.6963114, 7.3698936, -0.55832744, 0.08678436, 10.196604
788021112161469, 6.7836523, -0.4534399, 7.2933235, 0.58857554, -0.038384438, 9.953302
788021121800532, 6.9355965, 0.63529444, 7.3698936, -0.4885004, 0.021474838, 10.128293
788021131439490, 6.8315086, -0.28594232, 7.23111, 0.42104533, 0.022630692, 9.942959
788021141078552, 6.856633, 0.4223332, 7.375876, -0.2857964, -0.041259766, 10.075314
788021150717615, 6.8685975, 0.05383851, 7.203593, 0.09014043, 0.072565556, 9.952833
788021160356677, 6.7932234, 0.038285162, 7.3698936, 0.09769867, -0.09840822, 10.022248
788021169995740, 6.9595246, 0.4546363, 7.308877, -0.31129634, 0.08755112, 10.097366
788021179634802, 6.7908306, -0.2739782, 7.405786, 0.41203585, -0.13817787, 10.042273
788021189273865, 6.943971, 0.65084773, 7.355537, -0.51043546, 0.05833006, 10.123356
788021198912927, 6.7334027, -0.4354937, 7.283752, 0.5752599, -0.10067272, 9.911627
788021208551886, 6.9475603, 0.72023964, 7.353144, -0.5808685, 0.060609818, 10.1249695
788021218190948, 6.800402, -0.31226337, 7.233503, 0.45637852, -0.0064115524, 9.922611
788021227830011, 6.8685975, 0.42951167, 7.372287, -0.29137334, -0.025818348, 10.08103
788021237469073, 6.9128647, 0.0071784677, 7.207182, 0.13873431, 0.10700655, 9.985014
788021247108136, 6.838687, 0.078963146, 7.344769, 0.062889636, -0.038170815, 10.035641
788021256747198, 6.9559355, 0.39960137, 7.2753773, -0.2578914, 0.0985384, 10.069738
788021266386261, 6.7908306, -0.25722843, 7.385447, 0.394408, -0.11145973, 10.027882
788021276025219, 7.0145597, 0.6939186, 7.3866434, -0.5507715, 0.08150339, 10.1950035
788021285664282, 6.7537417, -0.40438703, 7.328019, 0.5398198, -0.09893513, 9.958677
788021295303344, 6.946364, 0.7070791, 7.3746796, -0.5656624, 0.032414913, 10.139862
788021304942407, 6.734599, -0.3912265, 7.237092, 0.53698933, -0.05101919, 9.878887
788021314581469, 6.8303123, 0.45583272, 7.3579297, -0.31570363, -0.05103445, 10.044792
788021324220532, 6.8709903, -0.032303106, 7.219146, 0.17757587, 0.06905794, 9.964502
788021333859490, 6.876972, 0.106480606, 7.3782687, 0.03566572, -0.033768654, 10.086651
788021343498552, 7.0061846, 0.34456646, 7.222735, -0.19975252, 0.17034674, 10.065006
788021353137615, 6.7872415, -0.22851457, 7.308877, 0.36776888, -0.05713463, 9.969955
788021362776677, 7.0205417, 0.63888365, 7.2849483, -0.49046952, 0.14088821, 10.124538
788021372415740, 6.741778, -0.43429732, 7.318448, 0.5775443, -0.11008978, 9.942544
788021382054802, 6.984649, 0.71665037, 7.399804, -0.5669994, 0.03311014, 10.184961
788021391693761, 6.8243303, -0.32542387, 7.3100734, 0.47120243, -0.030346394, 9.994578
788021401332823, 6.8853474, 0.53240305, 7.4392858, -0.38508087, -0.063011646, 10.143085
788021410971886, 6.8099732, -0.08255238, 7.2323065, 0.22084782, 0.015852928, 9.931755
788021420610948, 6.7525454, 0.14356937, 7.3950186, 0.0011364967, -0.13376427, 10.014284
788021430250011, 6.9559355, 0.33020952, 7.2466636, -0.1873111, 0.11655378, 10.047862
788021439889073, 6.7848487, -0.2009971, 7.338787, 0.34484905, -0.07083273, 9.990417
788021449528032, 6.9882383, 0.6221339, 7.3268228, -0.48200753, 0.0906229, 10.132341
788021459167094, 6.7704916, -0.44506502, 7.312466, 0.58956796, -0.069672585, 9.957779
788021468806157, 6.960721, 0.70947194, 7.3543406, -0.5608648, 0.056423187, 10.135263
788021478445219, 6.8075805, -0.38883367, 7.2693954, 0.5333237, 0.0034952164, 9.952588
788021488084282, 6.884151, 0.552742, 7.4309106, -0.41375682, -0.060858727, 10.136103
788021497723240, 6.855437, -0.078963146, 7.2729845, 0.21573284, 0.028406143, 9.992607
788021507362302, 6.829116, 0.20458634, 7.4069824, -0.06410696, -0.08134937, 10.076277
788021517001365, 6.897311, 0.2632105, 7.259824, -0.121010005, 0.07009268, 10.016371
788021526640427, 6.7465634, -0.20458634, 7.347162, 0.34824294, -0.1036253, 9.970294
788021536279490, 6.9894347, 0.59700924, 7.312466, -0.450123, 0.10195255, 10.122637
788021545918552, 6.798009, -0.39840496, 7.312466, 0.5364108, -0.04064846, 9.977697
788021555557511, 6.9738817, 0.71306115, 7.3435726, -0.5731785, 0.07080507, 10.135975
788021565196573, 6.771688, -0.41515473, 7.253842, 0.55091566, -0.0330925, 9.916739
788021574835636, 6.884151, 0.57906306, 7.4177504, -0.4309218, -0.042653084, 10.127307
788021584474698, 6.8662047, -0.0849452, 7.24786, 0.22344281, 0.050837994, 9.981529
788021594113761, 6.8446693, 0.2321038, 7.375876, -0.09052499, -0.049941063, 10.064602
788021603752719, 6.91765, 0.2117648, 7.2789664, -0.06792931, 0.07114363, 10.043527
788021613391782, 6.7669024, -0.13040884, 7.355537, 0.27051964, -0.09833717, 9.991449
788021623030844, 6.9702926, 0.58983076, 7.3052874, -0.4427918, 0.09901667, 10.10417
788021632669907, 6.7669024, -0.39840496, 7.359126, 0.5343482, -0.10651684, 9.990474
788021642308969, 6.957132, 0.721436, 7.381858, -0.57220936, 0.042453766, 10.153067
788021651947927, 6.771688, -0.40079778, 7.2693954, 0.54618263, -0.032657623, 9.927796
788021661586990, 6.896115, 0.62931234, 7.4153576, -0.48104626, -0.03402376, 10.134466
788021671226052, 6.859026, -0.1160519, 7.2753773, 0.2544093, 0.0265069, 9.99627
788021680865115, 6.7968125, 0.32542387, 7.368697, -0.18305987, -0.07582188, 10.02801
788021690504177, 6.9056864, 0.25244278, 7.2382884, -0.1074906, 0.09555435, 10.006216
788021700143136, 6.7728844, -0.11485548, 7.3950186, 0.25815865, -0.112270355, 10.02458
788021709782198, 6.9990063, 0.5132605, 7.361519, -0.3634355, 0.08291721, 10.163785
788021719421261, 6.7525454, -0.40917268, 7.389036, 0.5543696, -0.13085318, 10.001884
788021729060323, 6.9762745, 0.6939186, 7.3698936, -0.54359406, 0.06328583, 10.157056
788021738699282, 6.7609205, -0.44865423, 7.2442703, 0.5850193, -0.021874905, 9.901922
788021748338344, 6.9391856, 0.634098, 7.3459654, -0.4937985, 0.047273636, 10.112938
788021757977407, 6.8518476, -0.14476576, 7.203593, 0.2913935, 0.07211828, 9.938332
788021767616469, 6.8578296, 0.38404804, 7.385447, -0.24120235, -0.040459156, 10.082773
788021777255532, 6.8985076, 0.20578274, 7.2358956, -0.05905173, 0.08991337, 9.998919
788021786894490, 6.7645097, -0.043070808, 7.393822, 0.19109036, -0.11662912, 10.01893
788021796533552, 6.9391856, 0.50129634, 7.3639116, -0.35489744, 0.039343834, 10.124391
788021806172615, 6.710671, -0.39361933, 7.416554, 0.53438085, -0.17905855, 9.993783
788021815811677, 6.9212394, 0.7046863, 7.426125, -0.56151426, -0.016985893, 10.160309
788021825450636, 6.7645097, -0.45224348, 7.3064837, 0.59096974, -0.06874752, 9.949565
788021835089698, 6.9619174, 0.6161518, 7.328019, -0.4718775, 0.08874798, 10.115199
788021844728761, 6.882954, -0.19740787, 7.200003, 0.3407442, 0.09181309, 9.956381
788021854367823, 6.906883, 0.40558344, 7.3974113, -0.26182, -0.010391712, 10.125343
788021864006886, 6.9092755, 0.09810573, 7.3698936, 0.049813762, -0.0014123917, 10.102502
788021873645844, 6.8171515, -0.04426722, 7.5553374, 0.18827125, -0.19867373, 10.172695
788021883284907, 6.876972, 0.4211368, 7.4380894, -0.27397606, -0.06839371, 10.134868
788021892923969, 6.6305118, -0.40079778, 7.466803, 0.5353644, -0.28403234, 9.975478
788021902563032, 6.884151, 0.6580262, 7.391429, -0.5091986, -0.031239033, 10.109278
788021912201990, 6.7429743, -0.43788654, 7.2299137, 0.57535523, -0.032603264, 9.87922
788021921841052, 6.9535427, 0.62093747, 7.3268228, -0.4710448, 0.056382656, 10.109134
788021931480115, 6.9212394, -0.21535404, 7.085148, 0.3616847, 0.19094658, 9.898584
788021941119177, 7.0002027, 0.49292147, 7.1581287, -0.34227768, 0.20766497, 10.016205
788021950758136, 7.0372915, 0.12323037, 6.9942207, 0.028907452, 0.32948208, 9.917076
788021960397198, 6.943971, 0.062213387, 7.2095747, 0.087985516, 0.11206627, 10.00901
788021970036261, 7.066005, 0.48454657, 7.200003, -0.33537677, 0.20679379, 10.091979
788021979675323, 6.792027, -0.34217364, 7.3770723, 0.48711923, -0.1170063, 10.0209255
788021989314386, 6.926025, 0.54675996, 7.5110703, -0.39348176, -0.10535097, 10.2234535
788021998953344, 6.7238317, -0.54675996, 7.3268228, 0.6861634, -0.14197254, 9.934798
788022008592407, 6.9930243, 0.8003992, 7.4344997, -0.65949917, 0.013857365, 10.216638
788022018231469, 6.7932234, -0.20817557, 7.29452, 0.35690966, -0.052058697, 9.963491
788022027870532, 6.8015985, 0.4438686, 7.3627152, -0.29434487, -0.09087372, 10.028631
788022037509490, 6.88774, 0.05742774, 7.2083783, 0.08973354, 0.08003664, 9.96948
788022047148552, 6.8135624, 0.07537391, 7.3363943, 0.07035248, -0.061081886, 10.012207
788022056787615, 6.977471, 0.3589234, 7.225128, -0.21151552, 0.13635635, 10.04754
788022066426677, 6.754938, -0.39361933, 7.347162, 0.53749675, -0.11772013, 9.973071
788022076065636, 7.0061846, 0.55513483, 7.355537, -0.4058443, 0.073176384, 10.165071
788022085704698, 6.8518476, -0.5407779, 7.2729845, 0.6823169, 0.018511295, 9.9835205
788022095343761, 7.02772, 0.6053841, 7.3256264, -0.47158518, 0.11675978, 10.157959
788022104982823, 6.8913293, -0.3804588, 7.2346992, 0.51051164, 0.06984711, 9.985517
788022114621782, 6.943971, 0.42592242, 7.4010005, -0.29544547, -0.005815506, 10.153208
788022124260844, 6.9152575, -0.047856454, 7.2023964, 0.17585808, 0.110293865, 9.982712
788022133899907, 6.832705, 0.05742774, 7.2765737, 0.07519363, 0.0018401146, 9.981583
788022143538969, 6.9942207, 0.36610186, 7.1018977, -0.23910502, 0.2388978, 9.968744
788022153177927, 6.8458657, -0.16390835, 7.237092, 0.2933668, 0.045105457, 9.958922
788022162816990, 7.0540414, 0.7680961, 7.2095747, -0.6329246, 0.22574043, 10.093357
788022172456052, 6.7728844, -0.33379877, 7.179664, 0.45601115, 0.026822567, 9.865207
788022182095115, 6.9320073, 0.7812566, 7.3926253, -0.6552557, 0.024503231, 10.143177
788022191734073, 6.7573314, -0.2536392, 7.436893, 0.38487747, -0.14997768, 10.043037
788022201373136, 6.759724, 0.5587241, 7.6797643, -0.4339386, -0.29127264, 10.232872
788022211012198, 6.664011, -0.015553347, 7.6103725, 0.14004111, -0.32351398, 10.109539
788022220651261, 6.539584, 0.13399807, 7.8281193, -0.0020110942, -0.5524535, 10.186186
788022230290219, 6.6927247, 0.38644084, 7.6917286, -0.25752527, -0.32240868, 10.1948185
788022239929282, 6.5252275, -0.22492532, 7.6678, 0.3559206, -0.43697834, 10.055183
788022249568344, 6.8111696, 0.61734825, 7.530213, -0.47637135, -0.12464476, 10.160452
788022259207407, 6.7034926, -0.47736812, 7.3340015, 0.61010087, -0.071205616, 9.9284935
788022268846365, 6.99781, 0.6376872, 7.207182, -0.4937985, 0.22986889, 10.051007
788022278485427, 6.9092755, -0.41994038, 6.9415784, 0.56232095, 0.32280922, 9.781591
788022288124490, 7.1270223, 0.48095736, 7.076773, -0.33442107, 0.40648413, 10.041387
788022297763552, 7.09113, -0.13519448, 6.957132, 0.27404168, 0.44093323, 9.921421
788022307402511, 7.024131, 0.031106694, 7.119844, 0.11317031, 0.27569962, 9.997137
788022317041573, 7.0959153, 0.2105684, 7.0372915, -0.081344925, 0.38372993, 9.988291
788022326680636, 6.8817577, -0.28594232, 7.2179494, 0.4123046, 0.09465408, 9.967958
788022336319698, 7.051648, 0.61016977, 7.288538, -0.4798218, 0.1840396, 10.146759
788022345958657, 6.7836523, -0.35294133, 7.3340015, 0.4797416, -0.04731655, 9.984873
788022355597719, 6.8650084, 0.80757767, 7.501499, -0.67701006, -0.10510445, 10.177605
788022365236782, 6.661618, -0.26919255, 7.521838, 0.38817155, -0.25476408, 10.040522
788022374875844, 6.6771717, 0.6652047, 7.8017983, -0.52950084, -0.42423964, 10.2681465
788022384514907, 6.5694947, 0.0035892338, 7.685746, 0.13718672, -0.40125132, 10.101936
788022394153865, 6.5204415, 0.25842485, 7.8053875, -0.1294074, -0.5123162, 10.160109
788022403792927, 6.6891356, 0.2440679, 7.6031938, -0.10980151, -0.24860764, 10.126143
788022413431990, 6.5084777, -0.23090738, 7.6127653, 0.36248526, -0.39304447, 10.004095
788022423071052, 6.7908306, 0.5694918, 7.472785, -0.43060717, -0.08573198, 10.103933
788022432710011, 6.7011, -0.39481574, 7.4213395, 0.53095543, -0.14157534, 9.991743
788022442349073, 6.969096, 0.70229346, 7.429714, -0.5681744, 0.06769943, 10.1948395
788022451988136, 6.792027, -0.42831525, 7.2861447, 0.5585623, 0.017713547, 9.95443
788022461627198, 6.869794, 0.5419743, 7.396215, -0.40014383, 0.006954193, 10.10107
788022471266157, 6.8015985, -0.16271193, 7.3028946, 0.30168888, 9.794235E-4, 9.976445
788022480905219, 6.795616, 0.2213361, 7.476374, -0.080336265, -0.11980677, 10.10469
788022490544282, 6.9451675, 0.22851457, 7.281359, -0.08972919, 0.113720894, 10.0640335
788022500183344, 6.8949184, -0.12921242, 7.2622166, 0.26765674, 0.08508062, 10.01087
788022509822302, 7.1377897, 0.53359944, 7.1306114, -0.3910475, 0.3488555, 10.089785
788022519461365, 6.9678993, -0.45822555, 7.004988, 0.5946529, 0.29172993, 9.868774
788022529100427, 7.1282187, 0.64008003, 6.9882383, -0.50342125, 0.4114642, 9.981682
788022538739490, 6.9619174, -0.44865423, 6.8602223, 0.58712393, 0.3563671, 9.760149
788022548378448, 7.140183, 0.64965135, 7.094719, -0.5006707, 0.34403515, 10.068281
788022558017511, 7.036095, -0.11724831, 7.085148, 0.25987074, 0.2480874, 9.97951
788022567656573, 6.9822564, 0.31465617, 7.365108, -0.17987591, 0.028604984, 10.151974
788022577295636, 7.004988, 0.19621146, 7.2693954, -0.05952376, 0.10743284, 10.096405
788022586934594, 6.751349, -0.12801601, 7.479964, 0.2608776, -0.22484636, 10.071163
788022596573657, 6.8865438, 0.47976094, 7.4919276, -0.34999666, -0.118540764, 10.180722
788022606212719, 6.602994, -0.4438686, 7.5409803, 0.5737751, -0.36865854, 10.009886
788022615851782, 6.77767, 0.6687939, 7.5960155, -0.54440093, -0.25056648, 10.184518
788022625490844, 6.626922, -0.42592242, 7.5326056, 0.5592243, -0.32300568, 10.021008
788022635129802, 6.829116, 0.6305088, 7.6331043, -0.5030363, -0.22699976, 10.246662
788022644768865, 6.7968125, -0.18544376, 7.408179, 0.31150517, -0.10764074, 10.050051
788022654407927, 6.838687, 0.37567315, 7.460821, -0.23935525, -0.10343075, 10.124457
788022664046990, 6.879365, 0.1591227, 7.2215385, -0.020668253, 0.08414698, 9.974672
788022673685948, 6.79442, -0.08255238, 7.257431, 0.2174825, -0.008007526, 9.939512
788022683325011, 7.021738, 0.46899325, 7.219146, -0.3278603, 0.18939066, 10.0745945
788022692964073, 6.795616, -0.45224348, 7.298109, 0.58474165, -0.043612003, 9.965115
788022702603136, 6.9882383, 0.64247286, 7.3627152, -0.4980912, 0.075314045, 10.158941
788022712242094, 6.8075805, -0.47736812, 7.3052874, 0.6151453, -0.05151224, 9.977837
788022721881157, 6.977471, 0.6149554, 7.4069824, -0.48270226, 0.02726984, 10.182972
788022731520219, 6.8889365, -0.23449662, 7.2490563, 0.37365162, 0.042859077, 9.995991
788022741159282, 6.88774, 0.44027936, 7.3746796, -0.30711007, -0.030611515, 10.095814
788022750798344, 6.928418, 0.20338993, 7.1629148, -0.06714819, 0.14153719, 9.966301
788022760437302, 6.789634, 0.059820566, 7.3028946, 0.07788917, -0.06515598, 9.971193
788022770076365, 7.0085773, 0.54675996, 7.2550383, -0.40050986, 0.14416933, 10.093241
788022779715427, 6.780063, -0.29790643, 7.3340015, 0.43550256, -0.093299866, 9.982345
788022789354490, 6.966703, 0.66041905, 7.3806615, -0.51212704, 0.014186382, 10.157892
788022798993448, 6.77767, -0.47018966, 7.3268228, 0.60577935, -0.10719776, 9.973051
788022808632511, 6.9523463, 0.6029913, 7.4237323, -0.45293707, -0.019678116, 10.178654
788022818271573, 6.8015985, -0.3361916, 7.237092, 0.48097488, -0.015030861, 9.925659
788022827910636, 6.8721867, 0.32422748, 7.359126, -0.18473026, -0.04592991, 10.072367
788022837549698, 6.940382, 0.05742774, 7.176075, 0.08258172, 0.12729168, 9.982245
788022847188657, 6.903293, 0.016749758, 7.3268228, 0.12532793, -0.0036034584, 10.065901
788022856827719, 7.0695944, 0.4438686, 7.26102, -0.3003048, 0.16545677, 10.138098
788022866466782, 6.8985076, -0.317049, 7.2897344, 0.4597782, 0.005077362, 10.0308895
788022876105844, 7.0983086, 0.715454, 7.2897344, -0.5779243, 0.16613865, 10.182166
788022885744802, 6.8662047, -0.4127619, 7.159325, 0.5553435, 0.07062006, 9.912501
788022895383865, 7.042077, 0.6723832, 7.271788, -0.5254575, 0.13935041, 10.1304655
788022905022927, 6.8925257, -0.31345975, 7.166504, 0.4486336, 0.08049297, 9.937614
788022914661990, 6.9188466, 0.4031906, 7.4237323, -0.260493, -0.057766914, 10.152517
788022924301052, 6.899704, -0.011964113, 7.2909307, 0.1509286, 0.021354675, 10.036956
788022933940011, 6.762117, -0.010767702, 7.463214, 0.14549981, -0.19421244, 10.068118
788022943579073, 6.88774, 0.3290131, 7.389036, -0.19383061, -0.040812016, 10.104842
788022953218136, 6.669993, -0.3505485, 7.483553, 0.4817226, -0.2729311, 10.015424
788022962857198, 6.930811, 0.6723832, 7.4823565, -0.53216606, -0.06214428, 10.207197
788022972496261, 6.7525454, -0.40917268, 7.385447, 0.5463389, -0.13761616, 9.999585
788022982135219, 6.9128647, 0.73100734, 7.448857, -0.5984369, -0.04218912, 10.170921
788022991774282, 6.775277, -0.30149564, 7.2358956, 0.43109143, -0.015493393, 9.907946
788023001413344, 6.7848487, 0.48454657, 7.420143, -0.35486996, -0.117381096, 10.059212
788023011052407, 6.8482585, 0.038285162, 7.23111, 0.09509829, 0.04495287, 9.958814
788023020691365, 6.808777, 0.12562318, 7.3986077, 0.0086718565, -0.09608984, 10.055115
788023030330427, 6.966703, 0.37088752, 7.3100734, -0.23534004, 0.08388853, 10.101845
788023039969490, 6.8015985, -0.29192436, 7.3950186, 0.42397004, -0.10460091, 10.042041
788023049608552, 7.036095, 0.66759753, 7.3926253, -0.5353782, 0.07546425, 10.213272
788023059247615, 6.8650084, -0.38404804, 7.2753773, 0.5132469, 0.0052785873, 9.997174
788023068886573, 7.038488, 0.7537391, 7.2729845, -0.61101586, 0.16028833, 10.129447
788023078525636, 6.8111696, -0.30149564, 7.1210403, 0.44169572, 0.06682587, 9.848481
788023088164698, 6.9726853, 0.51445687, 7.3435726, -0.37106916, 0.046738625, 10.132679
788023097803761, 6.9344, -0.0047856453, 7.183254, 0.14761153, 0.11170673, 9.982525
788023107442823, 6.879365, 0.148355, 7.347162, -0.011483483, -0.038733482, 10.066124
788023117081782, 7.0097737, 0.30508488, 7.2011995, -0.16364017, 0.16066217, 10.051601
788023126720844, 6.7669024, -0.2739782, 7.379465, 0.4068093, -0.15314388, 10.006678
788023136359907, 7.02772, 0.654437, 7.3567333, -0.5098911, 0.07803249, 10.1819725
788023145998969, 6.79442, -0.43908295, 7.292127, 0.56920755, -0.07363987, 9.9600525
788023155638032, 6.960721, 0.6843473, 7.37109, -0.5515186, 0.022936344, 10.146339
788023165277094, 6.812366, -0.38165522, 7.283752, 0.5106233, -0.05369568, 9.967117
788023174916052, 6.9344, 0.47258246, 7.442875, -0.3323424, -0.04955101, 10.178051
788023184555115, 6.869794, -0.14356937, 7.3100734, 0.279947, -0.016910076, 10.028619
788023194194177, 6.838687, 0.18424734, 7.456035, -0.053928487, -0.13204479, 10.117989
788023203833240, 6.9499536, 0.32063824, 7.288538, -0.1856729, 0.0666399, 10.074153
788023213472302, 6.7501526, -0.16869399, 7.396215, 0.30062458, -0.15701246, 10.009094
788023223111261, 6.9475603, 0.5778667, 7.3256264, -0.43900147, 0.042265892, 10.103109
788023232750323, 6.7405815, -0.42951167, 7.331609, 0.5593416, -0.12080622, 9.952133
788023242389386, 6.987042, 0.6939186, 7.372287, -0.56102115, 0.047834396, 10.165325
788023252028448, 6.8255267, -0.41156548, 7.2562346, 0.54109585, -0.0013160706, 9.95577
788023261667511, 6.963114, 0.5491528, 7.3902326, -0.4079275, 0.008678436, 10.160492
788023271306573, 6.843473, -0.15433706, 7.164111, 0.29040197, 0.06775713, 9.904166
788023280945532, 6.838687, 0.20578274, 7.347162, -0.06977013, -0.05560875, 10.0390625
788023290584594, 6.9702926, 0.2847459, 7.2490563, -0.15124765, 0.107176304, 10.058853
788023300223657, 6.8721867, -0.16151553, 7.3770723, 0.2960516, -0.054614067, 10.078869
788023309862719, 7.0265236, 0.587438, 7.3579297, -0.44986498, 0.08083725, 10.180733
788023319501782, 6.775277, -0.36011982, 7.381858, 0.49626574, -0.12840366, 10.013147
788023329140844, 6.9942207, 0.74536425, 7.3974113, -0.60520387, 0.03203249, 10.189656
788023338779802, 6.7573314, -0.38644084, 7.30768, 0.5252312, -0.094931126, 9.946265
788023348418865, 6.867401, 0.5910272, 7.3698936, -0.4483912, -0.055646896, 10.080759
788023358057927, 6.855437, -0.13399807, 7.2346992, 0.27309233, 0.03542137, 9.963936
788023367696990, 6.8614187, 0.25603202, 7.422536, -0.11849852, -0.092751026, 10.110194
788023377336052, 6.957132, 0.18185452, 7.251449, -0.045309875, 0.094809055, 10.050234
788023386975115, 6.7740808, -0.17228323, 7.3842506, 0.3104038, -0.13080263, 10.016564
788023396614073, 7.0145597, 0.5240282, 7.3196445, -0.38331932, 0.09135723, 10.143993
788023406253136, 6.8051877, -0.41994038, 7.3603225, 0.5594741, -0.0915122, 10.016979
788023415892198, 7.045666, 0.67118675, 7.338787, -0.5390694, 0.10014963, 10.18082
788023425531261, 6.869794, -0.44147578, 7.2646093, 0.5810023, 0.02218771, 9.99127
788023435170323, 6.957132, 0.60777694, 7.3698936, -0.47462875, 0.023568153, 10.142021
788023444809386, 6.879365, -0.1794617, 7.1820574, 0.31204697, 0.07483244, 9.941672
788023454448344, 6.8650084, 0.32542387, 7.359126, -0.1873933, -0.04333067, 10.067472
788023464087407, 6.8925257, 0.1794617, 7.2502527, -0.043638334, 0.04227686, 10.005079
788023473726469, 6.789634, -0.06580263, 7.402197, 0.19914055, -0.14536619, 10.041674
788023483365532, 6.9894347, 0.5623133, 7.367501, -0.42078307, 0.040163517, 10.162176
788023493004594, 6.7848487, -0.3397808, 7.3806615, 0.46805543, -0.14856863, 10.019112
788023502643657, 7.0002027, 0.7082755, 7.3495545, -0.56121695, 0.0732317, 10.158747
788023512282719, 6.7932234, -0.43908295, 7.2346992, 0.572265, -0.032206535, 9.917309
788023521921677, 7.0002027, 0.6376872, 7.304091, -0.49006963, 0.09229231, 10.12475
788023531560740, 6.8913293, -0.22372891, 7.1856465, 0.366836, 0.08548689, 9.9514885
788023541199802, 6.9475603, 0.35174492, 7.335198, -0.21264103, 0.028645515, 10.106998
788023550838865, 6.9762745, 0.1363909, 7.1677003, 0.005326424, 0.16328573, 10.001813
788023560477927, 6.806384, -0.0634098, 7.3543406, 0.20207395, -0.09199476, 10.01838
788023570116990, 6.995417, 0.45583272, 7.298109, -0.3126103, 0.09196043, 10.114339
788023579756052, 6.778867, -0.36011982, 7.3830543, 0.5007056, -0.13086033, 10.016205
788023589395011, 6.9726853, 0.6987042, 7.399804, -0.5631601, 0.01673603, 10.175766
788023599034073, 6.7561345, -0.4354937, 7.3639116, 0.5764045, -0.1345706, 9.985583
788023608673136, 6.920043, 0.6652047, 7.4512496, -0.53010386, -0.056807995, 10.176755
788023618312198, 6.8518476, -0.22372891, 7.3052874, 0.35735136, -0.019657135, 10.011844
788023627951261, 6.8518476, 0.43429732, 7.4584284, -0.29777858, -0.11223698, 10.132292
788023637590323, 6.8650084, 0.11006984, 7.2897344, 0.031860583, 0.008399487, 10.01397
788023647229386, 6.7932234, 0.008374879, 7.4033933, 0.13195749, -0.12334633, 10.046171
788023656868344, 6.9152575, 0.22851457, 7.2789664, -0.08586316, 0.053345203, 10.042219
788023666507407, 6.8578296, 0.1052842, 7.411768, 0.034974776, -0.07788801, 10.097918
788023676146469, 6.873383, 0.11724831, 7.3064837, 0.024230257, 0.0047254562, 10.032011
788023685785532, 6.8913293, 0.11485548, 7.2957163, 0.026588341, 0.025826931, 10.036421
788023695424594, 6.9044895, 0.13878371, 7.350751, 0.0024921582, -0.0029716492, 10.085871
788023705063657, 6.9188466, 0.15314065, 7.3172517, -0.011263172, 0.024957657, 10.07151
788023714702719, 6.9224358, 0.0849452, 7.3064837, 0.05656531, 0.03462696, 10.06517
788023724341782, 6.927222, 0.16271193, 7.2861447, -0.021017581, 0.046164036, 10.054761
788023733980844, 6.9475603, 0.20578274, 7.2526455, -0.06325856, 0.08294582, 10.044945
788023743619802, 6.954739, 0.17467605, 7.2562346, -0.031683058, 0.0856514, 10.052038
788023753258865, 6.943971, 0.14117654, 7.2358956, 0.002639804, 0.08936596, 10.029401
788023762897927, 6.8805614, 0.10767702, 7.2287173, 0.0342914, 0.04678917, 9.980217
788023772536990, 6.9188466, 0.13998012, 7.271788, 0.0013939366, 0.046637535, 10.038265
788023782176052, 6.9332037, 0.12323037, 7.3196445, 0.018717911, 0.024124146, 10.082697
788023791815115, 6.8889365, 0.111266255, 7.304091, 0.029121969, 0.0048236847, 10.040852
788023801454177, 6.9056864, 0.15553348, 7.338787, -0.016195547, -0.0020947456, 10.078205
788023811093240, 6.8506513, 0.13280165, 7.373483, 0.005898658, -0.06611109, 10.065432
788023820732198, 6.8578296, 0.13519448, 7.402197, 0.004245531, -0.07868433, 10.091305
788023830371261, 6.826723, 0.14237295, 7.4189467, -0.0032111183, -0.10624647, 10.082355
788023840010323, 6.8446693, 0.16271193, 7.4333034, -0.023164522, -0.099942684, 10.105415
788023849649386, 6.8542404, 0.21415763, 7.460821, -0.07392757, -0.10892534, 10.132769
788023859288448, 6.8685975, 0.20937198, 7.4356966, -0.06853913, -0.08169651, 10.124213
788023868927511, 6.818348, 0.16749759, 7.3639116, -0.026655665, -0.067326546, 10.036926
788023878566573, 6.8339014, 0.14356937, 7.373483, -0.0011478178, -0.06266308, 10.054211
788023888205636, 6.8542404, 0.13519448, 7.344769, 0.008003354, -0.029103756, 10.04707
788023897844698, 6.8614187, 0.13399807, 7.3567333, 0.009501189, -0.03375435, 10.060681
788023907483761, 6.8865438, 0.11006984, 7.322037, 0.03343302, 0.0081038475, 10.052246
788023917122823, 6.8745794, 0.10887343, 7.318448, 0.03400281, -0.0012187958, 10.041426
788023926761782, 6.890133, 0.083748795, 7.3052874, 0.05910585, 0.01734972, 10.0421295
788023936400844, 6.930811, 0.10767702, 7.274181, 0.035571575, 0.06848812, 10.047661
788023946039907, 6.916454, 0.15314065, 7.318448, -0.010595784, 0.027062893, 10.070732
788023955678969, 6.9296145, 0.16630118, 7.3196445, -0.023768567, 0.034970284, 10.080806
788023965318032, 6.9056864, 0.16630118, 7.332805, -0.023752846, 0.008486271, 10.074005
788023974957094, 6.910472, 0.1471586, 7.3543406, -0.0028153956, -0.0022883415, 10.092701
788023984596157, 6.899704, 0.15792629, 7.3375907, -0.013435766, 5.412102E-4, 10.073277
788023994235219, 6.8853474, 0.14955142, 7.3232336, -0.0048042536, -0.002090454, 10.052864
788024003874282, 6.873383, 0.148355, 7.30768, -0.0038904697, -1.6307831E-4, 10.033323
788024013513344, 6.8925257, 0.16151553, 7.318448, -0.01655075, 5.1164627E-4, 10.054472
788024023152407, 6.9056864, 0.18065812, 7.3375907, -0.03536296, -0.0030155182, 10.077703
788024032791469, 6.853044, 0.1591227, 7.3028946, -0.014278382, -0.019794941, 10.0160475
788024042430427, 6.867401, 0.19142582, 7.2586274, -0.045740023, 0.020204067, 9.994148
788024052069490, 6.9559355, 0.17467605, 7.281359, -0.02751574, 0.068917274, 10.071159
788024061708552, 6.910472, 0.15553348, 7.2993054, -0.008784756, 0.023808002, 10.052762
788024071347615, 6.927222, 0.15314065, 7.32443, -0.005361907, 0.020625591, 10.082493
788024080986677, 6.908079, 0.124426775, 7.3543406, 0.024064615, -0.012733936, 10.090721
788024090625740, 6.893722, 0.083748795, 7.3926253, 0.06544611, -0.048416138, 10.1081505
788024100264802, 6.875776, 0.08973085, 7.351948, 0.058321305, -0.03335905, 10.066328
788024109903865, 6.8949184, 0.111266255, 7.298109, 0.035433277, 0.016103268, 10.040576
788024119542927, 6.926025, 0.13280165, 7.274181, 0.013314128, 0.052808285, 10.044809
788024129181990, 6.9296145, 0.1471586, 7.233503, -0.0021462142, 0.083097935, 10.017878
788024138821052, 6.9332037, 0.17228323, 7.263413, -0.026022613, 0.063529015, 10.042482
788024148460115, 6.920043, 0.16031912, 7.288538, -0.013435543, 0.036004543, 10.051569
788024158099177, 6.88774, 0.17587246, 7.335198, -0.028061867, -0.020141602, 10.063591
788024167738240, 6.882954, 0.18185452, 7.3375907, -0.033860877, -0.02459526, 10.062139
788024177377302, 6.856633, 0.17467605, 7.3579297, -0.026028976, -0.057703495, 10.05878
788024187016261, 6.8458657, 0.1363909, 7.3603225, 0.013250768, -0.06434059, 10.052587
788024196655323, 6.8614187, 0.11246266, 7.332805, 0.036131456, -0.0335989, 10.042873
788024206294386, 6.863812, 0.12921242, 7.3770723, 0.019482672, -0.06149435, 10.076986
788024215933448, 6.957132, 0.11365908, 7.3579297, 0.034066133, 0.019738197, 10.126806
788024225572511, 6.9332037, 0.08135597, 7.3028946, 0.06507067, 0.04204178, 10.069866
788024235211573, 6.8662047, 0.11246266, 7.3136625, 0.03428562, -0.014822006, 10.032232
788024244850636, 6.9020967, 0.15074782, 7.29452, -0.0052197576, 0.02255106, 10.043463
788024254489698, 6.8913293, 0.17228323, 7.298109, -0.027118012, 0.011693478, 10.039005
788024264128761, 6.8985076, 0.16630118, 7.298109, -0.020364095, 0.019581795, 10.043837
788024273767823, 6.9092755, 0.124426775, 7.312466, 0.022109302, 0.01792574, 10.06106
788024283406886, 6.8578296, 0.13160525, 7.361519, 0.014153104, -0.052961826, 10.061615
788024293045948, 6.869794, 0.16271193, 7.37109, -0.017711584, -0.048346996, 10.077244
788024302685011, 6.8542404, 0.19740787, 7.3459654, -0.05324205, -0.04150486, 10.048791
788024312324073, 6.8662047, 0.17706887, 7.3459654, -0.032419927, -0.031574726, 10.056703
788024321963136, 6.873383, 0.17587246, 7.350751, -0.030402927, -0.029007435, 10.065093
788024331602198, 6.8925257, 0.17228323, 7.3495545, -0.025060793, -0.014098167, 10.077288
788024341241261, 6.8865438, 0.1698904, 7.3627152, -0.021811381, -0.02800703, 10.082741
788024350880323, 6.8662047, 0.17347965, 7.3340015, -0.02558589, -0.023423195, 10.047947
788024360519386, 6.8913293, 0.17347965, 7.3543406, -0.023046404, -0.020523548, 10.079974
788024370158448, 6.9056864, 0.16510476, 7.367501, -0.013190508, -0.020025253, 10.09927
788024379797511, 6.9092755, 0.13280165, 7.2909307, 0.018718138, 0.034805775, 10.045488
788024389436573, 6.863812, 0.0634098, 7.271788, 0.08758587, 0.015394688, 9.999346
788024399075532, 6.9128647, 0.12801601, 7.308877, 0.024021462, 0.022531986, 10.060948
788024408714594, 6.928418, 0.18903299, 7.271788, -0.038379222, 0.058428288, 10.045532
788024418353657, 6.8889365, 0.11485548, 7.314859, 0.03656651, 7.772446E-5, 10.048704
788024427992719, 6.946364, 0.11485548, 7.3495545, 0.036862463, 0.018836498, 10.113329
788024437631782, 6.8949184, 0.12801601, 7.304091, 0.022649612, 0.011885643, 10.045168
788024447270844, 6.8721867, 0.13160525, 7.283752, 0.018736538, 0.008409023, 10.014833
788024456909907, 6.856633, 0.2117648, 7.320841, -0.061508346, -0.027594566, 10.03237
788024466548969, 6.940382, 0.19860429, 7.3100734, -0.04761135, 0.04065466, 10.081746
788024476188032, 6.8889365, 0.19262223, 7.2909307, -0.041444223, 0.018560886, 10.032455
788024485827094, 6.908079, 0.19501504, 7.271788, -0.04292026, 0.045767307, 10.031679
788024495466157, 6.943971, 0.22253251, 7.2693954, -0.070354275, 0.0732851, 10.054952
788024505105219, 6.9152575, 0.18903299, 7.2705917, -0.035254583, 0.051927567, 10.035641
788024514744282, 6.8913293, 0.15433706, 7.281359, -7.4283034E-4, 0.027084827, 10.02655
788024524383344, 6.8853474, 0.1363909, 7.320841, 0.017951712, -0.0036973953, 10.0509205
788024534022407, 6.8949184, 0.13399807, 7.3782687, 0.019871332, -0.033197403, 10.099267
788024543661469, 6.882954, 0.08973085, 7.396215, 0.06400004, -0.05456972, 10.103465
788024553300532, 6.8458657, 0.09810573, 7.375876, 0.054415815, -0.065116405, 10.063391
788024562939594, 6.8015985, 0.09212367, 7.3746796, 0.056670193, -0.09213638, 10.032171
788024572578657, 6.8422766, 0.12562318, 7.347162, 0.024062814, -0.043128967, 10.0404625
788024582217719, 6.8685975, 0.18305093, 7.4153576, -0.033745322, -0.06693363, 10.109056
788024591856782, 6.903293, 0.19501504, 7.393822, -0.0444274, -0.021462917, 10.117294
788024601495844, 6.8578296, 0.20697916, 7.373483, -0.055982128, -0.041312695, 10.071548
788024611134907, 6.843473, 0.18664017, 7.3363943, -0.035853438, -0.026878834, 10.034373
788024620773969, 6.859026, 0.16749759, 7.280163, -0.015065674, 0.021131992, 10.003719
788024630413032, 6.8518476, 0.16031912, 7.240681, -0.007255323, 0.0425601, 9.969912
