timestamp_acc,device_acc_x,device_acc_y,device_acc_z,earth_acc_x,earth_acc_y,earth_acc_z
787910986400786, 5.767899, -1.154537, 8.043473, 0.07008767, 0.01590252, 9.964633
787910996039744, 5.7966127, -1.1964114, 8.106883, 0.106058404, 0.010921001, 10.037048
787911005678806, 5.834898, -1.2311072, 8.1738825, 0.13318416, 0.0093278885, 10.117125
787911015317765, 5.85763, -1.247857, 8.170293, 0.14454749, 0.03412676, 10.129195
787911024956723, 5.8875403, -1.2370893, 8.195417, 0.13024163, 0.042028904, 10.165612
787911034595681, 5.936593, -1.2023934, 8.2014, 0.08570275, 0.06982899, 10.19508
787911044234640, 5.9318075, -1.1126626, 8.16431, -7.416308E-4, 0.069030285, 10.152615
787911053873702, 5.918647, -1.0169497, 8.145168, -0.09063536, 0.048777103, 10.119177
787911063512661, 5.8420763, -0.9559326, 8.126026, -0.13246246, -0.016602516, 10.052767
787911073151619, 5.81097, -0.91166544, 8.123632, -0.1668016, -0.05052328, 10.028038
787911082790577, 5.7858453, -0.9379865, 8.126026, -0.1358759, -0.06552696, 10.018252
787911092429536, 5.7726846, -0.9774681, 8.109276, -0.094773725, -0.054998398, 10.001385
787911102068494, 5.749953, -1.0073783, 8.161918, -0.059545398, -0.093912125, 10.034007
787911111707556, 5.7750773, -1.0636097, 8.220542, -0.008869082, -0.0957036, 10.102021
787911121346515, 5.7954164, -1.0911272, 8.213364, 0.0133586675, -0.06793594, 10.110983
787911130985473, 5.7667027, -1.1330016, 8.209774, 0.057939142, -0.07850313, 10.09601
787911140624431, 5.7188463, -1.1246266, 8.176275, 0.05936478, -0.098017216, 10.040336
787911150263390, 5.741578, -1.166501, 8.145168, 0.092516676, -0.054614067, 10.032879
787911159902348, 5.788238, -1.1916257, 8.110473, 0.10133128, 0.009234428, 10.034595
787911169541411, 5.782256, -1.2107682, 8.063812, 0.11898835, 0.035623074, 9.995502
787911179180369, 5.834898, -1.1988041, 8.043473, 0.0956596, 0.085197926, 10.008206
787911188819327, 5.828916, -1.1449656, 8.076973, 0.045068726, 0.05079031, 10.025971
787911198458286, 5.8636117, -1.099502, 8.109276, -0.001686886, 0.04661274, 10.067225
787911208097244, 5.8636117, -1.0755738, 8.115258, -0.02133745, 0.037241936, 10.069478
787911217736202, 5.8624153, -1.0253245, 8.165507, -0.064931914, -0.0051550865, 10.103984
787911227375265, 5.9030933, -1.0097711, 8.1942215, -0.08823946, 0.0068950653, 10.149069
787911237014223, 5.9007006, -1.0408778, 8.184649, -0.050932452, 0.015617371, 10.143339
787911246653181, 5.9270215, -1.0289137, 8.145168, -0.0687927, 0.05766344, 10.125412
787911256292140, 5.895915, -1.0097711, 8.109276, -0.08257344, 0.04766035, 10.076345
787911265931098, 5.879165, -1.0085747, 8.080562, -0.08068903, 0.051517487, 10.043313
787911275570056, 5.869594, -1.0169497, 8.036295, -0.072287425, 0.065196514, 10.002944
787911285209119, 5.825327, -1.0348958, 8.02792, -0.045321822, 0.038855553, 9.972429
787911294848077, 5.8097734, -1.0815558, 8.065009, 0.0045776367, 0.010855675, 9.998372
787911304487036, 5.800202, -1.1066805, 8.084151, 0.03172718, -0.0029153824, 10.010973
787911314125994, 5.8217373, -1.1114662, 8.127222, 0.033679515, -0.009247303, 10.058753
787911323764952, 5.8301125, -1.1246266, 8.233703, 0.052987188, -0.06277466, 10.150966
787911333403911, 5.8061843, -1.1282159, 8.236095, 0.06274018, -0.08010435, 10.139406
787911343042973, 5.8073807, -1.1521441, 8.2253275, 0.083970696, -0.0642848, 10.133998
787911352681931, 5.800202, -1.0935199, 8.233703, 0.028953463, -0.087023735, 10.130329
787911362320890, 5.79422, -1.0851451, 8.1738825, 0.016766906, -0.05585766, 10.077673
787911371959848, 5.791827, -1.0779666, 8.148758, 0.0063715875, -0.043091297, 10.055231
787911381598806, 5.8133626, -1.0899308, 8.110473, 0.009502113, -0.0019950867, 10.038069
787911391237765, 5.84088, -1.1497513, 8.023134, 0.059012085, 0.08025551, 9.989923
787911400876827, 5.832505, -1.1270195, 7.98126, 0.036955357, 0.08766842, 9.948856
787911410515786, 5.8480587, -1.0863415, 7.9369926, -0.005038053, 0.113550186, 9.917805
787911420154744, 5.8480587, -1.0492527, 7.972885, -0.040293753, 0.085309505, 9.942772
787911429793702, 5.8707905, -1.0085747, 8.033902, -0.07735984, 0.054960728, 10.000898
787911439432661, 5.8707905, -0.9870393, 8.122437, -0.08983983, -0.004404545, 10.07007
787911449071619, 5.8875403, -1.0109676, 8.178668, -0.057461157, -0.014039516, 10.127798
787911458710577, 5.8803616, -1.0097711, 8.228917, -0.055262506, -0.050088406, 10.164045
787911468349640, 5.8863435, -1.0085747, 8.279166, -0.053260565, -0.07008219, 10.207993
787911477988598, 5.8731833, -1.0731809, 8.288737, 0.014547706, -0.06921768, 10.214899
787911487627556, 5.8277197, -1.125823, 8.244471, 0.07369158, -0.06491852, 10.1583185
787911497266515, 5.832505, -1.1377872, 8.2014, 0.078635305, -0.03169298, 10.127609
787911506905473, 5.8133626, -1.2083755, 8.029117, 0.13869327, 0.073410034, 9.984861
787911516544431, 5.797809, -1.1856437, 8.006385, 0.113824934, 0.07012367, 9.955133
787911526183494, 5.7834525, -1.1653047, 7.9920278, 0.09181814, 0.06084156, 9.933108
787911535822452, 5.7320065, -1.1222339, 7.911868, 0.05816433, 0.056177616, 9.833942
787911545461411, 5.7726846, -1.0408778, 7.9513497, -0.023093283, 0.046406746, 9.880718
787911555100369, 5.866005, -0.99900347, 8.017152, -0.07627472, 0.07109642, 9.983581
787911564739327, 5.9007006, -0.9619147, 8.04467, -0.10988355, 0.07220411, 10.022124
787911574378286, 5.9473605, -1.0037891, 8.031509, -0.08017576, 0.124632835, 10.043
787911584017244, 5.905486, -1.0516455, 8.116454, -0.009542853, 0.04621315, 10.09234
787911593656306, 5.9030933, -1.0360922, 8.1679, -0.005021289, 0.0021247864, 10.130872
787911603295265, 5.9030933, -1.0253245, 8.193025, -0.014688611, -0.014853001, 10.150026
787911612934223, 5.869594, -1.0313065, 8.188239, 0.0027830303, -0.03408861, 10.127281
787911622573181, 5.8540406, -1.0229317, 8.232507, 0.0029847622, -0.07013655, 10.153099
787911632212140, 5.852844, -1.0408778, 8.239685, 0.022348136, -0.06880379, 10.160039
787911641851098, 5.8301125, -1.0815558, 8.191829, 0.06481582, -0.04495573, 10.11236
787911651490056, 5.7990055, -1.0492527, 8.139186, 0.038129225, -0.044714928, 10.048498
787911661129119, 5.77747, -1.0600204, 8.066205, 0.049650848, -0.016645908, 9.978162
787911670768077, 5.77747, -1.0516455, 8.059027, 0.041211605, -0.01412344, 9.971517
787911680407036, 5.7990055, -1.038485, 8.100901, 0.026775613, -0.02849245, 10.016485
787911690045994, 5.81097, -1.0372887, 8.092526, 0.03234209, -0.02150917, 10.016528
787911699684952, 5.8468623, -0.9738788, 8.112865, -0.036504745, -0.01634121, 10.047449
787911709323911, 5.9210396, -0.971486, 8.185846, -0.04714425, -0.0029582977, 10.149303
787911718962869, 5.95095, -0.96789676, 8.149954, -0.052546546, 0.040914536, 10.137451
787911728601931, 5.9641104, -0.92482597, 8.123632, -0.094105944, 0.059479237, 10.119632
787911738240890, 5.9342003, -0.90329057, 8.129615, -0.10259242, 0.026073456, 10.104954
787911747879848, 5.8743796, -0.88295156, 8.100901, -0.10969846, -0.007390976, 10.044921
787911757518806, 5.861219, -0.8566305, 8.075776, -0.13347048, -0.0074105263, 10.014389
787911767157765, 5.85763, -0.8997013, 8.04108, -0.09100677, 0.019583225, 9.988574
787911776796723, 5.8564334, -0.93679005, 8.087741, -0.052835226, 4.439354E-4, 10.029165
787911786435681, 5.8863435, -0.93559366, 8.100901, -0.055781715, 0.017082214, 10.057116
787911796074640, 5.8672013, -0.9846465, 8.127222, -0.0013530217, -0.0076766014, 10.072003
787911805713702, 5.8636117, -1.0217353, 8.242078, 0.03766702, -0.07250261, 10.166172
787911815352661, 5.864808, -1.038485, 8.276773, 0.053318232, -0.088599205, 10.196506
787911824991619, 5.864808, -1.038485, 8.203793, 0.0481811, -0.04210043, 10.137679
787911834630577, 5.8229337, -1.0157533, 8.219346, 0.034879833, -0.0881834, 10.123585
787911844269536, 5.79422, -0.95832545, 8.240881, -0.023271292, -0.13453674, 10.11854
787911853908494, 5.7523456, -0.9415757, 8.207381, -0.031013623, -0.15091085, 10.065457
787911863547452, 5.6949177, -0.9343972, 8.142776, -0.038221985, -0.15235186, 9.979242
787911873186411, 5.690132, -0.9176475, 8.128419, -0.059280396, -0.14561653, 9.963242
787911882825369, 5.6997037, -0.9631111, 8.067402, -0.0252406, -0.0870862, 9.92416
787911892464431, 5.6685967, -1.0073783, 8.015956, 0.022139475, -0.0734992, 9.869015
787911902103390, 5.7200427, -1.0612168, 8.04467, 0.062313072, -0.037390232, 9.927563
787911911742348, 5.81097, -1.1581261, 8.065009, 0.13949794, 0.040605545, 10.006592
787911921381306, 5.8947186, -1.1617154, 8.021938, 0.12587452, 0.13620853, 10.020699
787911931020265, 6.026324, -1.174876, 8.037491, 0.114381626, 0.23300123, 10.110925
787911940659223, 6.005985, -1.1389836, 8.110473, 0.08620949, 0.16290808, 10.154552
787911950298181, 6.0454664, -1.0624132, 8.075776, 0.00599654, 0.19291687, 10.141859
787911959937140, 6.058627, -0.9774681, 8.079366, -0.07721065, 0.18127203, 10.143951
787911969576098, 6.1268225, -0.9499506, 8.0817585, -0.11672668, 0.22612381, 10.18285
787911979215056, 6.1328044, -0.9631111, 8.049456, -0.10809845, 0.25012112, 10.161612
787911988854119, 6.0801625, -1.0013963, 8.04108, -0.06219621, 0.21853685, 10.128104
787911998493077, 6.038288, -1.0049855, 8.026724, -0.058922768, 0.18995428, 10.092556
787912008132036, 5.9581285, -1.0085747, 8.033902, -0.038329378, 0.12344122, 10.052035
787912017770994, 5.8672013, -1.0408778, 8.063812, 0.0027914792, 0.039549828, 10.026514
787912027409952, 5.7655063, -1.3339987, 8.065009, 0.31068644, 0.01358366, 9.998414
787912037048911, 5.875576, -0.62093747, 8.013563, -0.41574925, -0.0035142899, 9.947477
787912046687869, 5.6709895, -1.3746766, 8.19781, 0.36029932, -0.1283598, 10.055231
787912056326827, 5.77747, -0.9942178, 8.0817585, -0.03204742, -0.047645092, 9.983944
787912065965786, 5.7523456, -0.83748794, 8.181061, -0.18306324, -0.15537453, 10.0330925
787912075604744, 5.6171513, -1.5050855, 8.120044, 0.49554068, -0.087797165, 9.974945
787912085243702, 5.8480587, -0.35653058, 8.165507, -0.67557764, -0.15469694, 10.02607
787912094882765, 5.535795, -1.8400806, 8.206185, 0.83112526, -0.13360023, 10.033134
787912104521723, 5.849255, -0.26081768, 8.126026, -0.77122366, -0.14933062, 9.98484
787912114160681, 5.517849, -1.855634, 8.1942215, 0.8561037, -0.12731314, 10.014299
787912123799640, 5.8600225, -0.53240305, 8.067402, -0.5130144, -0.053447247, 9.971973
787912133438598, 5.6470613, -1.5158532, 8.199007, 0.48317236, -0.09542036, 10.058244
787912143077556, 5.845666, -0.991825, 8.097312, -0.06487028, 0.017083645, 10.03581
787912152716515, 5.8887367, -0.92243314, 8.185846, -0.1446129, -0.013226032, 10.124973
787912162355473, 5.7990055, -1.5206388, 8.130812, 0.46405852, 0.07145548, 10.091106
787912171994431, 6.0861444, -0.41156548, 8.160722, -0.67802465, 0.061641216, 10.165844
787912181633390, 5.7559347, -1.8185452, 8.160722, 0.75802886, 0.06830311, 10.122054
787912191272348, 6.131608, -0.21296121, 8.023134, -0.89980304, 0.12737179, 10.059163
787912200911306, 5.697311, -1.8017955, 8.10808, 0.76000977, 0.053479195, 10.043222
787912210550265, 6.058627, -0.40677986, 7.9597244, -0.6994269, 0.14268208, 9.985995
787912220189223, 5.7284174, -1.4404793, 8.146365, 0.3879871, -0.016007423, 10.05496
787912229828181, 5.8731833, -0.81954175, 7.9944205, -0.24520838, 0.05961609, 9.950529
787912239467140, 5.8133626, -0.8925229, 8.116454, -0.16310811, -0.03808117, 10.022003
787912249106202, 5.79422, -1.4237294, 8.037491, 0.35892788, 0.10162115, 10.003105
787912258745161, 6.005985, -0.46660042, 8.109276, -0.6147726, 0.040756226, 10.08317
787912268384119, 5.721239, -1.855634, 8.132008, 0.80969775, 0.052660942, 10.08202
787912278023077, 6.009574, -0.27756742, 8.099705, -0.7941669, 0.013629913, 10.058148
787912287662036, 5.5944195, -1.8855443, 8.190632, 0.85320187, -0.083639145, 10.060036
787912297300994, 5.8839507, -0.36131623, 8.042277, -0.6877892, -0.037489414, 9.947624
787912306939952, 5.5704913, -1.5014962, 8.183454, 0.48218757, -0.15453339, 9.99987
787912316578911, 5.7451673, -0.82313097, 8.056634, -0.21837285, -0.0574975, 9.926874
787912326217869, 5.716453, -0.93679005, 8.23131, -0.09094824, -0.16378641, 10.063538
787912335856827, 5.651847, -1.3244274, 8.111669, 0.30039406, -0.0699234, 9.970032
787912345495786, 5.804988, -0.4211368, 8.190632, -0.6050403, -0.17193699, 10.028264
787912355134744, 5.6446686, -1.7108682, 8.267202, 0.70236146, -0.081922054, 10.13094
787912364773702, 6.0215383, -0.20458634, 8.178668, -0.8521682, -0.04359913, 10.1224165
787912374412661, 5.6781683, -1.902294, 8.213364, 0.88450515, 0.022057533, 10.126047
787912384051619, 6.0598235, -0.44985065, 8.127222, -0.61760676, 0.077459335, 10.12858
787912393690577, 5.770292, -1.6618153, 8.220542, 0.6155435, 0.033782482, 10.161455
787912403329536, 5.930611, -0.8327023, 7.969296, -0.22579443, 0.13591242, 9.965228
787912412968494, 5.8013983, -1.0779666, 8.062616, 0.03443773, 0.023313046, 9.99111
787912422607452, 5.76431, -1.3268201, 8.01117, 0.28368127, 0.07255745, 9.953935
787912432246411, 5.9557357, -0.48454657, 7.98126, -0.5818083, 0.07225895, 9.953009
787912441885369, 5.7020965, -1.7443677, 7.9800634, 0.7129452, 0.12243748, 9.9355345
787912451524327, 6.125626, -0.19621146, 8.026724, -0.894356, 0.13710833, 10.058401
787912461163286, 5.797809, -1.8460627, 8.126026, 0.7881799, 0.13347673, 10.120069
787912470802244, 6.1292152, -0.2835495, 8.063812, -0.78897035, 0.12194157, 10.101258
787912480441202, 5.832505, -1.5266209, 8.233703, 0.5004827, 0.026881695, 10.192711
787912490080161, 6.047859, -0.6149554, 8.115258, -0.4395083, 0.08429241, 10.129755
787912499719119, 5.8947186, -0.9870393, 8.185846, -0.04372078, -0.008525372, 10.135485
787912509358077, 5.8217373, -1.1988041, 8.059027, 0.17569752, 0.04570532, 10.012228
787912518997036, 5.942575, -0.45104706, 8.10449, -0.5863236, -0.030986309, 10.042692
787912528635994, 5.741578, -1.6510476, 8.123632, 0.62866974, 0.0330019, 10.064232
787912538274952, 6.056234, -0.22013968, 8.142776, -0.8270854, -0.004562378, 10.116676
787912547913911, 5.6937213, -1.9046868, 8.2014, 0.88359165, -0.008538723, 10.125633
787912557552869, 6.0227346, -0.31944183, 8.056634, -0.74754775, 0.03608322, 10.036163
787912567191827, 5.690132, -1.7001005, 8.169097, 0.6821692, -0.016237736, 10.07653
787912576830786, 5.8540406, -0.7680961, 8.017152, -0.26784664, 0.01205349, 9.953019
787912586469744, 5.6279187, -1.2777673, 8.079366, 0.26594993, -0.09619236, 9.924834
787912596108702, 5.625526, -1.3519448, 7.975278, 0.33045164, -0.021137238, 9.847321
787912605747661, 5.7343993, -0.7728817, 8.072187, -0.26024312, -0.10778856, 9.927817
787912615386619, 5.5429735, -1.8460627, 8.106883, 0.82886785, -0.080746174, 9.957937
787912625025577, 5.892326, -0.3804588, 8.129615, -0.67819583, -0.08492422, 10.024356
787912634664536, 5.6207404, -1.9381863, 8.257631, 0.90466505, -0.07654381, 10.134766
787912644303494, 5.992824, -0.3278167, 8.209774, -0.73284596, -0.059253693, 10.143037
787912653942452, 5.704489, -1.6618153, 8.344969, 0.64027536, -0.11762333, 10.223383
787912663581411, 5.9760747, -0.50368917, 8.032705, -0.5562071, 0.06779528, 10.008874
787912673220369, 5.8241305, -1.0360922, 8.27797, -0.004695669, -0.09156895, 10.174004
787912682859327, 5.85763, -1.0277174, 8.1679, -0.0130787045, -0.00881052, 10.103582
787912692498286, 5.9210396, -0.56829536, 8.106883, -0.47683135, -0.016923904, 10.043682
787912702137244, 5.721239, -1.5984055, 8.084151, 0.56895757, 0.04617119, 10.015745
787912711776202, 6.046663, -0.20697916, 8.080562, -0.85271883, 0.041254997, 10.058411
787912721415161, 5.716453, -1.8484555, 8.127222, 0.8232119, 0.052280426, 10.073031
787912731054119, 6.0933228, -0.21655045, 8.013563, -0.8544651, 0.11354303, 10.032432
787912740693077, 5.7762737, -1.6331015, 8.153543, 0.6009691, 0.029046535, 10.10696
787912750332036, 6.007181, -0.48933223, 8.014759, -0.56829214, 0.10349989, 10.011413
787912759970994, 5.820541, -1.2000005, 8.136793, 0.15598458, 0.003440857, 10.074808
787912769609952, 5.8636117, -1.1138589, 8.073383, 0.06815748, 0.058329105, 10.039627
787912779248911, 5.869594, -0.80159557, 8.10449, -0.24989425, -0.007068634, 10.035685
787912788887765, 5.6267223, -1.7359928, 8.065009, 0.7151773, -0.015880108, 9.9602375
787912798526723, 5.885147, -0.4103691, 8.07458, -0.64777917, -0.052773476, 9.978968
787912808165681, 5.532206, -1.9716859, 8.181061, 0.9547776, -0.11036873, 10.02491
787912817804640, 5.936593, -0.34456646, 8.111669, -0.70900434, -0.057614326, 10.032698
787912827443598, 5.6303115, -1.861616, 8.218149, 0.84098464, -0.059350014, 10.099169
787912837082556, 5.9449677, -0.55393845, 8.123632, -0.50629187, -0.013349056, 10.06908
787912846721515, 5.784649, -1.3244274, 8.243274, 0.2789989, -0.06094408, 10.15314
787912856360473, 5.9820566, -1.0468599, 8.063812, -0.040800408, 0.1501751, 10.09365
787912865999431, 6.0167527, -0.78843504, 8.055437, -0.30403215, 0.12830687, 10.079887
787912875638390, 5.8420763, -1.605584, 7.9680996, 0.5364155, 0.1823206, 9.993868
787912885277348, 6.0921264, -0.31944183, 7.972885, -0.77353525, 0.1559205, 10.008011
787912894916306, 5.770292, -1.8329022, 8.019546, 0.7746505, 0.12951994, 10.017587
787912904555265, 6.081359, -0.2117648, 7.9334035, -0.8893943, 0.14646292, 9.957621
787912914194223, 5.6530433, -1.7455641, 8.084151, 0.7013172, -0.0130934715, 9.993267
787912923833181, 5.9748783, -0.41156548, 8.051848, -0.6551927, 0.017666817, 10.013553
787912933472140, 5.690132, -1.3040884, 8.233703, 0.27198243, -0.14495325, 10.088467
787912943111098, 5.8073807, -0.9272188, 8.1679, -0.11599523, -0.078695774, 10.063814
787912952749952, 5.7523456, -0.83030945, 8.29113, -0.19401547, -0.21433973, 10.121173
787912962388911, 5.6446686, -1.5936198, 8.210971, 0.5729946, -0.10217142, 10.073886
787912972027869, 5.858826, -0.5132605, 8.237292, -0.5258681, -0.15043592, 10.106587
787912981666827, 5.5334024, -2.0147567, 8.255239, 0.99856573, -0.14745188, 10.08999
787912991305786, 5.9210396, -0.39720857, 8.094919, -0.6598181, -0.029575348, 10.015387
787913000944744, 5.581259, -1.9214365, 8.165507, 0.8977808, -0.07388353, 10.035259
787913010583702, 5.928218, -0.4354937, 8.015956, -0.6295559, 0.04133129, 9.959464
787913020222661, 5.6781683, -1.3351951, 8.165507, 0.3025461, -0.112840176, 10.029735
787913029861619, 5.8277197, -0.73579293, 8.055437, -0.31581205, -0.022126198, 9.964615
787913039500577, 5.832505, -0.68075806, 8.177471, -0.36274153, -0.09859657, 10.060382
787913049139536, 5.710471, -1.3459628, 8.093722, 0.3195079, -0.03427267, 9.991304
787913058778494, 5.992824, -0.2943172, 8.163115, -0.7660147, -0.013691425, 10.101981
787913068417452, 5.682954, -1.7802601, 8.237292, 0.7575725, -0.07454443, 10.136015
787913078056306, 6.023931, -0.23330021, 8.141579, -0.83883494, 0.026490688, 10.095699
787913087695265, 5.6733823, -1.8783658, 8.218149, 0.8421713, -0.06256962, 10.126221
787913097334223, 6.047859, -0.48095736, 8.079366, -0.58912164, 0.099915504, 10.085981
787913106973181, 5.814559, -1.5828521, 8.176275, 0.5234349, 0.045763016, 10.143467
787913116612140, 6.003592, -0.9822537, 7.9740815, -0.10746287, 0.21417332, 10.026789
787913126251098, 5.9377894, -1.006182, 8.009974, -0.07089964, 0.14482069, 10.020151
787913135890056, 5.797809, -1.4668003, 7.9573317, 0.40502334, 0.14090061, 9.944914
787913145529015, 5.9557357, -0.4211368, 7.9944205, -0.6486765, 0.052653313, 9.956675
787913155167973, 5.578866, -1.7635103, 8.024331, 0.73595214, -0.015385628, 9.903623
787913164806931, 5.962914, -0.1902294, 8.012366, -0.87029105, -0.021718502, 9.951515
787913174445890, 5.6327047, -1.861616, 8.153543, 0.8455336, -0.025470257, 10.0477705
787913184084744, 6.0047884, -0.44865423, 8.110473, -0.6153194, 0.012528896, 10.082647
787913193723702, 5.76431, -1.5804594, 8.282756, 0.53747505, -0.052318573, 10.19988
787913203362661, 5.9844494, -0.80518484, 8.212168, -0.25434244, 0.008554935, 10.19004
787913213001619, 5.9114685, -0.9631111, 8.3174515, -0.08846201, -0.07447386, 10.248886
787913222640577, 5.8337016, -1.39023, 8.200203, 0.34741527, 0.013169289, 10.153191
787913232279536, 6.0155563, -0.44147578, 8.200203, -0.6187975, -0.009970188, 10.160814
787913241918494, 5.7463636, -1.7766708, 8.141579, 0.73572034, 0.03835392, 10.095533
787913251557452, 6.081359, -0.22013968, 7.9908314, -0.85800105, 0.13666439, 10.0064945
787913261196411, 5.6745787, -1.855634, 7.9740815, 0.80672455, 0.09911919, 9.928221
787913270835369, 6.033502, -0.2835495, 7.84128, -0.79624754, 0.18022442, 9.864214
787913280474223, 5.6997037, -1.5601203, 7.972885, 0.52409595, 0.04814291, 9.91012
787913290113181, 5.9174504, -0.75493556, 7.9310107, -0.31439328, 0.11429548, 9.918426
787913299752140, 5.8480587, -1.052842, 8.118847, -0.006717965, -0.00359869, 10.0610075
787913309391098, 5.7762737, -1.3435699, 8.112865, 0.30041945, -0.0072374344, 10.04484
787913319030056, 5.885147, -0.5455636, 8.218149, -0.5008668, -0.11321831, 10.109742
787913328669015, 5.662615, -1.7898313, 8.400003, 0.77470136, -0.18292761, 10.256469
787913338307973, 5.9557357, -0.28594232, 8.366505, -0.77123016, -0.18427849, 10.243155
787913347946931, 5.5393844, -1.942972, 8.360522, 0.935468, -0.21613169, 10.170371
787913357585890, 5.9114685, -0.37208393, 8.207381, -0.68927497, -0.11076403, 10.097406
787913367224848, 5.5800624, -1.7108682, 8.309076, 0.69870913, -0.1735959, 10.128505
787913376863806, 5.7930236, -0.75493556, 8.109276, -0.30103517, -0.07132578, 9.989681
787913386502661, 5.7020965, -1.0935199, 8.139186, 0.052147105, -0.0981617, 9.997184
787913396141619, 5.7284174, -1.2370893, 7.9908314, 0.1823897, 0.036610126, 9.907772
787913405780577, 5.9042897, -0.52522457, 8.029117, -0.5510911, 0.014478207, 9.964903
787913415419536, 5.6985073, -1.6570296, 8.01117, 0.59549457, 0.06775761, 9.951803
787913425058494, 6.020342, -0.16630118, 8.015956, -0.9271419, 0.0732131, 9.983125
787913434697452, 5.625526, -1.8065811, 8.151151, 0.77582854, -0.044842243, 10.037312
787913444336411, 6.0167527, -0.22971097, 8.076973, -0.8601234, 0.059764862, 10.03734
787913453975369, 5.6506505, -1.6905292, 8.238488, 0.6587958, -0.099116325, 10.110223
787913463614223, 5.9210396, -0.7178468, 8.208578, -0.3478765, -0.018241882, 10.140681
787913473253181, 5.8468623, -1.2634103, 8.325827, 0.19166636, -0.054501057, 10.24996
787913482892140, 5.8731833, -1.3459628, 8.19781, 0.27075744, 0.05868292, 10.170214
787913492531098, 6.047859, -0.74536425, 8.153543, -0.37027472, 0.13793421, 10.171349
787913502170056, 5.8360944, -1.7300107, 8.2253275, 0.6367248, 0.100917816, 10.212412
787913511809015, 6.026324, -0.22971097, 8.097312, -0.88364255, 0.05872345, 10.057413
787913521447973, 5.7056856, -1.8029919, 8.075776, 0.7204188, 0.09737778, 10.0247345
787913531086931, 6.0311093, -0.18783657, 7.9429746, -0.9206005, 0.12792492, 9.931593
787913540725890, 5.669793, -1.6378871, 8.020741, 0.5575489, 0.066402435, 9.942144
787913550364848, 5.9234324, -0.6041877, 7.8723865, -0.5079109, 0.1687808, 9.8559675
787913560003702, 5.7009, -1.274178, 8.078169, 0.19522847, -0.0136265755, 9.967062
787913569642661, 5.7343993, -1.2131611, 8.035098, 0.13512188, 0.02274084, 9.944803
787913579281619, 5.782256, -0.762114, 8.157132, -0.31789273, -0.08231068, 10.022289
787913588920577, 5.5944195, -1.7898313, 8.19781, 0.7330805, -0.082654476, 10.057876
787913598559536, 5.9066825, -0.46061835, 8.219346, -0.6312516, -0.061995506, 10.11219
787913608198494, 5.564509, -2.0985055, 8.3174515, 1.0322906, -0.12598181, 10.1718235
787913617837452, 5.9294147, -0.44745782, 8.141579, -0.6458122, -8.382797E-4, 10.061133
787913627476411, 5.6039906, -1.861616, 8.230113, 0.80492187, -0.07896805, 10.097075
787913637115369, 5.8947186, -0.6197411, 8.098508, -0.47172448, 0.012775898, 10.024716
787913646754223, 5.704489, -1.3268201, 8.170293, 0.25077263, -0.056115627, 10.049344
787913656393181, 5.8301125, -1.14018, 8.053044, 0.051210776, 0.07544756, 10.00667
787913666032140, 5.925825, -0.72502524, 8.118847, -0.37358588, 0.031778812, 10.0705595
787913675671098, 5.73081, -1.6342978, 8.090134, 0.5651805, 0.051938534, 10.032011
787913685310056, 5.9641104, -0.276371, 8.066205, -0.81199545, 0.018267632, 10.002549
787913694949015, 5.6350975, -1.8257236, 8.122437, 0.78118074, -0.014259338, 10.02253
787913704587973, 5.9641104, -0.23449662, 8.073383, -0.8548831, -0.009772778, 10.00371
787913714226931, 5.6303115, -1.7611175, 8.23131, 0.7091594, -0.09673262, 10.101691
787913723865890, 5.9413786, -0.52283174, 8.106883, -0.5504167, 0.011451721, 10.049468
787913733504744, 5.743971, -1.3447664, 8.29113, 0.28985673, -0.10648298, 10.170994
787913743143702, 5.9114685, -1.052842, 8.1942215, -0.019481272, 0.029270649, 10.158642
787913752782661, 5.9353967, -0.75972116, 8.203793, -0.31271532, -0.011655331, 10.149403
787913762421619, 5.761917, -1.5302101, 8.124829, 0.4758254, 0.0429101, 10.066074
787913772060577, 5.992824, -0.276371, 8.161918, -0.7909098, -0.038445473, 10.098526
787913781699536, 5.625526, -1.8041883, 8.244471, 0.76862425, -0.11578989, 10.112801
787913791338494, 5.956932, -0.17587246, 8.069795, -0.90078485, -0.023088455, 9.991277
787913800977452, 5.5669017, -1.7383857, 8.130812, 0.7202393, -0.065886974, 9.97995
787913810616306, 5.8683977, -0.43788654, 8.075776, -0.6156081, -0.039527893, 9.973338
787913820255265, 5.639883, -1.3890336, 8.096115, 0.34676802, -0.05162525, 9.958006
787913829894223, 5.751149, -1.0743774, 8.084151, 0.024282932, -0.0025672913, 9.979124
787913839533181, 5.7966127, -0.9200403, 8.177471, -0.14110151, -0.043423176, 10.064613
787913849172140, 5.6793647, -1.625923, 8.124829, 0.5719975, 0.025868416, 10.029148
787913858811098, 5.8731833, -0.46899325, 8.140383, -0.5950097, -0.058782578, 10.03108
787913868450056, 5.605187, -1.9250258, 8.280363, 0.8878026, -0.06277847, 10.143773
787913878089015, 6.0011992, -0.30029923, 8.170293, -0.7829482, 0.00298357, 10.111639
787913887727973, 5.692525, -1.8951155, 8.152347, 0.85608906, 0.047721386, 10.085727
787913897366931, 6.0430737, -0.47018966, 8.005188, -0.62274694, 0.1611228, 10.020433
787913907005786, 5.7930236, -1.4333007, 8.16431, 0.37279508, 0.03821373, 10.10589
787913916644744, 5.922236, -0.90089774, 8.060223, -0.16070959, 0.09872627, 10.040722
787913926283702, 5.851648, -0.84825563, 8.04467, -0.20036772, 0.040339947, 9.981796
787913935922661, 5.8265233, -1.3686945, 8.053044, 0.3269623, 0.09630394, 10.027815
787913945561619, 6.053841, -0.2943172, 8.133204, -0.76976466, 0.06588888, 10.113741
787913955200577, 5.6793647, -1.7934206, 8.189436, 0.77135456, -0.036623, 10.096636
787913964839536, 6.020342, -0.19142582, 8.123632, -0.8483939, -0.0019807816, 10.077439
787913974478494, 5.682954, -1.7970098, 8.244471, 0.80247724, -0.04895115, 10.141506
787913984117452, 6.026324, -0.40917268, 8.136793, -0.62922835, 0.024802685, 10.114093
787913993756411, 5.6997037, -1.5026926, 8.216953, 0.497942, -0.079990864, 10.099936
787914003395265, 5.8229337, -0.8769695, 8.213364, -0.12665805, -0.099541664, 10.1049
787914013034223, 5.743971, -0.91884387, 8.32463, -0.06760082, -0.22045851, 10.153018
787914022673181, 5.651847, -1.4380864, 8.2253275, 0.45472413, -0.13557196, 10.071857
787914032312140, 5.907879, -0.46181476, 8.170293, -0.556035, -0.07021904, 10.077496
787914041951098, 5.6578293, -1.8257236, 8.1679, 0.82563263, -0.022614479, 10.068602
787914051590056, 6.0454664, -0.21535404, 8.036295, -0.82873374, 0.112690926, 10.023802
787914061229015, 5.6745787, -1.7922242, 8.088937, 0.7916502, -0.0033655167, 10.010849
787914070867973, 5.986842, -0.2548356, 7.987242, -0.7788682, 0.066043854, 9.954511
787914080506931, 5.7451673, -1.3663018, 8.098508, 0.3656268, -0.010872364, 10.016275
787914090145890, 5.925825, -0.64965135, 7.989635, -0.37666088, 0.08026409, 9.961095
787914099784744, 5.8839507, -0.93320084, 8.120044, -0.08027742, 0.015694618, 10.070758
787914109423702, 5.7954164, -1.3639089, 8.166703, 0.3600791, -0.010923862, 10.100117
787914119062661, 5.9377894, -0.50009996, 8.200203, -0.51558805, -0.054742336, 10.123337
787914128701619, 5.660222, -1.7850457, 8.292327, 0.8012214, -0.11012983, 10.165288
787914138340577, 5.9724855, -0.22612174, 8.243274, -0.7949664, -0.082023144, 10.150595
787914147979536, 5.7056856, -1.875973, 8.270791, 0.8760905, -0.061558723, 10.183752
787914157618494, 6.0622163, -0.357727, 8.086544, -0.671103, 0.09692192, 10.0901375
787914167257452, 5.7966127, -1.5326029, 8.17149, 0.530718, 0.022249699, 10.121299
787914176896411, 5.9952173, -0.6867401, 8.02792, -0.3489666, 0.10802889, 10.036349
787914186535369, 5.869594, -0.9379865, 8.069795, -0.07179876, 0.02377081, 10.022367
787914196174327, 5.818148, -1.1904292, 7.972885, 0.18312272, 0.08735371, 9.939503
787914205813286, 5.956932, -0.39601216, 8.026724, -0.62219447, 0.0064229965, 9.9841385
787914215452140, 5.6709895, -1.7144574, 8.147561, 0.74213064, -0.031947613, 10.046415
787914225091098, 6.0227346, -0.21655045, 8.158329, -0.79414606, -0.066063404, 10.111554
787914234730056, 5.6889358, -1.8783658, 8.228917, 0.90168494, -0.015818119, 10.138741
787914244369015, 6.020342, -0.33379877, 8.078169, -0.6825857, 0.023611069, 10.057152
787914254007973, 5.759524, -1.6354942, 8.267202, 0.6451561, -0.04807329, 10.187004
787914263646931, 6.007181, -0.6891329, 8.228917, -0.34337664, -0.002026081, 10.205797
787914273285890, 5.8863435, -1.0815558, 8.183454, 0.06817059, 0.0014672279, 10.138199
787914282924848, 5.8767724, -1.2155539, 8.05783, 0.1985751, 0.09213114, 10.044638
787914292563806, 6.000003, -0.49172506, 8.145168, -0.5423759, 0.0032229424, 10.113922
787914302202765, 5.706882, -1.625923, 8.163115, 0.6278379, -0.03490591, 10.072395
787914311841723, 5.966503, -0.18305093, 8.073383, -0.8334174, -0.04158306, 10.005793
787914321480681, 5.5944195, -1.8496519, 8.147561, 0.85872334, -0.07263422, 10.017923
787914331119536, 5.9712887, -0.29312077, 8.065009, -0.73490155, -0.002851963, 10.012318
787914340758494, 5.649454, -1.7443677, 8.160722, 0.7445018, -0.04894638, 10.049868
787914350397452, 5.8863435, -0.72382885, 8.0614195, -0.3047881, 0.016447067, 10.003314
787914360036411, 5.8097734, -1.2203395, 8.161918, 0.19127753, -0.010715008, 10.090733
787914369675369, 5.834898, -1.2203395, 8.133204, 0.18534203, 0.025978088, 10.082126
787914379314327, 5.960521, -0.5814559, 8.132008, -0.46766275, 0.013530254, 10.088437
787914388953286, 5.7607207, -1.6331015, 8.109276, 0.6003281, 0.03583193, 10.062385
787914398592244, 6.0825553, -0.19501504, 8.109276, -0.8636013, 0.070646286, 10.101736
787914408231202, 5.690132, -1.7982062, 8.202596, 0.77505416, -0.037799835, 10.113931
787914417870161, 6.026324, -0.15194423, 8.084151, -0.90674424, 0.016054153, 10.043442
787914427509119, 5.6745787, -1.6283158, 8.219346, 0.6247753, -0.09461594, 10.100031
787914437148077, 5.919843, -0.5515456, 8.143971, -0.48033127, -0.039924145, 10.071777
787914446787036, 5.7547383, -1.1892328, 8.246863, 0.16938725, -0.116072655, 10.124223
787914456425994, 5.797809, -1.1724831, 8.130812, 0.13714401, -0.011401653, 10.053879
787914466064952, 5.8839507, -0.7465607, 8.158329, -0.3020916, -0.03490162, 10.08187
787914475703911, 5.676972, -1.7383857, 8.170293, 0.71434945, -0.017305851, 10.074378
787914485342869, 5.948557, -0.357727, 8.148758, -0.692772, -0.04808569, 10.071409
787914494981723, 5.576473, -1.8927227, 8.209774, 0.88305855, -0.08375263, 10.064444
787914504620681, 5.9138613, -0.22492532, 8.059027, -0.83879787, -0.03998041, 9.963286
787914514259640, 5.5908303, -1.7347964, 8.147561, 0.7067646, -0.06773901, 10.007275
787914523898598, 5.9007006, -0.5383851, 8.054241, -0.5307169, 0.012604713, 9.984844
787914533537556, 5.759524, -1.3112668, 8.187042, 0.2673429, -0.026257515, 10.0919285
787914543176515, 5.851648, -1.1353943, 8.069795, 0.07217352, 0.077623844, 10.032011
787914552815473, 5.9138613, -0.77407813, 8.143971, -0.29213327, 0.006381035, 10.090185
787914562454431, 5.7750773, -1.6187445, 8.158329, 0.562711, 0.050045967, 10.109947
787914572093390, 6.058627, -0.28713873, 8.190632, -0.7985595, -0.005472183, 10.160617
787914581732348, 5.7391853, -1.8388842, 8.219346, 0.7980815, 0.030139446, 10.160686
787914591371306, 6.1064835, -0.20578274, 8.085348, -0.89630926, 0.08054972, 10.09428
787914601010265, 5.782256, -1.7718852, 8.188239, 0.7154485, 0.07744646, 10.153988
787914610649223, 6.029913, -0.5132605, 8.087741, -0.56937593, 0.081297874, 10.084843
787914620288181, 5.779863, -1.3387842, 8.178668, 0.27766114, -0.0070376396, 10.10013
787914629927140, 5.837291, -0.9954142, 8.066205, -0.0678204, 0.041175842, 10.006107
787914639566098, 5.8013983, -0.83389866, 8.106883, -0.2302582, -0.03647518, 10.000942
787914649205056, 5.6267223, -1.605584, 8.098508, 0.5617839, -0.02960682, 9.975333
787914658844015, 5.9210396, -0.38285163, 8.110473, -0.7063441, -0.015910149, 10.024265
787914668482973, 5.503492, -1.9286151, 8.1679, 0.89266306, -0.11581373, 9.995615
787914678121931, 5.8875403, -0.31944183, 8.092526, -0.7651812, -0.02879858, 9.983377
787914687760890, 5.5872407, -1.9118652, 8.218149, 0.86999476, -0.08794308, 10.081957
787914697399848, 5.8803616, -0.54436713, 8.122437, -0.5285115, -0.028363228, 10.028402
787914707038806, 5.666204, -1.4440684, 8.251649, 0.39881098, -0.111572266, 10.104921
787914716677765, 5.7990055, -0.9906286, 8.190632, -0.07354812, -0.05194521, 10.084055
787914726316723, 5.8277197, -0.8422736, 8.2660055, -0.22619778, -0.09997177, 10.145808
787914735955577, 5.751149, -1.4811572, 8.112865, 0.41805616, 0.05275917, 10.045425
787914745594640, 6.0251274, -0.36251262, 8.094919, -0.74085784, 0.06475401, 10.070166
787914755233494, 5.749953, -1.8197416, 8.1738825, 0.7439769, 0.06949091, 10.130522
787914764872452, 6.1387863, -0.18903299, 8.030313, -0.9368067, 0.14806461, 10.06513
787914774511411, 5.7427745, -1.7778672, 8.127222, 0.7197181, 0.08977556, 10.082954
787914784150369, 6.1160545, -0.3684947, 8.054241, -0.73793435, 0.16067982, 10.091698
787914793789327, 5.8265233, -1.396212, 8.233703, 0.33144468, 0.018723488, 10.177498
787914803428286, 5.899504, -0.87936234, 8.172686, -0.19721752, 0.014400482, 10.115885
787914813067244, 5.832505, -0.89491564, 8.289934, -0.16537423, -0.103663445, 10.173688
787914822706202, 5.6674004, -1.5337993, 8.182257, 0.4907285, -0.051302433, 10.058721
787914832345161, 5.877969, -0.56829536, 8.215756, -0.49600652, -0.08596182, 10.105381
787914841984119, 5.5597234, -1.989632, 8.213364, 0.9452153, -0.0807333, 10.071175
787914851623077, 5.869594, -0.38524446, 8.060223, -0.68581057, -0.03583145, 9.954702
787914861262036, 5.501099, -1.9573289, 8.0817585, 0.9199823, -0.036675453, 9.927756
787914870900994, 5.8540406, -0.42711884, 7.9944205, -0.6520647, -0.007713318, 9.89635
787914880539952, 5.5429735, -1.5266209, 8.112865, 0.47692117, -0.107394695, 9.931501
787914890178911, 5.7870417, -0.8362915, 8.076973, -0.23802349, -0.0217762, 9.96843
787914899817869, 5.7810597, -0.9631111, 8.248059, -0.107408255, -0.10223293, 10.117151
787914909456827, 5.751149, -1.4584254, 8.165507, 0.39275277, 0.030851841, 10.085783
787914919095786, 6.007181, -0.49292147, 8.239685, -0.6026566, -0.005513191, 10.191093
787914928734744, 5.736792, -1.82692, 8.297112, 0.76703596, 0.023733139, 10.222603
787914938373702, 6.0430737, -0.22013968, 8.2348995, -0.8684864, -0.02790308, 10.179673
787914948012661, 5.6781683, -1.8496519, 8.276773, 0.78996134, -0.026934624, 10.17561
787914957651619, 6.056234, -0.31585258, 8.151151, -0.7765746, 0.060290337, 10.129772
787914967290577, 5.7355957, -1.5290136, 8.244471, 0.4643189, -0.0180583, 10.148415
787914976929536, 5.8827543, -0.7645068, 8.10808, -0.31753772, 0.03949356, 10.041407
787914986568494, 5.8133626, -1.012164, 8.165507, -0.060564294, -0.009327412, 10.074295
787914996207452, 5.7559347, -1.3639089, 8.048259, 0.2934397, 0.07936907, 9.983642
787915005846411, 5.8337016, -0.8243274, 8.056634, -0.26021755, 0.03802967, 9.977564
787915015485369, 5.686543, -1.1222339, 8.12124, 0.06536233, -0.0633502, 9.977096
787915025124431, 5.672186, -1.0253245, 8.117651, -0.026696727, -0.08904505, 9.955533
787915034763286, 5.6709895, -1.0420742, 8.147561, -0.00802879, -0.104218006, 9.980875
787915044402348, 5.7020965, -1.125823, 8.256434, 0.06937748, -0.12888002, 10.095974
787915054041306, 5.7726846, -1.1353943, 8.293523, 0.0692264, -0.0896616, 10.167727
787915063680265, 5.838487, -1.1976078, 8.276773, 0.11513564, -0.01093483, 10.198715
787915073319223, 5.9413786, -1.2131611, 8.207381, 0.10770328, 0.11309767, 10.203355
787915082958181, 5.977271, -1.2035898, 8.151151, 0.08706348, 0.17322636, 10.177429
787915092597140, 5.9653068, -1.154537, 8.112865, 0.033632368, 0.1740408, 10.134349
787915102236098, 5.928218, -1.1006985, 8.047063, -0.013644069, 0.1664753, 10.053986
787915111875056, 5.9497533, -1.0612168, 7.9704924, -0.062167764, 0.21609783, 10.000196
787915121514015, 5.940182, -1.032503, 7.932207, -0.0900221, 0.22376728, 9.9606
787915131152973, 5.885147, -1.0229317, 7.9657063, -0.08647694, 0.15552378, 9.955008
787915140791931, 5.838487, -0.9942178, 8.038688, -0.0966924, 0.057697773, 9.984199
787915150430890, 5.7930236, -1.0025927, 8.116454, -0.07637061, -0.022319317, 10.021717
787915160069848, 5.757131, -1.018146, 8.224132, -0.046366215, -0.10741472, 10.089788
787915169708806, 5.7343993, -1.0193424, 8.293523, -0.038361624, -0.16580486, 10.1329155
787915179347765, 5.703293, -1.052842, 8.325827, 0.00307101, -0.18846893, 10.144944
787915188986723, 5.680561, -1.0827522, 8.347362, 0.04066202, -0.21270466, 10.152472
787915198625681, 5.6733823, -1.1150553, 8.411968, 0.07052699, -0.23843813, 10.20441
787915208264640, 5.697311, -1.0839486, 8.395218, 0.03435117, -0.21602583, 10.201281
787915217903598, 5.7056856, -1.079163, 8.288737, 0.020197287, -0.14276838, 10.119377
787915227542556, 5.712864, -1.1042876, 8.196614, 0.036371812, -0.07464695, 10.051561
787915237181515, 5.7379885, -1.1102697, 8.182257, 0.031842247, -0.045060158, 10.055023
787915246820473, 5.77747, -1.1042876, 8.05783, 0.0050474703, 0.05510664, 9.97618
787915256459431, 5.7894344, -1.1222339, 7.9740815, 0.014455646, 0.11486292, 9.917133
787915266098390, 5.820541, -1.1210374, 7.9704924, 0.00727579, 0.14113522, 9.931978
787915275737348, 5.8600225, -1.1126626, 7.993224, -0.009185731, 0.15473938, 9.972237
787915285376306, 5.8624153, -1.0911272, 8.0614195, -0.028740242, 0.11059952, 10.026559
787915295015369, 5.8947186, -1.0911272, 8.106883, -0.03239508, 0.10845518, 10.082015
787915304654327, 5.9066825, -1.0480564, 8.148758, -0.06598468, 0.08513832, 10.118199
787915314293286, 5.925825, -1.0217353, 8.226524, -0.09372412, 0.049852848, 10.189395
787915323932244, 5.930611, -1.0468599, 8.262417, -0.0638113, 0.034979343, 10.224006
787915333571202, 5.849255, -1.099502, 8.239685, 0.008937582, -0.009902954, 10.164394
787915343210161, 5.8600225, -1.1222339, 8.210971, 0.029624432, 0.016851902, 10.149787
787915352849119, 5.838487, -1.1569297, 8.1942215, 0.06469993, 0.014538288, 10.12755
787915362488077, 5.8133626, -1.1365907, 8.148758, 0.044442818, 0.016721725, 10.074078
787915372127036, 5.7391853, -1.2095718, 7.9776707, 0.1213419, 0.06688976, 9.900776
787915381765994, 5.7056856, -1.1318051, 8.032705, 0.052569374, -0.004671097, 9.917531
787915391404952, 5.723632, -1.0492527, 8.087741, -0.033319727, -0.041818142, 9.963413
787915401043911, 5.7020965, -1.0408778, 8.093722, -0.036447704, -0.064992905, 9.954905
787915410682869, 5.6949177, -1.0456635, 8.051848, -0.028328568, -0.04259491, 9.917417
787915420321827, 5.7463636, -1.0815558, 8.151151, 0.0027536154, -0.050874233, 10.031408
787915429960786, 5.782256, -1.0767702, 8.279166, 0.0049465448, -0.09867334, 10.155231
787915439599848, 5.779863, -1.0660025, 8.298309, -0.0045719147, -0.113824844, 10.168192
787915449238806, 5.8133626, -1.0731809, 8.293523, -2.5972724E-5, -0.08007717, 10.18445
787915458877765, 5.834898, -1.0899308, 8.331808, 0.015230879, -0.07681465, 10.229706
787915468516723, 5.855237, -1.0863415, 8.323434, 0.0056840926, -0.05630827, 10.234271
787915478155681, 5.825327, -1.1042876, 8.236095, 0.027813807, -0.025569916, 10.14819
787915487794640, 5.7954164, -1.1042876, 8.1679, 0.030647375, -0.009836197, 10.075707
787915497433598, 5.8193445, -1.0612168, 8.1020975, -0.024234034, 0.039473057, 10.031589
787915507072556, 5.7990055, -1.0013963, 8.024331, -0.08051117, 0.056824684, 9.950449
787915516711515, 5.7858453, -0.9942178, 8.035098, -0.08509223, 0.038201332, 9.950809
787915526350473, 5.818148, -1.0025927, 8.049456, -0.08147198, 0.053627014, 9.981997
787915535989431, 5.8217373, -1.0133604, 8.122437, -0.064598545, 0.0114007, 10.044362
787915545628494, 5.837291, -1.0301101, 8.118847, -0.051453933, 0.029214859, 10.052227
787915555267452, 5.818148, -1.0815558, 8.124829, 0.0052117854, 0.02123785, 10.051516
787915564906411, 5.8265233, -1.1162517, 8.209774, 0.041139692, -0.01561451, 10.128811
787915574545369, 5.8061843, -1.1282159, 8.207381, 0.057209924, -0.027837276, 10.116407
787915584184327, 5.7463636, -1.1641082, 8.177471, 0.10427442, -0.05147171, 10.061479
787915593823286, 5.7631135, -1.1521441, 8.216953, 0.0903108, -0.06321907, 10.101835
787915603462244, 5.7894344, -1.1306087, 8.212168, 0.06310783, -0.043885708, 10.110866
787915613101202, 5.7894344, -1.1365907, 8.196614, 0.068459466, -0.032723427, 10.098915
787915622740161, 5.8133626, -1.0815558, 8.199007, 0.0105098635, -0.027456284, 10.108798
787915632379119, 5.8504515, -1.0348958, 8.195417, -0.041933864, -0.007171631, 10.122343
787915642018077, 5.8839507, -1.0540384, 8.132008, -0.030395225, 0.057643414, 10.092431
787915651657140, 5.852844, -1.0420742, 8.093722, -0.0359765, 0.050683975, 10.04222
787915661296098, 5.864808, -1.038485, 8.054241, -0.042201318, 0.08289051, 10.016815
787915670935056, 5.8037915, -1.0480564, 8.059027, -0.019384086, 0.03093338, 9.986442
787915680574015, 5.7966127, -1.0420742, 8.082955, -0.022811238, 0.012077332, 10.001007
787915690212973, 5.825327, -1.0564312, 8.120044, -0.014048986, 0.015206814, 10.049138
787915699851931, 5.858826, -1.1030912, 8.145168, 0.028199345, 0.041060925, 10.093758
787915709490890, 5.8839507, -1.1042876, 8.165507, 0.026814267, 0.048215866, 10.12486
787915719129848, 5.8971114, -1.1102697, 8.222935, 0.032539293, 0.023703575, 10.17957
787915728768806, 5.8935223, -1.0839486, 8.238488, 0.007910207, 0.006933689, 10.187303
787915738407869, 5.858826, -1.052842, 8.185846, -0.01832661, 0.0044550896, 10.1213665
787915748046827, 5.838487, -1.0588241, 8.196614, -0.007490337, -0.016644955, 10.118953
787915757685786, 5.800202, -1.0648061, 8.19781, 0.0023079515, -0.04606247, 10.098421
787915767324744, 5.7762737, -1.0803595, 8.182257, 0.022349954, -0.0525012, 10.073658
787915776963702, 5.73081, -1.1006985, 8.158329, 0.049034983, -0.06939125, 10.030195
787915786602661, 5.729614, -1.0983056, 8.117651, 0.040024355, -0.04122019, 9.996384
787915796241619, 5.7631135, -1.0959128, 8.070991, 0.029086232, 0.011829853, 9.977696
787915805880577, 5.7750773, -1.0911272, 8.084151, 0.020135447, 0.013718128, 9.994749
787915815519536, 5.812166, -1.125823, 8.080562, 0.04567814, 0.049978256, 10.016969
787915825158598, 5.7786665, -1.0779666, 8.088937, 0.008272111, 0.0074133873, 9.999289
787915834797556, 5.804988, -1.0648061, 8.110473, -0.007427439, 0.011172771, 10.030519
787915844436515, 5.802595, -1.0313065, 8.135597, -0.031558245, -0.0128827095, 10.045919
787915854075473, 5.837291, -1.0576276, 8.179864, -0.012219369, -0.0064496994, 10.10458
787915863714431, 5.869594, -1.0743774, 8.182257, 0.0029461384, 0.021992207, 10.126957
787915873353390, 5.895915, -1.0456635, 8.143971, -0.03196463, 0.059479237, 10.108163
787915882992348, 5.8731833, -1.0480564, 8.146365, -0.0203937, 0.03789711, 10.097235
787915892631306, 5.852844, -1.026521, 8.149954, -0.036367536, 0.015751362, 10.086115
787915902270265, 5.8229337, -0.9846465, 8.109276, -0.069211364, 0.006688118, 10.031532
787915911909327, 5.8133626, -1.0037891, 8.129615, -0.04246673, -0.009759903, 10.0444765
787915921548286, 5.802595, -0.9906286, 8.206185, -0.047611475, -0.066735744, 10.098823
787915931187244, 5.7966127, -1.0456635, 8.16431, 0.005888611, -0.035558224, 10.067215
787915940826202, 5.733203, -1.105484, 8.128419, 0.0832828, -0.053212166, 10.007654
787915950465161, 5.753542, -1.1090733, 8.203793, 0.085415184, -0.08075428, 10.080758
787915960104119, 5.7583275, -1.0899308, 8.189436, 0.06669316, -0.07342911, 10.06992
787915969743077, 5.76431, -1.0887343, 8.132008, 0.061970115, -0.034912586, 10.026819
787915979382036, 5.8073807, -1.0588241, 8.148758, 0.026686966, -0.0123877525, 10.062216
