timestamp_acc,device_acc_x,device_acc_y,device_acc_z,earth_acc_x,earth_acc_y,earth_acc_z
95029382022378, -7.30768, 1.0193424, 6.439086, -0.11296296, 0.063509464, 9.792154
95029391662430, -7.298109, 1.0492527, 6.361319, -0.06596351, 0.105302334, 9.737263
95029401302430, -7.3052874, 1.0480564, 6.259624, -0.043025255, 0.18131971, 9.675423
95029410942430, -7.2490563, 1.134198, 6.2201424, 0.044659615, 0.15121031, 9.617719
95029420582482, -7.2729845, 1.1318051, 6.2261243, 0.04084623, 0.16152716, 9.639198
95029430222534, -7.257431, 1.1641082, 6.239285, 0.06586301, 0.13311863, 9.640129
95029439862534, -7.251449, 1.2155539, 6.3601227, 0.086194634, 0.031178474, 9.72131
95029449502586, -7.2550383, 1.2083755, 6.4295144, 0.061361313, -0.009441376, 9.768856
95029459142638, -7.2729845, 1.2107682, 6.483353, 0.052173376, -0.03300476, 9.817957
95029468782638, -7.298109, 1.2095718, 6.5754766, 0.030413032, -0.081768036, 9.897209
95029478422638, -7.239485, 1.2071791, 6.631708, 0.012699246, -0.15332079, 9.890566
95029488062690, -7.220342, 1.2167503, 6.661618, 0.013736486, -0.1894784, 9.897216
95029497702742, -7.2562346, 1.174876, 6.6676, -0.025121808, -0.15650225, 9.922955
95029507342742, -7.280163, 1.154537, 6.641279, -0.036378622, -0.11102772, 9.921021
95029516982742, -7.257431, 1.1856437, 6.5778694, 0.007412076, -0.0869894, 9.865942
95029526622794, -7.245467, 1.1820544, 6.478567, 0.024900794, -0.023847103, 9.791052
95029536262846, -7.2622166, 1.1437693, 6.3996043, 0.008660078, 0.052045822, 9.746803
95029545902846, -7.274181, 1.1497513, 6.385247, 0.016937017, 0.06821394, 9.746901
95029555542899, -7.2358956, 1.1437693, 6.373283, 0.00835669, 0.05015421, 9.709921
95029565182951, -7.2466636, 1.1389836, 6.350551, 0.010037899, 0.074558735, 9.7023325
95029574822951, -7.280163, 1.1222339, 6.363712, -0.008358002, 0.09086847, 9.733894
95029584462951, -7.2933235, 1.1270195, 6.393622, -0.008821607, 0.07551193, 9.763983
95029594103003, -7.2993054, 1.079163, 6.4067826, -0.05810356, 0.08074713, 9.77146
95029603743055, -7.3172517, 1.0935199, 6.454639, -0.049716115, 0.05228281, 9.818102
95029613383055, -7.288538, 1.099502, 6.471389, -0.04756069, 0.01810646, 9.808565
95029623023107, -7.2490563, 1.1150553, 6.5108705, -0.042603493, -0.040511608, 9.807148
95029632663159, -7.2705917, 1.1270195, 6.532406, -0.03459382, -0.043932438, 9.838743
95029642303159, -7.2969127, 1.1497513, 6.5001025, -0.003445387, -0.008136749, 9.839621
95029651943211, -7.2969127, 1.1724831, 6.4642105, 0.025905252, 0.013179302, 9.818596
95029661583263, -7.2705917, 1.1928221, 6.4438715, 0.043067098, 0.0074424744, 9.78805
95029671223263, -7.2765737, 1.1533405, 6.4271216, 0.0094896555, 0.032262802, 9.776783
95029680863263, -7.2418776, 1.1569297, 6.4259253, 0.007285714, 0.008664131, 9.750675
95029690503315, -7.2466636, 1.1102697, 6.468996, -0.047989964, -0.009130001, 9.777134
95029700143367, -7.288538, 1.0731809, 6.501299, -0.08755028, -5.674362E-4, 9.825157
95029709783367, -7.3256264, 1.1162517, 6.5228343, -0.048791766, 2.9182434E-4, 9.871971
95029719423419, -7.4548388, 1.0552348, 6.602994, -0.11836839, 0.03567648, 10.013611
95029729063471, -7.068398, 1.2023934, 6.579066, 0.016124606, -0.23677635, 9.728093
95029738703471, -7.1102724, 1.4093726, 6.519245, 0.23070502, -0.20104694, 9.744188
95029748343471, -7.2562346, 1.2311072, 6.430711, 0.07514584, -0.00457716, 9.773276
95029757983524, -7.342376, 1.2311072, 6.3397837, 0.09337759, 0.1196723, 9.777317
95029767623576, -7.2849483, 1.2921243, 6.250053, 0.17153656, 0.13329077, 9.68277
95029777263576, -7.2179494, 1.2753744, 6.209375, 0.15606439, 0.11482239, 9.604383
95029786903628, -7.243074, 1.2215359, 6.216553, 0.10260689, 0.13538074, 9.62138
95029796543680, -7.257431, 1.1712867, 6.3338017, 0.028327346, 0.069437504, 9.7032795
95029806183680, -7.21436, 1.1162517, 6.4905314, -0.063651204, -0.060250282, 9.767923
95029815823732, -7.2861447, 1.0923235, 6.59103, -0.09839499, -0.080917835, 9.884662
95029825463784, -7.3375907, 1.0588241, 6.599405, -0.13034713, -0.04592371, 9.924434
95029835103784, -7.3567333, 1.0277174, 6.586244, -0.14988768, -0.015201569, 9.926412
95029844743784, -7.3495545, 1.0241281, 6.5635123, -0.1484623, -0.002471447, 9.905676
95029854383836, -7.3304124, 1.0624132, 6.4977098, -0.09518826, 0.023576736, 9.852629
95029864023888, -7.3292155, 1.0839486, 6.410372, -0.05460155, 0.08001709, 9.796726
95029873663888, -7.304091, 1.1330016, 6.3326054, 0.010348678, 0.108406544, 9.732598
95029883303940, -7.2562346, 1.2000005, 6.3385873, 0.06956279, 0.055537224, 9.7088995
95029892943992, -7.227521, 1.2335001, 6.385247, 0.08744836, -0.0075979233, 9.722256
95029902583992, -7.2622166, 1.1904292, 6.3601227, 0.052897215, 0.04201317, 9.726435
95029912223992, -7.2753773, 1.1952149, 6.3864436, 0.04945922, 0.031103611, 9.754123
95029921864044, -7.2418776, 1.2023934, 6.430711, 0.043458343, -0.024199486, 9.759207
95029931504096, -7.259824, 1.2035898, 6.4402823, 0.042081356, -0.018757343, 9.778997
95029941144096, -7.3160553, 1.1712867, 6.4438715, 0.011891723, 0.025924683, 9.81933
95029950784149, -7.335198, 1.1676974, 6.4845495, -5.8829784E-4, 0.010732174, 9.859915
95029960424201, -7.312466, 1.1377872, 6.48096, -0.030112147, 0.0046896935, 9.837105
95029970064201, -7.304091, 1.1593226, 6.5001025, -0.014770389, -0.01965332, 9.846041
95029979704253, -7.2729845, 1.1377872, 6.4977098, -0.037537694, -0.033765316, 9.818786
95029989344305, -7.2299137, 1.1234303, 6.437889, -0.040603638, -0.01569271, 9.74568
95029998984305, -7.207182, 1.1904292, 6.38764, 0.03464222, -0.0072283745, 9.703674
95030008624305, -7.2753773, 1.1270195, 6.285945, -0.0011236668, 0.12653542, 9.679791
95030018264357, -7.2765737, 1.1473584, 6.32423, 0.009236097, 0.09771156, 9.708307
95030027904409, -7.281359, 1.1413764, 6.3421764, -6.6185E-4, 0.09112072, 9.722952
95030037544409, -7.203593, 1.2897314, 6.3158555, 0.14624238, 0.028773785, 9.665556
95030047184461, -7.194021, 1.2586247, 6.4259253, 0.09123945, -0.049600124, 9.727272
95030056824513, -7.2933235, 1.2155539, 6.48096, 0.043002844, -0.012498379, 9.83214
95030066464513, -7.3340015, 1.146162, 6.5515485, -0.030490518, -0.021218777, 9.9006405
95030076104513, -7.3196445, 1.1330016, 6.6592255, -0.06837869, -0.10522127, 9.959439
95030085744565, -7.2646093, 1.1653047, 6.674779, -0.03743422, -0.15540361, 9.932755
95030095384617, -7.2059855, 1.1306087, 6.602994, -0.058437824, -0.13577175, 9.837793
95030105024617, -7.24786, 1.1222339, 6.503692, -0.042056203, -0.027641296, 9.802364
95030114664669, -7.2670026, 1.1210374, 6.4067826, -0.019290805, 0.055015087, 9.752411
95030124304721, -7.3064837, 1.0731809, 6.385247, -0.058906317, 0.10676384, 9.76181
95030133944721, -7.365108, 1.0683953, 6.3804617, -0.057792783, 0.1433959, 9.801666
95030143584774, -7.350751, 1.0743774, 6.4259253, -0.06237924, 0.095067024, 9.821782
95030153224826, -7.301698, 1.0432707, 6.468996, -0.10580349, 0.038434505, 9.81012
95030162864826, -7.281359, 1.0372887, 6.428318, -0.103955984, 0.04982853, 9.767506
95030172504826, -7.210771, 1.1078769, 6.390033, -0.030794024, 0.013763905, 9.698143
95030182144878, -7.173682, 1.1832508, 6.355337, 0.047018766, -3.9243698E-4, 9.656599
95030191784930, -7.2011995, 1.1952149, 6.3457656, 0.055597067, 0.027960777, 9.672161
95030201424930, -7.2933235, 1.1844472, 6.3601227, 0.044062495, 0.08281994, 9.748736
95030211064982, -7.3950186, 1.0504491, 6.350551, -0.07790768, 0.1850853, 9.801987
95030220705034, -7.405786, 0.92243314, 6.442675, -0.22013319, 0.1520195, 9.85561
95030230345034, -7.2861447, 1.0755738, 6.5958157, -0.111260295, -0.07268143, 9.885944
95030239985034, -7.2011995, 1.2035898, 6.5958157, 0.007663727, -0.15670776, 9.837992
95030249625086, -7.1808605, 1.2083755, 6.521638, 0.029015303, -0.11852312, 9.7745495
95030259265138, -7.2263246, 1.2789637, 6.4797635, 0.10775733, -0.07243633, 9.789076
95030268905138, -7.2119675, 1.3387842, 6.4295144, 0.17439902, -0.057199955, 9.752424
95030278545190, -7.1892357, 1.3363914, 6.4091754, 0.17098236, -0.05471897, 9.721952
95030288185242, -7.207182, 1.3651053, 6.4008007, 0.19279468, -0.036474228, 9.733383
95030297825242, -7.2442703, 1.2981063, 6.411568, 0.12766957, -0.0043210983, 9.75994
95030307465242, -7.2346992, 1.3112668, 6.4175506, 0.13330841, -0.017167091, 9.758443
95030317105294, -7.2861447, 1.2394822, 6.4295144, 0.06311834, 0.024535656, 9.79583
95030326745346, -7.3064837, 1.1629118, 6.45105, -0.015209317, 0.03850603, 9.815874
95030336385346, -7.222735, 1.2143575, 6.4642105, 0.026181698, -0.038239956, 9.768645
95030346025399, -7.173682, 1.2107682, 6.498906, 0.009753823, -0.09364796, 9.754721
95030355665451, -7.1748786, 1.2131611, 6.48096, 0.016081333, -0.08073282, 9.7440605
95030365305451, -7.1677003, 1.2203395, 6.431907, 0.032033563, -0.048069, 9.707278
95030374945451, -7.2059855, 1.2335001, 6.411568, 0.051437736, -0.00940609, 9.723848
95030384585503, -7.2705917, 1.1904292, 6.4091754, 0.013926864, 0.045571804, 9.764931
95030394225555, -7.3567333, 1.1509477, 6.4354963, -0.023867846, 0.09169245, 9.841385
95030403865555, -7.3830543, 1.1186446, 6.4761744, -0.062001348, 0.08489132, 9.883858
95030413505555, -7.3256264, 1.1449656, 6.5276203, -0.050812364, 0.0019288063, 9.87841
95030423145607, -7.2789664, 1.160519, 6.539584, -0.041555524, -0.041193962, 9.853573
95030432785659, -7.2287173, 1.1796615, 6.532406, -0.023965001, -0.074231625, 9.813877
95030442425659, -7.3663044, 1.1820544, 6.4474607, 0.005046487, 0.079046726, 9.860181
95030452065659, -6.963114, 1.2873386, 6.4977098, 0.07511282, -0.24803686, 9.607042
95030461705711, -7.446464, 0.9499506, 6.2309103, -0.17052639, 0.3349352, 9.748601
95030471345763, -7.0025954, 1.7096717, 6.5982084, 0.45676935, -0.37623024, 9.754257
95030480985763, -7.550552, 0.50009996, 6.0287166, -0.5545565, 0.64215374, 9.637761
95030490625815, -7.1389866, 1.9537396, 6.7334027, 0.67258704, -0.44564438, 9.973463
95030500265867, -7.385447, 0.42831525, 6.09093, -0.6497586, 0.50514126, 9.54727
95030509905867, -7.2957163, 1.8305093, 6.7166533, 0.56641185, -0.31324863, 10.0634365
95030519545867, -7.1880393, 0.6891329, 6.344569, -0.46331728, 0.1321168, 9.600222
95030529185919, -7.4045897, 1.5074782, 6.6735826, 0.2698617, -0.14208555, 10.076911
95030538825971, -6.9822564, 1.2011969, 6.593423, -0.044237137, -0.2961192, 9.673592
95030548465971, -7.4919276, 0.9296116, 6.2883377, -0.1869123, 0.3282299, 9.81803
95030558105971, -7.018149, 1.6319051, 6.613762, 0.37754273, -0.38604355, 9.765644
95030567746024, -7.5493555, 0.465404, 6.0825553, -0.584152, 0.62187195, 9.668449
95030577386076, -7.103094, 1.8879371, 6.7585278, 0.5893508, -0.50178957, 9.954739
95030587026076, -7.4010005, 0.36011982, 6.0167527, -0.6772273, 0.577693, 9.503338
95030596666076, -7.2586274, 1.8329022, 6.593423, 0.58045125, -0.25666618, 9.955784
95030606306128, -7.200003, 0.56590253, 6.1399827, -0.53336465, 0.3076849, 9.4594145
95030615946180, -7.4213395, 1.4727824, 6.5455666, 0.25650048, -0.036659718, 10.001133
95030625586180, -7.024131, 1.1114662, 6.4594245, -0.09123564, -0.16442537, 9.605341
95030635226180, -7.4907312, 1.0049855, 6.2811594, -0.112991095, 0.30104828, 9.821945
95030644866232, -6.983453, 1.6510476, 6.6484575, 0.37661493, -0.45750475, 9.764498
95030654506284, -7.507481, 0.6269195, 6.15434, -0.44665694, 0.4836583, 9.705555
95030664146284, -7.082755, 2.0207388, 6.7908306, 0.7086328, -0.5763831, 9.976461
95030673786284, -7.448857, 0.38404804, 6.0777693, -0.6684705, 0.57325363, 9.581064
95030683426336, -7.2753773, 1.8628124, 6.6676, 0.6010612, -0.3235798, 10.019586
95030693066388, -7.24786, 0.5419743, 6.1675005, -0.5514804, 0.31587315, 9.511013
95030702706388, -7.379465, 1.5254245, 6.634101, 0.29209566, -0.14769745, 10.034321
95030712346388, -7.0396843, 1.0205388, 6.5048885, -0.18395615, -0.16955805, 9.635851
95030721986440, -7.489535, 1.0157533, 6.3278193, -0.12555087, 0.2621522, 9.853004
95030731626492, -6.983453, 1.6139588, 6.6101727, 0.36261773, -0.40249586, 9.735212
95030741266492, -7.5349984, 0.61854464, 6.141179, -0.46515608, 0.50410604, 9.71609
95030750906492, -7.088737, 1.9214365, 6.8135624, 0.6147101, -0.53617525, 9.98506
95030760546544, -7.499106, 0.3804588, 6.0897336, -0.6859274, 0.5851536, 9.625658
95030770186596, -7.268199, 1.9118652, 6.695118, 0.63188756, -0.34150076, 10.039454
95030779826596, -7.2490563, 0.485743, 6.1471615, -0.60323745, 0.3433261, 9.491606
95030789466596, -7.3806615, 1.5218352, 6.6017976, 0.28460157, -0.11441088, 10.01398
95030799106596, -7.0959153, 0.9499506, 6.4271216, -0.2331593, -0.05803871, 9.617931
95030808746649, -7.4787674, 1.0875379, 6.3122663, -0.05493045, 0.25140285, 9.843433
95030818386701, -6.946364, 1.5768701, 6.5084777, 0.33557057, -0.35394907, 9.636435
95030828026701, -7.496713, 0.695115, 6.0418773, -0.37716305, 0.5478959, 9.630459
95030837666701, -6.99781, 1.9932213, 6.7728844, 0.6822916, -0.5934262, 9.8993225
95030847306753, -7.4141607, 0.47976094, 6.10768, -0.60728043, 0.4973917, 9.585797
95030856946805, -7.179664, 1.969293, 6.7118673, 0.6722765, -0.41699648, 9.992448
95030866586805, -7.3172517, 0.48095736, 6.1651077, -0.6225574, 0.38438892, 9.552315
95030876226805, -7.367501, 1.6618153, 6.7501526, 0.3946885, -0.26538324, 10.118303
95030885866857, -7.055238, 0.9738788, 6.5838513, -0.25432634, -0.19946146, 9.693681
95030895506909, -7.4452677, 1.2023934, 6.567102, -0.006103277, 0.021850586, 10.000204
95030905146909, -7.021738, 1.5086746, 6.669993, 0.25135767, -0.39516592, 9.790321
95030914786909, -7.5996046, 0.68195444, 6.1208405, -0.4000106, 0.55162144, 9.758045
95030924426909, -7.066005, 1.8999012, 6.7178497, 0.6221671, -0.4634509, 9.902812
95030934066961, -7.4392858, 0.44147578, 6.040681, -0.6385125, 0.5539427, 9.555792
95030943707013, -7.1377897, 1.9537396, 6.6101727, 0.6912906, -0.35162115, 9.89232
95030953347013, -7.338787, 0.3493521, 5.9820566, -0.7293773, 0.5288286, 9.4314995
95030962987013, -7.4775705, 1.5182459, 6.5288167, 0.31221235, 0.0063610077, 10.037283
95030972627013, -7.1856465, 0.73818576, 6.303891, -0.40945798, 0.117946625, 9.577887
95030982267065, -7.4380894, 1.2239288, 6.390033, 0.050899386, 0.1333704, 9.881058
95030991907117, -6.8925257, 1.4871392, 6.5479593, 0.25018513, -0.40062952, 9.610992
95031001547117, -7.515856, 0.7369894, 6.174679, -0.35759246, 0.44739008, 9.738064
95031011187117, -7.0396843, 1.9034904, 6.7669024, 0.6032635, -0.54424524, 9.915205
95031020827117, -7.448857, 0.567099, 6.155536, -0.52650964, 0.4585886, 9.654543
95031030467169, -7.0935225, 2.111666, 6.789634, 0.806429, -0.56831884, 9.99515
95031040107221, -7.30768, 0.5419743, 6.067002, -0.5365659, 0.44419527, 9.487845
95031049747221, -7.331609, 1.774278, 6.613762, 0.5321677, -0.20953035, 10.015753
95031059387221, -7.1569324, 0.79800636, 6.3972116, -0.37786126, 0.0435977, 9.624872
95031069027221, -7.507481, 1.2131611, 6.5647087, 0.013075709, 0.06575346, 10.046142
95031078667274, -7.0169525, 1.2658032, 6.6101727, 0.018621564, -0.3054428, 9.718058
95031088307326, -7.5469627, 0.65922266, 6.239285, -0.4373498, 0.45580196, 9.7939205
95031097947326, -7.018149, 1.7001005, 6.751349, 0.41006553, -0.50502443, 9.864191
95031107587326, -7.479964, 0.3900301, 6.0957155, -0.6623713, 0.58573484, 9.616544
95031117227326, -7.071987, 2.0195422, 6.7561345, 0.71371615, -0.554276, 9.9458685
95031126867378, -7.281359, 0.46779683, 6.033502, -0.58970964, 0.47949028, 9.437293
95031136507430, -7.3579297, 1.8340986, 6.587441, 0.5866984, -0.1907382, 10.025808
95031146147430, -7.2466636, 0.7752745, 6.2883377, -0.3548473, 0.19082403, 9.617487
95031155787430, -7.513463, 1.3722838, 6.5048885, 0.17316747, 0.080239296, 10.030575
95031165427430, -6.9786673, 1.3363914, 6.5479593, 0.09226799, -0.30397797, 9.657257
95031175067482, -7.493124, 0.81954175, 6.2309103, -0.28705657, 0.39232874, 9.767625
95031184707534, -6.987042, 1.7084754, 6.739385, 0.39552724, -0.5211358, 9.835088
95031194347534, -7.4620175, 0.46301118, 6.131608, -0.60065675, 0.5260496, 9.63614
95031203987534, -7.0265236, 2.0291135, 6.808777, 0.689927, -0.6326318, 9.948495
95031213627534, -7.301698, 0.46899325, 6.1160545, -0.6004125, 0.43078566, 9.507619
95031223267586, -7.3172517, 1.8305093, 6.6161547, 0.5587599, -0.25078297, 10.014557
95031232907638, -7.198807, 0.73579293, 6.2787666, -0.39537597, 0.18662262, 9.570578
95031242547638, -7.432107, 1.4979069, 6.546763, 0.27230632, -0.039233685, 10.013209
95031252187638, -6.966703, 1.2909278, 6.5168524, 0.04847908, -0.277318, 9.62245
95031261827638, -7.4919276, 0.9236295, 6.2548385, -0.19560194, 0.3494935, 9.7951355
95031271467638, -6.940382, 1.7611175, 6.745367, 0.45523846, -0.5649953, 9.8104
95031281107690, -7.4452677, 0.5300102, 6.236892, -0.58053017, 0.42306805, 9.7002945
95031290747742, -7.0731835, 1.9872392, 6.9224358, 0.64086366, -0.6521497, 10.053017
95031300387742, -7.3974113, 0.37686956, 6.0933228, -0.7044772, 0.5190058, 9.551264
95031310027742, -7.314859, 1.8520447, 6.65444, 0.5960823, -0.2654481, 10.039574
95031319667742, -7.27777, 0.6041877, 6.212964, -0.505828, 0.2991748, 9.570086
95031329307794, -7.4943204, 1.4117653, 6.538388, 0.20787299, 0.030416012, 10.043122
95031338947846, -7.094719, 1.105484, 6.4462643, -0.091112256, -0.10048151, 9.648476
95031348587846, -7.495517, 0.8985049, 6.1591253, -0.19523382, 0.4186921, 9.731983
95031358227846, -6.9344, 1.6426728, 6.6221366, 0.37086475, -0.46020222, 9.710182
95031367867846, -7.4356966, 0.4953143, 6.1184473, -0.57451755, 0.49848366, 9.612064
95031377507846, -7.0504518, 1.9872392, 6.8051877, 0.6535735, -0.5890155, 9.959642
95031387147899, -7.426125, 0.4019942, 6.0514483, -0.65832686, 0.54710627, 9.549671
95031396787951, -7.2586274, 1.8987048, 6.698707, 0.61449516, -0.34028435, 10.0335455
95031406427951, -7.280163, 0.5922236, 6.239285, -0.52741313, 0.27455807, 9.587837
95031416067951, -7.4452677, 1.538585, 6.647261, 0.28879, -0.10642147, 10.094088
95031425707951, -7.103094, 1.119841, 6.4977098, -0.08925545, -0.14136791, 9.690215
95031435347951, -7.521838, 1.0169497, 6.245267, -0.10505092, 0.34331036, 9.822763
95031444988003, -6.937989, 1.6677973, 6.5946193, 0.39977217, -0.44768286, 9.697732
95031454628055, -7.456035, 0.58504516, 6.122037, -0.5018301, 0.4856968, 9.639832
95031464268055, -7.045666, 1.9812572, 6.835098, 0.63975585, -0.6147022, 9.974878
95031473908055, -7.459625, 0.36251262, 6.0753765, -0.69533634, 0.565578, 9.585628
95031483548055, -7.0396843, 1.896312, 6.550352, 0.6285213, -0.39348269, 9.7729435
95031493188107, -7.2909307, 0.6197411, 6.0693946, -0.46483153, 0.38762283, 9.487518
95031502828159, -7.5050883, 1.5254245, 6.491728, 0.32921612, 0.04062128, 10.034231
95031512468159, -7.155736, 0.93559366, 6.3792653, -0.23466289, 0.009809494, 9.62911
95031522108159, -7.4859457, 1.0097711, 6.3948183, -0.15811205, 0.20492887, 9.893722
95031531748159, -7.0002027, 1.5756737, 6.6735826, 0.3164029, -0.42812014, 9.784626
95031541388159, -7.587641, 0.6472585, 6.2117677, -0.45269167, 0.47897005, 9.805251
95031551028159, -6.9726853, 2.111666, 6.95115, 0.7679224, -0.74590015, 10.012487
95031560668211, -7.361519, 0.48933223, 6.265606, -0.62683356, 0.32979918, 9.65337
95031570308263, -7.1342006, 2.0291135, 6.7872415, 0.72911656, -0.50770473, 10.014559
95031579948263, -7.27777, 0.58265233, 6.1938214, -0.5304382, 0.31198168, 9.554586
95031589588263, -7.3603225, 1.6331015, 6.600601, 0.4007039, -0.14251089, 10.011415
95031599228263, -7.1042905, 0.95353985, 6.4498534, -0.24259794, -0.058701515, 9.639423
95031608868263, -7.55773, 1.038485, 6.3972116, -0.11407459, 0.26244116, 9.951893
95031618508315, -7.04447, 1.422533, 6.579066, 0.18058288, -0.29529572, 9.737169
95031628148367, -7.509874, 0.63888365, 6.094519, -0.4310726, 0.5365062, 9.668293
95031637788367, -6.9415784, 1.9369899, 6.7573314, 0.62196136, -0.6074734, 9.84089
95031647428367, -7.372287, 0.47736812, 6.151947, -0.60815036, 0.4530568, 9.583832
95031657068367, -7.103094, 1.969293, 6.786045, 0.6412537, -0.5364437, 9.984162
95031666708419, -7.3064837, 0.46899325, 6.229714, -0.6294699, 0.35151958, 9.586146
95031676348471, -7.416554, 1.6582261, 6.725028, 0.3777585, -0.21560287, 10.13863
95031685988471, -7.1916285, 0.8662018, 6.5204415, -0.34276605, -0.02076912, 9.740025
95031695628471, -7.6031938, 1.1018949, 6.4259253, -0.06743026, 0.2624302, 10.012085
95031705268471, -7.094719, 1.3974084, 6.424729, 0.17457664, -0.15105772, 9.670141
95031714908471, -7.5146594, 0.72502524, 5.9246287, -0.31715477, 0.64211893, 9.569958
95031724548471, -6.9224358, 1.9298115, 6.5647087, 0.6465303, -0.47877502, 9.700126
95031734188524, -7.409375, 0.41874397, 5.979664, -0.651617, 0.586226, 9.490115
95031743828576, -7.1282187, 1.9513469, 6.6568327, 0.65216374, -0.39010715, 9.917419
95031753468576, -7.2909307, 0.48215377, 6.114858, -0.63912797, 0.37993717, 9.498884
95031763108576, -7.318448, 1.7347964, 6.7501526, 0.44807565, -0.28470516, 10.092171
95031772748576, -7.1629148, 0.84825563, 6.5814586, -0.38622165, -0.09797287, 9.756214
95031782388576, -7.530213, 1.2550355, 6.640083, 0.016490221, 0.029258728, 10.117744
95031792028628, -7.0085773, 1.4177474, 6.6305118, 0.15707684, -0.34438276, 9.744259
95031801668680, -7.530213, 0.7860422, 6.2177496, -0.35248423, 0.431674, 9.781197
95031811308680, -6.971489, 1.869991, 6.780063, 0.5485617, -0.56019354, 9.87183
95031820948680, -7.4273214, 0.51565325, 6.1495543, -0.6088445, 0.47450256, 9.625601
95031830588680, -7.0839515, 2.070988, 6.8243303, 0.7310077, -0.5692301, 10.009218
95031840228680, -7.2622166, 0.526421, 6.145965, -0.59381306, 0.36604452, 9.502799
95031849868732, -7.2622166, 1.875973, 6.6795645, 0.5843706, -0.30854225, 10.021925
95031859508784, -7.1473613, 0.8422736, 6.367301, -0.34764683, 0.055811405, 9.602747
95031869148784, -7.515856, 1.3232309, 6.4343, 0.124675274, 0.15355587, 9.979986
95031878788784, -7.04447, 1.3339987, 6.4175506, 0.11388826, -0.15369463, 9.6204195
95031888428784, -7.560123, 0.75972116, 6.0777693, -0.34107244, 0.55084276, 9.708355
95031898068784, -6.9930243, 1.7898313, 6.6245294, 0.50283504, -0.42712355, 9.775225
95031907708836, -7.452446, 0.50129634, 6.0957155, -0.60517335, 0.52578926, 9.607567
95031917348888, -7.0025954, 2.0518453, 6.862615, 0.7025987, -0.6537056, 9.9710045
95031926988888, -7.281359, 0.49172506, 6.155536, -0.63614273, 0.38295698, 9.518366
95031936628888, -7.332805, 1.8723837, 6.669993, 0.57468474, -0.25345993, 10.068275
95031946268888, -7.1712894, 0.81595254, 6.344569, -0.37342608, 0.106313705, 9.601875
95031955908940, -7.452446, 1.4261223, 6.5886374, 0.17487466, -0.01907444, 10.047483
95031965548992, -7.04447, 1.3208381, 6.5575304, 0.049442887, -0.24464655, 9.711236
95031975188992, -7.521838, 0.9068798, 6.2584276, -0.24015975, 0.38772726, 9.816334
95031984828992, -6.9332037, 1.8604196, 6.7130637, 0.5217054, -0.5574274, 9.798614
95031994468992, -7.399804, 0.5766702, 6.233303, -0.55802286, 0.39854765, 9.66817
95032004108992, -7.0408807, 2.0901306, 6.9128647, 0.68483806, -0.67471075, 10.040224
95032013749044, -7.361519, 0.4881358, 6.1974106, -0.635821, 0.42601967, 9.60481
95032023389096, -7.3100734, 1.881955, 6.7645097, 0.537426, -0.33831453, 10.116038
95032033029096, -7.210771, 0.7178468, 6.355337, -0.47974133, 0.16685247, 9.625114
95032042669096, -7.4739814, 1.4811572, 6.6329045, 0.1989013, -0.04043436, 10.099922
95032052309096, -7.062416, 1.2263216, 6.5718875, -0.056385636, -0.21389866, 9.722261
95032061949096, -7.5469627, 0.9846465, 6.262017, -0.17852259, 0.38861275, 9.84663
95032071589149, -6.9248285, 1.7802601, 6.619744, 0.45602906, -0.4653244, 9.722094
95032081229201, -7.452446, 0.5922236, 6.0490556, -0.51763844, 0.55375576, 9.586769
95032090869201, -7.076773, 2.0291135, 6.6819572, 0.68492746, -0.45791483, 9.907965
95032100509201, -7.3974113, 0.4127619, 6.009574, -0.6951314, 0.5880141, 9.496214
95032110149201, -7.2418776, 1.9274186, 6.606583, 0.6221868, -0.28848076, 9.966763
95032119789201, -7.2023964, 0.64606214, 6.202196, -0.52702487, 0.26581144, 9.508455
95032129429253, -7.422536, 1.524228, 6.5407805, 0.2564472, -0.029191494, 10.006623
95032139069305, -7.003792, 1.2155539, 6.4067826, -0.0402745, -0.13937521, 9.568515
95032148709305, -7.472785, 1.0839486, 6.1770716, -0.07780254, 0.3670063, 9.748484
95032158349305, -6.966703, 1.747957, 6.5347986, 0.43834853, -0.37708282, 9.693272
95032167989305, -7.539784, 0.61016977, 6.1064835, -0.5184691, 0.5781126, 9.69055
95032177629357, -7.092326, 2.0374885, 6.8374906, 0.6414243, -0.56892014, 10.023404
95032187269409, -7.4033933, 0.47736812, 6.2488565, -0.6801556, 0.4082513, 9.667318
95032196909409, -7.2825556, 1.8951155, 6.9188466, 0.51149917, -0.4759941, 10.198495
95032206549409, -7.2729845, 0.5515456, 6.4055862, -0.6561395, 0.21662474, 9.682695
95032216189409, -7.4141607, 1.5864414, 6.7812595, 0.25418913, -0.2156663, 10.166658
95032225829461, -6.9798636, 1.1904292, 6.573084, -0.11046243, -0.25506973, 9.657318
95032235469513, -7.442875, 1.1593226, 6.3290157, -0.040889263, 0.23332977, 9.835689
95032245109513, -6.9344, 1.7252251, 6.503692, 0.41284013, -0.36975336, 9.646406
95032254749513, -7.4943204, 0.6939186, 6.094519, -0.4237913, 0.5492935, 9.659618
95032264389513, -7.031309, 2.0291135, 6.818348, 0.63735974, -0.59514236, 9.964239
95032274029565, -7.463214, 0.39720857, 6.122037, -0.72970694, 0.56438637, 9.616946
95032283669617, -7.2849483, 1.896312, 6.6915283, 0.56368184, -0.30185556, 10.051575
95032293309617, -7.283752, 0.55034924, 6.148358, -0.6148182, 0.38262463, 9.520181
95032302949617, -7.385447, 1.6211374, 6.6329045, 0.30722165, -0.12591076, 10.052767
95032312589617, -7.055238, 1.0648061, 6.458228, -0.2036972, -0.102856636, 9.621166
95032322229669, -7.493124, 1.1641082, 6.361319, -0.060733557, 0.23826742, 9.894846
95032331869721, -6.899704, 1.7048861, 6.5718875, 0.37732065, -0.42584944, 9.663257
95032341509721, -7.4476604, 0.782453, 6.2009997, -0.3892995, 0.41046047, 9.706299
95032351149721, -6.9906316, 2.0386848, 6.853044, 0.6277394, -0.6293316, 9.959883
95032360789721, -7.457232, 0.4953143, 6.1244297, -0.6663127, 0.53973866, 9.624397
95032370429774, -7.1916285, 2.0805593, 6.695118, 0.7214761, -0.39885855, 10.009658
95032380069826, -7.207182, 0.64845496, 6.076573, -0.5207124, 0.3711233, 9.42761
95032389709826, -7.271788, 1.7623138, 6.6484575, 0.41757286, -0.23412752, 9.997872
95032399349826, -7.0061846, 1.0971092, 6.4941206, -0.19731426, -0.16032553, 9.612453
95032408989826, -7.487142, 1.3256238, 6.524031, 0.040851116, 0.090625286, 10.018367
95032418629878, -6.971489, 1.6007984, 6.6759753, 0.2462833, -0.42165947, 9.772123
95032428269930, -7.537391, 0.81236327, 6.2512493, -0.39079666, 0.43332863, 9.8086605
95032437909930, -7.0731835, 1.9872392, 6.77767, 0.59918, -0.5107775, 9.964736
95032447549930, -7.52782, 0.46779683, 6.0227346, -0.6712327, 0.66937065, 9.605291
95032457189982, -7.192825, 1.9992033, 6.606583, 0.6482177, -0.30176687, 9.9433
95032466830034, -7.2646093, 0.5240282, 5.9210396, -0.5998267, 0.5579252, 9.350764
95032476470034, -7.2849483, 1.7515461, 6.465407, 0.44495845, -0.09254742, 9.886017
95032486110034, -7.0133634, 1.0025927, 6.263213, -0.24047363, 0.03313303, 9.4531145
95032495750034, -7.4333034, 1.3471591, 6.4331036, 0.070539355, 0.12781096, 9.921307
95032505390086, -6.9535427, 1.5134603, 6.611369, 0.16294265, -0.35638046, 9.705615
95032515030138, -7.530213, 0.8135597, 6.302695, -0.4099264, 0.4077716, 9.836445
95032524670138, -6.9523463, 2.0135603, 6.9152575, 0.57368016, -0.6708565, 9.971518
95032534310138, -7.3950186, 0.58504516, 6.4295144, -0.669856, 0.28550816, 9.789638
95032543950190, -7.0959153, 2.0673988, 7.0133634, 0.61260915, -0.64084435, 10.150244
95032553590242, -7.301698, 0.59700924, 6.2715883, -0.6124297, 0.32942152, 9.618755
95032563230242, -7.318448, 1.8879371, 6.808777, 0.49244356, -0.3089018, 10.156059
95032572870242, -7.0935225, 0.9619147, 6.4606214, -0.33594084, -0.0071778297, 9.636911
95032582510242, -7.4548388, 1.4440684, 6.5276203, 0.13733649, 0.077319145, 10.012239
95032592150294, -6.98106, 1.4955142, 6.48096, 0.17469513, -0.21830177, 9.63828
95032601790346, -7.517052, 0.83389866, 6.113662, -0.35329342, 0.5422363, 9.703581
95032611430346, -6.9451675, 1.9034904, 6.6101727, 0.52609766, -0.42917204, 9.751514
95032621070346, -7.4273214, 0.5024927, 6.0215383, -0.65492666, 0.61825275, 9.532333
95032630710399, -7.1162543, 1.9884356, 6.6915283, 0.5923302, -0.39639473, 9.943014
95032640350451, -7.3399835, 0.4127619, 6.01436, -0.74240446, 0.5822468, 9.451353
95032649990451, -7.300502, 1.820938, 6.6388865, 0.4556073, -0.20136642, 10.021967
95032659630451, -7.129415, 0.8578269, 6.3696938, -0.41205776, 0.09031868, 9.589551
95032669270503, -7.483553, 1.4476577, 6.602994, 0.10930264, 0.034533024, 10.083931
95032678910555, -7.0337024, 1.4189439, 6.587441, 0.060893536, -0.2519412, 9.7372265
95032688550555, -7.530213, 0.96789676, 6.259624, -0.24980402, 0.42089367, 9.82773
95032698190555, -6.936793, 1.9441684, 6.775277, 0.5145631, -0.5787873, 9.859182
95032707830607, -7.450053, 0.62093747, 6.2512493, -0.5890099, 0.4636197, 9.716228
95032717470659, -7.0612197, 2.097309, 6.862615, 0.654287, -0.5877452, 10.029032
95032727110659, -7.361519, 0.5180461, 6.1040907, -0.6642015, 0.5206857, 9.53981
95032736750711, -7.271788, 1.9345971, 6.6975107, 0.54232454, -0.289927, 10.054852
95032746390763, -7.1222367, 0.83748794, 6.3290157, -0.4243176, 0.12976408, 9.554434
95032756030763, -7.411768, 1.5038891, 6.599405, 0.16319704, -0.018936157, 10.035994
95032765670763, -7.0337024, 1.2669996, 6.530013, -0.062319398, -0.17601585, 9.679073
95032775310815, -7.5589266, 0.9056834, 6.265606, -0.315966, 0.443614, 9.844736
95032784950867, -6.984649, 1.747957, 6.7238317, 0.3609519, -0.45738697, 9.834181
95032794590867, -7.496713, 0.4977071, 6.212964, -0.6944535, 0.5216851, 9.710558
95032804230867, -7.0408807, 2.050649, 6.8805614, 0.62121844, -0.6013522, 10.018671
95032813870919, -7.3136625, 0.53240305, 6.0921264, -0.65273666, 0.4729371, 9.499336
95032823510971, -7.225128, 1.9872392, 6.674779, 0.6100359, -0.3071413, 10.011881
95032833150971, -7.164111, 0.80159557, 6.206982, -0.41079235, 0.23607588, 9.501009
95032842790971, -7.442875, 1.6295122, 6.48096, 0.3310882, 0.0429492, 9.997152
95032852431024, -7.0193453, 1.3172488, 6.378069, 0.032756448, -0.103648186, 9.57467
95032862071076, -7.503892, 1.0372887, 6.2117677, -0.16638267, 0.40251493, 9.786762
95032871711076, -6.975078, 1.747957, 6.6185474, 0.3849262, -0.41035938, 9.756828
95032881351128, -7.5230346, 0.55513483, 6.1447687, -0.6111502, 0.57542276, 9.693184
95032890991180, -7.0612197, 2.0063818, 6.897311, 0.5758847, -0.61088705, 10.037653
95032900631180, -7.335198, 0.43788654, 6.1914287, -0.7446728, 0.44475842, 9.569656
95032910271180, -7.23111, 1.9310079, 6.769295, 0.53928614, -0.37722683, 10.070152
95032919911232, -7.2323065, 0.65922266, 6.253642, -0.54340506, 0.26789904, 9.564612
95032929551284, -7.4380894, 1.6019948, 6.65444, 0.28473544, -0.093804836, 10.103626
95032939191284, -7.0372915, 1.1928221, 6.4797635, -0.08890629, -0.14665651, 9.638683
95032948831336, -7.509874, 1.1102697, 6.2919273, -0.10168123, 0.32311916, 9.854163
95032958471388, -6.971489, 1.7144574, 6.611369, 0.3793112, -0.39311314, 9.744372
95032968111388, -7.5314093, 0.6221339, 6.178268, -0.5501338, 0.52265835, 9.731617
95032977751440, -7.0528445, 2.0219352, 6.8985076, 0.6060653, -0.60823774, 10.034091
95032987391492, -7.396215, 0.46899325, 6.1794643, -0.70123106, 0.44880533, 9.613356
95032997031492, -7.223932, 2.0374885, 6.7429743, 0.6817559, -0.38373184, 10.059435
95033006671492, -7.225128, 0.6855437, 6.1770716, -0.49697232, 0.29438543, 9.512888
95033016311544, -7.408179, 1.6522441, 6.640083, 0.34545875, -0.11273289, 10.078178
95033025951596, -7.0672016, 1.0923235, 6.4462643, -0.17409909, -0.08847761, 9.6257305
95033035591596, -7.548159, 1.119841, 6.326623, -0.09705877, 0.31322384, 9.906935
95033045231649, -6.9655066, 1.6307086, 6.5659056, 0.31577182, -0.35554838, 9.698583
95033054871701, -7.5637126, 0.6329016, 6.142376, -0.52466017, 0.5572872, 9.734129
95033064511701, -7.004988, 1.989632, 6.836294, 0.5949943, -0.59728, 9.95252
95033074151753, -7.3698936, 0.53359944, 6.1184473, -0.62536883, 0.46982813, 9.561571
95033083791805, -7.112665, 2.0841484, 6.704689, 0.73077893, -0.4568081, 9.957098
95033093431805, -7.222735, 0.66161543, 6.145965, -0.50709987, 0.31489134, 9.488004
95033103071857, -7.3986077, 1.7383857, 6.6556363, 0.4167794, -0.16328955, 10.092497
95033112711909, -7.062416, 1.1162517, 6.430711, -0.14654565, -0.090323925, 9.614996
95033122351909, -7.4656067, 1.2610176, 6.4031935, 0.018152833, 0.16807508, 9.914522
95033131991961, -6.9619174, 1.5768701, 6.631708, 0.23904192, -0.40147877, 9.732218
95033141632013, -7.5696945, 0.6735796, 6.2309103, -0.49986744, 0.48668098, 9.802628
95033151272013, -7.064809, 1.9740787, 6.8614187, 0.56602144, -0.5838051, 10.0113125
95033160912065, -7.493124, 0.43669012, 6.1854467, -0.7275319, 0.52638483, 9.684574
95033170552117, -7.196414, 2.03031, 6.7465634, 0.66734505, -0.43138218, 10.039682
95033180192117, -7.2658057, 0.6017949, 6.026324, -0.55658376, 0.43006754, 9.432704
95033189832169, -7.3926253, 1.7551354, 6.512067, 0.46515322, -0.06598663, 9.995886
95033199472221, -7.129415, 0.96909314, 6.24766, -0.25532663, 0.10298252, 9.524976
95033209112221, -7.5062847, 1.2658032, 6.290731, 0.043682218, 0.26343822, 9.871602
95033218752274, -6.9451675, 1.5314065, 6.445068, 0.24008179, -0.27954912, 9.590813
95033228392326, -7.5230346, 0.7501499, 6.1471615, -0.4231478, 0.485713, 9.722725
95033238032326, -7.003792, 1.9669002, 6.8195443, 0.5803317, -0.60113335, 9.936288
95033247672378, -7.4548388, 0.5312066, 6.242874, -0.656312, 0.4285426, 9.706487
95033257312430, -7.119844, 2.1308086, 6.9020967, 0.7221341, -0.61893415, 10.097866
95033266952430, -7.26102, 0.60059845, 6.2380886, -0.5837033, 0.28776264, 9.569397
95033276592482, -7.381858, 1.8257236, 6.748956, 0.45984983, -0.27058697, 10.153267
95033286232534, -7.1377897, 0.91405827, 6.4055862, -0.34179866, 0.02823925, 9.627953
95033295872586, -7.487142, 1.2861422, 6.506085, 0.008366942, 0.10531855, 10.001472
95033305512638, -6.9678993, 1.3950156, 6.5371914, 0.07099843, -0.28956318, 9.651096
95033315152638, -7.55773, 0.73100734, 6.192625, -0.4397236, 0.507967, 9.775013
95033324792690, -7.0133634, 1.8580267, 6.7573314, 0.45792425, -0.52467966, 9.890202
95033334432742, -7.4823565, 0.4941179, 6.181857, -0.6642245, 0.5138278, 9.681939
95033344072742, -7.135397, 2.099702, 6.847062, 0.6792426, -0.5763302, 10.070322
95033353712794, -7.3196445, 0.613759, 6.056234, -0.54847443, 0.46069002, 9.493093
95033363352846, -7.351948, 2.0003998, 6.552745, 0.6654358, -0.18668461, 10.025644
95033372992899, -7.1222367, 1.0396814, 6.1806607, -0.19034433, 0.1466093, 9.484198
95033382632951, -7.4045897, 1.591227, 6.431907, 0.29182184, 0.035071373, 9.931915
95033392272951, -6.897311, 1.5840486, 6.5084777, 0.24696362, -0.35874557, 9.604828
95033401913003, -7.4943204, 0.96789676, 6.227321, -0.258062, 0.3789544, 9.781155
95033411553055, -7.088737, 1.5780666, 6.661618, 0.20252192, -0.33444357, 9.847069
95033421193055, -7.396215, 1.154537, 6.428318, -0.1307379, 0.12765121, 9.865437
95033430833107, -7.3292155, 1.2442678, 6.4845495, -0.061387777, 0.023284435, 9.864618
95033440473159, -7.3100734, 1.1772687, 6.468996, -0.12089801, 0.032749176, 9.8313465
95033450113211, -7.32443, 1.1521441, 6.4606214, -0.1411606, 0.05275488, 9.83319
95033459753263, -7.271788, 1.1952149, 6.4343, -0.09318578, 0.026394367, 9.782549
95033469393263, -7.2418776, 1.2442678, 6.3684974, -0.029305458, 0.04172516, 9.723587
95033479033315, -7.2083783, 1.3004991, 6.3696938, 0.024362683, 0.006873131, 9.706923
95033488673367, -7.24786, 1.3052847, 6.3541408, 0.0340122, 0.043741226, 9.726627
95033498313419, -7.281359, 1.3471591, 6.367301, 0.07211971, 0.049337864, 9.76565
95033507953471, -7.2789664, 1.3519448, 6.4199433, 0.06473327, 0.009049416, 9.799108
95033517593471, -7.27777, 1.3304094, 6.489335, 0.02802205, -0.037603855, 9.840998
95033527233524, -7.2753773, 1.3172488, 6.5551376, 0.0021879673, -0.08377504, 9.880743
95033536873576, -7.2705917, 1.3160524, 6.5647087, 3.746748E-4, -0.093159676, 9.883332
95033546513628, -7.288538, 1.2669996, 6.5682983, -0.04803908, -0.07411814, 9.892565
95033556153680, -7.3064837, 1.2454642, 6.491728, -0.049304366, -0.002345562, 9.852715
95033565793680, -7.3100734, 1.2466606, 6.40439, -0.02589178, 0.06229353, 9.798111
95033575433732, -7.2993054, 1.2311072, 6.3397837, -0.02479732, 0.103406906, 9.745617
95033585073784, -7.3028946, 1.2131611, 6.302695, -0.032102704, 0.13440895, 9.721568
95033594713836, -7.2957163, 1.2143575, 6.334998, -0.037554383, 0.101588726, 9.73769
95033604353888, -7.263413, 1.2502499, 6.346962, -0.0072050095, 0.06377649, 9.726259
95033613993940, -7.210771, 1.2598212, 6.3541408, -2.7537346E-5, 0.019057274, 9.693147
95033623633992, -7.210771, 1.2813566, 6.413961, 0.007372737, -0.028196812, 9.735252
95033633273992, -7.27777, 1.2669996, 6.4642105, -0.013633013, -0.01536274, 9.816151
95033642914044, -7.332805, 1.2263216, 6.4618177, -0.04720831, 0.03211403, 9.850163
95033652554096, -7.318448, 1.2406785, 6.495317, -0.04258871, -0.0045409203, 9.86338
95033662194149, -7.283752, 1.2717853, 6.5312095, -0.019065976, -0.061487675, 9.865243
95033671834201, -7.3028946, 1.2335001, 6.5204415, -0.050947666, -0.032388687, 9.867437
95033681474253, -7.3256264, 1.2107682, 6.495317, -0.06388855, 0.0048041344, 9.864878
95033691114305, -7.2933235, 1.1844472, 6.478567, -0.08613229, -3.671646E-4, 9.826492
95033700754305, -7.2873416, 1.2143575, 6.431907, -0.04611969, 0.022428036, 9.795244
95033710394357, -7.240681, 1.268196, 6.424729, 0.006865859, -0.016898632, 9.762817
95033720034409, -7.24786, 1.2442678, 6.4127645, -0.01286304, 9.636879E-4, 9.757206
95033729674461, -7.29452, 1.2335001, 6.4055862, -0.018896818, 0.038431644, 9.7857685
95033739314513, -7.3232336, 1.2047862, 6.422336, -0.049375653, 0.049371243, 9.814417
95033748954565, -7.308877, 1.2490535, 6.4498534, -0.013130903, 0.011456013, 9.827518
95033758594617, -7.3112698, 1.268196, 6.439086, 0.008665085, 0.013391972, 9.824692
95033768234669, -7.301698, 1.2514462, 6.407979, -0.0017026663, 0.03088522, 9.795007
95033777874721, -7.283752, 1.2861422, 6.3792653, 0.037379265, 0.032361507, 9.767282
95033787514774, -7.2646093, 1.302892, 6.385247, 0.05022466, 0.012228966, 9.75914
95033797154826, -7.245467, 1.2993027, 6.3361945, 0.056806922, 0.03584385, 9.712253
95033806794878, -7.268199, 1.3208381, 6.320641, 0.080338, 0.058022022, 9.72173
95033816434930, -7.2670026, 1.3172488, 6.375676, 0.064216375, 0.017333984, 9.7565
95033826074930, -7.304091, 1.2933207, 6.4331036, 0.030291319, 0.004442692, 9.818671
95033835714982, -7.353144, 1.2346965, 6.4797635, -0.03406346, 0.014351368, 9.878218
95033845355034, -7.3639116, 1.1904292, 6.541977, -0.08916545, -0.015252113, 9.921371
95033854995086, -7.335198, 1.1856437, 6.5551376, -0.09675193, -0.04314661, 9.908052
95033864635138, -7.301698, 1.2047862, 6.4965134, -0.065732, -0.027274609, 9.847128
95033874275190, -7.240681, 1.2777673, 6.465407, 0.009874821, -0.060249805, 9.790707
95033883915242, -7.2466636, 1.2550355, 6.3996043, 0.0016765594, -0.0034236908, 9.74906
95033893555294, -7.2562346, 1.2789637, 6.3338017, 0.040943623, 0.045163155, 9.71607
95033903195346, -7.2179494, 1.3316058, 6.3397837, 0.08606231, 0.0043315887, 9.69832
95033912835399, -7.2179494, 1.3651053, 6.3828545, 0.107965946, -0.034113884, 9.730895
95033922475451, -7.23111, 1.3447664, 6.4343, 0.074789524, -0.057493687, 9.7718315
95033932115503, -7.288538, 1.3339987, 6.48096, 0.057038426, -0.05037546, 9.843748
95033941755555, -7.347162, 1.2717853, 6.506085, -0.007029891, -0.016857147, 9.895809
95033951395607, -7.37109, 1.2023934, 6.4881387, -0.06840813, 0.023921967, 9.892897
95033961035659, -7.381858, 1.1629118, 6.4558353, -0.0971477, 0.05719328, 9.87468
95033970675711, -7.3495545, 1.1282159, 6.4259253, -0.12613297, 0.06118059, 9.826581
95033980315763, -7.3172517, 1.1365907, 6.3481584, -0.10262442, 0.092250824, 9.7526455
95033989955815, -7.2849483, 1.1653047, 6.3014984, -0.065135956, 0.099015236, 9.7017145
95033999595867, -7.253842, 1.1988041, 6.330212, -0.041575193, 0.04959154, 9.701688
95034009235919, -7.281359, 1.268196, 6.35773, 0.019724607, 0.033950806, 9.74914
95034018875971, -7.2562346, 1.3184453, 6.3828545, 0.0601722, -0.011779785, 9.753375
95034028516024, -7.263413, 1.3268201, 6.458228, 0.050734043, -0.06280708, 9.80917
95034038156076, -7.2705917, 1.3328022, 6.4534426, 0.05416715, -0.0569458, 9.812166
95034047796128, -7.281359, 1.3567305, 6.503692, 0.06307888, -0.09058857, 9.856203
95034057436180, -7.2753773, 1.3256238, 6.5491557, 0.018954039, -0.11927891, 9.877512
95034067076232, -7.2969127, 1.2813566, 6.5144596, -0.016595244, -0.07033205, 9.865079
95034076716284, -7.292127, 1.3782659, 6.452246, 0.09077084, -0.050428867, 9.8333845
95034086356336, -7.251449, 1.3423735, 6.413961, 0.061708808, -0.04451132, 9.773362
95034095996388, -7.32443, 1.3076776, 6.4055862, 0.03293419, 0.017119408, 9.817712
95034105636440, -7.3806615, 1.2227324, 6.38764, -0.043165326, 0.07976484, 9.836816
95034115276492, -7.322037, 1.1952149, 6.3361945, -0.060420632, 0.079283714, 9.755931
95034124916544, -7.2909307, 1.2323036, 6.2380886, -0.0025490522, 0.12145281, 9.6734295
95034134556596, -7.314859, 1.2574283, 6.2213387, 0.027418494, 0.14143991, 9.683624
95034144196649, -7.332805, 1.2311072, 6.2201424, 0.00271976, 0.15752554, 9.692833
95034153836701, -7.2933235, 1.253839, 6.235696, 0.020525336, 0.11363697, 9.676531
95034163476753, -7.268199, 1.2574283, 6.3110695, 0.004609108, 0.042145252, 9.707504
95034173116805, -7.2550383, 1.268196, 6.4175506, -0.010810375, -0.04485035, 9.7686615
95034182756857, -7.2765737, 1.2933207, 6.5048885, -0.0050988197, -0.0977149, 9.84506
95034192396961, -7.30768, 1.2634103, 6.556334, -0.043636918, -0.106151104, 9.898016
95034202037013, -7.3196445, 1.2993027, 6.5611196, -0.005124092, -0.10748625, 9.9147415
95034211677065, -7.2765737, 1.3411771, 6.539584, 0.039501786, -0.12966728, 9.8739605
95034221317117, -7.3112698, 1.3375878, 6.533602, 0.0399307, -0.09697294, 9.895492
95034230957169, -7.3543406, 1.3316058, 6.4606214, 0.052797675, -0.0128798485, 9.879078
95034240597221, -7.3543406, 1.2909278, 6.35773, 0.038114905, 0.06943464, 9.806492
95034250237274, -7.318448, 1.2777673, 6.314659, 0.031292558, 0.07756567, 9.749887
95034259877326, -7.2705917, 1.2801601, 6.300302, 0.034940243, 0.05550146, 9.705144
95034269517378, -7.2323065, 1.2514462, 6.352944, -0.0076589584, -0.0036325455, 9.707327
95034279157430, -7.2586274, 1.2143575, 6.4031935, -0.052896738, -0.015022278, 9.755009
95034288797482, -7.3340015, 1.154537, 6.4366927, -0.11344755, 0.022675514, 9.825384
95034298437534, -7.373483, 1.1964114, 6.448657, -0.07111251, 0.031133652, 9.868071
95034308077586, -7.2993054, 1.2646067, 6.4941206, -0.020074606, -0.06523514, 9.851295
95034317717690, -7.2765737, 1.288535, 6.474978, 0.008268595, -0.073069096, 9.824905
95034327357742, -7.3064837, 1.294517, 6.4414787, 0.024162173, -0.030140877, 9.826071
95034336997794, -7.322037, 1.2693924, 6.3589263, 0.01947248, 0.04755783, 9.780434
95034346637846, -7.298109, 1.3052847, 6.3385873, 0.056886435, 0.039694786, 9.753924
95034356277899, -7.2442703, 1.2837493, 6.317052, 0.038549542, 0.02421379, 9.696935
95034365917951, -7.2765737, 1.2705889, 6.303891, 0.028304458, 0.05953026, 9.710697
95034375558003, -7.3256264, 1.2203395, 6.3218374, -0.022345424, 0.0891366, 9.752499
