timestamp_acc,device_acc_x,device_acc_y,device_acc_z,earth_acc_x,earth_acc_y,earth_acc_z
1195747110506844, 6.1830535, 0.06580263, 7.8352976, -0.0013197064, -0.026387215, 9.981267
1195747120146948, 6.1974106, 0.059820566, 7.8352976, 0.007413745, -0.016390324, 9.990149
1195747129787052, 6.2081785, 0.06819545, 7.8317084, 0.0020397902, -0.0031723976, 9.994087
1195747139427156, 6.262017, 0.0741775, 7.8436728, 0.004781902, 0.034777164, 10.036949
1195747149067260, 6.273981, 0.09810573, 7.9070826, -0.024104536, 0.011042595, 10.094242
1195747158707260, 6.296713, 0.11964113, 7.945368, -0.045803964, 0.010400772, 10.138519
1195747168347364, 6.279963, 0.14117654, 7.9513497, -0.07042968, -0.0013699532, 10.132959
1195747177987469, 6.24766, 0.12562318, 7.9310107, -0.057535052, -0.017511845, 10.096849
1195747187627573, 6.2548385, 0.101694964, 7.908279, -0.026899219, -0.0054745674, 10.083325
1195747197267677, 6.2512493, 0.09810573, 7.893922, -0.022288442, -4.2533875E-4, 10.069819
1195747206907781, 6.2775702, 0.07058827, 7.8723865, 0.012551129, 0.027385235, 10.069083
1195747216547885, 6.265606, 0.039481573, 7.874779, 0.041799426, 0.010481834, 10.063282
1195747226187989, 6.2548385, 0.040677983, 7.8580294, 0.040356994, 0.011834621, 10.043481
1195747235828094, 6.24766, 0.0047856453, 7.8496547, 0.0714134, 0.0026659966, 10.032211
1195747245468198, 6.2416778, 0.02751746, 7.844869, 0.045493722, 0.005662918, 10.024927
1195747255108302, 6.2261243, 0.025124637, 7.8053875, 0.04693091, 0.017158508, 9.984329
1195747264748302, 6.2380886, 0.021535404, 7.7910304, 0.05372733, 0.034630775, 9.980495
1195747274388406, 6.2177496, 0.021535404, 7.800602, 0.04303032, 0.011025429, 9.975385
1195747284028510, 6.2117677, 0.04426722, 7.792227, 0.020673513, 0.015807152, 9.965246
1195747293668614, 6.245267, 0.06819545, 7.8089767, -0.0029616356, 0.035056114, 9.999342
1195747303308719, 6.2512493, 0.09092726, 7.8352976, -0.029942095, 0.028964996, 10.023798
1195747312948823, 6.2488565, 0.08973085, 7.8664045, -0.032299936, 0.007836819, 10.046664
1195747322588927, 6.2321067, 0.09092726, 7.87119, -0.035351157, -0.005794525, 10.040009
1195747332229031, 6.2141604, 0.12562318, 7.8400836, -0.06261557, 0.009706974, 10.004724
1195747341869135, 6.204589, 0.13758731, 7.7826557, -0.06976551, 0.03891754, 9.953855
1195747351509135, 6.227321, 0.148355, 7.756335, -0.06933105, 0.07632589, 9.947443
1195747361149239, 6.2440705, 0.14117654, 7.756335, -0.055092335, 0.090548515, 9.957805
1195747370789344, 6.2512493, 0.11964113, 7.810173, -0.03194821, 0.064581394, 10.004302
1195747380429448, 6.273981, 0.1160519, 7.873583, -0.031303465, 0.04279518, 10.068108
1195747390069552, 6.2775702, 0.09451649, 7.9573317, -0.011848211, -0.0029139519, 10.135867
1195747399709656, 6.3074803, 0.104087785, 8.01117, -0.02236861, -0.011288643, 10.196733
1195747409349760, 6.3110695, 0.096909314, 8.049456, -0.011500239, -0.024161816, 10.228979
1195747418989864, 6.3050876, 0.08733802, 8.082955, -0.0054545403, -0.050774097, 10.251504
1195747428629969, 6.2919273, 0.061016977, 8.063812, 0.022071421, -0.050669193, 10.228102
1195747438269969, 6.2584276, 0.050249275, 8.021938, 0.034070373, -0.051104546, 10.174389
1195747447910073, 6.262017, 0.058624156, 7.9968133, 0.028696895, -0.031490326, 10.156943
1195747457550177, 6.239285, 0.058624156, 7.966903, 0.029777229, -0.03112936, 10.119379
1195747467190281, 6.2440705, 0.059820566, 7.9238324, 0.03293985, -0.0010318756, 10.0885105
1195747476830385, 6.2321067, 0.09212367, 7.8903327, 0.003999591, 0.015366077, 10.055085
1195747486470489, 6.2261243, 0.13399807, 7.8867435, -0.03362608, 0.016618252, 10.048976
1195747496110594, 6.218946, 0.11365908, 7.8604226, -0.008654058, 0.022828579, 10.023664
1195747505750698, 6.186643, 0.10767702, 7.861619, -0.0073025823, -0.0038795471, 10.004556
1195747515390802, 6.1710896, 0.0849452, 7.8759756, 0.01456809, -0.029411793, 10.005973
1195747525030906, 6.2117677, 0.07537391, 7.797013, 0.044477582, 0.048314095, 9.968993
1195747534670906, 6.1591253, 0.06699903, 7.7096744, 0.05713439, 0.057271957, 9.867718
1195747544311010, 6.1591253, 0.058624156, 7.7072816, 0.06874943, 0.054908276, 9.865733
1195747553951114, 6.1531434, 0.03589234, 7.7814593, 0.08538383, 6.1655045E-4, 9.919994
1195747563591219, 6.168697, 0.059820566, 7.836494, 0.058657527, -0.016409874, 9.973129
1195747573231323, 6.1842504, 0.09212367, 7.893922, 0.025543988, -0.030742168, 10.028253
1195747582871427, 6.1842504, 0.09930214, 7.9501534, 0.015322089, -0.060396194, 10.07253
1195747592511531, 6.192625, 0.09571291, 8.023134, 0.015375018, -0.09693384, 10.13503
1195747602151635, 6.1902323, 0.12562318, 8.024331, -0.009552836, -0.091017246, 10.134905
1195747611791739, 6.2141604, 0.14596218, 7.9346, -0.016882598, -0.014050484, 10.079409
1195747621431739, 6.2009997, 0.15553348, 7.881958, -0.020331264, 0.010881424, 10.030022
1195747631071844, 6.256035, 0.18544376, 7.926225, -0.04486847, 0.02994442, 10.099235
1195747640711948, 6.253642, 0.18065812, 7.9908314, -0.045246005, -0.015906334, 10.148484
1195747650352052, 6.296713, 0.19860429, 7.969296, -0.05392289, 0.034244537, 10.158427
1195747659992156, 6.3014984, 0.21894327, 7.9633136, -0.06624293, 0.048066616, 10.156992
1195747669632260, 6.2751775, 0.19501504, 7.952546, -0.045720875, 0.02982521, 10.131926
1195747679272364, 6.2548385, 0.15672988, 7.9597244, -0.0042176247, 6.084442E-4, 10.124464
1195747688912469, 6.2237315, 0.12562318, 7.9166536, 0.026011229, -0.0024108887, 10.070915
1195747698552573, 6.204589, 0.106480606, 7.946564, 0.04226488, -0.041196346, 10.082294
1195747708192573, 6.189036, 0.10289137, 7.921439, 0.04600489, -0.038268566, 10.05288
1195747717832677, 6.1591253, 0.11724831, 7.8891363, 0.029404938, -0.040398598, 10.009224
1195747727472781, 6.1328044, 0.101694964, 7.8556366, 0.041074574, -0.0447402, 9.966393
1195747737112885, 6.1304116, 0.12921242, 7.8352976, 0.015280902, -0.029729843, 9.949343
1195747746752989, 6.178268, 0.1902294, 7.82453, -0.040455163, 0.022463322, 9.971376
1195747756393094, 6.198607, 0.20697916, 7.82453, -0.054335415, 0.040400505, 9.9842005
1195747766033198, 6.2344995, 0.22731815, 7.8556366, -0.07149804, 0.05244255, 10.031143
1195747775673302, 6.279963, 0.2105684, 7.8592257, -0.047741055, 0.083096504, 10.061834
1195747785313406, 6.29432, 0.2105684, 7.8699937, -0.044329166, 0.08702564, 10.079189
1195747794953406, 6.265606, 0.17826529, 7.899904, -0.020373106, 0.040537834, 10.084444
1195747804593510, 6.2404814, 0.09930214, 7.9106717, 0.05236596, -9.975433E-4, 10.076182
1195747814233614, 6.2201424, 0.07776674, 7.8903327, 0.070738316, -0.00881958, 10.047314
1195747823873719, 6.2105713, 0.11365908, 7.87119, 0.03599477, 0.0022234917, 10.026887
1195747833513823, 6.2057858, 0.14356937, 7.884351, 0.002557516, -0.0041861534, 10.034707
1195747843153927, 6.196214, 0.1471586, 7.885547, -0.0040689707, -0.013206005, 10.029776
1195747852794031, 6.227321, 0.13519448, 7.8293157, 0.017003179, 0.04125786, 10.004699
1195747862434135, 6.236892, 0.1363909, 7.8113694, 0.01889652, 0.05986786, 9.996549
1195747872074135, 6.224928, 0.15074782, 7.8029947, 0.0037810206, 0.05762577, 9.982777
1195747881714239, 6.2201424, 0.1268196, 7.830512, 0.024018824, 0.032595634, 10.001078
1195747891354344, 6.245267, 0.15074782, 7.8628154, 0.0014243722, 0.03663683, 10.042341
1195747900994448, 6.227321, 0.15314065, 7.9154572, -0.008800745, -0.007548332, 10.072602
1195747910634552, 6.224928, 0.17467605, 7.9573317, -0.03438753, -0.02829361, 10.104325
1195747920274656, 6.2117677, 0.17108682, 7.969296, -0.033513784, -0.0445199, 10.105539
1195747929914760, 6.218946, 0.18065812, 7.9226356, -0.038029313, -0.007824421, 10.07346
1195747939554864, 6.189036, 0.18305093, 7.9369926, -0.0457443, -0.039179802, 10.066276
1195747949194864, 6.239285, 0.19980069, 7.9226356, -0.05427581, 0.011007786, 10.086311
1195747958834969, 6.2608204, 0.20578274, 7.914261, -0.056340754, 0.033440113, 10.09314
1195747968475073, 6.239285, 0.1794617, 7.8891363, -0.031456113, 0.027581215, 10.059703
1195747978115177, 6.2321067, 0.17826529, 7.884351, -0.030047476, 0.024114609, 10.051489
1195747987755281, 6.2033925, 0.16271193, 7.8317084, -0.012962043, 0.030957699, 9.99215
1195747997395385, 6.1902323, 0.14117654, 7.786245, 0.012337863, 0.04426956, 9.947986
1195748007035489, 6.206982, 0.15672988, 7.773084, 0.00593704, 0.06656551, 9.948245
1195748016675489, 6.202196, 0.13878371, 7.813762, 0.022357643, 0.03578186, 9.9769535
1195748026315594, 6.1914287, 0.1160519, 7.899904, 0.03623134, -0.028934002, 10.037609
1195748035955698, 6.2081785, 0.13040884, 7.978867, 0.019640028, -0.060759544, 10.1102295
1195748045595802, 6.2081785, 0.13878371, 7.9884386, 0.013345778, -0.06115246, 10.117904
1195748055235906, 6.2237315, 0.124426775, 7.978867, 0.030346632, -0.045432568, 10.119765
1195748064876010, 6.245267, 0.13519448, 7.899904, 0.03026253, 0.024012089, 10.071178
1195748074516114, 6.2081785, 0.148355, 7.8963146, 0.012404144, -3.3855438E-4, 10.0456505
1195748084156114, 6.1902323, 0.16271193, 7.8687973, -0.0039670467, 0.0042967796, 10.013161
1195748093796219, 6.2141604, 0.15792629, 7.820941, 0.008192718, 0.05130005, 9.990253
1195748103436323, 6.236892, 0.15553348, 7.856833, 0.007368982, 0.045204163, 10.032484
1195748113076427, 6.2524457, 0.14117654, 7.895118, 0.018855989, 0.031245708, 10.071968
1195748122716531, 6.2991056, 0.12323037, 7.928618, 0.0381217, 0.04428196, 10.126869
1195748132356635, 6.3050876, 0.12323037, 7.966903, 0.035838723, 0.025147915, 10.160657
1195748141996635, 6.2524457, 0.12323037, 7.960921, 0.023065269, -0.013159275, 10.12343
1195748151636739, 6.283552, 0.29671, 7.9908314, -0.1496675, 0.024110794, 10.168652
1195748161276844, 6.1196437, -0.02871387, 7.891529, 0.1513614, -0.10604906, 9.984634
1195748170916948, 6.259624, 0.09332009, 7.9477606, 0.042443454, -0.008319378, 10.117145
1195748180557052, 6.262017, 0.38285163, 7.9429746, -0.23912185, 0.059220314, 10.118774
1195748190197156, 6.1842504, -0.3074777, 7.8233337, 0.4316529, -0.08236456, 9.967493
1195748199837260, 6.375676, 0.6963114, 8.120044, -0.55996513, 0.1089797, 10.331689
1195748209477260, 6.1005015, -0.55034924, 7.7108707, 0.66034985, -0.15530491, 9.824273
1195748219117364, 6.3696938, 0.80518484, 8.133204, -0.6620243, 0.114168644, 10.340165
1195748228757469, 6.026324, -0.43070808, 7.732406, 0.5272816, -0.18750572, 9.796887
1195748238397573, 6.2787666, 0.5838487, 8.10808, -0.4739306, -0.0010414124, 10.260612
1195748248037677, 6.029913, -0.1052842, 7.7419777, 0.200189, -0.118330956, 9.8109665
1195748257677781, 6.151947, 0.16869399, 7.8089767, -0.047115147, -0.009794712, 9.942471
1195748267317781, 6.0933228, 0.33738798, 7.7551384, -0.22014076, 0.009707928, 9.865903
1195748276957885, 6.0526447, -0.28953153, 7.5900335, 0.40375835, -0.053895473, 9.703661
1195748286597989, 6.242874, 0.6903293, 7.9034934, -0.55736506, 0.10816002, 10.07933
1195748296238094, 6.084948, -0.52163535, 7.6067834, 0.62516695, -0.09501743, 9.734578
1195748305878198, 6.4498534, 0.80518484, 8.07458, -0.6681491, 0.19433117, 10.34232
1195748315518198, 6.1878395, -0.47138608, 7.6666036, 0.5945134, -0.02552414, 9.84552
1195748325158302, 6.509674, 0.6161518, 8.04108, -0.4725368, 0.20544672, 10.35128
1195748334798406, 6.2081785, -0.14596218, 7.726424, 0.27144736, 0.010852337, 9.908916
1195748344438510, 6.3481584, 0.17587246, 7.847262, -0.03392446, 0.11152363, 10.094355
1195748354078614, 6.2679987, 0.25962126, 7.752745, -0.12286943, 0.12208176, 9.971473
1195748363718614, 6.212964, -0.27996024, 7.6869426, 0.41033965, 0.018299103, 9.879255
1195748373358719, 6.37089, 0.64008003, 7.995617, -0.5029058, 0.11540079, 10.230426
1195748382998823, 6.1328044, -0.5479564, 7.7120676, 0.653385, -0.107020855, 9.846276
1195748392638927, 6.4402823, 0.7860422, 8.193025, -0.65349096, 0.066082, 10.430214
1195748402279031, 6.10768, -0.52522457, 7.8436728, 0.6119722, -0.20275831, 9.934143
1195748411919031, 6.439086, 0.63888365, 8.249256, -0.5123195, 0.019661427, 10.471742
1195748421559135, 6.1447687, -0.20219351, 7.879565, 0.2989651, -0.13356733, 9.988962
1195748431199239, 6.3565335, 0.25004998, 8.01117, -0.12089479, 0.032111168, 10.228941
1195748440839344, 6.2512493, 0.27996024, 7.8723865, -0.15166336, 0.041702747, 10.05516
1195748450479448, 6.2177496, -0.148355, 7.7503524, 0.27889377, -6.1273575E-4, 9.933409
1195748460119448, 6.2871413, 0.6628119, 7.9393854, -0.52468234, 0.102454185, 10.134868
1195748469759552, 6.0418773, -0.47856453, 7.60798, 0.5845623, -0.14225292, 9.708384
1195748479399656, 6.317052, 0.80757767, 7.9860454, -0.6566812, 0.12130213, 10.192563
1195748489039760, 6.000003, -0.53599226, 7.54457, 0.644879, -0.14118671, 9.631825
1195748498679864, 6.3804617, 0.6771688, 7.969296, -0.5201251, 0.16207457, 10.216738
1195748508319864, 6.1196437, -0.2536392, 7.6462646, 0.38025987, -0.051175117, 9.78941
1195748517959969, 6.350551, 0.30987054, 7.9106717, -0.15397942, 0.08579588, 10.147571
1195748527600073, 6.2033925, 0.16869399, 7.877172, -0.03968513, -0.033622265, 10.027845
1195748537240177, 6.239285, -0.18544376, 7.8460655, 0.31880504, -0.05820322, 10.020918
1195748546880281, 6.3218374, 0.5694918, 8.012366, -0.42869407, 0.063447, 10.212747
1195748556520281, 6.1184473, -0.5204389, 7.658229, 0.6526923, -0.11198616, 9.793682
1195748566160385, 6.3960147, 0.76570326, 7.9944205, -0.6022138, 0.18322039, 10.247431
1195748575800489, 6.064609, -0.5706882, 7.5529447, 0.69666976, -0.09637213, 9.677681
1195748585440594, 6.391229, 0.7190432, 8.032705, -0.55250424, 0.13631725, 10.2745
1195748595080594, 6.084948, -0.26679972, 7.704889, 0.39597398, -0.106315136, 9.813001
1195748604720698, 6.3421764, 0.40438703, 8.005188, -0.25661004, 0.05274868, 10.217688
1195748614360802, 6.204589, 0.17706887, 7.8891363, -0.044395566, -0.033339977, 10.038111
1195748624000906, 6.270392, -0.039481573, 7.9094753, 0.18052053, -0.036548615, 10.09184
1195748633641010, 6.375676, 0.5946164, 8.051848, -0.43898606, 0.07886076, 10.277945
1195748643281010, 6.1842504, -0.44506502, 7.749156, 0.57959807, -0.08397722, 9.907042
1195748652921114, 6.448657, 0.81236327, 8.04467, -0.6474078, 0.18010616, 10.320379
1195748662561219, 6.1124654, -0.54436713, 7.5816584, 0.68948925, -0.06303978, 9.729377
1195748672201323, 6.4175506, 0.73579293, 7.993224, -0.5603778, 0.17370653, 10.260302
1195748681841323, 6.094519, -0.3684947, 7.63789, 0.5030495, -0.08754158, 9.765018
1195748691481427, 6.306284, 0.38165522, 7.9190464, -0.23547542, 0.05978203, 10.127544
1195748701121531, 6.1399827, 0.07298109, 7.737192, 0.05960548, -0.01988554, 9.877495
1195748710761635, 6.2177496, -0.07537391, 7.7874413, 0.21638209, -0.023209095, 9.963081
1195748720401635, 6.2524457, 0.5024927, 7.952546, -0.36162478, 0.027328014, 10.122107
1195748730041739, 6.1244297, -0.4103691, 7.7180495, 0.5341497, -0.11343908, 9.846174
1195748739681844, 6.373283, 0.8243274, 8.092526, -0.6786826, 0.109451294, 10.3109
1195748749321948, 6.084948, -0.50129634, 7.6809607, 0.6298545, -0.1288929, 9.790899
1195748758961948, 6.445068, 0.8243274, 8.116454, -0.66933984, 0.14938164, 10.374243
1195748768602052, 6.145965, -0.29072794, 7.7096744, 0.41682923, -0.072007656, 9.854824
1195748778242156, 6.4175506, 0.5407779, 7.9776707, -0.3736127, 0.13815165, 10.245094
1195748787882260, 6.224928, 0.07537391, 7.722835, 0.07601172, 0.063660145, 9.919061
1195748797522260, 6.282356, 0.009571291, 7.7623167, 0.15388167, 0.06794119, 9.984655
1195748807162364, 6.2787666, 0.46301118, 7.853244, -0.30182678, 0.09481478, 10.060349
1195748816802469, 6.087341, -0.41515473, 7.6737823, 0.5587335, -0.09659386, 9.787415
1195748826442573, 6.2979093, 0.74895346, 8.068598, -0.59582, 0.017197132, 10.2455635
1195748836082573, 5.98086, -0.5766702, 7.706085, 0.7058042, -0.21385002, 9.7438755
1195748845722677, 6.337391, 0.78723866, 8.16431, -0.63257664, -0.023180008, 10.345896
1195748855362781, 6.0370917, -0.3924229, 7.7886376, 0.527548, -0.17740822, 9.846501
1195748865002885, 6.3541408, 0.55752766, 8.122437, -0.40705305, 0.005523205, 10.319603
1195748874642885, 6.1627145, 0.041874398, 7.838887, 0.1085878, -0.045169353, 9.970714
1195748884282989, 6.3014984, 0.1363909, 7.832905, 0.03425002, 0.0796566, 10.053574
1195748893923094, 6.29432, 0.49651068, 7.8197446, -0.3186051, 0.14671755, 10.044419
1195748903563094, 6.157929, -0.3385844, 7.5924263, 0.50479686, 0.028118134, 9.768524
1195748913203198, 6.344569, 0.77647096, 7.9166536, -0.58533365, 0.18284845, 10.156467
1195748922843302, 6.009574, -0.5096712, 7.5613194, 0.6638247, -0.109622, 9.648607
1195748932483406, 6.3661046, 0.84825563, 8.050652, -0.65958494, 0.14398813, 10.2763815
1195748942123406, 6.058627, -0.39960137, 7.739585, 0.53187424, -0.1657114, 9.821276
1195748951763510, 6.3996043, 0.613759, 8.139186, -0.43778157, 0.081917286, 10.362414
1195748961403614, 6.218946, -0.025124637, 7.8831544, 0.19412744, -0.036650658, 10.038975
1195748971043719, 6.410372, 0.13758731, 7.958528, 0.0608207, 0.09483862, 10.219457
1195748980683719, 6.398408, 0.3804588, 7.9034934, -0.17123061, 0.17474985, 10.172991
1195748990323823, 6.253642, -0.35653058, 7.7276206, 0.54716855, 0.010468483, 9.932361
1195748999963927, 6.3589263, 0.6939186, 8.01117, -0.49488443, 0.13800049, 10.238769
1195749009603927, 6.0323057, -0.5694918, 7.6271224, 0.71956074, -0.13891459, 9.71334
1195749019244031, 6.2871413, 0.80518484, 8.01117, -0.6178407, 0.10065842, 10.196248
1195749028884135, 5.9042897, -0.4989035, 7.6139617, 0.6347441, -0.21287489, 9.624643
1195749038524135, 6.2644095, 0.58983076, 8.014759, -0.41399878, 0.04616928, 10.18104
1195749048164239, 6.0215383, -0.13399807, 7.804191, 0.27467555, -0.14751291, 9.853175
1195749057804344, 6.2775702, 0.17826529, 8.029117, -0.016450286, -0.031282425, 10.193387
1195749067444448, 6.2811594, 0.3505485, 8.019546, -0.18914229, 0.015886784, 10.190826
1195749077084448, 6.245267, -0.23808585, 7.948957, 0.39121884, -0.073726654, 10.103836
1195749086724552, 6.384051, 0.7501499, 8.243274, -0.5894347, 0.018699646, 10.4366
1195749096364656, 6.0957155, -0.42592242, 7.850851, 0.5574527, -0.1511178, 9.931841
1195749106004656, 6.3696938, 0.91405827, 8.239685, -0.75312823, 0.041353226, 10.4274645
1195749115644760, 6.0107703, -0.41635114, 7.77787, 0.5376433, -0.17771435, 9.822287
1195749125284864, 6.3457656, 0.7118647, 8.161918, -0.5624824, 0.043671608, 10.347662
1195749134924969, 6.0825553, -0.10289137, 7.813762, 0.24286538, -0.09095478, 9.899278
1195749144564969, 6.2416778, 0.26919255, 7.9920278, -0.12526166, -0.018445492, 10.143347
1195749154205073, 6.174679, 0.31585258, 7.8927255, -0.1713376, -0.0011792183, 10.024578
1195749163845177, 6.1435723, -0.20338993, 7.7874413, 0.34400558, -0.07667303, 9.914882
1195749173485177, 6.2548385, 0.67118675, 8.012366, -0.5225649, 0.06964111, 10.17318
1195749183125281, 5.99761, -0.52283174, 7.623533, 0.642787, -0.1613369, 9.691425
1195749192765385, 6.296713, 0.7716853, 7.9968133, -0.61366135, 0.1282587, 10.188233
1195749202405385, 5.994021, -0.5563313, 7.5792656, 0.6860396, -0.15305996, 9.653444
1195749212045489, 6.330212, 0.6149554, 7.995617, -0.4570319, 0.12482929, 10.205646
1195749221685594, 6.0729837, -0.30269206, 7.68455, 0.42430007, -0.11022949, 9.789428
1195749231325698, 6.320641, 0.23569304, 7.9633136, -0.09050965, 0.04819107, 10.169067
1195749240965698, 6.2237315, 0.21415763, 7.8699937, -0.07565665, 0.026103973, 10.035492
1195749250605802, 6.262017, -0.1591227, 7.836494, 0.2971388, -0.013742924, 10.027979
1195749260245906, 6.3601227, 0.6520442, 8.086544, -0.50816524, 0.093307495, 10.295707
1195749269885906, 6.155536, -0.46061835, 7.7276206, 0.5841849, -0.097177505, 9.872599
1195749279526010, 6.411568, 0.86141616, 8.072187, -0.7145476, 0.18219662, 10.31827
1195749289166114, 6.058627, -0.4989035, 7.5900335, 0.62384915, -0.07958031, 9.704068
1195749298806114, 6.3792653, 0.75493556, 7.999206, -0.599718, 0.1630683, 10.24041
1195749308446219, 6.084948, -0.22372891, 7.6223364, 0.34518528, -0.023498535, 9.749715
1195749318086323, 6.3326054, 0.37567315, 7.920243, -0.22694683, 0.10072756, 10.144537
1195749327726323, 6.229714, 0.17467605, 7.780263, -0.03391373, 0.074408054, 9.968233
1195749337366427, 6.2512493, -0.124426775, 7.8604226, 0.2606647, -0.010839939, 10.040506
1195749347006531, 6.3385873, 0.58983076, 8.082955, -0.4529631, 0.0454731, 10.278741
1195749356646531, 6.1268225, -0.48095736, 7.7826557, 0.6087195, -0.12060213, 9.897167
1195749366286635, 6.3864436, 0.79800636, 8.190632, -0.6609972, 0.06793928, 10.395595
1195749375926739, 6.0622163, -0.5802595, 7.7001033, 0.70234215, -0.15965271, 9.790812
1195749385566739, 6.4008007, 0.7190432, 8.13799, -0.561875, 0.10330582, 10.362808
1195749395206844, 6.050252, -0.3062813, 7.7144604, 0.4231711, -0.1077528, 9.79906
1195749404846948, 6.3014984, 0.4031906, 7.993224, -0.25853425, 0.05342865, 10.182996
1195749414487052, 6.134001, 0.101694964, 7.795816, 0.034918964, -0.021215439, 9.920151
1195749424127052, 6.2057858, -0.07298109, 7.8017983, 0.21808189, -0.0043001175, 9.966824
1195749433767156, 6.2787666, 0.5180461, 7.9513497, -0.36594117, 0.07745218, 10.137816
1195749443407260, 6.084948, -0.47377887, 7.6749787, 0.6039974, -0.084891796, 9.786946
1195749453047260, 6.3744793, 0.7728817, 8.039884, -0.6208663, 0.12693119, 10.2698345
1195749462687364, 6.068198, -0.552742, 7.6462646, 0.691099, -0.08677435, 9.752373
1195749472327469, 6.4199433, 0.7704889, 8.16431, -0.61055535, 0.0967021, 10.396304
1195749481967469, 6.09093, -0.34097722, 7.830512, 0.46757948, -0.14758778, 9.914243
1195749491607573, 6.378069, 0.485743, 8.182257, -0.33973435, -5.259514E-4, 10.380252
1195749501247677, 6.1734824, 0.111266255, 7.928618, 0.016402304, -0.06573582, 10.049013
1195749510887677, 6.2117677, 0.034695927, 7.8963146, 0.106567204, -0.03206253, 10.0462265
1195749520527781, 6.2057858, 0.55034924, 7.9393854, -0.40447515, 0.029376984, 10.083851
1195749530167885, 6.07418, -0.3792624, 7.6390862, 0.5184664, -0.062763214, 9.753071
1195749539807885, 6.343373, 0.8147561, 7.958528, -0.63402724, 0.18223333, 10.188482
1195749549447989, 6.0490556, -0.5383851, 7.5230346, 0.69390875, -0.05003977, 9.643288
1195749559088094, 6.428318, 0.7800602, 8.003992, -0.5882946, 0.20952988, 10.276463
1195749568728094, 6.0550375, -0.39840496, 7.655836, 0.53791004, -0.103931904, 9.75366
1195749578368198, 6.3421764, 0.47258246, 8.056634, -0.32208556, 0.05996895, 10.259073
1195749588008302, 6.1160545, -0.03708875, 7.895118, 0.1542142, -0.1265912, 9.985019
1195749597648302, 6.2213387, -0.025124637, 7.9680996, 0.15419364, -0.087025166, 10.107668
1195749607288406, 6.233303, 0.40797627, 8.008778, -0.2838331, 0.006726265, 10.152852
1195749616928510, 6.1399827, -0.4354937, 7.68455, 0.5631716, -0.060546875, 9.829574
1195749626568510, 6.326623, 0.72263247, 7.946564, -0.57781845, 0.17954397, 10.165143
1195749636208614, 6.038288, -0.55513483, 7.5182486, 0.6753858, -0.06861496, 9.634953
1195749645848719, 6.3924255, 0.8003992, 8.035098, -0.6501232, 0.18170977, 10.276714
1195749655488719, 6.0897336, -0.39840496, 7.6773715, 0.50586015, -0.08172464, 9.794031
1195749665128823, 6.411568, 0.54436713, 8.146365, -0.4173233, 0.07803154, 10.372442
1195749674768927, 6.166304, -0.03589234, 7.925029, 0.13273054, -0.08908272, 10.040175
1195749684408927, 6.3110695, 0.1052842, 8.037491, 0.0044157505, -0.019408703, 10.219665
1195749694049031, 6.273981, 0.3912265, 8.0817585, -0.28901392, -0.018843174, 10.234589
1195749703689135, 6.1842504, -0.36251262, 7.856833, 0.46056825, -0.094873905, 9.994252
1195749713329135, 6.3972116, 0.7178468, 8.154739, -0.59479797, 0.08428526, 10.372006
1195749722969239, 6.0921264, -0.54317075, 7.6737823, 0.6538476, -0.08257723, 9.790896
1195749732609344, 6.40439, 0.7728817, 8.103293, -0.63956964, 0.12476635, 10.33694
1195749742249448, 6.029913, -0.4761717, 7.658229, 0.58208156, -0.11486673, 9.740792
1195749751889448, 6.364908, 0.5587241, 8.10449, -0.43227214, 0.051855087, 10.311033
1195749761529552, 6.09093, -0.10887343, 7.8089767, 0.21333617, -0.094142914, 9.901365
1195749771169656, 6.2584276, 0.11724831, 7.9836526, -0.0017543435, -0.029511929, 10.144924
1195749780809656, 6.206982, 0.32183465, 7.9573317, -0.20972764, -0.015017986, 10.094807
1195749790449760, 6.142376, -0.30867413, 7.8257265, 0.41941327, -0.10445213, 9.943804
1195749800089864, 6.326623, 0.69272214, 8.073383, -0.5605724, 0.08323765, 10.264714
1195749809729864, 6.094519, -0.5599205, 7.6343007, 0.6837512, -0.0792017, 9.760401
1195749819369969, 6.4091754, 0.7788638, 8.014759, -0.6312773, 0.1943798, 10.270552
1195749829010073, 6.050252, -0.5192425, 7.5720873, 0.64227265, -0.082585335, 9.684645
1195749838650073, 6.3481584, 0.6161518, 8.024331, -0.47157496, 0.10608053, 10.238897
1195749848290177, 6.088537, -0.1698904, 7.7240314, 0.28969765, -0.06100321, 9.8322
1195749857930281, 6.273981, 0.20937198, 7.9334035, -0.08039683, 0.022064686, 10.116254
1195749867570281, 6.2105713, 0.3182454, 7.90469, -0.19188452, 0.007911205, 10.05583
1195749877210385, 6.151947, -0.23808585, 7.8664045, 0.3577112, -0.1048727, 9.982211
1195749886850489, 6.3326054, 0.7070791, 8.129615, -0.5790543, 0.027828217, 10.312924
1195749896490489, 6.068198, -0.5192425, 7.763513, 0.64003825, -0.14983225, 9.845438
1195749906130594, 6.378069, 0.8386843, 8.117651, -0.6900676, 0.089654446, 10.334175
1195749915770698, 6.0490556, -0.49172506, 7.618747, 0.6144325, -0.06625223, 9.72092
1195749925410698, 6.352944, 0.68075806, 8.030313, -0.533457, 0.11257458, 10.247537
1195749935050802, 6.1005015, -0.1902294, 7.702496, 0.32476807, -0.05108261, 9.82205
1195749944690906, 6.330212, 0.22731815, 7.9537425, -0.07506168, 0.05419779, 10.167433
1195749954330906, 6.2404814, 0.21655045, 7.9501534, -0.08473641, -0.013384342, 10.108812
1195749963971010, 6.224928, -0.24047868, 7.8987074, 0.36601758, -0.08557272, 10.052653
1195749973611114, 6.3338017, 0.5946164, 8.112865, -0.45724344, 0.037179947, 10.299454
1195749983251114, 6.068198, -0.5623133, 7.7300134, 0.66976017, -0.15749884, 9.819316
1195749992891219, 6.3457656, 0.7609176, 8.117651, -0.6320688, 0.08825016, 10.311969
1195750002531323, 6.0083776, -0.5479564, 7.6426754, 0.6447279, -0.16704416, 9.714308
1195750012171427, 6.367301, 0.6867401, 8.04108, -0.5486584, 0.1304841, 10.264262
1195750021811427, 6.0957155, -0.2213361, 7.648658, 0.34875017, -0.028253555, 9.776825
1195750031451531, 6.3182483, 0.33020952, 7.91785, -0.19092047, 0.08818102, 10.132986
1195750041091635, 6.2524457, 0.22492532, 7.847262, -0.08917695, 0.061697483, 10.035509
1195750050731635, 6.262017, -0.124426775, 7.8077803, 0.2633561, 0.01863575, 10.006002
1195750060371739, 6.300302, 0.6161518, 8.029117, -0.48274553, 0.08082008, 10.212767
1195750070011844, 6.0753765, -0.5024927, 7.7001033, 0.61719793, -0.14584208, 9.800616
1195750079651844, 6.352944, 0.75254273, 8.065009, -0.60307884, 0.11954069, 10.275827
1195750089291948, 5.989235, -0.60059845, 7.6343007, 0.70791674, -0.17891598, 9.694384
1195750098932052, 6.3134627, 0.654437, 8.060223, -0.5279743, 0.08118677, 10.245484
1195750108572052, 6.0191455, -0.31106696, 7.716853, 0.4023137, -0.15739584, 9.782129
1195750118212156, 6.290731, 0.37686956, 8.021938, -0.25140858, 0.01782608, 10.1982
1195750127852260, 6.1770716, 0.14356937, 7.8496547, -0.030889392, -0.009898663, 9.989636
1195750137492364, 6.245267, -0.08135597, 7.9130645, 0.1950612, -0.041396618, 10.079028
1195750147132364, 6.381658, 0.59700924, 8.10449, -0.47174728, 0.09534788, 10.321487
1195750156772469, 6.2285175, -0.4139583, 7.8376904, 0.52128553, -0.080566406, 10.005846
1195750166412573, 6.524031, 0.7908279, 8.140383, -0.63259786, 0.22331476, 10.440507
1195750176052573, 6.142376, -0.5407779, 7.62114, 0.65480024, -0.021791458, 9.781296
1195750185692677, 6.410372, 0.7573284, 8.030313, -0.63036364, 0.16069508, 10.28247
1195750195332781, 6.0394845, -0.32063824, 7.631908, 0.4245906, -0.07991123, 9.728182
1195750204972781, 6.2679987, 0.37208393, 7.9573317, -0.25582737, 0.024137974, 10.1330805
1195750214612885, 6.0933228, 0.041874398, 7.7994056, 0.05250925, -0.07041359, 9.897139
1195750224252989, 6.1698933, -0.09571291, 7.8723865, 0.19698441, -0.0756073, 10.000336
1195750233893094, 6.256035, 0.44626144, 8.01117, -0.33869147, 0.004389763, 10.168641
1195750243533094, 6.1196437, -0.51206404, 7.776674, 0.6025846, -0.14235401, 9.8896675
1195750253173198, 6.4091754, 0.7322037, 8.147561, -0.60657, 0.095953465, 10.373972
1195750262813302, 6.0957155, -0.5599205, 7.716853, 0.6480704, -0.13363361, 9.827677
1195750272453302, 6.4091754, 0.7788638, 8.195417, -0.66776574, 0.10105181, 10.411192
1195750282093406, 6.0933228, -0.35294133, 7.737192, 0.43930554, -0.11233044, 9.844375
1195750291733510, 6.375676, 0.4833502, 8.060223, -0.36526215, 0.07808018, 10.281565
1195750301373510, 6.1675005, 0.013160525, 7.752745, 0.09641814, 0.008629799, 9.906258
1195750311013614, 6.285945, 0.02871387, 7.8029947, 0.10290223, 0.06728363, 10.0192585
1195750320653719, 6.317052, 0.465404, 7.8723865, -0.32916427, 0.13468075, 10.098005
1195750330293823, 6.142376, -0.424726, 7.7443705, 0.527805, -0.103319645, 9.879029
1195750339933823, 6.355337, 0.7286145, 8.118847, -0.6013725, 0.0779438, 10.318388
1195750349573927, 6.0574307, -0.56590253, 7.7312098, 0.6536141, -0.17837, 9.814545
1195750359214031, 6.391229, 0.75972116, 8.209774, -0.6368227, 0.043573856, 10.4123955
1195750368854031, 6.0837517, -0.44147578, 7.7814593, 0.53639257, -0.17220211, 9.871203
1195750378494135, 6.350551, 0.4869394, 8.136793, -0.37708616, 0.0185709, 10.32625
1195750388134239, 6.1651077, -0.041874398, 7.7790666, 0.15137643, -0.02334404, 9.924753
1195750397774344, 6.270392, 0.016749758, 7.773084, 0.118949294, 0.06663132, 9.986009
1195750407414344, 6.2715883, 0.36490545, 7.7671022, -0.2257865, 0.14368439, 9.986102
1195750417054448, 6.1471615, -0.43788654, 7.641479, 0.5577612, -0.04328966, 9.800948
1195750426694552, 6.3720865, 0.66400826, 7.982456, -0.53148687, 0.1595869, 10.220375
1195750436334552, 6.067002, -0.61016977, 7.6606216, 0.7039808, -0.16610909, 9.764361
1195750445974656, 6.4031935, 0.7692925, 8.176275, -0.6586993, 0.090994835, 10.392402
1195750455614760, 6.0622163, -0.43429732, 7.783852, 0.5147407, -0.19593191, 9.8602295
1195750465254864, 6.373283, 0.5599205, 8.1738825, -0.45660853, 0.036374092, 10.369898
1195750474894864, 6.1184473, -0.06460621, 7.8400836, 0.14940476, -0.101398945, 9.943535
1195750484534969, 6.303891, 0.13160525, 7.9561353, -0.018999279, 0.012775421, 10.151646
1195750494175073, 6.2979093, 0.37567315, 7.9070826, -0.25226265, 0.09051943, 10.112117
1195750503815177, 6.2117677, -0.3290131, 7.7706914, 0.43673915, -0.046757698, 9.944094
1195750513455177, 6.378069, 0.70588267, 8.056634, -0.5776937, 0.12223387, 10.282933
1195750523095281, 6.108876, -0.56470615, 7.631908, 0.6623256, -0.08930969, 9.769168
1195750532735385, 6.3828545, 0.7573284, 8.078169, -0.62935984, 0.116755486, 10.303469
1195750542375385, 6.053841, -0.5072784, 7.6510506, 0.60345894, -0.13474512, 9.750004
1195750552015489, 6.343373, 0.54317075, 8.085348, -0.43642503, 0.040542603, 10.28174
1195750561655594, 6.1196437, -0.16630118, 7.8029947, 0.26280034, -0.0971632, 9.913925
1195750571295698, 6.306284, 0.12083755, 7.982456, -0.013329327, -0.0056767464, 10.173654
1195750580935698, 6.2715883, 0.2955136, 7.9884386, -0.19085318, 0.002161026, 10.158685
1195750590575802, 6.233303, -0.27756742, 7.84128, 0.37963384, -0.05949831, 10.013447
1195750600215906, 6.361319, 0.6999006, 8.103293, -0.5843044, 0.0746212, 10.308863
1195750609856010, 6.1028943, -0.51445687, 7.6941214, 0.60041267, -0.13047981, 9.814886
1195750619496010, 6.4271216, 0.8386843, 8.042277, -0.7021156, 0.17971706, 10.303604
1195750629136114, 6.07418, -0.45702913, 7.587641, 0.5541774, -0.06848097, 9.714168
1195750638776219, 6.398408, 0.6376872, 7.9908314, -0.49909103, 0.15357018, 10.243387
1195750648416323, 6.113662, -0.1902294, 7.6594253, 0.29609054, -0.029716015, 9.797515
1195750658056323, 6.29432, 0.20458634, 7.880761, -0.08048612, 0.050919533, 10.0875
1195750667696427, 6.222535, 0.2416751, 7.813762, -0.119735956, 0.046308994, 9.990833
1195750677336531, 6.1806607, -0.30269206, 7.8113694, 0.40805006, -0.09835148, 9.956581
1195750686976635, 6.289534, 0.60658056, 8.129615, -0.49676883, -0.022716045, 10.28443
1195750696616635, 6.0514483, -0.5922236, 7.804191, 0.66300523, -0.26009226, 9.867571
1195750706256739, 6.3696938, 0.78723866, 8.22772, -0.68044275, 0.043447495, 10.412648
1195750715896844, 6.02752, -0.5383851, 7.751549, 0.6233998, -0.22421741, 9.811649
1195750725536948, 6.378069, 0.6855437, 8.118847, -0.5556229, 0.08087826, 10.331998
1195750735176948, 6.131608, -0.17228323, 7.706085, 0.28086305, -0.03741789, 9.845291
1195750744817052, 6.375676, 0.30149564, 7.905886, -0.16008437, 0.12792921, 10.158798
1195750754457156, 6.2811594, 0.25722843, 7.7850485, -0.11520904, 0.11995888, 10.004921
1195750764097260, 6.3074803, -0.19142582, 7.8089767, 0.3258534, 0.028124332, 10.034646
1195750773737260, 6.3972116, 0.57427746, 8.05783, -0.447465, 0.09773302, 10.294317
1195750783377364, 6.1304116, -0.54436713, 7.7587276, 0.64099056, -0.14083624, 9.881571
1195750793017469, 6.3864436, 0.7286145, 8.116454, -0.6024375, 0.07205391, 10.335678
1195750802657573, 6.0155563, -0.5766702, 7.688139, 0.6630157, -0.19711494, 9.75441
1195750812297677, 6.3601227, 0.65682983, 8.063812, -0.5454897, 0.08097172, 10.276359
1195750821937677, 6.0550375, -0.3074777, 7.670193, 0.3964972, -0.099580765, 9.768457
1195750831577781, 6.306284, 0.29192436, 7.9477606, -0.17386651, 0.041315556, 10.14837
1195750841217885, 6.186643, 0.13878371, 7.752745, -0.02498275, 0.035030365, 9.919529
1195750850857989, 6.24766, -0.12203395, 7.771888, 0.23952389, 0.012734413, 9.969597
1195750860497989, 6.3326054, 0.58983076, 7.941778, -0.46607566, 0.12963581, 10.16305
1195750870138094, 6.13759, -0.46301118, 7.713264, 0.5651676, -0.106300354, 9.851301
1195750879778198, 6.431907, 0.83389866, 8.105687, -0.6981867, 0.16036558, 10.356341
1195750889418302, 6.1064835, -0.51086766, 7.6869426, 0.6120998, -0.12537289, 9.810649
1195750899058302, 6.4295144, 0.73459655, 8.148758, -0.6052868, 0.10686302, 10.387626
1195750908698406, 6.105287, -0.31345975, 7.7790666, 0.39954102, -0.13360786, 9.884794
1195750918338510, 6.3385873, 0.38524446, 8.068598, -0.27613014, 0.0072407722, 10.264115
1195750927978614, 6.2081785, 0.0741775, 7.816155, 0.04111713, 9.379387E-4, 9.981863
1195750937618719, 6.2380886, -0.124426775, 7.804191, 0.24245185, -0.0063176155, 9.988785
1195750947258719, 6.3122663, 0.49172506, 7.9477606, -0.3648137, 0.08707476, 10.154444
1195750956898823, 6.166304, -0.485743, 7.737192, 0.5946027, -0.09284735, 9.887428
1195750966538927, 6.428318, 0.7262217, 8.094919, -0.603432, 0.12663984, 10.343994
1195750976179031, 6.1100726, -0.5886344, 7.6797643, 0.6921086, -0.11712456, 9.806402
1195750985819135, 6.4594245, 0.70348984, 8.141579, -0.5853272, 0.11564922, 10.399441
1195750995459135, 6.111269, -0.4019942, 7.773084, 0.48625964, -0.13734102, 9.883053
1195751005099239, 6.381658, 0.40797627, 8.075776, -0.3010611, 0.038021088, 10.296509
1195751014739344, 6.1854467, 0.02632105, 7.806584, 0.07653862, -0.020224094, 9.959765
1195751024379448, 6.2512493, -0.025124637, 7.8376904, 0.1336664, 0.0038371086, 10.024483
1195751034019448, 6.282356, 0.4881358, 7.8927255, -0.37754554, 0.07965374, 10.092199
1195751043659552, 6.1160545, -0.40677986, 7.68455, 0.50176233, -0.07081127, 9.816677
1195751053299656, 6.367301, 0.75613195, 8.002795, -0.63447374, 0.116827965, 10.234392
1195751062939760, 6.0430737, -0.57906306, 7.628319, 0.6610521, -0.14405775, 9.725614
1195751072579864, 6.3996043, 0.74416786, 8.100901, -0.6212102, 0.10218334, 10.331358
1195751082219969, 6.0777693, -0.37686956, 7.7407813, 0.4646712, -0.1496501, 9.8368025
1195751091859969, 6.3864436, 0.5084748, 8.141579, -0.39666623, 0.028303623, 10.352407
1195751101500073, 6.202196, 0.04546363, 7.881958, 0.04787159, -0.049013138, 10.02945
1195751111140177, 6.3278193, 0.076570325, 7.925029, 0.041821837, 0.02840662, 10.141533
1195751120780281, 6.3481584, 0.47856453, 7.908279, -0.34564656, 0.13963509, 10.145445
1195751130420385, 6.2464633, -0.046660043, 7.751549, 0.16770804, 0.04427147, 9.953738
1195751140060385, 6.2979093, 0.15792629, 7.8496547, -0.03148645, 0.06329489, 10.064825
1195751149700489, 6.283552, 0.022731815, 7.881958, 0.091585994, 0.002559185, 10.079703
1195751159340594, 6.3134627, 0.08255238, 7.9477606, 0.029132247, 0.0014276505, 10.150502
1195751168980698, 6.2847486, 0.020338992, 7.969296, 0.08285475, -0.045960903, 10.148852
1195751178620802, 6.2081785, -0.020338992, 7.9477606, 0.112609684, -0.099252224, 10.08396
1195751188260802, 6.157929, -0.0071784677, 7.954939, 0.09107828, -0.13965416, 10.058499
1195751197900906, 6.135197, 0.03708875, 7.9238324, 0.044653416, -0.12781572, 10.020521
1195751207541010, 6.155536, 0.0741775, 7.9298143, 0.010311246, -0.10934305, 10.038228
1195751217181114, 6.224928, 0.12083755, 7.8783684, -0.025528073, -0.013924122, 10.041521
1195751226821219, 6.270392, 0.15553348, 7.8424764, -0.050596535, 0.04820633, 10.041989
1195751236461323, 6.3158555, 0.19501504, 7.8400836, -0.0885998, 0.08715439, 10.068739
1195751246101323, 6.3110695, 0.2117648, 7.8149586, -0.102683306, 0.10235262, 10.046243
1195751255741427, 6.296713, 0.21415763, 7.813762, -0.10796517, 0.089832306, 10.036414
1195751265381531, 6.2608204, 0.18783657, 7.864012, -0.09070438, 0.022718906, 10.053214
1195751275021635, 6.263213, 0.16151553, 7.8891363, -0.06464338, 0.0053272247, 10.074135
1195751284661739, 6.2775702, 0.12323037, 7.867601, -0.022852123, 0.023958683, 10.06584
1195751294301844, 6.250053, 0.076570325, 7.8460655, 0.02672261, 0.0074338913, 10.031401
1195751303941844, 6.2057858, 0.051445685, 7.830512, 0.04862702, -0.022057056, 9.991422
1195751313581948, 6.1770716, 0.015553347, 7.8628154, 0.07657701, -0.070417404, 9.998475
1195751323222052, 6.1938214, 0.02751746, 7.9094753, 0.06357354, -0.08341026, 10.045545
1195751332862156, 6.2105713, 0.050249275, 7.928618, 0.04137218, -0.075853825, 10.071209
1195751342502260, 6.24766, 0.05503492, 7.9716887, 0.03749937, -0.069420815, 10.128075
1195751352142364, 6.3086767, 0.043070808, 8.001599, 0.055033922, -0.03967476, 10.18932
1195751361782469, 6.323034, 0.07178468, 8.018349, 0.024965465, -0.033343792, 10.211664
1195751371422469, 6.343373, 0.08255238, 7.958528, 0.02287823, 0.021143436, 10.177544
1195751381062573, 6.3457656, 0.09930214, 7.853244, 0.01717472, 0.08829117, 10.096729
1195751390702677, 6.3338017, 0.12562318, 7.7994056, -0.004730165, 0.113527775, 10.0474205
1195751400342781, 6.289534, 0.12921242, 7.763513, -0.012892425, 0.09460878, 9.991894
1195751409982885, 6.2464633, 0.12083755, 7.7706914, -0.013597667, 0.05335331, 9.9706335
1195751419622989, 6.233303, 0.10289137, 7.826923, -0.005543947, 0.005227089, 10.006264
1195751429263094, 6.2464633, 0.08973085, 7.867601, 7.944107E-4, -0.01386261, 10.04616
1195751438903094, 6.2344995, 0.06819545, 7.9011, 0.012589097, -0.049044132, 10.0647135
1195751448543198, 6.257231, 0.05383851, 7.881958, 0.032603025, -0.027694225, 10.06376
1195751458183302, 6.233303, 0.076570325, 7.932207, -0.0044178963, -0.06764984, 10.088373
1195751467823406, 6.270392, 0.10887343, 7.9310107, -0.023443341, -0.028079033, 10.110848
1195751477463510, 6.263213, 0.14117654, 7.897511, -0.04754424, -0.0035395622, 10.080486
1195751487103614, 6.253642, 0.14955142, 7.9022965, -0.05656588, -0.013477325, 10.078359
1195751496743719, 6.245267, 0.14476576, 7.8867435, -0.049485683, -0.0129032135, 10.060936
1195751506383719, 6.257231, 0.13399807, 7.853244, -0.03005433, 0.011965275, 10.042076
1195751516023823, 6.2668023, 0.106480606, 7.8317084, 0.0028729439, 0.02468872, 10.030912
1195751525663927, 6.2117677, 0.09212367, 7.8496547, 0.005824566, -0.031809807, 10.010524
1195751535304031, 6.2464633, 0.09571291, 7.8556366, 0.0071745515, -0.008199215, 10.036852
1195751544944135, 6.273981, 0.11246266, 7.897511, -0.008669198, -0.007832527, 10.0869255
1195751554584239, 6.2751775, 0.11485548, 7.885547, -0.009723783, 8.497238E-4, 10.078335
1195751564224344, 6.270392, 0.101694964, 7.9106717, 1.0025501E-4, -0.019744873, 10.094873
1195751573864448, 6.263213, 0.096909314, 7.9310107, 0.0011870861, -0.039640427, 10.106266
1195751583504448, 6.2883377, 0.13160525, 7.954939, -0.031935334, -0.02848816, 10.140993
1195751593144552, 6.29432, 0.1268196, 7.914261, -0.020754755, 0.0013079643, 10.112846
1195751602784656, 6.290731, 0.08853444, 7.861619, 0.021935761, 0.023705482, 10.069018
1195751612424760, 6.3014984, 0.069391854, 7.8089767, 0.048283994, 0.06143093, 10.0343275
1195751622064864, 6.2787666, 0.07537391, 7.7910304, 0.040546894, 0.051730156, 10.00622
1195751631704969, 6.2811594, 0.051445685, 7.795816, 0.0641098, 0.046081543, 10.0112
1195751641345073, 6.273981, 0.061016977, 7.8293157, 0.04865259, 0.019806385, 10.033045
1195751650985177, 6.2679987, 0.096909314, 7.8484583, 0.008479416, 0.008803844, 10.044666
1195751660625177, 6.2775702, 0.101694964, 7.8592257, 0.0027107596, 0.010293961, 10.059101
1195751670265281, 6.259624, 0.11246266, 7.897511, -0.015020728, -0.02449274, 10.077965
1195751679905385, 6.227321, 0.09332009, 7.893922, -6.3347816E-4, -0.05006218, 10.054837
1195751689545489, 6.2117677, 0.096909314, 7.891529, -0.005619526, -0.058813572, 10.043315
1195751699185594, 6.2285175, 0.12323037, 7.847262, -0.02259463, -0.011710644, 10.019405
1195751708825698, 6.2404814, 0.1268196, 7.806584, -0.020673037, 0.022958279, 9.995074
1195751718465802, 6.2608204, 0.14596218, 7.8317084, -0.037940204, 0.027706623, 10.027594
1195751728105906, 6.283552, 0.15672988, 7.850851, -0.04710114, 0.035472393, 10.056838
1195751737746010, 6.3254266, 0.1363909, 7.8687973, -0.024539411, 0.053847313, 10.096738
1195751747386010, 6.3110695, 0.11485548, 7.908279, -0.008547008, 0.015119076, 10.118467
1195751757026114, 6.2787666, 0.11844472, 7.921439, -0.019085169, -0.018238544, 10.108682
1195751766666219, 6.270392, 0.08015956, 7.897511, 0.019725978, -0.016143322, 10.084357
1195751776306323, 6.2608204, 0.06699903, 7.8891363, 0.03172654, -0.018899918, 10.071716
1195751785946427, 6.250053, 0.069391854, 7.9513497, 0.021617413, -0.06500864, 10.113716
1195751795586531, 6.265606, 0.07776674, 7.9513497, 0.014273226, -0.05124998, 10.123487
1195751805226635, 6.283552, 0.11724831, 7.9310107, -0.02342707, -0.016876698, 10.119134
1195751814866739, 6.2715883, 0.11006984, 7.90469, -0.015366733, -0.011209488, 10.091021
1195751824506844, 6.2404814, 0.12083755, 7.874779, -0.030154228, -0.016585827, 10.048344
1195751834146948, 6.215357, 0.11365908, 7.850851, -0.024623632, -0.023054123, 10.013906
1195751843787052, 6.2117677, 0.12921242, 7.800602, -0.034606814, 0.008191586, 9.9725065
1195751853427156, 6.2380886, 0.09810573, 7.84128, -0.0021033287, -0.0035324097, 10.02043
1195751863067156, 6.265606, 0.10289137, 7.8352976, -2.5045872E-4, 0.023525715, 10.032932
1195751872707260, 6.320641, 0.0849452, 7.834101, 0.027421534, 0.06397915, 10.066083
1195751882347364, 6.364908, 0.09451649, 7.8556366, 0.022264898, 0.08586788, 10.110596
1195751891987469, 6.3421764, 0.07298109, 7.8699937, 0.03795153, 0.055719376, 10.107462
1195751901627573, 6.3158555, 0.06699903, 7.8699937, 0.038856566, 0.03129196, 10.091028
1195751911267677, 6.2847486, 0.07776674, 7.884351, 0.022006392, 1.7166138E-5, 10.082988
1195751920907781, 6.2464633, 0.06699903, 7.826923, 0.033320248, 0.0043058395, 10.014111
1195751930547885, 6.212964, 0.062213387, 7.818548, 0.033935905, -0.016664982, 9.986645
1195751940187989, 6.15434, 0.05623133, 7.7850485, 0.034489036, -0.0426116, 9.9238615
1195751949828094, 6.114858, 0.096909314, 7.8017983, -0.014281809, -0.07504463, 9.912775
1195751959468198, 6.1268225, 0.12801601, 7.8903327, -0.057164192, -0.10855055, 9.989827
1195751969108198, 6.1854467, 0.106480606, 7.966903, -0.036601305, -0.10978651, 10.086092
1195751978748302, 6.2751775, 0.14356937, 8.019546, -0.06517053, -0.06632948, 10.183464
1195751988388406, 6.361319, 0.14237295, 8.056634, -0.056229293, -0.019334793, 10.266084
1195751998028510, 6.418747, 0.12562318, 8.017152, -0.02843237, 0.04732895, 10.270724
1195752007668614, 6.411568, 0.1363909, 7.9657063, -0.035127938, 0.074546814, 10.226069
1195752017308719, 6.401997, 0.12323037, 7.85444, -0.015007615, 0.12543106, 10.132967
1195752026948823, 6.309873, 0.09092726, 7.776674, 0.011152029, 0.09181881, 10.014534
1195752036588927, 6.235696, 0.07776674, 7.7204423, 0.019149184, 0.06386137, 9.924251
1195752046229031, 6.204589, 0.04546363, 7.716853, 0.04693228, 0.035431385, 9.901787
1195752055869135, 6.186643, 0.020338992, 7.7790666, 0.06283659, -0.021160126, 9.939036
1195752065509239, 6.224928, -0.016749758, 7.8257265, 0.09945798, -0.02503395, 9.999075
1195752075149344, 6.2584276, 0.0059820567, 7.8963146, 0.0729422, -0.038484573, 10.075364
1195752084789448, 6.2775702, 0.015553347, 7.946564, 0.061546147, -0.05223131, 10.126674
1195752094429552, 6.2871413, 0.05503492, 7.96451, 0.021897733, -0.04792452, 10.147011
1195752104069656, 6.2644095, 0.07776674, 7.91785, 3.6346912E-4, -0.032586575, 10.09654
