timestamp_acc,device_acc_x,device_acc_y,device_acc_z,earth_acc_x,earth_acc_y,earth_acc_z
1195613196881889, 5.5250273, -0.7716853, 8.384451, 0.038538158, 0.016645432, 10.070684
1195613206521785, 5.483153, -0.7585248, 8.380861, 0.026022613, -0.01550293, 10.0438175
1195613216161576, 5.4484572, -0.7477571, 8.380861, 0.014638364, -0.04377508, 10.024049
1195613225801472, 5.444868, -0.77647096, 8.390432, 0.042392075, -0.053952694, 10.032156
1195613235441368, 5.460421, -0.7896315, 8.390432, 0.05715573, -0.04087448, 10.041622
1195613245081160, 5.4640107, -0.7501499, 8.402397, 0.013653159, -0.040991306, 10.050699
1195613254721056, 5.4520464, -0.7082755, 8.435896, -0.032435417, -0.064617634, 10.06904
1195613264360951, 5.473582, -0.67118675, 8.3784685, -0.064083934, -0.012433052, 10.030208
1195613274000743, 5.477171, -0.66400826, 8.379665, -0.07347429, -0.010959625, 10.032627
1195613283640639, 5.521438, -0.67118675, 8.384451, -0.066287875, 0.019055367, 10.061363
1195613293280431, 5.541777, -0.6723832, 8.301898, -0.055859923, 0.07839441, 10.00378
1195613302920326, 5.541777, -0.6580262, 8.299505, -0.06998336, 0.08123112, 10.0007305
1195613312560222, 5.576473, -0.66999036, 8.313862, -0.05911845, 0.10064602, 10.032578
1195613322200014, 5.5716877, -0.6975078, 8.3174515, -0.03188336, 0.09477568, 10.03495
1195613331839910, 5.548956, -0.7692925, 8.267202, 0.043127596, 0.09490967, 9.985916
1195613341479806, 5.5429735, -0.76570326, 8.285149, 0.036750197, 0.083221436, 9.997313
1195613351119597, 5.5465627, -0.7848458, 8.330612, 0.050791264, 0.05931568, 10.038593
1195613360759493, 5.535795, -0.7956135, 8.390432, 0.054173112, 0.016273975, 10.083363
1195613370399389, 5.511867, -0.76570326, 8.471788, 0.012826681, -0.04300642, 10.135886
1195613380039181, 5.5106707, -0.7692925, 8.451449, 0.019569397, -0.025514603, 10.118562
1195613389679076, 5.511867, -0.77766734, 8.523234, 0.019414783, -0.062249184, 10.179722
1195613399318868, 5.5274205, -0.7896315, 8.566305, 0.025853515, -0.07321739, 10.22504
1195613408958764, 5.511867, -0.80757767, 8.539984, 0.04562819, -0.07430887, 10.1959095
1195613418598660, 5.483153, -0.8063812, 8.4682, 0.04986894, -0.05837059, 10.120264
1195613428238451, 5.4891353, -0.83389866, 8.383254, 0.074799895, -0.008595943, 10.054814
1195613437878347, 5.447261, -0.82313097, 8.34138, 0.067715526, -0.018468857, 9.996195
1195613447518243, 5.447261, -0.7908279, 8.347362, 0.016226828, -0.023311138, 9.998783
1195613457158035, 5.419743, -0.7956135, 8.267202, 0.023124695, -0.005821228, 9.917292
1195613466797931, 5.4149575, -0.7968099, 8.195417, 0.02870506, 0.026607037, 9.854949
1195613476437722, 5.447261, -0.7573284, 8.237292, -0.015601158, 0.032227993, 9.904439
1195613486077618, 5.4616175, -0.7692925, 8.298309, -0.00813663, 0.010688305, 9.964078
1195613495717514, 5.4891353, -0.80757767, 8.311469, 0.033333123, 0.027082443, 9.993072
1195613505357306, 5.5130634, -0.8255238, 8.312666, 0.051734388, 0.044909954, 10.008551
1195613514997201, 5.5202417, -0.7848458, 8.368897, 0.009946525, 0.028469563, 10.056171
1195613524637097, 5.49751, -0.7477571, 8.502895, -0.038616896, -0.057019234, 10.152649
1195613534276889, 5.4963136, -0.7298109, 8.475378, -0.047647715, -0.040997505, 10.127693
1195613543916785, 5.4580283, -0.7298109, 8.571091, -0.04930973, -0.12317419, 10.186692
1195613553556681, 5.4783673, -0.73579293, 8.525627, -0.038634896, -0.08170843, 10.160317
1195613563196472, 5.487939, -0.72023964, 8.507681, -0.049210846, -0.06387186, 10.149403
1195613572836368, 5.521438, -0.74416786, 8.457432, -0.018918812, -0.010715485, 10.127575
1195613582476264, 5.562116, -0.7429714, 8.432307, -0.026073575, 0.03883457, 10.12871
1195613592116056, 5.5477595, -0.78364944, 8.385647, 0.01203233, 0.049488068, 10.085051
1195613601755951, 5.54417, -0.8171489, 8.287541, 0.05848968, 0.095059395, 10.00382
1195613611395847, 5.4999027, -0.82672024, 8.268398, 0.058411837, 0.06409931, 9.964501
1195613621035639, 5.487939, -0.76689965, 8.240881, 0.0019755363, 0.0761981, 9.930353
1195613630675535, 5.4628143, -0.7704889, 8.228917, 0.0039776564, 0.059153557, 9.906946
1195613640315326, 5.4640107, -0.782453, 8.300702, 0.0075945854, 0.018967628, 9.968395
1195613649955222, 5.49751, -0.7728817, 8.38804, -0.008505523, 8.788109E-4, 10.058782
1195613659595118, 5.5190454, -0.7692925, 8.413164, -0.006688416, 0.008760929, 10.091227
1195613669234910, 5.5070815, -0.7680961, 8.368897, -8.267164E-5, 0.0245924, 10.047674
1195613678874806, 5.5262237, -0.762114, 8.390432, -0.0073352456, 0.030621052, 10.07563
1195613688514701, 5.5022955, -0.77766734, 8.38804, 0.0076993704, 0.010804653, 10.061762
1195613698154493, 5.471189, -0.80997044, 8.361719, 0.040950775, -0.0022683144, 10.0253
1195613707794389, 5.474778, -0.83748794, 8.355737, 0.06613225, 0.0034766197, 10.024397
1195613717434285, 5.4628143, -0.81236327, 8.361719, 0.03670895, -0.008125782, 10.020939
1195613727074076, 5.48076, -0.80997044, 8.32463, 0.035271883, 0.027306557, 9.999613
1195613736713972, 5.460421, -0.80159557, 8.280363, 0.030259848, 0.035785675, 9.950928
1195613746353764, 5.4723854, -0.8255238, 8.3174515, 0.05044985, 0.025063992, 9.990261
1195613755993660, 5.471189, -0.7908279, 8.394022, 0.008101702, -0.0145020485, 10.050803
1195613765633556, 5.45085, -0.7788638, 8.423932, -0.004542887, -0.047718525, 10.063733
1195613775273347, 5.4640107, -0.7788638, 8.407183, -0.002595663, -0.027625084, 10.056938
1195613784913243, 5.460421, -0.72382885, 8.366505, -0.050381303, -0.0034098625, 10.016785
1195613794553139, 5.456832, -0.7082755, 8.379665, -0.06417817, -0.010715961, 10.02463
1195613804192931, 5.4520464, -0.7178468, 8.416754, -0.05425787, -0.034358025, 10.053741
1195613813832826, 5.4687963, -0.7322037, 8.385647, -0.025987148, -1.9788742E-4, 10.03804
1195613823472722, 5.4927244, -0.73340017, 8.392825, -0.020176709, 0.017303467, 10.057173
1195613833112514, 5.51426, -0.7477571, 8.377272, -1.0573864E-4, 0.04380703, 10.056987
1195613842752410, 5.5477595, -0.71425754, 8.463413, -0.04110211, 0.026957512, 10.144691
1195613852392201, 5.5537415, -0.6831509, 8.529217, -0.07520139, -0.0015950203, 10.200619
1195613862032097, 5.552545, -0.68075806, 8.53161, -0.07496387, -0.0033369064, 10.201811
1195613871671993, 5.5405807, -0.66759753, 8.488539, -0.07881111, 0.0130262375, 10.158377
1195613881311785, 5.535795, -0.6472585, 8.451449, -0.09533942, 0.03111267, 10.123284
1195613890951681, 5.5226345, -0.6329016, 8.4012, -0.104095995, 0.047219276, 10.07309
1195613900591576, 5.535795, -0.6376872, 8.342576, -0.092087805, 0.090970516, 10.031625
1195613910231368, 5.5262237, -0.7106683, 8.2660055, -0.01653874, 0.12140322, 9.96775
1195613919871264, 5.5046883, -0.7692925, 8.23131, 0.0458799, 0.11680031, 9.93137
1195613929511056, 5.505885, -0.79441714, 8.285149, 0.059381545, 0.0869298, 9.978902
1195613939150951, 5.503492, -0.78364944, 8.30788, 0.034614205, 0.07025576, 9.995864
1195613948790847, 5.447261, -0.8063812, 8.304291, 0.05269605, 0.021767616, 9.963981
1195613958430639, 5.419743, -0.8255238, 8.321041, 0.068507314, -0.01217556, 9.964437
1195613968070535, 5.3994045, -0.8422736, 8.333005, 0.08227694, -0.035749435, 9.964634
1195613977710431, 5.3539405, -0.83748794, 8.338987, 0.07567984, -0.07338905, 9.944529
1195613987350222, 5.3611193, -0.8542377, 8.386844, 0.088234484, -0.09048414, 9.98972
1195613996990118, 5.367101, -0.84825563, 8.437093, 0.08154625, -0.10121822, 10.034589
1195614006629910, 5.3994045, -0.80877405, 8.500503, 0.03953612, -0.1003871, 10.102206
1195614016269806, 5.3994045, -0.82672024, 8.52802, 0.062049985, -0.11245012, 10.126581
1195614025909701, 5.4233327, -0.79441714, 8.538788, 0.029165566, -0.09609413, 10.146154
1195614035549493, 5.428118, -0.7190432, 8.529217, -0.039474905, -0.0811553, 10.135132
1195614045189389, 5.4412785, -0.6771688, 8.496913, -0.07344514, -0.051338673, 10.112151
1195614054829285, 5.4556355, -0.6664011, 8.469396, -0.077494144, -0.025197983, 10.096142
1195614064469076, 5.503492, -0.6149554, 8.423932, -0.12146127, 0.039852142, 10.080322
1195614074108972, 5.5190454, -0.6089734, 8.456235, -0.12942153, 0.032866955, 10.115375
1195614083748764, 5.572884, -0.6221339, 8.452646, -0.112789094, 0.083586216, 10.142564
1195614093388660, 5.5740805, -0.6149554, 8.348558, -0.10639119, 0.13848543, 10.055668
1195614103028556, 5.541777, -0.6149554, 8.300702, -0.10206723, 0.13725519, 9.998093
1195614112668347, 5.5453663, -0.62093747, 8.258827, -0.08989006, 0.16183472, 9.965471
1195614122308243, 5.541777, -0.6472585, 8.325827, -0.0717361, 0.120452404, 10.021477
1195614131948035, 5.562116, -0.7070791, 8.425129, -0.023553193, 0.077768326, 10.1199465
1195614141587931, 5.5190454, -0.80159557, 8.456235, 0.06333363, 0.015070915, 10.129467
1195614151227826, 5.477171, -0.8063812, 8.467003, 0.061781287, -0.022974491, 10.116097
1195614160867618, 5.465207, -0.82313097, 8.462217, 0.078269124, -0.032397747, 10.106828
1195614170507514, 5.419743, -0.8530413, 8.455039, 0.10472196, -0.06706905, 10.078368
1195614180147410, 5.3718867, -0.8255238, 8.475378, 0.06822568, -0.11444473, 10.067419
1195614189787201, 5.367101, -0.83030945, 8.432307, 0.064073384, -0.091992855, 10.02928
1195614199427097, 5.3312087, -0.83030945, 8.420342, 0.0576334, -0.114590645, 9.999846
1195614209066889, 5.3443694, -0.8135597, 8.446664, 0.037163734, -0.11665344, 10.027727
1195614218706785, 5.3503513, -0.8171489, 8.392825, 0.03885734, -0.08140516, 9.9862585
1195614228346681, 5.3539405, -0.8111669, 8.305488, 0.0429489, -0.03133726, 9.914685
1195614237986472, 5.2941203, -1.2299109, 8.230113, 0.46090782, -0.095879555, 9.851575
1195614247626368, 5.548956, -0.19980069, 8.282756, -0.5509197, 0.23524094, 9.953695
1195614257266160, 5.2737813, -1.3567305, 8.318648, 0.56849146, -0.20018387, 9.924219
1195614266906056, 5.5633125, -0.37686956, 8.46102, -0.38644052, 0.13455915, 10.124914
1195614276545847, 5.3515477, -0.94277215, 8.347362, 0.16688716, -0.079016685, 9.958527
1195614286185743, 5.4664035, -0.83988076, 8.441878, 0.06486642, -0.011586666, 10.091974
1195614295825639, 5.4628143, -0.44027936, 8.30788, -0.30248296, 0.13517523, 9.947226
1195614305465431, 5.35753, -1.2873386, 8.458628, 0.49811673, -0.18796062, 10.080938
1195614315105326, 5.5836515, -0.07537391, 8.487342, -0.67803854, 0.17734814, 10.135415
1195614324745118, 5.272585, -1.5146568, 8.505288, 0.7141093, -0.30558443, 10.091129
1195614334385014, 5.6243296, -0.061016977, 8.475378, -0.69395727, 0.19102573, 10.146466
1195614344024910, 5.2666025, -1.4584254, 8.397611, 0.6748407, -0.23293209, 9.993713
1195614353664701, 5.562116, -0.35533416, 8.488539, -0.41625452, 0.12196636, 10.14547
1195614363304597, 5.3312087, -1.0420742, 8.372486, 0.26057792, -0.10538626, 9.976334
1195614372944389, 5.456832, -0.79920274, 8.484949, 0.021185279, -0.028985977, 10.119724
1195614382584285, 5.4628143, -0.45104706, 8.34138, -0.30537248, 0.100887775, 9.976021
1195614392224181, 5.3587265, -1.2634103, 8.420342, 0.4781345, -0.1401782, 10.048186
1195614401863972, 5.5860443, -0.07298109, 8.414361, -0.6777041, 0.22572756, 10.074745
1195614411503868, 5.319245, -1.5397813, 8.443074, 0.7628294, -0.2074995, 10.066073
1195614421143660, 5.649454, -0.04546363, 8.456235, -0.70126307, 0.26789045, 10.14213
1195614430783556, 5.279763, -1.4249259, 8.370093, 0.64304614, -0.19061422, 9.975718
1195614440423347, 5.6063833, -0.20578274, 8.427522, -0.53946763, 0.19388866, 10.107839
1195614450063243, 5.3276196, -0.951147, 8.343773, 0.1828028, -0.07879162, 9.943195
1195614459703139, 5.48076, -0.701097, 8.480164, -0.07122052, 0.0015954971, 10.121184
1195614469342931, 5.4376893, -0.5276174, 8.340183, -0.2259475, 0.066678524, 9.967447
1195614478982826, 5.3407803, -1.2514462, 8.409575, 0.48309922, -0.12579823, 10.028051
1195614488622618, 5.564509, -0.10767702, 8.327023, -0.62772894, 0.23200893, 9.993338
1195614498262514, 5.2701917, -1.5493526, 8.379665, 0.78121614, -0.2109251, 9.986961
1195614507902306, 5.5968122, -0.0047856453, 8.43111, -0.73699355, 0.2123785, 10.090574
1195614517542201, 5.2307105, -1.4895321, 8.349754, 0.70892596, -0.22670269, 9.936974
1195614527182097, 5.54417, -0.22731815, 8.441878, -0.51524305, 0.15152073, 10.087933
1195614536821889, 5.300102, -1.0731809, 8.4012, 0.31206417, -0.13720465, 9.985326
1195614546461785, 5.4723854, -0.6448657, 8.53161, -0.11804348, -0.01052475, 10.155646
1195614556101576, 5.428118, -0.4989035, 8.425129, -0.24419737, 0.036667824, 10.03171
1195614565741472, 5.4233327, -1.1593226, 8.455039, 0.40281737, -0.0787611, 10.103256
1195614575381264, 5.584848, -0.1268196, 8.366505, -0.59023815, 0.24004984, 10.03987
1195614585021160, 5.308477, -1.457229, 8.46461, 0.69331515, -0.21581984, 10.071038
1195614594660951, 5.649454, 0.051445685, 8.496913, -0.78465486, 0.24289417, 10.170635
1195614604300847, 5.276174, -1.4333007, 8.4813595, 0.67412555, -0.24776459, 10.065287
1195614613940639, 5.599205, -0.09332009, 8.516056, -0.64074683, 0.1535325, 10.170982
1195614623580535, 5.3012986, -1.0803595, 8.386844, 0.33031714, -0.14458704, 9.9739685
1195614633220431, 5.4903316, -0.5910272, 8.477771, -0.15229595, 0.029322624, 10.116402
1195614642860222, 5.400601, -0.58983076, 8.30788, -0.14197743, 0.047754288, 9.925364
1195614652500118, 5.395815, -1.1018949, 8.420342, 0.34751594, -0.088217735, 10.054979
1195614662139910, 5.564509, -0.1363909, 8.349754, -0.5854511, 0.24160385, 10.014971
1195614671779806, 5.343173, -1.477568, 8.467003, 0.7114619, -0.20102978, 10.093378
1195614681419597, 5.6207404, -0.014356935, 8.420342, -0.706709, 0.25500774, 10.09607
1195614691059493, 5.239085, -1.5110675, 8.319844, 0.7475859, -0.24145937, 9.9163475
1195614700699285, 5.576473, -0.14955142, 8.428718, -0.5963763, 0.18637085, 10.088226
1195614710339181, 5.2534423, -1.1784651, 8.372486, 0.41327167, -0.19544744, 9.94369
1195614719979076, 5.4687963, -0.55752766, 8.496913, -0.21086621, -0.0023703575, 10.1178875
1195614729618868, 5.386244, -0.6771688, 8.338987, -0.07710552, -0.0018453598, 9.950023
1195614739258764, 5.436493, -1.0755738, 8.400003, 0.31485784, -0.03209877, 10.058439
1195614748898556, 5.554938, -0.26679972, 8.329415, -0.48410457, 0.17481375, 10.002137
1195614758538451, 5.339584, -1.5230316, 8.37129, 0.75086635, -0.14544487, 10.016204
1195614768178243, 5.6267223, -0.033499517, 8.377272, -0.7262012, 0.22937918, 10.062794
1195614777818139, 5.2570314, -1.5349957, 8.366505, 0.7570952, -0.19714022, 9.968898
1195614787457931, 5.576473, -0.14596218, 8.3581295, -0.60086924, 0.18608904, 10.029009
1195614797097826, 5.2666025, -1.2358929, 8.335398, 0.47692275, -0.15663004, 9.924284
1195614806737618, 5.528617, -0.44027936, 8.488539, -0.32615077, 0.055404186, 10.134363
1195614816377514, 5.400601, -0.6867401, 8.416754, -0.07875025, -0.037209988, 10.023586
1195614826017306, 5.4616175, -1.0253245, 8.53161, 0.2544763, -0.08872032, 10.1782255
1195614835657201, 5.5836515, -0.30269206, 8.437093, -0.44932705, 0.14101696, 10.110962
1195614845296993, 5.3922257, -1.451247, 8.495717, 0.67816204, -0.15459776, 10.142762
1195614854936889, 5.656633, 0.033499517, 8.459825, -0.7693791, 0.23907709, 10.144857
1195614864576681, 5.2749777, -1.463211, 8.391629, 0.68650675, -0.21433544, 9.993427
1195614874216576, 5.6039906, -0.013160525, 8.422736, -0.7275405, 0.19936657, 10.088523
1195614883856472, 5.259424, -1.2227324, 8.323434, 0.45895875, -0.17542648, 9.9093275
1195614893496264, 5.4903316, -0.43070808, 8.403593, -0.32737392, 0.077084064, 10.041737
1195614903136160, 5.3336015, -0.82672024, 8.274381, 0.07146907, -0.034906864, 9.878756
1195614912775951, 5.3922257, -0.99900347, 8.407183, 0.23476326, -0.0750494, 10.034645
1195614922415847, 5.4783673, -0.3493521, 8.329415, -0.39318317, 0.118765354, 9.967196
1195614932055639, 5.3300123, -1.4057833, 8.447861, 0.62255645, -0.19972372, 10.06599
1195614941695535, 5.642276, -0.023928227, 8.419147, -0.7295848, 0.23497343, 10.105957
1195614951335326, 5.3144593, -1.5696917, 8.35454, 0.8070848, -0.17481565, 9.991187
1195614960975222, 5.662615, -0.1052842, 8.330612, -0.6358044, 0.2937503, 10.049123
1195614970615014, 5.2929235, -1.39023, 8.210971, 0.64313906, -0.08992529, 9.846121
1195614980254910, 5.54417, -0.43429732, 8.306684, -0.31955755, 0.15555096, 9.99005
1195614989894701, 5.3312087, -0.8470592, 8.23131, 0.096422374, -0.020704746, 9.842968
1195614999534597, 5.4352965, -0.88414794, 8.400003, 0.11776805, -0.027510643, 10.043386
1195615009174389, 5.456832, -0.36729828, 8.300702, -0.38111404, 0.090429306, 9.932782
1195615018814285, 5.322834, -1.3256238, 8.40479, 0.5562367, -0.1561451, 10.019809
1195615028454076, 5.584848, 0.014356935, 8.43111, -0.75652987, 0.16442013, 10.083401
1195615038093972, 5.300102, -1.4979069, 8.512466, 0.7342656, -0.22660542, 10.109717
1195615047733764, 5.666204, 0.0059820567, 8.669196, -0.7548156, 0.09750748, 10.32868
1195615057373660, 5.3359947, -1.294517, 8.679964, 0.54699177, -0.2856164, 10.252297
1195615067013451, 5.651847, -0.21774685, 8.748159, -0.5242572, 0.040168285, 10.404068
1195615076653347, 5.456832, -0.7800602, 8.549556, 0.057839394, -0.06866789, 10.172136
1195615086293139, 5.588437, -0.69152576, 8.579466, -0.03382474, 0.033185482, 10.262252
1195615095933035, 5.601598, -0.25962126, 8.312666, -0.4390828, 0.23163986, 10.014952
1195615105572826, 5.4759746, -1.2083755, 8.346166, 0.49106246, 0.0140423775, 10.043087
1195615115212722, 5.6614184, 0.011964113, 8.288737, -0.73422676, 0.3095603, 10.0060005
1195615124852514, 5.3156557, -1.5062819, 8.254042, 0.7596893, -0.12445593, 9.902609
1195615134492410, 5.6004014, -0.01794617, 8.274381, -0.7057278, 0.25700665, 9.963236
1195615144132201, 5.235496, -1.43689, 8.230113, 0.67036825, -0.1626687, 9.835344
1195615153771993, 5.4903316, -0.33020952, 8.367701, -0.43927568, 0.0780983, 10.003606
1195615163411889, 5.237889, -1.0480564, 8.258827, 0.28463775, -0.14705753, 9.830539
1195615173051785, 5.35753, -0.87338024, 8.409575, 0.100770175, -0.108243465, 10.008247
1195615182691576, 5.3611193, -0.5623133, 8.334201, -0.19781154, -0.031021595, 9.923538
1195615192331472, 5.2773705, -1.4045869, 8.492127, 0.62180805, -0.26634502, 10.073836
1195615201971264, 5.5202417, -0.16749759, 8.571091, -0.6106757, 0.028724194, 10.177966
1195615211611160, 5.2893343, -1.5972091, 8.616554, 0.80642104, -0.3362074, 10.198519
1195615221250951, 5.6554365, -0.08255238, 8.598608, -0.6920201, 0.12783432, 10.267989
1195615230890743, 5.3072805, -1.4979069, 8.489735, 0.72380644, -0.24080944, 10.094785
1195615240530639, 5.6482577, -0.26679972, 8.500503, -0.49031407, 0.14261675, 10.196656
1195615250170431, 5.4029937, -1.0001999, 8.32463, 0.24073327, -0.02651167, 9.971638
1195615259810326, 5.548956, -0.695115, 8.3784685, -0.063166976, 0.094824314, 10.072727
1195615269450118, 5.491528, -0.4989035, 8.202596, -0.25827485, 0.15110159, 9.879212
1195615279090014, 5.4113684, -1.2143575, 8.246863, 0.44653583, 0.0010819435, 9.928188
1195615288729806, 5.5968122, -0.111266255, 8.188239, -0.6352233, 0.28444576, 9.894421
1195615298369701, 5.2905307, -1.558924, 8.267202, 0.76804614, -0.16484308, 9.907045
1195615308009493, 5.6267223, -0.07776674, 8.280363, -0.68108785, 0.2476058, 9.985252
1195615317649389, 5.24746, -1.6139588, 8.193025, 0.8451321, -0.17165613, 9.824594
1195615327289181, 5.5405807, -0.36011982, 8.336594, -0.41326934, 0.12773657, 10.006968
1195615336929076, 5.2606206, -1.1964114, 8.348558, 0.42050546, -0.18481064, 9.9293995
1195615346568868, 5.400601, -0.7082755, 8.568698, -0.084929466, -0.14788961, 10.151929
1195615356208764, 5.306084, -0.59940207, 8.489735, -0.18157864, -0.17178535, 10.026312
1195615365848556, 5.2845488, -1.1688938, 8.572288, 0.371881, -0.28592873, 10.127035
1195615375488451, 5.4783673, -0.111266255, 8.543573, -0.6563078, -0.00990963, 10.128509
1195615385128243, 5.2689953, -1.4787644, 8.565108, 0.6931316, -0.31860065, 10.135492
1195615394768139, 5.643472, 0.0059820567, 8.474181, -0.74887407, 0.17468071, 10.152301
1195615404407931, 5.3359947, -1.4524434, 8.306684, 0.70822066, -0.119914055, 9.953262
1195615414047826, 5.729614, -0.08973085, 8.318648, -0.6355225, 0.3160901, 10.076341
1195615423687618, 5.453243, -1.0157533, 8.300702, 0.27725226, 0.014624119, 9.979689
1195615433327514, 5.65424, -0.44985065, 8.444271, -0.29287994, 0.14317417, 10.167214
1195615442967306, 5.535795, -0.43788654, 8.252846, -0.2876348, 0.14824152, 9.941908
1195615452607201, 5.487939, -0.92482597, 8.286345, 0.19484437, 0.043192863, 9.979803
1195615462246993, 5.621937, 0.022731815, 8.26122, -0.72631586, 0.25895262, 9.962925
1195615471886785, 5.419743, -1.3280165, 8.432307, 0.60213166, -0.13621998, 10.092568
1195615481526681, 5.7343993, 0.096909314, 8.46461, -0.8054546, 0.23680925, 10.19007
1195615491166472, 5.416154, -1.4679967, 8.355737, 0.7385539, -0.13028526, 10.037213
1195615500806368, 5.791827, -0.09451649, 8.5016985, -0.6006606, 0.2678156, 10.266479
1195615510446160, 5.4580283, -1.1820544, 8.478967, 0.4434961, -0.13389969, 10.142267
1195615520086056, 5.6410794, -0.5599205, 8.596215, -0.17815161, 0.036462307, 10.295492
1195615529725847, 5.4496536, -0.69272214, 8.373683, -0.030742407, -0.019664764, 10.014779
1195615539365743, 5.42094, -1.0660025, 8.4347, 0.3287028, -0.114237785, 10.077005
1195615549005535, 5.4843497, -0.25722843, 8.364112, -0.46844685, 0.06115389, 9.993969
1195615558645431, 5.2426744, -1.5409778, 8.368897, 0.7814368, -0.29297543, 9.9600315
1195615568285222, 5.5740805, -0.08973085, 8.336594, -0.6485703, 0.17102957, 10.006363
1195615577925118, 5.24746, -1.6211374, 8.275578, 0.859792, -0.23831606, 9.892071
1195615587564910, 5.6243296, -0.17706887, 8.315059, -0.5479235, 0.20436954, 10.023108
1195615597204806, 5.308477, -1.3052847, 8.203793, 0.56539357, -0.12692451, 9.841246
1195615606844597, 5.5573306, -0.4989035, 8.267202, -0.2368803, 0.13448095, 9.97022
1195615616484389, 5.4317074, -0.72023964, 8.176275, -0.005415678, 0.05521345, 9.842286
1195615626124285, 5.4676, -0.9846465, 8.327023, 0.2416758, -0.01987648, 10.007231
1195615635764076, 5.552545, -0.20817557, 8.29472, -0.5206328, 0.13695478, 9.969287
1195615645403972, 5.355137, -1.3830515, 8.355737, 0.646009, -0.16948605, 9.998129
1195615655043764, 5.6243296, 0.01794617, 8.355737, -0.74093544, 0.18913555, 10.043256
1195615664683660, 5.302495, -1.5278172, 8.396415, 0.77654326, -0.24795914, 10.014287
1195615674323451, 5.6793647, -0.029910283, 8.423932, -0.6890199, 0.19999456, 10.134297
1195615683963347, 5.3276196, -1.2526426, 8.318648, 0.5176034, -0.17000198, 9.942622
1195615693603139, 5.6004014, -0.34576288, 8.465807, -0.36842662, 0.07734728, 10.149494
1195615703243035, 5.4592247, -0.71425754, 8.372486, -0.0028608441, -0.023921013, 10.020541
1195615712882826, 5.505885, -0.82911307, 8.541181, 0.10971904, -0.09000826, 10.194795
1195615722522722, 5.6039906, -0.16151553, 8.41795, -0.53109753, 0.13493729, 10.099129
1195615732162514, 5.4592247, -1.2346965, 8.526823, 0.51199377, -0.17392397, 10.185379
1195615741802410, 5.770292, 0.148355, 8.572288, -0.8389861, 0.21877098, 10.298089
1195615751442201, 5.477171, -1.4093726, 8.551949, 0.7071309, -0.18392372, 10.226813
1195615761082097, 5.812166, 0.0741775, 8.5938225, -0.7498118, 0.23808575, 10.345128
1195615770721889, 5.454439, -1.2335001, 8.49811, 0.5301587, -0.15189028, 10.158058
1195615780361785, 5.6817575, -0.26679972, 8.577073, -0.441105, 0.10358238, 10.281754
1195615790001576, 5.419743, -0.7501499, 8.37129, 0.047049284, -0.05996418, 10.000452
1195615799641368, 5.454439, -0.81236327, 8.386844, 0.09896469, -0.0486269, 10.036823
1195615809281264, 5.444868, -0.30508488, 8.243274, -0.38805723, 0.071651936, 9.876007
1195615818921056, 5.302495, -1.3112668, 8.29472, 0.5823089, -0.1891594, 9.912789
1195615828560951, 5.569295, -0.021535404, 8.325827, -0.70019376, 0.19172621, 9.990489
1195615838200743, 5.2749777, -1.5732809, 8.347362, 0.8061429, -0.2851858, 9.962322
1195615847840639, 5.629115, -0.12203395, 8.360522, -0.5989426, 0.19659662, 10.059959
1195615857480431, 5.3156557, -1.4668003, 8.293523, 0.69886744, -0.20555544, 9.932753
1195615867120326, 5.615955, -0.41754755, 8.3784685, -0.32857502, 0.13642073, 10.088877
1195615876760118, 5.3994045, -1.0013963, 8.243274, 0.2611233, -0.04021883, 9.901421
1195615886400014, 5.503492, -0.8566305, 8.335398, 0.1090039, 0.010548115, 10.0244255
1195615896039806, 5.517849, -0.43908295, 8.176275, -0.28188866, 0.16132355, 9.868406
1195615905679701, 5.400601, -1.3483555, 8.370093, 0.59269464, -0.1230278, 10.033772
1195615915319493, 5.639883, -0.11485548, 8.440681, -0.63701963, 0.12627077, 10.131378
1195615924959389, 5.3300123, -1.5768701, 8.428718, 0.80717427, -0.24374104, 10.061208
1195615934599181, 5.6578293, -0.047856454, 8.352147, -0.70547247, 0.21361542, 10.061231
1195615944239076, 5.3072805, -1.4033905, 8.2145605, 0.63988745, -0.14529514, 9.8582535
1195615953878868, 5.602794, -0.2428715, 8.348558, -0.501724, 0.14999247, 10.04363
1195615963518764, 5.337191, -0.9343972, 8.303095, 0.16237831, -0.12250137, 9.912554
1195615973158556, 5.508278, -0.70229346, 8.440681, -0.063479304, -0.019500732, 10.103219
1195615982798451, 5.5669017, -0.46061835, 8.287541, -0.27695316, 0.14725018, 9.98937
1195615992438243, 5.51426, -1.2490535, 8.457432, 0.48052514, -0.088718414, 10.161524
1195616002078139, 5.723632, -0.11964113, 8.56152, -0.6286329, 0.16491652, 10.278692
1195616011717931, 5.4113684, -1.5373886, 8.590233, 0.7585361, -0.2637496, 10.2368765
1195616021357722, 5.7559347, 0.047856454, 8.57468, -0.79034317, 0.19641066, 10.295387
1195616030997618, 5.375476, -1.3686945, 8.499306, 0.6184902, -0.23033762, 10.127768
1195616040637410, 5.6650076, -0.12921242, 8.577073, -0.61011434, 0.079603195, 10.261414
1195616050277306, 5.4089756, -0.92243314, 8.467003, 0.16507173, -0.14739513, 10.087075
1195616059917097, 5.532206, -0.6257231, 8.488539, -0.13360214, -0.02105236, 10.1505575
1195616069556993, 5.511867, -0.48454657, 8.2456665, -0.24329907, 0.11177683, 9.926469
1195616079196785, 5.4388857, -1.1521441, 8.246863, 0.4065796, -0.03918934, 9.937445
1195616088836681, 5.619544, -0.10887343, 8.208578, -0.6070312, 0.27373362, 9.926149
1195616098476472, 5.3407803, -1.5373886, 8.298309, 0.7537199, -0.21438932, 9.956675
1195616108116368, 5.680561, 0.0035892338, 8.360522, -0.74459887, 0.24905539, 10.077236
1195616117756160, 5.285745, -1.5218352, 8.309076, 0.72499347, -0.257061, 9.934997
1195616127396056, 5.613562, -0.2536392, 8.411968, -0.51645386, 0.13098288, 10.102165
1195616137035847, 5.3276196, -1.1736795, 8.353344, 0.3824842, -0.19526339, 9.967697
1195616146675743, 5.5022955, -0.70947194, 8.49452, -0.07853854, -0.06477308, 10.145202
1195616156315535, 5.4412785, -0.6628119, 8.333005, -0.106957614, -0.024223804, 9.973654
1195616165955431, 5.4113684, -1.2693924, 8.457432, 0.4743235, -0.18941975, 10.107501
1195616175595222, 5.599205, -0.2536392, 8.453842, -0.51622224, 0.1019578, 10.129462
1195616185235118, 5.3443694, -1.5888343, 8.482556, 0.78555787, -0.27979422, 10.116573
1195616194874910, 5.6793647, -0.096909314, 8.426325, -0.6876423, 0.18857002, 10.137018
1195616204514806, 5.339584, -1.5888343, 8.301898, 0.7915522, -0.18437243, 9.964765
1195616214154597, 5.645865, -0.22492532, 8.283952, -0.5342537, 0.2219615, 10.010771
1195616223794493, 5.3742795, -1.1856437, 8.208578, 0.4028852, -0.087210655, 9.874182
1195616233434285, 5.5597234, -0.62093747, 8.322237, -0.1579802, 0.08371878, 10.026153
1195616243074181, 5.4867425, -0.6436693, 8.232507, -0.13175356, 0.067353725, 9.91317
1195616252713972, 5.493921, -1.0731809, 8.359326, 0.27582026, -0.051590443, 10.056564
1195616262353868, 5.629115, -0.22612174, 8.2348995, -0.5278383, 0.24730253, 9.960515
1195616271993660, 5.4233327, -1.4991034, 8.376076, 0.69184494, -0.18047571, 10.06515
1195616281633556, 5.7355957, 0.02632105, 8.425129, -0.7838905, 0.26484013, 10.158541
1195616291273347, 5.3611193, -1.4847465, 8.395218, 0.6878588, -0.24499846, 10.044529
1195616300913243, 5.660222, -0.08015956, 8.447861, -0.69854456, 0.16813564, 10.143701
1195616310553035, 5.35753, -1.1772687, 8.3377905, 0.38912964, -0.14768887, 9.971689
1195616320192931, 5.5776696, -0.5491528, 8.445468, -0.23038822, 0.032217503, 10.133301
1195616329832722, 5.4484572, -0.71665037, 8.293523, -0.053447187, -0.0090351105, 9.9488125
1195616339472618, 5.4867425, -1.038485, 8.386844, 0.26000404, -0.05585575, 10.0723
1195616349112410, 5.6099725, -0.2536392, 8.288737, -0.5078205, 0.16752958, 9.997667
1195616358752306, 5.3946185, -1.4799608, 8.413164, 0.6881481, -0.19203949, 10.077852
1195616368392097, 5.697311, 0.0035892338, 8.407183, -0.76525974, 0.1861515, 10.125207
1195616378031993, 5.3407803, -1.5337993, 8.421539, 0.7402539, -0.24223137, 10.059431
1195616387671889, 5.703293, -0.069391854, 8.4813595, -0.6869269, 0.18803644, 10.196009
1195616397311681, 5.389833, -1.2370893, 8.392825, 0.44984674, -0.16195822, 10.039503
1195616406951576, 5.6279187, -0.4546363, 8.420342, -0.30527443, 0.105805874, 10.133013
1195616416591368, 5.4783673, -0.7501499, 8.230113, 5.375147E-4, 0.055380344, 9.914986
1195616426231264, 5.511867, -0.9822537, 8.361719, 0.21629024, -0.010365486, 10.060664
1195616435871056, 5.582455, -0.30149564, 8.303095, -0.4602269, 0.14305353, 9.99819
1195616445510951, 5.40419, -1.4344971, 8.386844, 0.65347254, -0.155581, 10.057384
1195616455150743, 5.669793, -0.049052864, 8.3784685, -0.7235534, 0.20955801, 10.088621
1195616464790639, 5.308477, -1.6019948, 8.384451, 0.80691576, -0.23197794, 10.017006
1195616474430431, 5.6650076, -0.1268196, 8.425129, -0.6579739, 0.15532923, 10.130852
1195616484070326, 5.3096733, -1.3567305, 8.362915, 0.5661694, -0.19357061, 9.980665
1195616493710118, 5.5573306, -0.4761717, 8.449057, -0.3076163, 0.03744316, 10.119347
1195616503350014, 5.395815, -0.91166544, 8.343773, 0.1389609, -0.07570982, 9.976947
1195616512989806, 5.4723854, -1.0157533, 8.543573, 0.22327936, -0.12583828, 10.193415
1195616522629701, 5.5537415, -0.38404804, 8.463413, -0.39153087, 0.04428959, 10.122532
1195616532269493, 5.369494, -1.4727824, 8.462217, 0.67505014, -0.2281723, 10.104549
1195616541909389, 5.6279187, -0.078963146, 8.425129, -0.6774374, 0.16125584, 10.108294
1195616551549285, 5.3180485, -1.5373886, 8.428718, 0.75311136, -0.25583172, 10.052654
1195616561189076, 5.7080784, -0.023928227, 8.413164, -0.7344325, 0.26370525, 10.136822
1195616570828972, 5.386244, -1.2981063, 8.29113, 0.5201864, -0.10492182, 9.957809
1195616580468764, 5.6709895, -0.30149564, 8.377272, -0.4556327, 0.19618368, 10.108591
1195616590108660, 5.471189, -0.85902333, 8.242078, 0.09353471, 0.043970108, 9.929401
1195616599748451, 5.5573306, -0.9056834, 8.35454, 0.13153076, 0.043984413, 10.073893
1195616609388347, 5.582455, -0.39960137, 8.237292, -0.356654, 0.18058348, 9.950712
1195616619028139, 5.410172, -1.3423735, 8.279166, 0.56271935, -0.08732891, 9.96455
1195616628668035, 5.6482577, -0.058624156, 8.240881, -0.6923225, 0.28465462, 9.962833
1195616638307826, 5.272585, -1.605584, 8.328219, 0.8224715, -0.24988174, 9.949793
1195616647947722, 5.625526, -0.083748795, 8.469396, -0.6882077, 0.12168884, 10.143756
1195616657587618, 5.2666025, -1.4297116, 8.405986, 0.6214653, -0.2802863, 9.998849
1195616667227410, 5.5453663, -0.35653058, 8.463413, -0.41884154, 0.044241905, 10.115839
1195616676867306, 5.2941203, -1.0241281, 8.334201, 0.24325264, -0.16566038, 9.922138
1195616686507097, 5.407779, -0.8662018, 8.437093, 0.07725906, -0.10362244, 10.057942
1195616696146993, 5.419743, -0.47018966, 8.29472, -0.29621685, 0.029126167, 9.915064
1195616705786785, 5.337191, -1.3411771, 8.395218, 0.5465827, -0.19414282, 10.0213585
1195616715426681, 5.5968122, -0.0741775, 8.352147, -0.6771089, 0.20897532, 10.02926
1195616725066472, 5.325227, -1.5517455, 8.373683, 0.76960754, -0.2262311, 10.012047
1195616734706368, 5.7140603, -0.02871387, 8.405986, -0.72053456, 0.2877226, 10.134592
1195616744346264, 5.375476, -1.4799608, 8.34138, 0.7234378, -0.13507748, 10.006151
1195616753986056, 5.682954, -0.31106696, 8.46461, -0.4293992, 0.19856787, 10.189138
1195616763625951, 5.432904, -1.0169497, 8.383254, 0.2579385, -0.054881573, 10.037931
1195616773265743, 5.5298133, -0.7465607, 8.550752, -0.00982976, -0.026952744, 10.210324
1195616782905639, 5.5190454, -0.44147578, 8.46102, -0.29743427, 0.051770687, 10.107052
1195616792545431, 5.4496536, -1.1880364, 8.581859, 0.4381976, -0.15860653, 10.224543
1195616802185326, 5.669793, -0.05623133, 8.526823, -0.6676688, 0.19388723, 10.216312
1195616811825222, 5.355137, -1.4811572, 8.532805, 0.72476935, -0.23872995, 10.153709
1195616821465014, 5.697311, 0.05383851, 8.510074, -0.76182276, 0.23441029, 10.210205
1195616831104910, 5.3180485, -1.3698909, 8.429914, 0.6262677, -0.2193265, 10.038993
1195616840744701, 5.6446686, -0.14117654, 8.472985, -0.5742495, 0.18198442, 10.164192
1195616850384597, 5.3240304, -0.9391829, 8.397611, 0.19753039, -0.1389842, 9.984433
1195616860024389, 5.454439, -0.613759, 8.517252, -0.13166827, -0.05220461, 10.13169
1195616869664285, 5.4053864, -0.49052864, 8.334201, -0.2366215, 0.027708054, 9.942886
1195616879304181, 5.3563333, -1.1389836, 8.398808, 0.40023232, -0.13560629, 10.017434
1195616888943972, 5.515456, -0.08973085, 8.318648, -0.61620504, 0.1954794, 9.960437
1195616898583868, 5.2570314, -1.4656038, 8.373683, 0.71132994, -0.2529621, 9.966592
1195616908223660, 5.5920267, 0.09092726, 8.402397, -0.8032844, 0.2306199, 10.058869
1195616917863556, 5.241478, -1.375873, 8.389236, 0.63635945, -0.2571478, 9.963651
1195616927503451, 5.599205, -0.05623133, 8.519645, -0.66485536, 0.16288328, 10.172023
1195616937143243, 5.349155, -1.0109676, 8.453842, 0.26840043, -0.14571619, 10.050358
1195616946783139, 5.521438, -0.58983076, 8.536395, -0.1348933, 0.006104946, 10.182631
1195616956422931, 5.444868, -0.56350976, 8.350951, -0.1389252, 0.042236328, 9.984059
1195616966062826, 5.4412785, -1.1377872, 8.451449, 0.41848248, -0.07538319, 10.106842
1195616975702722, 5.6123657, -0.14955142, 8.414361, -0.5469402, 0.1839571, 10.098985
1195616985342514, 5.3623157, -1.5002998, 8.484949, 0.76127744, -0.21718407, 10.117952
1195616994982410, 5.703293, 0.039481573, 8.474181, -0.74048275, 0.27518559, 10.184145
1195617004622201, 5.3240304, -1.4524434, 8.4347, 0.72888213, -0.20676708, 10.051121
1195617014262097, 5.651847, -0.076570325, 8.463413, -0.6123763, 0.22785044, 10.156363
1195617023901993, 5.302495, -1.0959128, 8.343773, 0.38022208, -0.14269257, 9.938365
1195617033541785, 5.4903316, -0.5288138, 8.364112, -0.17046148, 0.07597494, 10.017332
1195617043181681, 5.3994045, -0.62931234, 8.246863, -0.06833565, 0.049129486, 9.876906
1195617052821576, 5.42094, -1.0719845, 8.422736, 0.34765613, -0.08865738, 10.067248
1195617062461368, 5.556134, -0.2105684, 8.385647, -0.489753, 0.15676928, 10.048364
1195617072101264, 5.35753, -1.4476577, 8.46102, 0.719876, -0.18913174, 10.0912695
1195617081741056, 5.6578293, 0.05503492, 8.416754, -0.76652944, 0.22736979, 10.11022
1195617091380951, 5.3096733, -1.477568, 8.392825, 0.7461395, -0.18912601, 10.011138
1195617101020847, 5.6506505, -0.046660043, 8.462217, -0.6547028, 0.18671513, 10.152716
1195617110660639, 5.3276196, -1.1497513, 8.400003, 0.4394278, -0.13565826, 10.002701
1195617120300535, 5.5513487, -0.4881358, 8.506484, -0.2213862, 0.05364275, 10.166816
1195617129940326, 5.395815, -0.75493556, 8.293523, 0.054569304, 0.017844677, 9.922901
1195617139580222, 5.3970113, -1.0683953, 8.366505, 0.36238694, -0.044755936, 10.006712
1195617149220118, 5.5334024, -0.26919255, 8.392825, -0.43519765, 0.12755823, 10.046137
1195617158859910, 5.332405, -1.4668003, 8.525627, 0.73290074, -0.2489729, 10.132781
1195617168499806, 5.6039906, -0.022731815, 8.463413, -0.68284, 0.19168663, 10.12579
1195617178139701, 5.2462635, -1.558924, 8.386844, 0.8302239, -0.23582506, 9.977364
1195617187779493, 5.56092, -0.05383851, 8.440681, -0.64054614, 0.15445375, 10.086511
1195617197419389, 5.241478, -1.1928221, 8.389236, 0.46754795, -0.2015624, 9.950678
1195617207059285, 5.5393844, -0.3684947, 8.530413, -0.34489548, 0.06043911, 10.17182
1195617216699076, 5.3766723, -0.88414794, 8.319844, 0.18223065, -0.021610737, 9.943665
1195617226338972, 5.485546, -0.6939186, 8.392825, 0.0025919676, 0.049215794, 10.0503645
1195617235978764, 5.501099, -0.721436, 8.407183, 0.03224677, 0.050183296, 10.0727215
1195617245618660, 5.532206, -0.64965135, 8.493324, -0.042821586, 0.0338912, 10.1568165
1195617255258556, 5.515456, -0.60658056, 8.504091, -0.08171201, 0.018635273, 10.153853
1195617264898347, 5.4891353, -0.5300102, 8.480164, -0.1510328, 0.017409801, 10.114424
1195617274538243, 5.4687963, -0.526421, 8.502895, -0.15228707, -0.011557579, 10.12229
1195617284178139, 5.4819565, -0.5192425, 8.529217, -0.15708393, -0.019956112, 10.151054
1195617293817931, 5.4819565, -0.587438, 8.476574, -0.08467311, 0.004173279, 10.111481
1195617303457826, 5.4723854, -0.6412765, 8.408379, -0.022509038, 0.029696941, 10.052745
1195617313097722, 5.5022955, -0.6520442, 8.410771, -0.012080729, 0.05269003, 10.0716715
1195617322737514, 5.5334024, -0.6771688, 8.444271, 0.008092284, 0.05852127, 10.118268
1195617332377410, 5.5070815, -0.70947194, 8.477771, 0.0330472, 0.015071392, 10.134229
1195617342017306, 5.471189, -0.7262217, 8.462217, 0.047795832, -0.0056991577, 10.102877
1195617351657097, 5.4341, -0.6855437, 8.514859, 0.0026388168, -0.06284189, 10.124145
1195617361296993, 5.42094, -0.64845496, 8.550752, -0.036584973, -0.090177536, 10.144604
1195617370936889, 5.3563333, -0.61854464, 8.560323, -0.065410435, -0.14647198, 10.115645
1195617380576681, 5.377869, -0.6053841, 8.58784, -0.07899344, -0.14020061, 10.149536
1195617390216576, 5.383851, -0.6089734, 8.687142, -0.08506185, -0.18359756, 10.236317
1195617399856472, 5.419743, -0.66161543, 8.702696, -0.031591594, -0.16565752, 10.2722845
1195617409496264, 5.440082, -0.7106683, 8.641679, 0.016832411, -0.11551142, 10.235456
1195617419136160, 5.4628143, -0.72382885, 8.538788, 0.029962003, -0.043620586, 10.1624
1195617428776056, 5.4628143, -0.7369894, 8.360522, 0.060786843, 0.050831318, 10.013867
1195617438415847, 5.4029937, -0.7788638, 8.1942215, 0.10592252, 0.085231304, 9.845088
1195617448055743, 5.3766723, -0.802792, 8.129615, 0.12185693, 0.09263086, 9.778563
1195617457695639, 5.375476, -0.8255238, 8.2014, 0.12102246, 0.047697067, 9.839881
1195617467335431, 5.386244, -0.85184485, 8.158329, 0.12833703, 0.07406664, 9.811913
1195617476975326, 5.4173503, -0.9403793, 8.039884, 0.22418857, 0.16011286, 9.736317
1195617486615222, 5.4293146, -1.0013963, 7.962117, 0.29062438, 0.20991468, 9.682305
1195617496255118, 5.432904, -0.99661064, 7.999206, 0.28152776, 0.194911, 9.714923
1195617505894910, 5.407779, -0.93559366, 8.210971, 0.20400912, 0.06403446, 9.873893
1195617515534806, 5.393422, -0.8877372, 8.37129, 0.14117002, -0.033052444, 9.996727
1195617525174701, 5.365905, -0.82672024, 8.548359, 0.08637279, -0.13992357, 10.125404
1195617534814493, 5.3718867, -0.7369894, 8.629715, 0.0061365366, -0.1673522, 10.1904
1195617544454389, 5.3814583, -0.6305088, 8.715857, -0.08874369, -0.1942482, 10.260516
1195617554094285, 5.413761, -0.54317075, 8.706285, -0.15884346, -0.1514988, 10.264263
1195617563734076, 5.444868, -0.552742, 8.605786, -0.14231378, -0.069699764, 10.197381
1195617573373972, 5.4819565, -0.5515456, 8.592627, -0.13016021, -0.025094032, 10.206455
1195617583013868, 5.538188, -0.5347959, 8.63809, -0.14074075, -0.004725933, 10.273963
1195617592653764, 5.5836515, -0.50129634, 8.645268, -0.17401326, 0.031680107, 10.302324
1195617602293556, 5.608776, -0.49172506, 8.523234, -0.16808009, 0.10987663, 10.212999
1195617611933451, 5.5704913, -0.465404, 8.4347, -0.18773317, 0.12594414, 10.116325
1195617621573347, 5.5704913, -0.4354937, 8.451449, -0.21414596, 0.119184494, 10.128523
1195617631213139, 5.5226345, -0.45702913, 8.421539, -0.18865597, 0.09115839, 10.079026
1195617640853035, 5.4843497, -0.4881358, 8.397611, -0.15492469, 0.066174984, 10.040311
1195617650492931, 5.4783673, -0.5395815, 8.384451, -0.10207659, 0.062357903, 10.029376
1195617660132826, 5.4795637, -0.6364908, 8.382058, -0.005492866, 0.0568223, 10.034261
1195617669772618, 5.4496536, -0.70947194, 8.43111, 0.056054533, 8.111E-4, 10.063924
1195617679412514, 5.4436717, -0.72741807, 8.482556, 0.064906836, -0.0328207, 10.105007
1195617689052410, 5.4185467, -0.74177504, 8.474181, 0.07884848, -0.050745964, 10.085327
1195617698692201, 5.369494, -0.74895346, 8.484949, 0.07880354, -0.09793043, 10.068314
1195617708332097, 5.334798, -0.76331043, 8.510074, 0.088354945, -0.14199448, 10.071548
1195617717971993, 5.326423, -0.7405786, 8.554341, 0.054082155, -0.16829109, 10.102709
1195617727611889, 5.365905, -0.72263247, 8.559127, 0.038411677, -0.13568449, 10.12689
1195617737251681, 5.3910294, -0.7369894, 8.508878, 0.04946065, -0.087738514, 10.099367
1195617746891576, 5.4388857, -0.76331043, 8.428718, 0.087435246, -0.0074362755, 10.059805
1195617756531472, 5.487939, -0.75493556, 8.353344, 0.082202196, 0.07133341, 10.022671
1195617766171264, 5.477171, -0.74177504, 8.275578, 0.07800287, 0.10486412, 9.950766
1195617775811160, 5.495117, -0.7704889, 8.189436, 0.113699436, 0.15975666, 9.890318
1195617785451056, 5.503492, -0.6903293, 8.281559, 0.022143304, 0.122047424, 9.966635
1195617795090951, 5.4891353, -0.65324056, 8.321041, -0.017022967, 0.082102776, 9.989496
1195617804730743, 5.493921, -0.6269195, 8.38804, -0.05042827, 0.052930355, 10.046395
1195617814370639, 5.505885, -0.6269195, 8.453842, -0.047882855, 0.024177074, 10.108035
1195617824010535, 5.5190454, -0.6520442, 8.456235, -0.023244262, 0.031104088, 10.118865
1195617833650431, 5.4903316, -0.64965135, 8.486146, -0.024898171, -0.0077700615, 10.128168
1195617843290222, 5.4664035, -0.64606214, 8.477771, -0.025824487, -0.022354603, 10.107938
1195617852930118, 5.4376893, -0.6412765, 8.440681, -0.027405202, -0.024380207, 10.0609865
1195617862570014, 5.4113684, -0.634098, 8.402397, -0.033305407, -0.022454262, 10.0141735
1195617872209910, 5.42094, -0.6687939, 8.340183, 0.004325688, 0.020403385, 9.969559
1195617881849701, 5.4233327, -0.721436, 8.303095, 0.054905295, 0.04473114, 9.943308
1195617891489597, 5.4185467, -0.78723866, 8.321041, 0.11895579, 0.02625084, 9.960184
1195617901129493, 5.4376893, -0.7645068, 8.352147, 0.09080905, 0.027384281, 9.995113
1195617910769389, 5.4173503, -0.7501499, 8.391629, 0.06742859, -0.010665417, 10.016247
1195617920409181, 5.3946185, -0.74416786, 8.414361, 0.05921191, -0.041261673, 10.0225725
1195617930049076, 5.4029937, -0.7178468, 8.425129, 0.032495618, -0.036256313, 10.034346
1195617939688972, 5.393422, -0.71306115, 8.469396, 0.026286006, -0.06473398, 10.065944
1195617949328868, 5.4053864, -0.6879365, 8.516056, 0.0015456676, -0.075638294, 10.109844
1195617958968660, 5.406583, -0.65922266, 8.505288, -0.02046746, -0.06293392, 10.099567
1195617968608556, 5.4352965, -0.64606214, 8.53161, -0.028313339, -0.04694128, 10.136332
1195617978248451, 5.4185467, -0.6376872, 8.513663, -0.02405715, -0.042395115, 10.111745
1195617987888347, 5.4592247, -0.613759, 8.510074, -0.04615867, -0.0048336983, 10.129118
1195617997528139, 5.491528, -0.56829536, 8.475378, -0.084797144, 0.046629906, 10.11447
1195618007168035, 5.508278, -0.5563313, 8.512466, -0.10136944, 0.041558743, 10.153852
1195618016807931, 5.5070815, -0.5886344, 8.496913, -0.06738734, 0.045927048, 10.142253
1195618026447826, 5.5070815, -0.6017949, 8.428718, -0.048228562, 0.080622196, 10.08586
1195618036087722, 5.485546, -0.64247286, 8.426325, -0.008834958, 0.059401035, 10.074887
1195618045727514, 5.473582, -0.6161518, 8.40479, -0.03330791, 0.062894344, 10.048641
1195618055367410, 5.4352965, -0.6161518, 8.380861, -0.03250587, 0.043876648, 10.0078945
1195618065007306, 5.4233327, -0.6257231, 8.344969, -0.017184138, 0.05387354, 9.97193
1195618074647201, 5.4341, -0.64965135, 8.374879, 0.005227804, 0.0464139, 10.004394
1195618084286993, 5.4185467, -0.6580262, 8.446664, 0.0041754246, -0.004629612, 10.056826
1195618093926889, 5.432904, -0.701097, 8.493324, 0.041987896, -0.022859097, 10.106545
1195618103566785, 5.410172, -0.6987042, 8.5220375, 0.03498411, -0.053263664, 10.118261
1195618113206681, 5.4017973, -0.7082755, 8.508878, 0.045388162, -0.05298853, 10.103327
1195618122846576, 5.3682976, -0.71665037, 8.465807, 0.05704677, -0.058392525, 10.049649
1195618132486368, 5.375476, -0.6735796, 8.49452, 0.012254536, -0.06285906, 10.074831
1195618142126264, 5.355137, -0.6364908, 8.483752, -0.024462163, -0.06964064, 10.0524235
1195618151766160, 5.3419766, -0.6448657, 8.428718, -0.009172678, -0.050183296, 9.999662
1195618161406056, 5.3300123, -0.67118675, 8.449057, 0.01924324, -0.07159376, 10.012022
1195618171045847, 5.393422, -0.65922266, 8.467003, 0.007976174, -0.026734352, 10.060463
1195618180685743, 5.4113684, -0.654437, 8.4682, 0.0048814416, -0.013669014, 10.07082
1195618190325639, 5.4185467, -0.6412765, 8.413164, -7.3450804E-4, 0.02031231, 10.027602
