timestamp_acc,device_acc_x,device_acc_y,device_acc_z,earth_acc_x,earth_acc_y,earth_acc_z
1195752123349760, 6.285945, 0.12323037, 7.8257265, -0.030975759, 0.0482769, 10.038277
1195752132989864, 6.3110695, 0.16271193, 7.7874413, -0.059931934, 0.09775591, 10.024329
1195752142629969, 6.3086767, 0.19262223, 7.7706914, -0.087847054, 0.11176014, 10.009993
1195752152270073, 6.290731, 0.1591227, 7.8089767, -0.06196314, 0.06601381, 10.028487
1195752161910177, 6.2775702, 0.13758731, 7.874779, -0.046619356, 0.0095124245, 10.071578
1195752171550281, 6.262017, 0.12562318, 7.9166536, -0.04167044, -0.029836178, 10.094524
1195752181190385, 6.2608204, 0.10049855, 7.9310107, -0.017662227, -0.043325424, 10.104787
1195752190830489, 6.239285, 0.078963146, 7.944171, 0.0010218024, -0.070559025, 10.101475
1195752200470594, 6.2548385, 0.046660043, 7.9310107, 0.038184464, -0.05415535, 10.10058
1195752210110698, 6.2679987, 0.043070808, 7.90469, 0.046426713, -0.027801037, 10.088154
1195752219750802, 6.282356, 0.059820566, 7.8699937, 0.034895062, 0.0069947243, 10.070109
1195752229390906, 6.2847486, 0.05623133, 7.8484583, 0.04143983, 0.02016592, 10.05472
1195752239031010, 6.279963, 0.049052864, 7.847262, 0.049067616, 0.015461922, 10.050732
1195752248671114, 6.3194447, 0.06819545, 7.812566, 0.037923694, 0.07005215, 10.048377
1195752258311114, 6.306284, 0.09810573, 7.8484583, 0.0052203536, 0.041528225, 10.068535
1195752267951219, 6.3134627, 0.1052842, 7.879565, -0.0031772256, 0.029009342, 10.097405
1195752277591323, 6.289534, 0.11246266, 7.905886, -0.015900195, -0.00473547, 10.10315
1195752287231427, 6.24766, 0.12203395, 7.914261, -0.0321303, -0.04122019, 10.083698
1195752296871531, 6.2404814, 0.15433706, 7.8987074, -0.06421405, -0.03137493, 10.0673685
1195752306511635, 6.2380886, 0.14955142, 7.8867435, -0.05618751, -0.02803278, 10.056484
1195752316151739, 6.2105713, 0.12562318, 7.8699937, -0.03280914, -0.044177055, 10.026003
1195752325791844, 6.204589, 0.14596218, 7.804191, -0.046364784, -0.004369259, 9.971031
1195752335431948, 6.1878395, 0.101694964, 7.696514, 0.010625601, 0.037534237, 9.8759575
1195752345072052, 6.1387863, 0.07058827, 7.6749787, 0.035980105, 0.007514, 9.828206
1195752354712156, 6.1878395, 0.05623133, 7.678568, 0.05711025, 0.03932476, 9.861446
1195752364352260, 6.242874, 0.061016977, 7.783852, 0.048554838, 0.020266056, 9.978115
1195752373992364, 6.3134627, 0.046660043, 7.87119, 0.06367147, 0.019265652, 10.090253
1195752383632469, 6.346962, 0.051445685, 7.958528, 0.054107428, -0.003566265, 10.17948
1195752393272573, 6.343373, 0.08255238, 8.029117, 0.013202488, -0.039218426, 10.2328005
1195752402912677, 6.346962, 0.09930214, 8.05783, -0.0054861903, -0.05147648, 10.257668
1195752412552781, 6.306284, 0.11246266, 8.033902, -0.022346497, -0.06456375, 10.213754
1195752422192781, 6.283552, 0.11365908, 7.9836526, -0.024357975, -0.05086088, 10.16029
1195752431832885, 6.3110695, 0.14117654, 7.8604226, -0.038231075, 0.049204826, 10.0812645
1195752441472989, 6.289534, 0.13998012, 7.7790666, -0.03104204, 0.083043575, 10.004192
1195752451113094, 6.285945, 0.12801601, 7.7611203, -0.018894076, 0.08545685, 9.987834
1195752460753198, 6.273981, 0.11724831, 7.7874413, -0.013967574, 0.051962376, 10.000896
1195752470393302, 6.2871413, 0.11485548, 7.8197446, -0.011650741, 0.04165888, 10.034335
1195752480033406, 6.2512493, 0.101694964, 7.844869, -0.0069592595, -0.0037722588, 10.031469
1195752489673510, 6.2440705, 0.101694964, 7.88794, -0.01007092, -0.034595013, 10.060669
1195752499313614, 6.2081785, 0.09092726, 7.911868, -0.007936597, -0.07878494, 10.056896
1195752508953719, 6.236892, 0.069391854, 7.932207, 0.017051995, -0.07246637, 10.09049
1195752518593823, 6.250053, 0.07178468, 7.8783684, 0.023377776, -0.0273242, 10.056624
1195752528233927, 6.289534, 0.061016977, 7.7479596, 0.05326867, 0.08271074, 9.979138
1195752537874031, 6.253642, 0.062213387, 7.6666036, 0.0554235, 0.105371475, 9.893157
1195752547514135, 6.216553, 0.025124637, 7.611569, 0.09050685, 0.1027751, 9.826669
1195752557154239, 6.192625, 0.033499517, 7.59123, 0.080167174, 0.096666336, 9.795956
1195752566794344, 6.196214, 0.05383851, 7.661818, 0.047098935, 0.06274223, 9.853592
1195752576434344, 6.2404814, 0.059820566, 7.797013, 0.034733355, 0.014460087, 9.986952
1195752586074448, 6.2548385, 0.09332009, 7.921439, -0.015470743, -0.036817074, 10.093529
1195752595714552, 6.263213, 0.13758731, 8.069795, -0.07139927, -0.11498594, 10.215187
1195752605354656, 6.2715883, 0.14955142, 8.151151, -0.09355253, -0.15088892, 10.284208
1195752614994760, 6.314659, 0.17108682, 8.159525, -0.11552185, -0.107564926, 10.317808
1195752624634864, 6.337391, 0.20937198, 8.196614, -0.15418917, -0.10655308, 10.361261
1195752634274969, 6.3744793, 0.18903299, 8.149954, -0.12469733, -0.0492754, 10.347631
1195752643915073, 6.3864436, 0.15194423, 7.999206, -0.07054746, 0.046802044, 10.236693
1195752653555177, 6.367301, 0.1268196, 7.816155, -0.032579005, 0.1403966, 10.081177
1195752663195281, 6.3326054, 0.0849452, 7.6977105, 0.01723659, 0.17629242, 9.966569
1195752672835385, 6.24766, 0.06699903, 7.7180495, 0.02444297, 0.08240938, 9.929686
1195752682475489, 6.229714, 0.04546363, 7.7850485, 0.03762132, 0.024112701, 9.970776
1195752692115594, 6.2309103, 0.059820566, 7.844869, 0.017590344, -0.012095928, 10.01845
1195752701755698, 6.2679987, 0.0741775, 7.895118, 0.0024001002, -0.012253761, 10.080975
1195752711395802, 6.2548385, 0.032303106, 7.9501534, 0.036525488, -0.0642724, 10.115509
1195752721035906, 6.2668023, 0.022731815, 7.9477606, 0.047605276, -0.055038452, 10.121014
1195752730675906, 6.2668023, 0.04546363, 7.879565, 0.031230628, -0.011286736, 10.067835
1195752740316010, 6.2691956, 0.06819545, 7.8317084, 0.013592839, 0.020591736, 10.032075
1195752749956114, 6.256035, 0.07178468, 7.7886376, 0.012391627, 0.033922672, 9.9902315
1195752759596219, 6.2416778, 0.061016977, 7.7587276, 0.023964822, 0.039695263, 9.957809
1195752769236323, 6.218946, 0.04426722, 7.7503524, 0.039384186, 0.019693375, 9.936964
1195752778876427, 6.196214, 0.0526421, 7.722835, 0.031011641, 0.019611359, 9.901348
1195752788516531, 6.2117677, 0.049052864, 7.733603, 0.036218643, 0.023590088, 9.9194355
1195752798156635, 6.2201424, 0.043070808, 7.737192, 0.042881787, 0.02688837, 9.927417
1195752807796739, 6.2548385, 0.05383851, 7.7682986, 0.03530687, 0.035484314, 9.973459
1195752817436844, 6.2691956, 0.076570325, 7.830512, 0.010290325, 0.012275219, 10.031218
1195752827076948, 6.3110695, 0.11246266, 7.9011, -0.024956465, 0.009136677, 10.11281
1195752836717052, 6.330212, 0.13280165, 7.9166536, -0.0425902, 0.018958569, 10.137083
1195752846357156, 6.343373, 0.1471586, 7.9238324, -0.054602385, 0.026650429, 10.151033
1195752855997156, 6.3397837, 0.13998012, 7.914261, -0.04711497, 0.028711319, 10.14125
1195752865637260, 6.34098, 0.11365908, 7.879565, -0.016459525, 0.046150684, 10.114648
1195752875277364, 6.2991056, 0.083748795, 7.836494, 0.013272047, 0.03213787, 10.054609
1195752884917469, 6.2979093, 0.1268196, 7.7216387, -0.017264187, 0.107720375, 9.964516
1195752894557573, 6.262017, 0.09810573, 7.6869426, 0.01188457, 0.09505987, 9.914757
1195752904197677, 6.2309103, 0.041874398, 7.685746, 0.06411952, 0.06337309, 9.893865
1195752913837781, 6.2009997, -0.046660043, 7.77787, 0.1406132, -0.028461456, 9.946319
1195752923477885, 6.1878395, -0.069391854, 7.7874413, 0.15976709, -0.046089172, 9.945391
1195752933117989, 6.135197, -0.05383851, 7.812566, 0.13592046, -0.099505424, 9.932339
1195752942758094, 6.1064835, -0.009571291, 7.832905, 0.086330235, -0.12524128, 9.930785
1195752952398198, 6.108876, 0.046660043, 7.8317084, 0.030539393, -0.1052866, 9.931978
1195752962038302, 6.1878395, 0.16151553, 7.8077803, -0.07062483, -0.012434959, 9.963521
1195752971678302, 6.2584276, 0.27038896, 7.737192, -0.1613661, 0.112196445, 9.9532175
1195752981318406, 6.3194447, 0.30029923, 7.68455, -0.17925516, 0.19605494, 9.950242
1195752990958510, 6.337391, 0.2428715, 7.7108707, -0.117167175, 0.18893957, 9.981464
1195753000598614, 6.34098, 0.18185452, 7.746763, -0.052028477, 0.16397858, 10.011187
1195753010238719, 6.3888364, 0.18903299, 7.8149586, -0.05469668, 0.16481876, 10.094374
1195753019878823, 6.3996043, 0.15074782, 7.945368, -0.022633255, 0.093492985, 10.202806
1195753029518927, 6.35773, 0.13758731, 8.172686, -0.031164348, -0.06786013, 10.3550415
1195753039159031, 6.309873, 0.096909314, 8.361719, -0.015437901, -0.22026491, 10.473466
1195753048799135, 6.256035, 0.106480606, 8.477771, -0.04269308, -0.32444668, 10.531611
1195753058439239, 6.2057858, 0.13399807, 8.395218, -0.06764203, -0.30856276, 10.43598
1195753068079239, 6.108876, 0.12323037, 8.23131, -0.055763006, -0.28043365, 10.247257
1195753077719344, 6.1124654, 0.12083755, 8.031509, -0.034204602, -0.15662336, 10.092388
1195753087359448, 6.161518, 0.096909314, 7.9094753, 0.005941212, -0.051151276, 10.026506
1195753096999552, 6.3086767, 0.1052842, 7.830512, 0.021597266, 0.10430956, 10.055649
1195753106639656, 6.391229, 0.11365908, 7.8113694, 0.023053706, 0.17684078, 10.091899
1195753116279760, 6.391229, 0.12203395, 7.85444, 0.011024475, 0.15171432, 10.125799
1195753125919864, 6.344569, 0.09212367, 7.881958, 0.033420205, 0.08778572, 10.118226
1195753135559969, 6.2727847, 0.08733802, 7.8460655, 0.03370613, 0.047064304, 10.04554
1195753145200073, 6.1806607, 0.07058827, 7.702496, 0.05227095, 0.055107594, 9.875637
1195753154840177, 6.0933228, 0.06699903, 7.5756764, 0.055362046, 0.05950594, 9.722003
1195753164480177, 6.078966, 0.33140594, 7.5409803, -0.20468223, 0.10654354, 9.689003
1195753174120281, 5.8564334, -0.21774685, 7.2490563, 0.33804667, 0.015917301, 9.315552
1195753183760385, 6.0370917, 0.16151553, 7.4440713, -0.030141413, 0.10494757, 9.585136
1195753193400489, 6.020342, 0.11246266, 7.4069824, 0.019443989, 0.105863094, 9.545103
1195753203040594, 6.0933228, -0.21415763, 7.521838, 0.34261763, 0.043213844, 9.676427
1195753212680698, 6.306284, 0.61854464, 7.9429746, -0.483656, 0.114249706, 10.148679
1195753222320802, 6.1734824, -0.4319045, 7.87119, 0.5361719, -0.13730335, 9.997386
1195753231960906, 6.5479593, 0.9212367, 8.391629, -0.7786339, 0.08442116, 10.655069
1195753241600906, 6.1974106, -0.2955136, 8.054241, 0.41056925, -0.1794405, 10.15703
1195753251241010, 6.5228343, 0.90089774, 8.52443, -0.76719224, 0.004913807, 10.744127
1195753260881114, 6.209375, -0.08733802, 8.043473, 0.20547265, -0.11939192, 10.158984
1195753270521219, 6.4737816, 0.4833502, 8.275578, -0.32208806, 0.04986763, 10.512966
1195753280161323, 6.391229, 0.24885355, 8.124829, -0.08886784, 0.0367198, 10.339891
1195753289801427, 6.3996043, -0.22253251, 8.10449, 0.3853436, -0.039744854, 10.321684
1195753299441531, 6.3996043, 0.49172506, 8.298309, -0.3300041, -0.019885063, 10.485675
1195753309081635, 6.1244297, -0.56111693, 7.9501534, 0.6782867, -0.27648973, 10.024566
1195753318721635, 6.3481584, 0.7573284, 8.250452, -0.5914361, 0.051928997, 10.420658
1195753328361739, 6.009574, -0.56470615, 7.719246, 0.6771151, -0.24264097, 9.772579
1195753338001844, 6.309873, 0.6520442, 8.1344, -0.51264626, 0.0598135, 10.302511
1195753347641948, 5.9641104, -0.35174492, 7.6426754, 0.4523344, -0.19235706, 9.688303
1195753357282052, 6.224928, 0.28115666, 7.8029947, -0.12073636, 0.08695364, 9.984656
1195753366922156, 6.0933228, 0.02632105, 7.476374, 0.12895238, 0.105359554, 9.643533
1195753376562260, 6.1507506, -0.20219351, 7.3830543, 0.3790357, 0.13896608, 9.603079
1195753386202260, 6.212964, 0.42592242, 7.436893, -0.22287583, 0.3187189, 9.692184
1195753395842364, 6.0346985, -0.53359944, 7.2299137, 0.68322724, 0.0829792, 9.407458
1195753405482469, 6.3457656, 0.715454, 7.6953177, -0.5494883, 0.3013916, 9.980268
1195753415122573, 6.0598235, -0.6113662, 7.405786, 0.74253035, -0.027772427, 9.559748
1195753424762677, 6.4534426, 0.6939186, 8.092526, -0.56404936, 0.14699745, 10.357492
1195753434402781, 6.1842504, -0.3278167, 7.895118, 0.41069102, -0.1582179, 10.024551
1195753444042885, 6.4594245, 0.45104706, 8.362915, -0.3525529, -0.04527378, 10.570696
1195753453682885, 6.2811594, 0.11844472, 8.165507, -0.040915966, -0.12885427, 10.3016615
1195753463322989, 6.3122663, -0.02632105, 8.158329, 0.10566068, -0.13410711, 10.313807
1195753472963094, 6.2847486, 0.47976094, 8.133204, -0.3901621, -0.02054882, 10.282247
1195753482603198, 6.0897336, -0.40438703, 7.8400836, 0.46862352, -0.19532394, 9.922577
1195753492243302, 6.282356, 0.7932207, 8.185846, -0.7051133, 0.008785248, 10.325116
1195753501883406, 6.0167527, -0.50009996, 7.7671022, 0.55506086, -0.21912527, 9.8195305
1195753511523510, 6.411568, 0.7908279, 8.224132, -0.6865372, 0.08585262, 10.435097
1195753521163510, 6.1184473, -0.3182454, 7.8029947, 0.38731235, -0.12612343, 9.912491
1195753530803614, 6.4031935, 0.5084748, 8.142776, -0.40930963, 0.050617218, 10.363115
1195753540443719, 6.2105713, 0.03589234, 7.820941, 0.06750208, -0.0015106201, 9.986744
1195753550083823, 6.2883377, -0.013160525, 7.8664045, 0.122611165, 0.022275925, 10.070162
1195753559723927, 6.29432, 0.42951167, 7.8664045, -0.30729234, 0.113976955, 10.078485
1195753569363927, 6.1292152, -0.42592242, 7.665407, 0.52327496, -0.07651615, 9.809561
1195753579004031, 6.302695, 0.66400826, 7.952546, -0.5410234, 0.106348515, 10.154005
1195753588644135, 5.968896, -0.62452674, 7.5062847, 0.705553, -0.16248512, 9.583208
1195753598284239, 6.3014984, 0.7082755, 7.853244, -0.5672195, 0.1733098, 10.076319
1195753607924344, 6.0047884, -0.45702913, 7.367501, 0.5676255, -0.02873516, 9.498598
1195753617564448, 6.3517475, 0.44985065, 7.732406, -0.28605306, 0.22143984, 10.010309
1195753627204448, 6.172286, -0.076570325, 7.479964, 0.22773063, 0.11205149, 9.694763
1195753636844552, 6.3122663, 0.021535404, 7.732406, 0.1187371, 0.09512806, 9.980587
1195753646484656, 6.3361945, 0.35653058, 7.8556366, -0.21974325, 0.11265087, 10.095768
1195753656124760, 6.2201424, -0.38285163, 7.793423, 0.49455744, -0.09506321, 9.965971
1195753665764864, 6.437889, 0.72741807, 8.088937, -0.598921, 0.11798763, 10.345716
1195753675404969, 6.1064835, -0.5276174, 7.722835, 0.6328063, -0.15180159, 9.837997
1195753685044969, 6.4402823, 0.8003992, 8.177471, -0.6773005, 0.08512068, 10.417434
1195753694685073, 6.1028943, -0.4139583, 7.7407813, 0.508993, -0.14264727, 9.851749
1195753704325177, 6.437889, 0.573081, 8.139186, -0.44602013, 0.057478428, 10.383591
1195753713965281, 6.212964, -0.06819545, 7.7994056, 0.18661332, -0.019999504, 9.970009
1195753723605385, 6.337391, 0.078963146, 7.9274216, 0.05497527, 0.021532059, 10.149349
1195753733245385, 6.317052, 0.31345975, 7.9106717, -0.17905086, 0.057243824, 10.126539
1195753742885489, 6.229714, -0.3290131, 7.8197446, 0.4484526, -0.073394775, 9.992972
1195753752525594, 6.384051, 0.72263247, 8.126026, -0.5974646, 0.054867744, 10.341693
1195753762165698, 6.1100726, -0.5072784, 7.7742805, 0.6161848, -0.17069387, 9.880331
1195753771805802, 6.4175506, 0.82911307, 8.185846, -0.70654047, 0.040784836, 10.410553
1195753781445802, 6.084948, -0.40677986, 7.725228, 0.5184125, -0.14259481, 9.8276205
1195753791085906, 6.430711, 0.6580262, 8.07458, -0.52109736, 0.10498047, 10.329731
1195753800726010, 6.1447687, -0.078963146, 7.641479, 0.21241182, 0.008351803, 9.803644
1195753810366114, 6.2919273, 0.17228323, 7.7551384, -0.022264063, 0.09618378, 9.9875145
1195753820006219, 6.235696, 0.2943172, 7.670193, -0.14585978, 0.12388992, 9.887656
1195753829646219, 6.178268, -0.28953153, 7.6426754, 0.42631185, -0.01885271, 9.822588
1195753839286323, 6.3397837, 0.64965135, 7.969296, -0.50530577, 0.08462477, 10.191275
1195753848926427, 6.099305, -0.57427746, 7.7096744, 0.6837712, -0.19010305, 9.821747
1195753858566531, 6.4211397, 0.7477571, 8.142776, -0.6067687, 0.05064726, 10.37903
1195753868206635, 6.0658054, -0.4941179, 7.7300134, 0.5941971, -0.20639801, 9.818126
1195753877846635, 6.4055862, 0.64247286, 8.07458, -0.50121737, 0.07531357, 10.314371
1195753887486739, 6.0933228, -0.1591227, 7.6833534, 0.27245885, -0.084965706, 9.803386
1195753897126844, 6.2727847, 0.2416751, 7.8699937, -0.113431275, 0.013756275, 10.066281
1195753906766948, 6.195018, 0.27038896, 7.7216387, -0.14309222, 0.049539566, 9.902128
1195753916406948, 6.172286, -0.2428715, 7.692925, 0.36266887, -0.051276684, 9.859161
1195753926047052, 6.323034, 0.634098, 7.9154572, -0.49890792, 0.095048904, 10.138017
1195753935687156, 6.094519, -0.5072784, 7.6139617, 0.6214681, -0.108430386, 9.745508
1195753945327260, 6.424729, 0.78843504, 8.055437, -0.6476231, 0.11580372, 10.312905
1195753954967364, 6.1160545, -0.4941179, 7.6773715, 0.59484875, -0.12100077, 9.809375
1195753964607364, 6.4881387, 0.6963114, 8.187042, -0.5761169, 0.0692997, 10.453312
1195753974247469, 6.2105713, -0.19621146, 7.7910304, 0.30994195, -0.05770731, 9.960444
1195753983887573, 6.4235325, 0.28115666, 8.014759, -0.15185314, 0.05044222, 10.27383
1195753993527677, 6.303891, 0.20458634, 7.8089767, -0.08013278, 0.069720745, 10.037416
1195754003167677, 6.282356, -0.1698904, 7.7443705, 0.29682457, 0.01943016, 9.969135
1195754012807781, 6.3684974, 0.6041877, 7.8317084, -0.4603184, 0.17360735, 10.100319
1195754022447885, 6.105287, -0.51565325, 7.55773, 0.6240557, -0.07209158, 9.709021
1195754032087989, 6.355337, 0.7692925, 7.962117, -0.63709587, 0.0975852, 10.1961775
1195754041728094, 6.0370917, -0.52522457, 7.5996046, 0.61475015, -0.15728903, 9.699158
1195754051368094, 6.418747, 0.6987042, 8.116454, -0.5815996, 0.06583023, 10.354841
1195754061008198, 6.1268225, -0.27158538, 7.7407813, 0.37214845, -0.13051796, 9.867922
1195754070648302, 6.3684974, 0.3469593, 8.106883, -0.23408252, -0.040585995, 10.312286
1195754080288406, 6.2727847, 0.16510476, 7.879565, -0.050403595, -0.0068421364, 10.072738
1195754089928406, 6.32423, -0.13998012, 7.8580294, 0.26628608, -0.0123877525, 10.084297
1195754099568510, 6.4151573, 0.56590253, 7.952546, -0.42177188, 0.13558006, 10.223562
1195754109208614, 6.215357, -0.47138608, 7.6869426, 0.5931068, -0.06877327, 9.878534
1195754118848719, 6.4414787, 0.7848458, 8.053044, -0.6428395, 0.1320138, 10.321313
1195754128488719, 6.0897336, -0.5312066, 7.5960155, 0.6313031, -0.11449814, 9.729073
1195754138128823, 6.4414787, 0.70588267, 8.023134, -0.56558174, 0.12302446, 10.296919
1195754147768927, 6.1328044, -0.3278167, 7.5996046, 0.43752164, -0.052276134, 9.761075
1195754157409031, 6.3948183, 0.357727, 7.932207, -0.22326833, 0.0809865, 10.192408
1195754167049031, 6.2380886, 0.040677983, 7.7611203, 0.08799893, 0.0052103996, 9.957039
1195754176689135, 6.2787666, -0.13519448, 7.8604226, 0.25519753, -0.067270756, 10.057723
1195754186329239, 6.3493547, 0.4941179, 7.978867, -0.36232328, 0.06642389, 10.20221
1195754195969344, 6.1124654, -0.46660042, 7.7503524, 0.5651982, -0.20168257, 9.863458
1195754205609344, 6.3278193, 0.75493556, 8.033902, -0.6226132, 0.062316418, 10.2353945
1195754215249448, 6.0598235, -0.56111693, 7.5062847, 0.67789054, -0.11824703, 9.638834
1195754224889552, 6.385247, 0.7513463, 7.9393854, -0.6096882, 0.16316319, 10.196638
1195754234529656, 6.088537, -0.3505485, 7.519445, 0.46456242, -0.05539465, 9.670385
1195754244169656, 6.3828545, 0.4319045, 7.864012, -0.28197068, 0.12870121, 10.132818
1195754253809760, 6.1770716, 0.047856454, 7.6941214, 0.07602519, -0.0020074844, 9.866723
1195754263449864, 6.2775702, -0.010767702, 7.864012, 0.13111943, -0.035215855, 10.061424
1195754273089969, 6.2979093, 0.47976094, 7.995617, -0.36180028, -0.010503769, 10.182962
1195754282729969, 6.1770716, -0.4139583, 7.797013, 0.51406425, -0.15294933, 9.941495
1195754292370073, 6.40439, 0.7680961, 8.141579, -0.63927746, 0.04962063, 10.367272
1195754302010177, 6.0753765, -0.54675996, 7.7144604, 0.6462376, -0.19040108, 9.811634
1195754311650281, 6.445068, 0.7501499, 8.141579, -0.62815446, 0.08313036, 10.391603
1195754321290281, 6.125626, -0.3684947, 7.7096744, 0.4773034, -0.112030506, 9.841637
1195754330930385, 6.4462643, 0.5383851, 8.079366, -0.4043125, 0.07415962, 10.34173
1195754340570489, 6.262017, 0.03589234, 7.773084, 0.08637291, 0.029273033, 9.981316
1195754350210594, 6.384051, 0.025124637, 7.8783684, 0.11250198, 0.052749157, 10.139525
1195754359850594, 6.3804617, 0.41515473, 7.925029, -0.27498698, 0.093990326, 10.178618
1195754369490698, 6.2548385, -0.3924229, 7.7886376, 0.5198211, -0.067997456, 9.983238
1195754379130802, 6.4618177, 0.6963114, 8.075776, -0.55675185, 0.1186738, 10.350558
1195754388770906, 6.151947, -0.59342, 7.6570325, 0.71467376, -0.11057615, 9.813551
1195754398410906, 6.4773707, 0.762114, 8.047063, -0.61877877, 0.16183043, 10.338438
1195754408051010, 6.122037, -0.44626144, 7.5385876, 0.57342565, -0.046301365, 9.704526
1195754417691114, 6.411568, 0.4869394, 7.8867435, -0.33326668, 0.14556265, 10.169257
1195754427331219, 6.1064835, -0.062213387, 7.580462, 0.18601829, -0.01035738, 9.732508
1195754436971219, 6.2237315, 0.10289137, 7.719246, 0.026939929, 0.023486614, 9.916193
1195754446611323, 6.216553, 0.4139583, 7.765906, -0.2854709, 0.05102873, 9.951989
1195754456251427, 6.13759, -0.31106696, 7.7108707, 0.42762977, -0.109194756, 9.850357
1195754465891531, 6.3110695, 0.7118647, 8.060223, -0.5883233, -0.0056176186, 10.244872
1195754475531531, 6.026324, -0.5312066, 7.716853, 0.6297521, -0.23641968, 9.782437
1195754485171635, 6.3696938, 0.84347, 8.224132, -0.7310589, -0.025245667, 10.410847
1195754494811739, 6.0418773, -0.37328035, 7.7886376, 0.47456855, -0.2301135, 9.850296
1195754504451739, 6.428318, 0.63529444, 8.2014, -0.5011148, 0.010486126, 10.42778
1195754514091844, 6.256035, -0.025124637, 7.861619, 0.16011697, -0.043316364, 10.045704
1195754523731948, 6.4402823, 0.21774685, 7.9908314, -0.063541114, 0.06359911, 10.264988
1195754533372052, 6.424729, 0.38165522, 7.8987074, -0.22002113, 0.1360197, 10.185553
1195754543012052, 6.303891, -0.29312077, 7.77787, 0.4362715, -0.013351917, 10.006483
1195754552652156, 6.4354963, 0.6855437, 7.9597244, -0.5201546, 0.16090965, 10.244332
1195754562292260, 6.108876, -0.57547385, 7.5792656, 0.6957696, -0.11181164, 9.726161
1195754571932364, 6.3996043, 0.71306115, 7.952546, -0.55653125, 0.120783806, 10.216754
1195754581572364, 6.0227346, -0.53359944, 7.501499, 0.649543, -0.10806656, 9.612333
1195754591212469, 6.330212, 0.55513483, 7.9154572, -0.40937847, 0.054802418, 10.142172
1195754600852573, 6.0526447, -0.1902294, 7.60439, 0.3058129, -0.09122324, 9.71574
1195754610492677, 6.239285, 0.1902294, 7.8699937, -0.06020075, -0.04327154, 10.04471
1195754620132677, 6.2464633, 0.31345975, 7.804191, -0.17663193, 0.029484749, 9.9994955
1195754629772781, 6.259624, -0.16869399, 7.836494, 0.2991838, -0.07117462, 10.026337
1195754639412885, 6.5072813, 0.762114, 8.13799, -0.6097468, 0.101225376, 10.429304
1195754649052989, 6.2691956, -0.42951167, 7.8376904, 0.54708135, -0.12539768, 10.030038
1195754658692989, 6.599405, 0.8602197, 8.228917, -0.69760644, 0.14469576, 10.55934
1195754668333094, 6.224928, -0.46061835, 7.7587276, 0.57946175, -0.10457659, 9.9404745
1195754677973198, 6.4977098, 0.6257231, 8.117651, -0.48414397, 0.07577515, 10.405187
1195754687613198, 6.1830535, -0.2632105, 7.6426754, 0.4004196, -0.037095547, 9.825894
1195754697253302, 6.3361945, 0.15792629, 7.8029947, -0.012498558, 0.0534935, 10.052663
1195754706893406, 6.2285175, 0.08853444, 7.598408, 0.06123829, 0.08193922, 9.824848
1195754716533510, 6.186643, -0.357727, 7.5553374, 0.49898976, -0.0126791, 9.758919
1195754726173510, 6.279963, 0.51086766, 7.783852, -0.36390746, 0.08062363, 10.007416
1195754735813614, 6.070591, -0.54317075, 7.548159, 0.6563688, -0.1281147, 9.678562
1195754745453719, 6.4151573, 0.80159557, 7.960921, -0.6475333, 0.14218903, 10.233942
1195754755093823, 6.0933228, -0.49172506, 7.5409803, 0.60989225, -0.11463404, 9.687708
1195754764733823, 6.485746, 0.72741807, 7.978867, -0.56924695, 0.16758871, 10.290979
1195754774373927, 6.1531434, -0.21415763, 7.6103725, 0.33912718, -0.04308033, 9.783043
1195754784014031, 6.3661046, 0.34217364, 7.9106717, -0.20550263, 0.045878887, 10.157695
1195754793654135, 6.262017, 0.21296121, 7.7587276, -0.084105015, 0.03556633, 9.972346
1195754803294135, 6.3182483, -0.11246266, 7.8089767, 0.23856145, -0.012752056, 10.042707
1195754812934239, 6.4067826, 0.60777694, 8.006385, -0.4827662, 0.07623291, 10.260583
1195754822574344, 6.216553, -0.47018966, 7.8017983, 0.5669764, -0.15448141, 9.96942
1195754832214448, 6.501299, 0.81236327, 8.213364, -0.6963468, 0.06572437, 10.483174
1195754841854448, 6.189036, -0.5096712, 7.793423, 0.59959906, -0.166646, 9.945557
1195754851494552, 6.5312095, 0.7369894, 8.23131, -0.6167737, 0.07527447, 10.515143
1195754861134656, 6.1627145, -0.24885355, 7.82453, 0.33792555, -0.15307951, 9.956234
1195754870774760, 6.375676, 0.34097722, 8.112865, -0.2385621, -0.052094936, 10.32107
1195754880414760, 6.235696, 0.14476576, 7.9980097, -0.05650407, -0.12826014, 10.1416645
1195754890054864, 6.2177496, -0.10289137, 8.012366, 0.1787824, -0.20256376, 10.138837
1195754899694969, 6.3457656, 0.55513483, 8.012366, -0.44415623, 0.024372578, 10.226294
1195754909335073, 6.1064835, -0.47736812, 7.7479596, 0.55400264, -0.20842457, 9.858881
1195754918975073, 6.378069, 0.72263247, 7.9680996, -0.6006646, 0.11435127, 10.213652
1195754928615177, 6.033502, -0.587438, 7.373483, 0.69141394, -0.061902046, 9.520221
1195754938255281, 6.3290157, 0.6652047, 7.7706914, -0.535243, 0.16638279, 10.028381
1195754947895281, 6.0047884, -0.3900301, 7.391429, 0.4897455, -0.056027412, 9.518395
1195754957535385, 6.3134627, 0.3481557, 7.753942, -0.2275756, 0.095665455, 10.002184
1195754967175489, 6.178268, 0.013160525, 7.560123, 0.09519708, 0.051376343, 9.762938
1195754976815594, 6.3194447, -0.11964113, 7.6773715, 0.23793346, 0.06540918, 9.94137
1195754986455594, 6.401997, 0.46301118, 7.830512, -0.34283876, 0.14304066, 10.118244
1195754996095698, 6.257231, -0.44985065, 7.704889, 0.54577523, -0.060363293, 9.920641
1195755005735802, 6.533602, 0.74177504, 8.054241, -0.62839985, 0.15437841, 10.377393
1195755015375906, 6.212964, -0.5694918, 7.635497, 0.66964465, -0.061380386, 9.83737
1195755025015906, 6.535995, 0.7393822, 8.075776, -0.6288344, 0.15003538, 10.395487
1195755034656010, 6.172286, -0.37088752, 7.631908, 0.46609885, -0.057773113, 9.811223
1195755044296114, 6.378069, 0.44745782, 7.9908314, -0.35326684, 0.03877592, 10.22776
1195755053936219, 6.2033925, -0.0011964113, 7.743174, 0.09163177, -0.032618523, 9.921159
1195755063576219, 6.2847486, -0.038285162, 7.9429746, 0.11718446, -0.09612417, 10.127559
1195755073216323, 6.3565335, 0.42831525, 8.050652, -0.34431255, -0.012341976, 10.260763
1195755082856427, 6.236892, -0.4211368, 7.945368, 0.47769105, -0.21499872, 10.09607
1195755092496531, 6.5072813, 0.72741807, 8.279166, -0.63356394, 0.029094696, 10.536423
1195755102136531, 6.2009997, -0.5515456, 7.8077803, 0.6161608, -0.17254305, 9.96537
1195755111776635, 6.515656, 0.75493556, 8.191829, -0.658151, 0.091169834, 10.473219
1195755121416739, 6.1567326, -0.40558344, 7.678568, 0.49127543, -0.105763435, 9.837568
1195755131056844, 6.4163537, 0.485743, 8.008778, -0.37901926, 0.06562281, 10.266359
1195755140696948, 6.2009997, -0.05623133, 7.6869426, 0.15355653, -0.0070152283, 9.875273
1195755150336948, 6.3421764, 0.031106694, 7.780263, 0.077910244, 0.055971622, 10.037303
1195755159977052, 6.3074803, 0.38285163, 7.737192, -0.26935357, 0.12125683, 9.985379
1195755169617156, 6.1507506, -0.36490545, 7.5720873, 0.45843804, -0.04279709, 9.75138
1195755179257260, 6.314659, 0.7070791, 7.8257265, -0.59651595, 0.13729906, 10.061919
1195755188897260, 6.0083776, -0.5706882, 7.4715886, 0.6441187, -0.1498394, 9.58194
1195755198537364, 6.3541408, 0.7369894, 7.9094753, -0.6188176, 0.11749792, 10.152897
1195755208177469, 6.04427, -0.48454657, 7.5864444, 0.5637331, -0.17349577, 9.694031
1195755217817573, 6.401997, 0.5084748, 8.038688, -0.39983773, 0.03400469, 10.281225
1195755227457573, 6.2177496, -0.11724831, 7.737192, 0.22211885, -0.03493595, 9.9241
1195755237097677, 6.3684974, 0.0741775, 7.91785, 0.03723955, 0.0042881966, 10.161407
1195755246737781, 6.3481584, 0.30149564, 7.8831544, -0.18606746, 0.05249691, 10.124069
1195755256377885, 6.2668023, -0.37686956, 7.77787, 0.48175973, -0.06292105, 9.98369
1195755266017989, 6.4606214, 0.66041905, 8.079366, -0.5385209, 0.07154417, 10.351657
1195755275657989, 6.1914287, -0.5694918, 7.7240314, 0.67301375, -0.10912228, 9.892114
1195755285298094, 6.489335, 0.762114, 8.155936, -0.6531553, 0.07612324, 10.429727
1195755294938198, 6.1028943, -0.4546363, 7.749156, 0.543065, -0.17257738, 9.857826
1195755304578302, 6.428318, 0.56829536, 8.157132, -0.46068424, 0.0072870255, 10.390994
1195755314218302, 6.2117677, -0.12801601, 7.7682986, 0.22905344, -0.056531906, 9.94451
1195755323858406, 6.3924255, 0.17347965, 7.9334035, -0.05575019, 0.041602135, 10.189568
1195755333498510, 6.330212, 0.3361916, 7.8580294, -0.2193414, 0.07512236, 10.093538
1195755343138614, 6.256035, -0.24885355, 7.795816, 0.34606743, -0.07294989, 9.9924755
1195755352778614, 6.393622, 0.6963114, 8.085348, -0.5852299, 0.06384039, 10.314531
1195755362418719, 6.1100726, -0.50368917, 7.7180495, 0.5872525, -0.18676138, 9.8374405
1195755372058823, 6.4343, 0.7968099, 8.066205, -0.67462236, 0.10502958, 10.326307
1195755381698927, 6.0981083, -0.50368917, 7.5792656, 0.59184307, -0.11216831, 9.722297
1195755391339031, 6.4677997, 0.5766702, 7.9944205, -0.45502907, 0.12765932, 10.28846
1195755400979031, 6.236892, -0.24885355, 7.623533, 0.36654007, 0.023535728, 9.84602
1195755410619135, 6.3828545, 0.11724831, 7.905886, -0.0018795133, 0.027411938, 10.161538
1195755420259239, 6.296713, 0.19860429, 7.804191, -0.09230685, 0.03846693, 10.029131
1195755429899344, 6.2679987, -0.28594232, 7.7647095, 0.38574928, -0.039638042, 9.975466
1195755439539448, 6.4151573, 0.5706882, 7.9477606, -0.45607668, 0.10253239, 10.219017
1195755449179448, 6.13759, -0.5802595, 7.5924263, 0.6666793, -0.08934069, 9.757008
1195755458819552, 6.4474607, 0.7178468, 7.9274216, -0.5942366, 0.16185093, 10.224958
1195755468459656, 6.108876, -0.57188463, 7.446464, 0.66512597, -0.030278683, 9.625588
1195755478099760, 6.3972116, 0.6113662, 7.9357963, -0.49718153, 0.10541439, 10.198854
1195755487739760, 6.13759, -0.24646074, 7.6199436, 0.32861775, -0.06343174, 9.781732
1195755497379864, 6.375676, 0.25124636, 7.96451, -0.15388077, 0.002313137, 10.204024
1195755507019969, 6.2919273, 0.19142582, 7.9034934, -0.10646856, -0.031169891, 10.103361
1195755516660073, 6.323034, -0.1794617, 7.98126, 0.25634646, -0.12293959, 10.180013
1195755526300177, 6.4067826, 0.63529444, 8.178668, -0.5564388, -0.0025367737, 10.393818
1195755535940177, 6.1734824, -0.45942193, 7.830512, 0.5257385, -0.20699024, 9.965973
1195755545580281, 6.4271216, 0.80518484, 8.110473, -0.70219284, 0.06952, 10.355581
1195755555220385, 6.0897336, -0.4989035, 7.560123, 0.59001553, -0.09631395, 9.702156
1195755564860489, 6.430711, 0.6867401, 7.9908314, -0.5694086, 0.122345924, 10.263519
1195755574500594, 6.1447687, -0.276371, 7.5828547, 0.36720866, -0.03363037, 9.756962
1195755584140698, 6.3684974, 0.30867413, 7.8484583, -0.1917386, 0.08570242, 10.10976
1195755593780698, 6.265606, 0.11485548, 7.6869426, 0.0015022755, 0.0696578, 9.917421
1195755603420802, 6.270392, -0.19860429, 7.806584, 0.2980098, -0.061311245, 10.010366
1195755613060906, 6.367301, 0.5024927, 7.995617, -0.39877892, 0.038825035, 10.225674
1195755622701010, 6.1698933, -0.53240305, 7.7874413, 0.6030135, -0.20439243, 9.929244
1195755632341114, 6.4534426, 0.7369894, 8.177471, -0.62687683, 0.04229927, 10.424315
1195755641981114, 6.1387863, -0.56350976, 7.6797643, 0.6411078, -0.1654129, 9.825613
1195755651621219, 6.483353, 0.7070791, 8.050652, -0.5752685, 0.14116669, 10.343885
1195755661261323, 6.1064835, -0.30269206, 7.576873, 0.39660358, -0.061265945, 9.72773
1195755670901427, 6.3828545, 0.40797627, 7.838887, -0.28207248, 0.12508392, 10.11238
1195755680541531, 6.1974106, 0.13519448, 7.641479, -0.018085599, 0.049538136, 9.839493
1195755690181531, 6.2608204, -0.061016977, 7.7551384, 0.1728136, -0.0067982674, 9.965633
1195755699821635, 6.35773, 0.5288138, 7.8963146, -0.40712827, 0.081120014, 10.142969
1195755709461739, 6.227321, -0.424726, 7.7012997, 0.5374572, -0.0603137, 9.8983555
1195755719101844, 6.5228343, 0.74895346, 8.103293, -0.61418545, 0.13355827, 10.410408
1195755728741948, 6.215357, -0.59342, 7.735996, 0.68781245, -0.11583805, 9.91675
1195755738382052, 6.518049, 0.69152576, 8.19781, -0.57186896, 0.06506395, 10.480266
1195755748022052, 6.168697, -0.35174492, 7.757531, 0.4309637, -0.12959766, 9.907235
1195755757662156, 6.4199433, 0.42831525, 8.038688, -0.32061946, 0.046216488, 10.291488
1195755767302260, 6.2201424, 0.02632105, 7.7479596, 0.06335634, -0.011788845, 9.935673
1195755776942364, 6.285945, -0.062213387, 7.759924, 0.16079438, 0.008620262, 9.985363
1195755786582469, 6.276374, 0.4127619, 7.7682986, -0.3101492, 0.0931077, 9.990237
1195755796222573, 6.1208405, -0.49172506, 7.533802, 0.57910216, -0.0649333, 9.701808
1195755805862573, 6.3601227, 0.66161543, 7.865208, -0.55924404, 0.15481853, 10.119965
1195755815502677, 6.0801625, -0.6161518, 7.519445, 0.6951159, -0.11477995, 9.6640415
1195755825142781, 6.4905314, 0.701097, 8.082955, -0.5956198, 0.11746502, 10.372276
1195755834782885, 6.2237315, -0.44626144, 7.826923, 0.50534475, -0.14796162, 9.995871
1195755844422989, 6.570691, 0.43908295, 8.3581295, -0.3602203, -0.025272846, 10.6346
1195755854063094, 6.4008007, -0.011964113, 8.117651, 0.073103786, -0.09916258, 10.336898
1195755863703094, 6.541977, 0.049052864, 8.166703, 0.038794518, -0.009016991, 10.463905
1195755873343198, 6.463014, 0.4139583, 8.126026, -0.3260538, 0.026458263, 10.385913
1195755882983302, 6.2548385, -0.41994038, 7.8077803, 0.5014848, -0.11517954, 9.999802
1195755892623406, 6.398408, 0.6879365, 8.021938, -0.59372944, 0.08376789, 10.2666855
1195755902263510, 6.013163, -0.6125626, 7.4847493, 0.68352157, -0.13232851, 9.595318
1195755911903614, 6.279963, 0.71306115, 7.812566, -0.61678725, 0.11488533, 10.029404
1195755921543719, 5.8935223, -0.485743, 7.3459654, 0.56033015, -0.13107252, 9.412844
1195755931183719, 6.2584276, 0.47856453, 7.7503524, -0.37578642, 0.079741955, 9.965809
1195755940823823, 6.117251, -0.09930214, 7.470392, 0.19739616, 0.038499355, 9.653857
1195755950463927, 6.3086767, 0.015553347, 7.7312098, 0.08417684, 0.047609806, 9.978073
1195755960104031, 6.3278193, 0.33379877, 7.8592257, -0.24665827, 0.050022125, 10.092412
1195755969744135, 6.270392, -0.33738798, 7.800602, 0.40839356, -0.09315586, 10.005277
1195755979384239, 6.502496, 0.71665037, 8.147561, -0.6330501, 0.09058905, 10.429277
1195755989024344, 6.1938214, -0.5371887, 7.763513, 0.58754086, -0.17571974, 9.927136
1195755998664344, 6.526424, 0.8111669, 8.161918, -0.71313304, 0.112905025, 10.45695
1195756008304448, 6.1447687, -0.42711884, 7.5924263, 0.5119648, -0.07257223, 9.7631035
1195756017944552, 6.424729, 0.57188463, 7.9680996, -0.47194344, 0.11039543, 10.240113
1195756027584656, 6.1507506, -0.11844472, 7.598408, 0.20424211, -0.009846687, 9.774445
1195756037224760, 6.350551, 0.09930214, 7.7682986, 0.009952068, 0.08233881, 10.033891
1195756046864864, 6.300302, 0.27756742, 7.792227, -0.17496526, 0.064745426, 10.022716
1195756056504969, 6.2261243, -0.36610186, 7.8053875, 0.44631034, -0.12861776, 9.980331
1195756066145073, 6.418747, 0.5946164, 8.187042, -0.51395386, -0.022555828, 10.40754
1195756075785073, 6.181857, -0.6257231, 7.818548, 0.6846311, -0.22172594, 9.960858
1195756085425177, 6.485746, 0.72502524, 8.270791, -0.6392919, 0.02281475, 10.516052
1195756095065281, 6.099305, -0.5204389, 7.765906, 0.5876102, -0.22378731, 9.86845
1195756104705385, 6.4331036, 0.59700924, 8.139186, -0.49535215, 0.025084496, 10.379865
1195756114345489, 6.1710896, -0.15314065, 7.7383885, 0.2386589, -0.081765175, 9.895697
1195756123985594, 6.367301, 0.19501504, 7.897511, -0.09386152, 0.04455757, 10.145956
1195756133625698, 6.262017, 0.2632105, 7.7790666, -0.16364741, 0.051338196, 9.988322
1195756143265802, 6.2991056, 0.05623133, 7.8317084, 0.035330236, -5.3167343E-4, 10.050688
1195756152905802, 6.314659, 0.106480606, 7.773084, -0.0054597855, 0.05317402, 10.015202
1195756162545906, 6.3086767, 0.096909314, 7.7587276, 0.003713727, 0.05449438, 10.000183
1195756172186010, 6.3338017, 0.076570325, 7.7443705, 0.029023647, 0.07845163, 10.0045595
1195756181826114, 6.3517475, 0.05742774, 7.797013, 0.046535075, 0.05479765, 10.056651
1195756191466219, 6.3565335, 0.03589234, 7.7850485, 0.070447385, 0.0608387, 10.05013
1195756201106323, 6.344569, 0.025124637, 7.752745, 0.08109993, 0.072178364, 10.017359
1195756210746427, 6.309873, -0.0023928226, 7.735996, 0.10550803, 0.050517082, 9.982306
1195756220386531, 6.2751775, 0.015553347, 7.759924, 0.079652905, 0.012294292, 9.97938
1195756230026635, 6.239285, 0.051445685, 7.816155, 0.034309328, -0.04244089, 10.001031
1195756239666739, 6.2775702, 0.08733802, 7.830512, 0.00304991, -0.013777733, 10.036545
1195756249306739, 6.273981, 0.08135597, 7.8149586, 0.0115183, -0.0058608055, 10.022118
1195756258946844, 6.2404814, 0.11485548, 7.9034934, -0.034707308, -0.07840347, 10.070484
1195756268586948, 6.250053, 0.14955142, 7.9537425, -0.071470976, -0.09214687, 10.116024
1195756278227052, 6.2679987, 0.17587246, 7.9836526, -0.10044801, -0.089101315, 10.150833
1195756287867156, 6.303891, 0.18424734, 7.9704924, -0.09532249, -0.045494556, 10.163198
1195756297507260, 6.300302, 0.17826529, 7.9226356, -0.083598554, -0.02078104, 10.123553
1195756307147364, 6.2919273, 0.18424734, 7.8723865, -0.08079791, 0.0062561035, 10.079197
1195756316787469, 6.3338017, 0.13399807, 7.795816, -0.0103263855, 0.071445465, 10.045126
1195756326427573, 6.3278193, 0.08135597, 7.7814593, 0.043907404, 0.06230116, 10.029615
1195756336067677, 6.34098, 0.034695927, 7.804191, 0.089794874, 0.046088696, 10.055071
1195756345707781, 6.35773, 0.025124637, 7.826923, 0.09627116, 0.0454607, 10.083192
1195756355347781, 6.35773, 0.02632105, 7.865208, 0.087156475, 0.024780273, 10.113096
1195756364987885, 6.29432, 0.050249275, 7.9346, 0.04695809, -0.062259197, 10.127823
1195756374627989, 6.263213, 0.069391854, 7.895118, 0.020767212, -0.057658195, 10.077787
1195756384268094, 6.2584276, 0.09930214, 7.9011, -0.009557664, -0.060096264, 10.079756
1195756393908198, 6.257231, 0.12083755, 7.8580294, -0.033506572, -0.032059193, 10.045597
1195756403548302, 6.2727847, 0.14596218, 7.844869, -0.05499798, -0.007885456, 10.045299
1195756413188406, 6.2787666, 0.12562318, 7.85444, -0.037008762, -0.0131726265, 10.056311
1195756422828510, 6.3074803, 0.14117654, 7.844869, -0.047320604, 0.016376019, 10.066961
1195756432468614, 6.314659, 0.16510476, 7.844869, -0.06897843, 0.026023865, 10.07168
1195756442108719, 6.326623, 0.1591227, 7.8628154, -0.060959578, 0.0236907, 10.09312
1195756451748823, 6.3338017, 0.148355, 7.836494, -0.04354751, 0.042859077, 10.077002
1195756461388927, 6.2955165, 0.13998012, 7.8113694, -0.03537321, 0.027255058, 10.033375
1195756471029031, 6.302695, 0.11844472, 7.8029947, -0.009746671, 0.033012867, 10.03113
1195756480669135, 6.2931237, 0.09810573, 7.861619, 0.0049729943, -0.014366627, 10.070643
1195756490309239, 6.3134627, 0.104087785, 7.905886, -0.002436161, -0.024998665, 10.117958
1195756499949239, 6.343373, 0.09810573, 7.940582, 0.005045533, -0.022786617, 10.163675
1195756509589344, 6.3182483, 0.08733802, 7.958528, 0.011069655, -0.05380726, 10.161842
1195756519229448, 6.265606, 0.11006984, 7.982456, -0.019959986, -0.10735655, 10.147788
1195756528869552, 6.2644095, 0.13280165, 7.925029, -0.034867585, -0.06940079, 10.1025
1195756538509656, 6.2584276, 0.13399807, 7.84128, -0.026717305, -0.022490025, 10.033459
1195756548149760, 6.259624, 0.1268196, 7.7623167, -0.010968745, 0.025838852, 9.972549
1195756557789864, 6.250053, 0.124426775, 7.745567, -0.0058544874, 0.024978638, 9.953482
1195756567429969, 6.2775702, 0.11006984, 7.7479596, 0.011717141, 0.04207611, 9.972411
1195756577070073, 6.326623, 0.10289137, 7.780263, 0.022731006, 0.058071136, 10.028229
1195756586710177, 6.3696938, 0.07776674, 7.793423, 0.052567005, 0.07924366, 10.06516
1195756596350281, 6.3804617, 0.08973085, 7.838887, 0.03774655, 0.061415195, 10.107489
1195756605990385, 6.3888364, 0.08853444, 7.844869, 0.040569007, 0.063847065, 10.117377
1195756615630489, 6.3565335, 0.069391854, 7.897511, 0.050531447, 0.0030021667, 10.137971
1195756625270594, 6.3768725, 0.062213387, 7.9130645, 0.0587188, 0.008022308, 10.162748
1195756634910698, 6.3326054, 0.069391854, 7.867601, 0.049940586, 0.0033106804, 10.09967
1195756644550802, 6.283552, 0.08255238, 7.8197446, 0.034085214, -0.0038762093, 10.031803
1195756654190906, 6.2321067, 0.09332009, 7.7647095, 0.019881904, -0.011415005, 9.95681
1195756663831010, 6.1854467, 0.1268196, 7.725228, -0.015731573, -0.017038345, 9.897194
1195756673471114, 6.202196, 0.12203395, 7.746763, -0.010923803, -0.018529892, 9.924416
1195756683111219, 6.2668023, 0.13399807, 7.844869, -0.022273958, -0.023000717, 10.041499
1195756692751323, 6.3314085, 0.13758731, 7.9154572, -0.02366352, -0.016496658, 10.137026
1195756702391427, 6.3661046, 0.1268196, 7.987242, -0.014496446, -0.03055191, 10.21461
1195756712031427, 6.361319, 0.104087785, 8.002795, 0.0056135654, -0.04755974, 10.223484
1195756721671635, 6.3457656, 0.09571291, 7.9704924, 0.01409328, -0.040627003, 10.188463
1195756731311635, 6.29432, 0.086141616, 7.885547, 0.022033155, -0.03052187, 10.089911
1195756740951739, 6.296713, 0.09332009, 7.8017983, 0.023216903, 0.024307728, 10.026178
1195756750591844, 6.2679987, 0.0741775, 7.776674, 0.036012232, 0.011602879, 9.988421
1195756760231948, 6.273981, 0.08015956, 7.7407813, 0.0339489, 0.039503098, 9.964249
1195756769872052, 6.2691956, 0.08135597, 7.7503524, 0.028328061, 0.029436588, 9.968739
1195756779512156, 6.2548385, 0.124426775, 7.739585, -0.01857847, 0.030861855, 9.951803
1195756789152260, 6.227321, 0.11964113, 7.7347994, -0.020216882, 0.010406971, 9.930781
1195756798792364, 6.224928, 0.101694964, 7.7910304, -0.006820023, -0.027246475, 9.972937
1195756808432469, 6.24766, 0.10767702, 7.8029947, -0.0108965635, -0.012086391, 9.996567
1195756818072573, 6.3278193, 0.12083755, 7.836494, -0.01735723, 0.030900955, 10.072998
1195756827712677, 6.3254266, 0.1160519, 7.948957, -0.022430837, -0.037282944, 10.159159
1195756837352781, 6.3385873, 0.106480606, 7.946564, -0.01114285, -0.022259712, 10.165447
1195756846992885, 6.334998, 0.11006984, 7.911868, -0.011795461, -0.0016646385, 10.136165
1195756856632989, 6.317052, 0.12203395, 7.864012, -0.021030247, 0.016970158, 10.087715
1195756866273094, 6.3050876, 0.12921242, 7.8077803, -0.023689508, 0.04394293, 10.036423
1195756875913198, 6.2775702, 0.15194423, 7.792227, -0.048981845, 0.03631258, 10.0073
1195756885553302, 6.2416778, 0.12083755, 7.8233337, -0.02695471, -0.015539169, 10.008832
1195756895193406, 6.245267, 0.11485548, 7.8664045, -0.024672031, -0.04066181, 10.044631
1195756904833510, 6.2871413, 0.11485548, 7.908279, -0.02304107, -0.028479576, 10.103508
1195756914473614, 6.3182483, 0.1052842, 7.9537425, -0.013246536, -0.031764984, 10.158356
1195756924113719, 6.3589263, 0.12801601, 8.006385, -0.03442967, -0.027990818, 10.225096
1195756933753823, 6.378069, 0.1160519, 8.009974, -0.020424962, -0.017420292, 10.239736
1195756943393927, 6.3601227, 0.09810573, 7.9944205, 6.830692E-5, -0.026031971, 10.2162075
1195756953034031, 6.3744793, 0.10289137, 7.975278, -0.0010012984, -0.0023870468, 10.210272
1195756962674135, 6.384051, 0.104087785, 7.905886, 0.0071605444, 0.04701662, 10.162072
1195756972314239, 6.37089, 0.12203395, 7.897511, -0.011175096, 0.043351173, 10.147504
1195756981954344, 6.3421764, 0.13878371, 7.8927255, -0.03289473, 0.01850748, 10.126013
1195756991594448, 6.3194447, 0.11844472, 7.8281193, -0.009723604, 0.037357807, 10.06118
1195757001234552, 6.283552, 0.10049855, 7.776674, 0.008122146, 0.029549122, 9.998443
1195757010874656, 6.2344995, 0.09571291, 7.7156568, 0.01202637, 0.028802872, 9.920107
1195757020514760, 6.1878395, 0.09810573, 7.6893353, 0.007890344, 0.0038876534, 9.870399
1195757030154864, 6.157929, 0.05742774, 7.7300134, 0.041320026, -0.05245781, 9.8829155
1195757039794969, 6.175875, 0.062213387, 7.763513, 0.037549257, -0.056815624, 9.920322
1195757049435073, 6.224928, 0.086141616, 7.8173513, 0.016726553, -0.0458436, 9.993285
1195757059075177, 6.265606, 0.09332009, 7.8293157, 0.014411628, -0.020743847, 10.028163
1195757068715281, 6.2811594, 0.10289137, 7.8963146, 0.0015357137, -0.04629183, 10.090252
1195757078355385, 6.2991056, 0.09451649, 7.9226356, 0.009887159, -0.049435616, 10.121921
1195757087995489, 6.3290157, 0.13160525, 7.9238324, -0.022971094, -0.019527435, 10.141991
1195757097635594, 6.3517475, 0.15553348, 7.8903327, -0.039837837, 0.022987843, 10.130358
1195757107275698, 6.3326054, 0.14117654, 7.8460655, -0.024828494, 0.032618046, 10.083694
1195757116915802, 6.3517475, 0.15433706, 7.8149586, -0.0328843, 0.06754589, 10.071567