timestamp_acc,device_acc_x,device_acc_y,device_acc_z,earth_acc_x,earth_acc_y,earth_acc_z
180803731196256, 4.3836513, 0.5192425, 9.077172, -0.02260673, 0.021717548, 10.093567
180803740835631, 4.386044, 0.52163535, 9.053245, -0.020781398, 0.0345757, 10.073188
180803750475006, 4.386044, 0.53359944, 9.016156, -0.026166081, 0.05181837, 10.040409
180803760114277, 4.368098, 0.5491528, 9.006584, -0.04569173, 0.04771638, 10.024773
180803769753652, 4.3669014, 0.5072784, 8.999406, -0.0064179897, 0.029475212, 10.015765
180803779392922, 4.3728833, 0.46899325, 8.965906, 0.035268784, 0.032513857, 9.986353
180803789032297, 4.371687, 0.43908295, 8.96471, 0.06283414, 0.019621134, 9.983294
180803798671568, 4.347759, 0.4235296, 9.010174, 0.061291218, -0.02513361, 10.013052
180803808310943, 4.3357944, 0.41874397, 9.052048, 0.05512047, -0.049678564, 10.045324
180803817950214, 4.3465624, 0.45224348, 9.073584, 0.025847912, -0.032527447, 10.071013
180803827589589, 4.348955, 0.5024927, 9.123833, -0.025866866, -0.030807018, 10.119714
180803837228860, 4.368098, 0.5347959, 9.156136, -0.0523628, -0.013604879, 10.15865
180803846868235, 4.341777, 0.5455636, 9.152547, -0.070996046, -0.02870369, 10.144552
180803856507506, 4.348955, 0.5276174, 9.107083, -0.045791864, -0.011248589, 10.105866
180803866146881, 4.3334017, 0.51565325, 9.047262, -0.032309413, -0.004455328, 10.044708
180803875786256, 4.3501515, 0.48454657, 9.01137, 0.006456256, 0.008432865, 10.018146
180803885425527, 4.351348, 0.45702913, 9.005388, 0.0328902, 8.3231926E-4, 10.011945
180803895064902, 4.3788652, 0.44147578, 8.997013, 0.05748105, 0.019591808, 10.015585
180803904704172, 4.377669, 0.4642076, 8.995817, 0.034374356, 0.0288167, 10.015097
180803914343547, 4.382455, 0.47856453, 8.993423, 0.023432493, 0.039148092, 10.015713
180803923982818, 4.3561335, 0.50009996, 9.031709, -0.0112274885, 0.010666609, 10.039798
180803933622193, 4.3465624, 0.5024927, 9.066405, -0.02162373, -0.010038137, 10.066988
180803943261464, 4.341777, 0.5192425, 9.080762, -0.040180802, -0.012545824, 10.078646
180803952900839, 4.351348, 0.51445687, 9.096315, -0.0334208, -0.01204586, 10.096563
180803962540110, 4.354937, 0.5024927, 9.078369, -0.018736482, -0.006154537, 10.0813875
180803972179485, 4.371687, 0.49651068, 9.0436735, -0.0028133392, 0.020012856, 10.057126
180803981818860, 4.354937, 0.4761717, 9.022138, 0.012327313, 0.006547451, 10.029507
180803991458131, 4.3441696, 0.47736812, 9.022138, 0.0064356327, -0.0030405521, 10.0249
180804001097506, 4.3465624, 0.46779683, 8.989835, 0.019151807, 0.008201838, 9.996406
180804010736777, 4.3645086, 0.47377887, 8.987442, 0.019224763, 0.026822805, 10.002321
180804020376152, 4.341777, 0.46061835, 9.007781, 0.019884229, -0.005544901, 10.010138
180804030015422, 4.338187, 0.4761717, 9.064013, -0.003843546, -0.02498269, 10.059936
180804039654797, 4.3274198, 0.48933223, 9.077172, -0.021324396, -0.0308249, 10.067755
180804049294068, 4.3525443, 0.5024927, 9.062816, -0.021858811, 9.2864037E-4, 10.066345
180804058933443, 4.3764725, 0.4977071, 9.068798, -0.007821441, 0.016580105, 10.081865
180804068572714, 4.371687, 0.5276174, 9.060423, -0.035832882, 0.028137684, 10.07369
180804078212089, 4.3561335, 0.51565325, 9.056833, -0.03034687, 0.010977268, 10.063151
180804087851464, 4.362116, 0.50368917, 9.0233345, -0.012326956, 0.023923874, 10.035019
180804097490735, 4.3525443, 0.47018966, 9.036494, 0.012463212, -0.0032417774, 10.041105
180804107130110, 4.341777, 0.46061835, 9.0233345, 0.018273473, -0.010288477, 10.024138
180804116769381, 4.348955, 0.47018966, 9.007781, 0.01388824, 0.005818367, 10.01371
180804126408756, 4.3764725, 0.45224348, 9.006584, 0.039908767, 0.022799253, 10.023695
180804136048027, 4.345366, 0.4438686, 9.0341015, 0.031816006, -0.01672411, 10.034588
180804145687402, 4.358526, 0.48095736, 9.046066, 4.943609E-4, 0.004609108, 10.05283
180804155326672, 4.3609195, 0.4881358, 9.059227, -0.006897211, 0.0038897991, 10.066054
180804164966047, 4.345366, 0.5096712, 9.060423, -0.032530665, -5.1283836E-4, 10.06142
180804174605318, 4.345366, 0.51445687, 9.032906, -0.033037186, 0.013943195, 10.036882
180804184244693, 4.354937, 0.5300102, 9.017352, -0.041261196, 0.034091473, 10.02777
180804193883964, 4.3561335, 0.5072784, 9.018549, -0.019730091, 0.025998116, 10.028279
180804203523339, 4.3537407, 0.49651068, 9.041281, -0.013590813, 0.009178638, 10.047192
180804213162714, 4.3537407, 0.48215377, 9.035298, 4.749298E-4, 0.0053112507, 10.0411215
180804222801985, 4.368098, 0.4761717, 9.044869, 0.011112213, 0.010982275, 10.055666
180804232441360, 4.351348, 0.465404, 9.050852, 0.014389038, -0.009548426, 10.053281
180804242080631, 4.3609195, 0.4833502, 9.040084, 0.0032423735, 0.009836674, 10.048595
180804251720006, 4.3537407, 0.48095736, 9.016156, 0.0059541464, 0.012240648, 10.023835
180804261359277, 4.3561335, 0.49651068, 8.997013, -0.004693985, 0.027570963, 10.008391
180804270998652, 4.348955, 0.485743, 9.005388, 0.0010650158, 0.013864517, 10.012301
180804280637922, 4.3441696, 0.4869394, 9.008977, -0.0024516582, 0.007843494, 10.013517
180804290277297, 4.3501515, 0.50129634, 9.017352, -0.014275074, 0.015181303, 10.024336
180804299916568, 4.3465624, 0.485743, 9.037691, -0.004073739, -0.0023252964, 10.0403385
180804309555943, 4.347759, 0.45942193, 9.053245, 0.018832207, -0.018344164, 10.053589
180804319195214, 4.3501515, 0.47018966, 9.075976, 0.0077131987, -0.018658161, 10.075605
180804328834589, 4.3465624, 0.48095736, 9.084352, -0.004671335, -0.020474672, 10.0821085
180804338473964, 4.345366, 0.49172506, 9.085547, -0.01512301, -0.01651287, 10.083188
180804348113235, 4.3298125, 0.4881358, 9.077172, -0.017116785, -0.027372122, 10.068743
180804357752506, 4.369294, 0.4881358, 9.052048, 0.0023310184, 0.014065981, 10.063221
180804367391881, 4.369294, 0.4869394, 9.014959, 0.007989526, 0.027633667, 10.029781
180804377031256, 4.3633122, 0.47377887, 8.983852, 0.022079468, 0.03008318, 9.998558
180804386670527, 4.365705, 0.4869394, 8.993423, 0.009480119, 0.03249097, 10.008846
180804396309902, 4.3501515, 0.4869394, 9.025727, -0.0019596815, 0.0059411526, 10.031183
180804405949172, 4.348955, 0.5204389, 9.041281, -0.034220934, 0.013259649, 10.046278
180804415588547, 4.351348, 0.5084748, 9.060423, -0.023676157, 0.0031154156, 10.063968
180804425227818, 4.358526, 0.5240282, 9.078369, -0.03747058, 0.008160114, 10.083981
180804434867193, 4.3633122, 0.50488555, 9.077172, -0.016817331, 0.0054984093, 10.084054
180804444506464, 4.3465624, 0.4833502, 9.06162, -2.6762486E-4, -0.010447502, 10.061762
180804454145839, 4.3501515, 0.48933223, 9.049655, -0.0024249554, -1.2111664E-4, 10.052836
180804463785110, 4.342973, 0.47976094, 9.036494, 0.0052605867, -0.0046215057, 10.037418
180804473424485, 4.35733, 0.465404, 9.014959, 0.02650094, 0.008802652, 10.023556
180804483063756, 4.341777, 0.48215377, 8.99462, 0.0074127913, 0.010479927, 9.999327
180804492703131, 4.339384, 0.4833502, 8.99462, 0.0053952932, 0.009020805, 9.998349
180804502342402, 4.3202415, 0.4761717, 8.986245, 0.0059634447, -0.005780697, 9.982172
180804511981777, 4.325027, 0.4869394, 8.988638, -0.0024033785, 0.0014297962, 9.98692
180804521621047, 4.3501515, 0.4977071, 9.013762, -0.0052604675, 0.018198967, 10.020933
180804531260422, 4.341777, 0.4749753, 9.071191, 0.0049595833, -0.02147317, 10.0679035
180804540899693, 4.359723, 0.47018966, 9.093923, 0.014801741, -0.015144825, 10.0959015
180804550539068, 4.3669014, 0.47258246, 9.075976, 0.017663598, -8.301735E-4, 10.082967
180804560178339, 4.3537407, 0.47138608, 9.050852, 0.017308116, 4.4107437E-5, 10.054595
180804569817714, 4.348955, 0.4869394, 9.060423, 6.67572E-6, -0.0018246174, 10.061897
180804579456985, 4.322634, 0.5096712, 9.055637, -0.031077027, -0.013939142, 10.047305
180804589096360, 4.336991, 0.50488555, 9.037691, -0.019155502, 0.0033502579, 10.037126
180804598735631, 4.341777, 0.52283174, 9.019745, -0.030363321, 0.022512674, 10.023909
180804608375006, 4.334598, 0.5084748, 9.026923, -0.020630717, 0.008142948, 10.026572
180804618014277, 4.3501515, 0.49052864, 9.071191, -0.0030385256, -0.0047523975, 10.072284
180804627653652, 4.3357944, 0.46301118, 9.085547, 0.015973806, -0.033338785, 10.077663
180804637292922, 4.338187, 0.44985065, 9.046066, 0.034515977, -0.019613266, 10.042508
180804646932297, 4.334598, 0.45942193, 9.020942, 0.026865363, -0.00797987, 10.018803
180804656571568, 4.348955, 0.47138608, 9.030513, 0.019008279, 0.0038568974, 10.034212
180804666210943, 4.351348, 0.4989035, 8.997013, -0.0010603666, 0.030373573, 10.006421
180804675850214, 4.3525443, 0.52283174, 8.973084, -0.020126939, 0.050106287, 9.986558
180804685489589, 4.3669014, 0.55393845, 8.962317, -0.041310072, 0.07793784, 9.984591
180804695128860, 4.3537407, 0.5419743, 8.971889, -0.03470671, 0.05628419, 9.986952
180804704768235, 4.3405805, 0.51445687, 9.01137, -0.01900661, 0.018363714, 10.015457
180804714407506, 4.347759, 0.4989035, 9.035298, -0.0041702986, 0.009934902, 10.039344
180804724046881, 4.3525443, 0.485743, 9.052048, 0.00816071, 0.0034093857, 10.055849
180804733686152, 4.3537407, 0.45822555, 9.069994, 0.031207561, -0.013563395, 10.071179
180804743325527, 4.3501515, 0.4642076, 9.056833, 0.026222467, -0.008624554, 10.058069
180804752964797, 4.3262234, 0.46899325, 9.059227, 0.010633588, -0.025902033, 10.050123
180804762604172, 4.3094735, 0.40797627, 9.0544405, 0.059155464, -0.064002514, 10.035603
180804772243443, 4.473382, 0.9523434, 9.132208, -0.36966825, 0.27985573, 10.202957
180804781882818, 4.1240296, -0.08015956, 8.920443, 0.43368137, -0.37634635, 9.811148
180804791522089, 4.5008993, 0.96550393, 9.189635, -0.37493956, 0.27939272, 10.267474
180804801161464, 4.2221355, 0.21655045, 8.930014, 0.20654881, -0.16880322, 9.876604
180804810800735, 4.3812585, 0.47018966, 9.072387, 0.029997349, 0.013832569, 10.0858135
180804820440006, 4.4051867, 0.7788638, 9.029316, -0.22923219, 0.18969464, 10.072354
180804830079381, 4.214957, -0.08733802, 9.032906, 0.46475053, -0.35762715, 9.951031
180804839718652, 4.5332026, 1.1736795, 9.193225, -0.55273926, 0.3929236, 10.294802
180804849358027, 4.091727, -0.32542387, 8.935996, 0.6478274, -0.5160582, 9.798681
180804858997297, 4.6097727, 1.2993027, 9.189635, -0.6317924, 0.50945663, 10.330967
180804868636672, 4.091727, -0.22971097, 8.894122, 0.5680219, -0.45720077, 9.76569
180804878275943, 4.537988, 1.0360922, 9.199206, -0.4414388, 0.33321834, 10.294966
180804887915318, 4.2257247, 0.2117648, 8.913264, 0.21408165, -0.15920186, 9.862897
180804897554589, 4.4075794, 0.53359944, 9.062816, -0.0143767595, 0.061401606, 10.091687
180804907193964, 4.388437, 0.7405786, 8.975478, -0.1990838, 0.17287421, 10.014816
180804916833235, 4.241278, -0.040677983, 8.992228, 0.44112074, -0.29030252, 9.928313
180804926472610, 4.5631127, 1.1712867, 9.139386, -0.5305146, 0.43570495, 10.259192
180804936111881, 4.1228333, -0.35533416, 8.9108715, 0.698727, -0.4875009, 9.787839
180804945751152, 4.60738, 1.2753744, 9.145369, -0.62462974, 0.50870323, 10.28802
180804955390527, 4.0941195, -0.29192436, 8.846265, 0.6276889, -0.45004416, 9.721466
180804965029797, 4.5451665, 1.0851451, 9.186047, -0.49080992, 0.35201836, 10.288573
180804974669172, 4.180261, 0.14596218, 8.945567, 0.26049376, -0.23991466, 9.868823
180804984308443, 4.4075794, 0.567099, 9.126225, -0.059522986, 0.04288411, 10.150417
180804993947818, 4.371687, 0.71425754, 9.02812, -0.19741392, 0.120022535, 10.053626
180805003587089, 4.2460637, 0.021535404, 9.030513, 0.38739753, -0.26429772, 9.967937
180805013226360, 4.5595236, 1.14018, 9.1681, -0.5334357, 0.3900504, 10.281374
180805022865735, 4.159922, -0.33140594, 8.932407, 0.6929885, -0.4486425, 9.82452
180805032505006, 4.642076, 1.3411771, 9.116654, -0.6734046, 0.5460143, 10.281508
180805042144381, 4.1084766, -0.2835495, 8.773284, 0.6523634, -0.4037466, 9.661362
180805051783652, 4.5475593, 1.1210374, 9.127422, -0.50764215, 0.37757587, 10.239463
180805061423027, 4.1587257, 0.12083755, 8.852247, 0.28287256, -0.23752546, 9.774224
180805071062297, 4.4039903, 0.67118675, 9.053245, -0.14828539, 0.1071856, 10.08828
180805080701672, 4.351348, 0.65682983, 8.935996, -0.13853395, 0.11406684, 9.959192
180805090340943, 4.258028, 0.06580263, 9.026923, 0.34834433, -0.2520485, 9.971741
180805099980214, 4.51406, 1.1138589, 9.229117, -0.52855265, 0.32264233, 10.315551
180805109619589, 4.133601, -0.30508488, 9.090333, 0.616148, -0.53608537, 9.9572525
180805119258860, 4.59063, 1.3100704, 9.317652, -0.67081964, 0.43386674, 10.438897
180805128898235, 4.080959, -0.32063824, 8.96471, 0.63858783, -0.54599524, 9.819224
180805138537506, 4.5475593, 1.1844472, 9.266206, -0.5598408, 0.36914206, 10.368032
180805148176777, 4.159922, 0.05742774, 8.944371, 0.32833862, -0.30102324, 9.854522
180805157816152, 4.473382, 0.70229346, 9.081959, -0.13994277, 0.16305661, 10.145944
180805167455422, 4.358526, 0.59342, 8.863015, -0.05979204, 0.11128974, 9.893736
180805177094797, 4.3262234, 0.1052842, 8.941978, 0.35693395, -0.16363811, 9.926333
180805186734068, 4.534399, 1.0576276, 9.0436735, -0.43010187, 0.3675425, 10.156147
180805196373339, 4.188636, -0.32303107, 8.900104, 0.69218326, -0.4568863, 9.806784
180805206012714, 4.613362, 1.2729816, 9.104691, -0.6103262, 0.5009401, 10.255513
180805215651985, 4.126423, -0.36729828, 8.804391, 0.7144456, -0.47165704, 9.69261
180805225291360, 4.597809, 1.1988041, 9.171689, -0.55512106, 0.438931, 10.305147
180805234930631, 4.17069, 0.0047856453, 8.926425, 0.37779725, -0.33914304, 9.839614
180805244569902, 4.473382, 0.782453, 9.135797, -0.21864462, 0.16716433, 10.19855
180805254209277, 4.342973, 0.5419743, 8.932407, -0.03780973, 0.04108286, 9.9468565
180805263848547, 4.3262234, 0.17826529, 8.977871, 0.27248776, -0.15975046, 9.962448
180805273487922, 4.5128636, 1.0444671, 9.062816, -0.43471318, 0.34227228, 10.16294
180805283127193, 4.1778684, -0.26679972, 8.909675, 0.61137605, -0.44708657, 9.81501
180805292766464, 4.615755, 1.302892, 9.1465645, -0.64338446, 0.49085164, 10.295994
180805302405839, 4.1072803, -0.3505485, 8.836694, 0.6847793, -0.4996884, 9.713968
180805312045110, 4.5882373, 1.227518, 9.2075815, -0.60971916, 0.42012715, 10.333927
180805321684381, 4.1587257, -0.061016977, 8.955139, 0.4168465, -0.37247372, 9.85803
180805331323756, 4.493721, 0.8243274, 9.215957, -0.28505993, 0.16396356, 10.280991
180805340963027, 4.322634, 0.46061835, 8.977871, 0.012433648, -0.025898457, 9.974902
180805350602402, 4.3262234, 0.22013968, 9.048459, 0.22217155, -0.160249, 10.0281725
180805360241672, 4.493721, 1.0085747, 9.083155, -0.43387473, 0.2960384, 10.170476
180805369880943, 4.1718864, -0.22731815, 8.991031, 0.56946945, -0.44756174, 9.88789
180805379520318, 4.6145587, 1.3076776, 9.1669035, -0.6549872, 0.48749447, 10.313566
180805389159589, 4.1491547, -0.34097722, 8.804391, 0.67869806, -0.44906044, 9.704987
180805398798964, 4.6432724, 1.2705889, 9.147761, -0.6112777, 0.49312115, 10.307234
180805408438235, 4.191029, -0.09810573, 8.834301, 0.48295164, -0.33121347, 9.760958
180805418077506, 4.5332026, 0.86141616, 9.182457, -0.29539883, 0.21080542, 10.270237
180805427716881, 4.2975097, 0.39840496, 8.895318, 0.064017415, -0.059107542, 9.886679
180805437356152, 4.3740797, 0.27996024, 8.96471, 0.19191968, -0.07743955, 9.976681
180805446995422, 4.485346, 0.91884387, 8.988638, -0.34418678, 0.28501797, 10.077625
180805456634797, 4.202993, -0.20937198, 8.995817, 0.54770887, -0.44154692, 9.906502
180805466274068, 4.6037908, 1.2717853, 9.211171, -0.65158045, 0.44565105, 10.345763
180805475913339, 4.1288157, -0.3493521, 8.907282, 0.662755, -0.5293822, 9.787203
180805485552714, 4.658826, 1.262214, 9.178867, -0.60769725, 0.48584557, 10.341379
180805495191985, 4.1790648, -0.1268196, 8.825927, 0.4875232, -0.34807825, 9.747759
180805504831360, 4.5882373, 0.9487542, 9.102298, -0.36341476, 0.31601405, 10.226042
180805514470631, 4.347759, 0.39960137, 8.807981, 0.08499324, 0.018071651, 9.830344
180805524109902, 4.4135613, 0.3792624, 8.961121, 0.1116668, -0.0068609715, 9.995626
180805533749277, 4.473382, 0.8997013, 8.968299, -0.34169078, 0.25227094, 10.053388
180805543388547, 4.2257247, -0.13519448, 8.993423, 0.50999343, -0.37996697, 9.91727
180805553027818, 4.60738, 1.2418749, 9.177671, -0.63888466, 0.41202354, 10.316101
180805562667193, 4.156333, -0.40797627, 8.903693, 0.73717344, -0.52337956, 9.792852
180805572306464, 4.651647, 1.2227324, 9.219545, -0.58935845, 0.429492, 10.373094
180805581945735, 4.1551366, -0.25004998, 8.949157, 0.5667224, -0.478256, 9.842012
180805591585110, 4.56072, 0.90807617, 9.265009, -0.356012, 0.21990371, 10.358091
180805601224381, 4.2927237, 0.24526432, 8.915657, 0.18740785, -0.1442225, 9.895487
180805610863652, 4.4195433, 0.43429732, 9.044869, 0.04686761, -0.013232946, 10.076123
180805620503027, 4.4614177, 0.85902333, 8.959925, -0.29620028, 0.2509725, 10.038511
180805630142297, 4.229314, -0.0741775, 8.96471, 0.4357301, -0.3557644, 9.896576
180805639781568, 4.62413, 1.268196, 9.119047, -0.61515176, 0.4905157, 10.272726
180805649420943, 4.15394, -0.33379877, 8.833105, 0.6440896, -0.49036455, 9.733194
180805659060214, 4.6432724, 1.2993027, 9.150154, -0.6393032, 0.500422, 10.310884
180805668699485, 4.197011, -0.2416751, 8.849854, 0.57997525, -0.4189496, 9.771456
180805678338860, 4.570291, 0.99900347, 9.175279, -0.41550124, 0.30345368, 10.286234
180805687978131, 4.287938, 0.18783657, 8.882157, 0.2334423, -0.16704273, 9.86063
180805697617402, 4.4602213, 0.47258246, 9.035298, 0.03151858, 0.03104496, 10.0872
180805707256777, 4.4674, 0.74895346, 8.912068, -0.19519746, 0.20928717, 9.993081
180805716896047, 4.2759743, -0.04546363, 8.944371, 0.4284215, -0.31187224, 9.899849
180805726535318, 4.595416, 1.2083755, 9.136993, -0.5793356, 0.42500138, 10.273578
180805736174693, 4.150351, -0.3182454, 8.908479, 0.6207297, -0.5172658, 9.799735
180805745813964, 4.6468616, 1.3112668, 9.158528, -0.6623857, 0.508065, 10.319618
180805755453235, 4.180261, -0.2440679, 8.885747, 0.58342385, -0.4553697, 9.795045
180805765092610, 4.5930233, 1.0707881, 9.196814, -0.46194792, 0.3372147, 10.319726
180805774731881, 4.2592244, 0.12323037, 8.883354, 0.27991974, -0.22015882, 9.84598
180805784371152, 4.4482574, 0.5204389, 9.086744, -0.018873096, 0.018870115, 10.130452
180805794010527, 4.4243293, 0.68075806, 8.977871, -0.15923214, 0.119398355, 10.02999
180805803649797, 4.2951164, 0.010767702, 9.0341015, 0.38004732, -0.30894732, 9.991158
180805813289068, 4.5966125, 1.174876, 9.170493, -0.5626509, 0.39623642, 10.302113
180805822928443, 4.2053857, -0.30388847, 8.922835, 0.63776267, -0.4664135, 9.837191
180805832567714, 4.6875396, 1.3339987, 9.147761, -0.665285, 0.54577374, 10.329262
180805842206985, 4.1671004, -0.2883351, 8.800801, 0.6461942, -0.43708277, 9.710477
180805851846360, 4.6121655, 1.0911272, 9.15135, -0.4802373, 0.3720925, 10.287894
180805861485631, 4.237689, 0.09092726, 8.834301, 0.3192544, -0.23999882, 9.790385
180805871124902, 4.4674, 0.6269195, 9.062816, -0.10739601, 0.0859704, 10.122568
180805880764172, 4.4075794, 0.6376872, 8.908479, -0.11682999, 0.10548401, 9.958394
180805890403547, 4.3118663, 0.05503492, 8.980264, 0.3580382, -0.2526512, 9.952303
180805900042818, 4.584648, 1.1365907, 9.136993, -0.5203364, 0.37355304, 10.26573
180805909682089, 4.174279, -0.2943172, 8.979067, 0.6149126, -0.50812197, 9.874136
180805919321464, 4.6636114, 1.3304094, 9.201599, -0.668944, 0.49233174, 10.368162
180805928960735, 4.1407795, -0.3062813, 8.845069, 0.6261543, -0.487962, 9.738837
180805938600006, 4.619344, 1.1772687, 9.1872425, -0.5556562, 0.38401198, 10.328285
180805948239381, 4.229314, 0.069391854, 8.88455, 0.33175492, -0.27259588, 9.830706
180805957878652, 4.490132, 0.6771688, 9.105886, -0.14508164, 0.10315418, 10.173756
180805967517922, 4.3932223, 0.56350976, 8.912068, -0.056248546, 0.06397462, 9.951666
180805977157297, 4.338187, 0.08973085, 8.955139, 0.34928071, -0.19843912, 9.94289
180805986796568, 4.5726843, 1.0636097, 9.066405, -0.4516279, 0.35822868, 10.193534
180805996435839, 4.1922255, -0.29192436, 8.926425, 0.6413921, -0.46975517, 9.834072
180806006075110, 4.6468616, 1.3172488, 9.153743, -0.67623305, 0.49114013, 10.316054
180806015714485, 4.1371903, -0.3074777, 8.829515, 0.6320988, -0.47911286, 9.723279
180806025353756, 4.621737, 1.2191432, 9.193225, -0.599051, 0.41669703, 10.335844
180806034993027, 4.2077785, 0.013160525, 8.916854, 0.35994363, -0.32121253, 9.8480015
180806044632402, 4.5044885, 0.76331043, 9.148957, -0.226856, 0.13936257, 10.222796
180806054271672, 4.377669, 0.51565325, 8.908479, -0.01670158, 0.034534454, 9.939285
180806063910943, 4.345366, 0.15792629, 8.983852, 0.28277636, -0.18427539, 9.975111
180806073550318, 4.5523453, 1.0313065, 9.078369, -0.43232012, 0.33096337, 10.193517
180806083189589, 4.2017965, -0.2620141, 8.938389, 0.60402405, -0.47395563, 9.850334
180806092828860, 4.6636114, 1.3040884, 9.110672, -0.63729656, 0.530514, 10.28429
180806102468131, 4.132405, -0.35653058, 8.805588, 0.6713214, -0.5066478, 9.697158
180806112107506, 4.6468616, 1.2095718, 9.169296, -0.55861866, 0.44171834, 10.325947
180806121746777, 4.1814575, -0.046660043, 8.904889, 0.39966047, -0.36827087, 9.822855
180806131386047, 4.517649, 0.8111669, 9.171689, -0.26317418, 0.17340231, 10.251231
180806141025422, 4.3501515, 0.47736812, 8.970692, -0.0043307543, -0.026496649, 9.981198
180806150664693, 4.3537407, 0.23928227, 9.069994, 0.19790411, -0.17384219, 10.0602045
180806160303964, 4.5272202, 1.012164, 9.11785, -0.42610157, 0.2906289, 10.217112
180806169943339, 4.2185464, -0.21296121, 9.007781, 0.55112994, -0.4545269, 9.923271
180806179582610, 4.6372905, 1.2957134, 9.1465645, -0.6483766, 0.49125934, 10.304429
180806189221881, 4.168297, -0.34097722, 8.796016, 0.688869, -0.46677065, 9.704042
180806198861152, 4.6528435, 1.2634103, 9.107083, -0.584792, 0.5097139, 10.275328
180806208500527, 4.176672, -0.09332009, 8.841479, 0.46410096, -0.36769938, 9.760865
180806218139797, 4.5535417, 0.8769695, 9.159725, -0.30152512, 0.22364068, 10.259798
180806227779068, 4.3561335, 0.40677986, 8.91805, 0.07575333, -0.03322673, 9.933084
180806237418443, 4.3908296, 0.27996024, 9.0341015, 0.18665874, -0.10740733, 10.046212
180806247057714, 4.5212383, 0.9415757, 9.0544405, -0.36080784, 0.27208614, 10.154154
180806256696985, 4.2245283, -0.19501504, 8.991031, 0.55069196, -0.42487526, 9.911586
180806266336360, 4.6205406, 1.2801601, 9.162118, -0.64002967, 0.44701147, 10.311312
180806275975631, 4.133601, -0.34456646, 8.855837, 0.68502796, -0.49914575, 9.742321
180806285614902, 4.6695933, 1.2933207, 9.162118, -0.63515365, 0.5098841, 10.332415
180806295254172, 4.1850467, -0.11365908, 8.837891, 0.48115492, -0.35412765, 9.761093
180806304893547, 4.5655055, 0.96909314, 9.183653, -0.3819883, 0.26390696, 10.291109
180806314532818, 4.304688, 0.36011982, 8.924032, 0.09935844, -0.09614825, 9.91359
180806324172089, 4.3788652, 0.3361916, 9.02812, 0.13400102, -0.09174895, 10.038331
180806333811464, 4.493721, 0.86261255, 9.031709, -0.299505, 0.22211456, 10.117825
180806343450735, 4.2424746, -0.16510476, 9.025727, 0.53549373, -0.41076994, 9.95159
180806353090006, 4.6325045, 1.2382857, 9.227921, -0.6155335, 0.4224131, 10.372592
180806362729381, 4.133601, -0.38285163, 8.907282, 0.69949436, -0.5310025, 9.787831
180806372368652, 4.648058, 1.302892, 9.153743, -0.64448774, 0.48811007, 10.316946
180806382007922, 4.1671004, -0.13878371, 8.848659, 0.5029483, -0.3917191, 9.760961
180806391647193, 4.5559344, 1.0013963, 9.159725, -0.41563654, 0.2960248, 10.266426
180806401286568, 4.278367, 0.32662028, 8.891729, 0.11941576, -0.11932659, 9.871448
180806410925839, 4.4195433, 0.46061835, 9.005388, 0.039806485, 0.006668091, 10.041909
180806420565110, 4.496114, 0.85184485, 8.950353, -0.2609458, 0.27474236, 10.045195
180806430204485, 4.274778, -0.11964113, 8.973084, 0.4961629, -0.36038995, 9.921101
180806439843756, 4.625326, 1.2011969, 9.170493, -0.5463759, 0.44219851, 10.316996
180806449483027, 4.1515474, -0.37208393, 8.897711, 0.69229543, -0.53808236, 9.786431
180806459122402, 4.645665, 1.2873386, 9.1872425, -0.6222868, 0.50775385, 10.344071
180806468761672, 4.139583, -0.24765715, 8.914461, 0.5680276, -0.50006485, 9.802671
180806478400943, 4.5559344, 1.0241281, 9.276974, -0.43961543, 0.2603264, 10.37336
180806488040214, 4.2592244, 0.2440679, 8.977871, 0.16858697, -0.19232559, 9.9366665
180806497679589, 4.4350967, 0.5096712, 9.059227, 0.0011031628, 0.029757261, 10.099435
180806507318860, 4.4578285, 0.7968099, 8.959925, -0.23724353, 0.214643, 10.034193
180806516958131, 4.2568316, -0.038285162, 8.946764, 0.43339515, -0.30471182, 9.893735
180806526597506, 4.6097727, 1.2251252, 9.132208, -0.5790036, 0.4485166, 10.276759
180806536236777, 4.159922, -0.33260235, 8.889337, 0.66017437, -0.49176407, 9.785612
180806545876047, 4.6432724, 1.2837493, 9.138189, -0.6332209, 0.49706888, 10.298857
180806555515422, 4.1383867, -0.26799613, 8.840283, 0.5944027, -0.4661522, 9.735403
180806565154693, 4.5655055, 1.0564312, 9.176475, -0.44937468, 0.32094312, 10.288956
180806574793964, 4.249653, 0.1794617, 8.906086, 0.23857808, -0.19470072, 9.864851
180806584433235, 4.4243293, 0.5599205, 9.0747795, -0.048896313, 0.03739786, 10.111183
180806594072610, 4.4147577, 0.762114, 8.993423, -0.22486699, 0.15669394, 10.0437765
180806603711881, 4.2891345, 0.04546363, 9.008977, 0.36740065, -0.26027703, 9.967833
180806613351152, 4.5619164, 1.2059826, 9.217153, -0.59982204, 0.3751502, 10.33058
180806622990527, 4.1312084, -0.30867413, 9.012567, 0.61178076, -0.54816103, 9.885027
180806632629797, 4.645665, 1.3160524, 9.227921, -0.67061794, 0.48027372, 10.382116
180806642269068, 4.1276193, -0.30029923, 8.907282, 0.62530136, -0.4954636, 9.789312
180806651908443, 4.6025944, 1.079163, 9.224331, -0.47202027, 0.34401393, 10.3487015
180806661547714, 4.229314, 0.106480606, 8.938389, 0.3018061, -0.24757552, 9.881339
180806671186985, 4.4315076, 0.6029913, 9.079565, -0.08627629, 0.059991837, 10.120737
180806680826360, 4.392026, 0.66161543, 8.95155, -0.13394511, 0.106386185, 9.991428
180806690465631, 4.2915273, 0.043070808, 8.995817, 0.382872, -0.25598955, 9.956489
180806700104902, 4.5535417, 1.14018, 9.171689, -0.5372528, 0.33509755, 10.283663
180806709744172, 4.1647077, -0.29910284, 8.963513, 0.641574, -0.4840827, 9.855601
180806719383547, 4.651647, 1.3339987, 9.18485, -0.6691536, 0.492635, 10.3483515
180806729022818, 4.1347976, -0.29192436, 8.873783, 0.64712214, -0.47447252, 9.761245
180806738662089, 4.6121655, 1.1676974, 9.202796, -0.53201926, 0.38722062, 10.338959
180806748301464, 4.2077785, 0.11964113, 8.971889, 0.2804525, -0.2755041, 9.902522
180806757940735, 4.4721856, 0.701097, 9.12503, -0.15556204, 0.10942602, 10.184398
180806767580006, 4.3812585, 0.6472585, 8.940782, -0.120507956, 0.09383631, 9.976404
180806777219381, 4.3154554, 0.124426775, 8.974281, 0.32878578, -0.18942761, 9.951502
180806786858652, 4.557131, 1.119841, 9.127422, -0.49837708, 0.35309887, 10.244914
180806796497922, 4.1671004, -0.30508488, 8.969496, 0.66615033, -0.49361634, 9.860134
180806806137297, 4.6229334, 1.3184453, 9.170493, -0.6753942, 0.46361804, 10.321661
180806815776568, 4.1084766, -0.34097722, 8.857033, 0.6854472, -0.49451756, 9.732858
180806825415839, 4.595416, 1.1569297, 9.186047, -0.5332496, 0.37803817, 10.315645
180806835055214, 4.1850467, 0.02632105, 8.969496, 0.36046278, -0.33598995, 9.885563
180806844694485, 4.486542, 0.74416786, 9.178867, -0.19187522, 0.11237359, 10.241339
180806854333756, 4.3561335, 0.6029913, 9.000603, -0.0892297, 0.02919054, 10.017062
180806863973131, 4.3238306, 0.17706887, 9.041281, 0.2785585, -0.19229126, 10.017837
180806873612402, 4.534399, 1.1210374, 9.134601, -0.5006285, 0.3384378, 10.24174
180806883251672, 4.197011, -0.21894327, 8.997013, 0.5882845, -0.445287, 9.902763
180806892891047, 4.634897, 1.3531412, 9.144172, -0.67518866, 0.5187626, 10.305541
180806902530318, 4.1467614, -0.3469593, 8.763713, 0.7196183, -0.46314096, 9.66366
180806912169589, 4.615755, 1.2095718, 9.083155, -0.55077434, 0.45810032, 10.235172
180806921808964, 4.1754756, -0.039481573, 8.88814, 0.42786467, -0.3474505, 9.804662
180806931448235, 4.505685, 0.77407813, 9.127422, -0.20641601, 0.16509318, 10.204919
180806941087506, 4.342973, 0.50368917, 8.9312105, 0.004760504, 9.3245506E-4, 9.943924
180806950726881, 4.354937, 0.22612174, 9.02812, 0.24623954, -0.14736843, 10.0220375
180806960366152, 4.5284166, 1.0504491, 9.139386, -0.43803936, 0.30663252, 10.23975
180806970005422, 4.202993, -0.20578274, 9.044869, 0.5653722, -0.45945, 9.949192
180806979644693, 4.631308, 1.3112668, 9.218349, -0.64342415, 0.48584938, 10.368047
180806989284068, 4.1276193, -0.35294133, 8.878569, 0.67702055, -0.52671623, 9.759868
180806998923339, 4.6396832, 1.2658032, 9.195618, -0.603652, 0.47402716, 10.348874
180807008562610, 4.176672, -0.05383851, 8.915657, 0.43845153, -0.36906934, 9.828937
180807018201985, 4.523631, 0.8578269, 9.162118, -0.2789085, 0.21372867, 10.247929
180807027841256, 4.3202415, 0.4761717, 8.904889, 0.018012881, -0.010182619, 9.908978
180807037480631, 4.368098, 0.31944183, 8.9826565, 0.17295218, -0.07045078, 9.9917755
180807047119902, 4.505685, 1.026521, 9.050852, -0.42482722, 0.30656362, 10.148814
180807056759172, 4.2006, -0.15433706, 8.961121, 0.5350145, -0.39291286, 9.875724
180807066398547, 4.601398, 1.3280165, 9.195618, -0.68522847, 0.43556857, 10.336182
180807076037818, 4.1240296, -0.33260235, 8.87139, 0.6781843, -0.4867561, 9.7531
180807085677089, 4.644469, 1.2598212, 9.18485, -0.5977837, 0.4552729, 10.341909
180807095316464, 4.1575294, -0.1471586, 8.927621, 0.52087843, -0.39743614, 9.827506
180807104955735, 4.5272202, 0.89013004, 9.213564, -0.311019, 0.19803834, 10.297664
180807114595006, 4.2975097, 0.37806597, 8.986245, 0.08895874, -0.0968616, 9.967287
180807124234381, 4.377669, 0.32542387, 9.047262, 0.16458237, -0.08389211, 10.054289
180807133873652, 4.456632, 0.94277215, 9.053245, -0.3656627, 0.23655772, 10.125313
180807143512922, 4.2006, -0.096909314, 9.014959, 0.47507894, -0.39234352, 9.926947
180807153152297, 4.601398, 1.3698909, 9.206385, -0.71150243, 0.46605563, 10.348117
180807162791568, 4.1312084, -0.29192436, 8.886943, 0.6472173, -0.4959557, 9.770619
180807172430839, 4.6432724, 1.3316058, 9.193225, -0.6558014, 0.5017028, 10.3521385
180807182070214, 4.1575294, -0.14117654, 8.8905325, 0.52306175, -0.41462827, 9.792908
180807191709485, 4.5595236, 0.9343972, 9.1669035, -0.31899118, 0.2604599, 10.272531
180807201348860, 4.281956, 0.2739782, 8.894122, 0.19389725, -0.12976456, 9.872244
180807210988131, 4.4171505, 0.37088752, 8.976674, 0.15121853, -0.021475554, 10.010301
180807220627402, 4.4805603, 0.86141616, 8.958728, -0.26338768, 0.25138712, 10.047075
180807230266777, 4.2448673, -0.09571291, 8.915657, 0.5068563, -0.34668493, 9.855959
180807239906047, 4.618148, 1.3076776, 9.141779, -0.63883615, 0.48148155, 10.294148
180807249545318, 4.1180477, -0.2847459, 8.906086, 0.6234391, -0.5119209, 9.782996
180807259184693, 4.6564326, 1.3339987, 9.1669035, -0.6313791, 0.51503706, 10.335868
180807268823964, 4.1431723, -0.16390835, 8.874979, 0.5346372, -0.41990423, 9.772198
180807278463339, 4.564309, 1.0145568, 9.188439, -0.39253604, 0.28402114, 10.298295
180807288102610, 4.261617, 0.29192436, 8.962317, 0.16271675, -0.16412497, 9.925539
180807297741881, 4.4135613, 0.4534399, 9.049655, 0.06859279, -0.007367134, 10.078523
180807307381256, 4.4446683, 0.8003992, 8.989835, -0.22728777, 0.18490434, 10.056191
180807317020527, 4.2711883, -0.083748795, 8.980264, 0.5168123, -0.31035423, 9.926317
180807326659797, 4.621737, 1.2442678, 9.1669035, -0.5861267, 0.43334985, 10.315495
180807336299172, 4.133601, -0.32183465, 8.877372, 0.7015623, -0.4688909, 9.761451
180807345938443, 4.6145587, 1.3555341, 9.148957, -0.67563, 0.49468923, 10.302131
180807355577714, 4.126423, -0.15194423, 8.878569, 0.5209348, -0.41337132, 9.769196
180807365217089, 4.5714874, 1.1270195, 9.230313, -0.50087106, 0.34663153, 10.3439045
180807374856360, 4.2484565, 0.276371, 9.037691, 0.16424668, -0.19746804, 9.986975
180807384495735, 4.4434714, 0.56111693, 9.110672, -0.01626575, 0.046646357, 10.151906
180807394135006, 4.401597, 0.75613195, 9.000603, -0.19581902, 0.14564395, 10.044755
180807403774277, 4.208975, -0.041874398, 9.0436735, 0.45063782, -0.3558352, 9.958691
180807413413652, 4.5427737, 1.1521441, 9.19801, -0.5242834, 0.33654594, 10.304344
180807423052922, 4.1228333, -0.33140594, 8.953942, 0.70290923, -0.5049088, 9.825053
180807432692297, 4.62413, 1.3627125, 9.18126, -0.69195426, 0.5025921, 10.334587
180807442331568, 4.1144586, -0.21774685, 8.877372, 0.6069263, -0.43493032, 9.758401
180807451970839, 4.5535417, 1.1174482, 9.24826, -0.4983548, 0.31969285, 10.351967
180807461610214, 4.188636, 0.20458634, 8.967103, 0.23791194, -0.23959923, 9.893507
180807471249485, 4.4111686, 0.63170516, 9.128618, -0.08934116, 0.05213046, 10.157679
180807480888860, 4.359723, 0.75613195, 9.019745, -0.20693451, 0.10447121, 10.043952
180807490528131, 4.2568316, 0.06699903, 9.059227, 0.36964428, -0.28473878, 9.998848
180807500167402, 4.549952, 1.1940185, 9.202796, -0.55321646, 0.37066078, 10.313863
180807509806777, 4.1443686, -0.276371, 9.004191, 0.64899695, -0.4869275, 9.88278
180807519446047, 4.633701, 1.3435699, 9.18485, -0.6574334, 0.50134563, 10.34187
180807529085422, 4.1276193, -0.25124636, 8.876176, 0.63362503, -0.44299912, 9.761614
180807538724693, 4.6085763, 1.1557333, 9.1681, -0.48122132, 0.40171647, 10.307076
180807548363964, 4.176672, 0.12323037, 8.9013, 0.31491137, -0.25650454, 9.824865
180807558003339, 4.45065, 0.68075806, 9.110672, -0.110351205, 0.10288739, 10.161365
180807567642610, 4.359723, 0.6687939, 8.969496, -0.11561453, 0.0797317, 9.994329
180807577281985, 4.28076, 0.13519448, 9.006584, 0.33276296, -0.221133, 9.965046
180807586921256, 4.540381, 1.1796615, 9.126225, -0.52610135, 0.37335324, 10.24102
180807596560527, 4.1467614, -0.2321038, 9.02812, 0.61060214, -0.5003722, 9.906222
180807606199902, 4.634897, 1.3435699, 9.190832, -0.6360464, 0.49804378, 10.349215
180807615839172, 4.095316, -0.2835495, 8.922835, 0.65206885, -0.5207255, 9.786351
180807625478547, 4.5523453, 1.2179468, 9.255438, -0.55461025, 0.3644359, 10.364842
180807635117818, 4.1515474, 0.08135597, 8.979067, 0.32296467, -0.3374827, 9.881669
180807644757193, 4.465007, 0.73340017, 9.196814, -0.15169704, 0.117049694, 10.2478695
180807654396464, 4.3202415, 0.62811595, 8.937193, -0.07746172, 0.059499264, 9.945998
180807664035735, 4.316652, 0.19262223, 9.007781, 0.2965505, -0.17135382, 9.984658
180807673675110, 4.493721, 1.1210374, 9.038888, -0.46248877, 0.3691411, 10.1391115
180807683314381, 4.168297, -0.24526432, 8.968299, 0.6403167, -0.46334505, 9.861063
180807692953756, 4.6169515, 1.3734802, 9.140582, -0.64733434, 0.56195855, 10.296509
180807702593027, 4.042674, -0.2943172, 8.855837, 0.6641314, -0.5165417, 9.702979
180807712232402, 4.6205406, 1.2299109, 9.272188, -0.55048954, 0.433187, 10.408884
180807721871672, 4.1228333, 0.02751746, 9.029316, 0.37462556, -0.37248826, 9.912012
180807731510943, 4.4315076, 0.80997044, 9.346365, -0.24778509, 0.08025622, 10.372127
180807741150318, 4.284349, 0.55393845, 9.0029955, -0.023212671, -0.0054609776, 9.985783
180807750789589, 4.351348, 0.552742, 9.163314, -0.017301798, -0.017707825, 10.159009
180807760428964, 4.3537407, 0.52163535, 9.090333, 0.021942377, 1.7285347E-4, 10.092613
180807770068235, 4.336991, 0.52522457, 9.065208, 0.015445352, -0.0011909008, 10.062959
180807779707610, 4.3501515, 0.54675996, 8.983852, 0.009596705, 0.04773593, 9.996499
180807789346881, 4.341777, 0.5694918, 8.975478, -0.013163686, 0.050980568, 9.98658
180807798986152, 4.3274198, 0.5599205, 8.958728, -0.007457018, 0.040582895, 9.964796
180807808625527, 4.325027, 0.5694918, 8.99462, -0.02188003, 0.027793169, 9.996606
180807818264797, 4.316652, 0.526421, 9.062816, 0.00522542, -0.02551794, 10.0520935
180807827904172, 4.342973, 0.5276174, 9.109476, 0.009657025, -0.02244711, 10.105531
180807837543443, 4.3322053, 0.53359944, 9.132208, -0.0018568039, -0.037215948, 10.121689
180807847182818, 4.3334017, 0.5276174, 9.128618, 0.0058014393, -0.03686261, 10.118648
180807856822089, 4.308277, 0.5479564, 9.11785, -0.021448493, -0.044662952, 10.099221
180807866461464, 4.351348, 0.5407779, 9.06162, 0.009309053, 0.010477304, 10.066749
180807876100735, 4.3070807, 0.552742, 9.083155, -0.02262187, -0.03018713, 10.067709
180807885740110, 4.3357944, 0.55752766, 9.055637, -0.013222218, 0.0037105083, 10.055561
180807895379381, 4.3465624, 0.567099, 9.0341015, -0.015522718, 0.023831606, 10.041334
180807905018652, 4.339384, 0.5419743, 8.99821, 0.008602977, 0.021410704, 10.004561
180807914658027, 4.338187, 0.53599226, 9.01137, 0.011590362, 0.011779785, 10.015572
180807924297297, 4.3465624, 0.52163535, 9.044869, 0.022802472, -0.001850605, 10.0485735
180807933936672, 4.3441696, 0.526421, 9.060423, 0.013938665, -0.0072488785, 10.061807
180807943575943, 4.3334017, 0.51565325, 9.09153, 0.015663505, -0.03314185, 10.084585
180807953215318, 4.3334017, 0.52283174, 9.085547, 0.009051561, -0.026795626, 10.079589
180807962854589, 4.345366, 0.5407779, 9.102298, -0.006144762, -0.014184475, 10.100804
180807972493964, 4.345366, 0.5563313, 9.107083, -0.021295905, -0.0100159645, 10.105946
180807982133235, 4.319045, 0.55752766, 9.098708, -0.03125882, -0.027577877, 10.087108
180807991772610, 4.314259, 0.55752766, 9.066405, -0.029114962, -0.017947197, 10.055953
180808001411881, 4.3298125, 0.5706882, 9.019745, -0.028724909, 0.01940918, 10.021356
180808011051256, 4.3130627, 0.56590253, 9.008977, -0.029130101, 0.007905722, 10.004175
180808020690527, 4.3154554, 0.55393845, 9.044869, -0.021597028, -0.009570122, 10.036888
180808030329902, 4.341777, 0.5383851, 9.067601, -2.1541119E-4, -0.0037763119, 10.0678835
180808039969172, 4.347759, 0.52163535, 9.068798, 0.018584728, -0.0033507347, 10.070642
180808049608547, 4.336991, 0.5347959, 9.068798, 0.002425909, -0.007093668, 10.066705
180808059247818, 4.3357944, 0.5084748, 9.083155, 0.025694728, -0.020890713, 10.077709
180808068887193, 4.3274198, 0.526421, 9.105886, 0.0031591654, -0.030133486, 10.095541
180808078526464, 4.3202415, 0.53359944, 9.077172, -0.0019413233, -0.019940376, 10.06697
180808088165839, 4.3118663, 0.5623133, 9.050852, -0.028285623, -0.0046317577, 10.041189
180808097805110, 4.3058844, 0.56111693, 9.075976, -0.03248775, -0.020499468, 10.061181
180808107444485, 4.3070807, 0.5599205, 9.083155, -0.032157898, -0.023708105, 10.068096
180808117083756, 4.331009, 0.552742, 9.096315, -0.018154263, -0.0110964775, 10.089878
180808126723131, 4.3465624, 0.5491528, 9.060423, -0.0038170815, 0.015807629, 10.064053
180808136362402, 4.368098, 0.552742, 9.012567, 0.007507324, 0.054237843, 10.030411
180808146001777, 4.334598, 0.55513483, 9.0544405, -0.013044596, 0.0104420185, 10.053832
180808155641047, 4.347759, 0.5623133, 9.01137, -0.008805156, 0.04126525, 10.021088
180808165280422, 4.3537407, 0.5814559, 9.005388, -0.022527695, 0.056606054, 10.019305
180808174919693, 4.3322053, 0.5694918, 9.0341015, -0.023020864, 0.022429943, 10.035252
180808184559068, 4.339384, 0.55393845, 9.012567, -0.0023511648, 0.03160429, 10.018105
180808194198339, 4.3262234, 0.55034924, 9.044869, -0.008442283, 0.0059723854, 10.0413475
180808203837714, 4.325027, 0.51565325, 9.0544405, 0.022551417, -0.011902332, 10.047586
180808213476985, 4.3262234, 0.50488555, 9.099904, 0.027973771, -0.03275895, 10.088485
180808223116360, 4.2999024, 0.51206404, 9.136993, 0.0070853233, -0.06489253, 10.1109705
180808232755631, 4.2831526, 0.5240282, 9.139386, -0.009906292, -0.069657326, 10.106604
180808242395006, 4.314259, 0.5276174, 9.134601, -2.3972988E-4, -0.03903103, 10.115858
180808252034277, 4.336991, 0.54317075, 9.122637, -0.0046699047, -0.009330511, 10.115675
180808261673652, 4.328616, 0.5479564, 9.101101, -0.00979805, -0.0052700043, 10.092924
180808271312922, 4.325027, 0.5563313, 9.085547, -0.017421603, 3.709793E-4, 10.077808
180808280952297, 4.3334017, 0.55752766, 9.0544405, -0.011883259, 0.019512653, 10.053436
180808290591568, 4.3322053, 0.56111693, 9.022138, -0.012400389, 0.030866623, 10.024006
180808300230943, 4.3334017, 0.56470615, 9.029316, -0.016090393, 0.029301405, 10.031186
180808309870214, 4.304688, 0.55513483, 9.022138, -0.01743257, 0.005048752, 10.01185
180808319509589, 4.3070807, 0.5383851, 9.036494, -0.0030679703, -0.0061929226, 10.024918
180808329148860, 4.31067, 0.5383851, 9.0747795, -0.0061858892, -0.018188, 10.060965
180808338788235, 4.328616, 0.53599226, 9.084352, 0.003482461, -0.004673004, 10.077183
180808348427506, 4.3525443, 0.5132605, 9.065208, 0.036788583, 0.014581442, 10.06899
180808358066881, 4.3202415, 0.5276174, 9.11785, 0.004521489, -0.027581215, 10.103331
180808367706256, 4.336991, 0.54436713, 9.096315, -0.0020291805, 0.0011711121, 10.092014
180808377345527, 4.3058844, 0.54675996, 9.071191, -0.012158036, -0.012345314, 10.056131
180808386984902, 4.3178487, 0.55393845, 9.012567, -0.006829381, 0.024531126, 10.008815
180808396624172, 4.3322053, 0.5623133, 9.01137, -0.008602858, 0.040169716, 10.014356
180808406263547, 4.331009, 0.55393845, 9.01137, -0.0014024973, 0.03540325, 10.013392
180808415902818, 4.3238306, 0.5515456, 9.048459, -0.006615758, 0.012807369, 10.043611
180808425542193, 4.316652, 0.5240282, 9.067601, 0.014240742, -0.010535955, 10.056301
180808435181464, 4.2975097, 0.5288138, 9.097511, -0.0012443066, -0.036744595, 10.075296
180808444820839, 4.308277, 0.5240282, 9.098708, 0.007650733, -0.029458761, 10.080744
180808454460110, 4.3202415, 0.54317075, 9.099904, -0.00426054, -0.012293339, 10.087993
180808464099485, 4.3262234, 0.573081, 9.119047, -0.03163445, -0.0043246746, 10.109432
180808473738756, 4.334598, 0.55752766, 9.099904, -0.011835098, 0.004370928, 10.094932
180808483378131, 4.319045, 0.54436713, 9.086744, -0.0039212704, -0.010352135, 10.075678
180808493017402, 4.3262234, 0.55034924, 9.049655, -0.0027188063, 0.012499809, 10.045654
180808502656777, 4.3118663, 0.5276174, 9.049655, 0.012423158, -0.008749962, 10.038257
180808512296152, 4.3238306, 0.5204389, 9.067601, 0.021098018, -0.008438349, 10.059187
180808521935422, 4.3178487, 0.52163535, 9.037691, 0.021539927, 5.412102E-4, 10.029724
180808531574797, 4.316652, 0.5132605, 9.055637, 0.026569128, -0.011163473, 10.044933
180808541214068, 4.3130627, 0.5312066, 9.052048, 0.0096901655, -0.0025029182, 10.041124
180808550853443, 4.314259, 0.5623133, 9.072387, -0.020913124, 0.0024859905, 10.061649
180808560492714, 4.321438, 0.567099, 9.098708, -0.024560094, 0.0012674332, 10.088722
180808570132089, 4.328616, 0.57427746, 9.093923, -0.026988387, 0.011653423, 10.087878
180808579771360, 4.336991, 0.56590253, 9.071191, -0.012677431, 0.023422241, 10.070527
180808589410735, 4.328616, 0.54675996, 9.05803, 0.0033820868, 0.013072252, 10.054034
180808599050110, 4.3357944, 0.5347959, 9.050852, 0.017707825, 0.0161798, 10.049999
180808608689381, 4.3238306, 0.5383851, 9.055637, 0.008568287, 0.0055007935, 10.049369
180808618328756, 4.3178487, 0.55034924, 9.038888, -0.0026295185, 0.0123512745, 10.032351
180808627968027, 4.322634, 0.55513483, 9.037691, -0.005192995, 0.018617392, 10.033585
180808637607402, 4.29392, 0.54436713, 9.056833, -0.0078020096, -0.017296791, 10.037925
180808647246672, 4.3034916, 0.56470615, 9.060423, -0.021994472, -0.0017199516, 10.046378
180808656886047, 4.3238306, 0.56470615, 9.0341015, -0.011699319, 0.026077509, 10.031379
180808666525318, 4.3058844, 0.5479564, 9.071191, -0.005422592, -0.009122372, 10.056207
180808676164693, 4.316652, 0.54675996, 9.069994, 0.0015716553, 0.0011878014, 10.059682
180808685804068, 4.3274198, 0.5479564, 9.077172, 0.003574729, 0.007531643, 10.070839
180808695443339, 4.3154554, 0.53599226, 9.075976, 0.011506081, -0.0051190853, 10.063976
180808705082714, 4.3094735, 0.5300102, 9.079565, 0.014256597, -0.0139398575, 10.064323
180808714721985, 4.2951164, 0.5395815, 9.079565, -2.4795532E-4, -0.02061963, 10.058691
180808724361360, 4.2963133, 0.5395815, 9.075976, 6.184578E-4, -0.0174191, 10.055968
