timestamp_acc,device_acc_x,device_acc_y,device_acc_z,earth_acc_x,earth_acc_y,earth_acc_z
271612943152720, -1.3268201, 3.8775692, 9.389436, 0.20041513, -0.14998078, 10.241818
271612952793032, -1.308874, 3.8584266, 9.302098, 0.18057346, -0.1342187, 10.152785
271612962433240, -1.3351951, 3.8273199, 9.226724, 0.14613461, -0.16148019, 10.075521
271612972073553, -1.3471591, 3.8416767, 9.249456, 0.13719487, -0.16758943, 10.103407
271612981713865, -1.3435699, 3.845266, 9.302098, 0.15360951, -0.16120338, 10.152372
271612991354178, -1.3627125, 3.8117664, 9.452846, 0.21763468, -0.19424486, 10.278996
271613000994490, -1.4189439, 3.76391, 9.504292, 0.24836087, -0.27060735, 10.313927
271613010634803, -1.4584254, 3.7459638, 9.347562, 0.1714406, -0.2826978, 10.169901
271613020275115, -1.4344971, 3.784249, 9.303294, 0.13559175, -0.23522693, 10.141789
271613029915428, -1.3208381, 3.8943188, 9.238688, 0.082528114, -0.07498658, 10.1119375
271613039555740, -1.2179468, 3.970889, 9.189635, 0.05579686, 0.056821167, 10.084364
271613049196053, -1.1676974, 4.052245, 9.101101, -0.015051842, 0.1447435, 10.029611
271613058836261, -1.1521441, 4.0797625, 8.989835, -0.07003641, 0.17665285, 9.93745
271613068476574, -1.1425728, 4.119244, 8.885747, -0.12648296, 0.2079212, 9.857531
271613078116886, -1.099502, 4.139583, 8.908479, -0.10908985, 0.254202, 9.880765
271613087757199, -1.1102697, 4.173083, 8.908479, -0.13638377, 0.26063693, 9.895542
271613097397511, -1.1306087, 4.1204405, 8.863015, -0.11905694, 0.22215581, 9.835947
271613107037824, -1.1964114, 4.052245, 8.811569, -0.119544506, 0.13653421, 9.770513
271613116678136, -1.2550355, 4.052245, 8.76132, -0.1618886, 0.094316125, 9.732494
271613126318449, -1.2490535, 3.9804604, 8.787642, -0.09271121, 0.06158936, 9.726995
271613135958761, -1.274178, 3.999603, 8.830712, -0.09800792, 0.042952716, 9.777035
271613145599074, -1.2526426, 4.007978, 8.865408, -0.07946682, 0.05942595, 9.809109
271613155239282, -1.2789637, 4.0091743, 8.9013, -0.077881575, 0.03147, 9.845573
271613164879595, -1.2849457, 3.993621, 9.017352, -0.02125144, 0.007777214, 9.945463
271613174519907, -1.2526426, 4.0007997, 9.183653, 0.055823088, 0.021276832, 10.095119
271613184160220, -1.282553, 3.9661036, 9.205189, 0.07458782, -0.022872806, 10.104671
271613193800532, -1.4153546, 3.845266, 9.128618, 0.07178974, -0.18564004, 10.004067
271613203440845, -1.4835501, 3.7854455, 9.147761, 0.09112954, -0.27651644, 10.006364
271613213081157, -1.4799608, 3.7627137, 9.1872425, 0.12104654, -0.27318382, 10.033165
271613222721470, -1.4404793, 3.7794633, 9.139386, 0.10578704, -0.21973461, 9.991406
271613232361782, -1.3974084, 3.8201413, 9.06162, 0.065609455, -0.15005195, 9.931383
271613242002095, -1.3615161, 3.8847475, 9.012567, 0.015092611, -0.08144301, 9.907801
271613251642407, -1.3339987, 3.9302113, 9.031709, 0.0013184547, -0.03679484, 9.939646
271613261282615, -1.3076776, 3.9649072, 9.037691, -0.007573843, -3.2782555E-4, 9.955417
271613270922928, -1.3160524, 3.9673, 9.014959, -0.01692462, -0.013730109, 9.936825
271613280563240, -1.3064811, 3.9649072, 8.938389, -0.04170513, 2.5469065E-4, 9.865114
271613290203553, -1.2346965, 3.9014974, 8.9826565, 0.06319022, 0.023573756, 9.870649
271613299843865, -1.180858, 3.993621, 9.049655, 0.047635555, 0.10576105, 9.961236
271613309484178, -1.1784651, 4.1443686, 9.055637, -0.064386606, 0.17424887, 10.026695
271613319124490, -1.2035898, 4.135994, 9.080762, -0.057387352, 0.1420061, 10.049469
271613328764803, -1.2263216, 4.1084766, 9.114262, -0.029343605, 0.10293496, 10.071831
271613338405115, -1.2514462, 4.046263, 9.131011, 0.018501759, 0.047424853, 10.065344
271613348045428, -1.2873386, 3.9840498, 9.077172, 0.027191162, -0.009160101, 9.996206
271613357685740, -1.2801601, 3.9864426, 9.013762, 0.006405592, 0.0041224957, 9.93873
271613367325949, -1.302892, 4.0007997, 8.976674, -0.025794983, 2.090931E-4, 9.913826
271613376966261, -1.3567305, 3.9960139, 8.949157, -0.058582306, -0.046940207, 9.89397
271613386606574, -1.422533, 3.9696927, 8.913264, -0.08357859, -0.107828796, 9.859501
271613396246886, -1.4356936, 3.9493537, 8.85823, -0.09588289, -0.1185202, 9.803244
271613405887199, -1.4117653, 3.9146578, 8.853444, -0.05393839, -0.109583735, 9.781932
271613415527511, -1.3627125, 3.885944, 8.877372, 0.0030794144, -0.083404005, 9.785618
271613425167824, -1.3052847, 3.8739798, 8.926425, 0.061232805, -0.04403764, 9.817682
271613434808136, -1.3782659, 3.8727834, 8.874979, 0.006387472, -0.103295565, 9.780217
271613444448449, -1.3686945, 3.8763726, 8.8905325, 0.014529228, -0.092996, 9.794503
271613454088761, -1.402194, 3.912265, 8.904889, -0.025376558, -0.10334909, 9.826378
271613463729074, -1.396212, 3.9960139, 8.939586, -0.071561575, -0.060630918, 9.890648
271613473369282, -1.3830515, 4.007978, 8.989835, -0.05568981, -0.045753777, 9.939249
271613483009595, -1.3663018, 4.037888, 8.989835, -0.07329178, -0.014629424, 9.949013
271613492649907, -1.288535, 4.0534415, 8.965906, -0.059429884, 0.061537027, 9.923249
271613502290220, -1.2299109, 4.071388, 8.920443, -0.06483722, 0.12551081, 9.881459
271613511930532, -1.2358929, 4.0331025, 8.924032, -0.03793049, 0.09969109, 9.870174
271613521570845, -1.227518, 4.048656, 8.939586, -0.041953564, 0.10748589, 9.889453
271613531211157, -1.180858, 4.0594234, 8.968299, -0.019900322, 0.14801091, 9.9137
271613540851470, -1.166501, 4.0701914, 8.995817, -0.010130644, 0.1635406, 9.941079
271613550491782, -1.2059826, 4.046263, 9.02453, -0.004323721, 0.10976213, 9.962767
271613560132095, -1.2442678, 4.0331025, 9.041281, -0.0039072037, 0.0685634, 9.977684
271613569772303, -1.2861422, 3.9804604, 9.079565, 0.02953124, 0.0028398037, 9.996794
271613579412615, -1.2921243, 3.9864426, 9.153743, 0.049638987, -0.0036776066, 10.0672655
271613589052928, -1.2693924, 3.9637108, 9.175279, 0.084614515, 0.0055841804, 10.074766
271613598693240, -1.3220345, 3.9541395, 9.067601, 0.02435708, -0.03738922, 9.980102
271613608333553, -1.3686945, 3.900301, 9.008977, 0.02079606, -0.09778261, 9.911477
271613617973865, -1.3447664, 3.9314077, 9.069994, 0.03115344, -0.06669432, 9.976158
271613627614178, -1.2358929, 3.9613178, 9.194421, 0.10584426, 0.033550918, 10.086849
271613637254490, -1.2466606, 3.9840498, 9.129815, 0.056173563, 0.0367288, 10.038716
271613646894803, -1.3196417, 3.9816568, 8.937193, -0.05417919, -0.014855921, 9.872452
271613656535011, -1.3710874, 3.9445682, 8.903693, -0.060878515, -0.07596755, 9.833909
271613666175324, -1.3256238, 3.9637108, 9.069994, 0.012303591, -0.038969874, 9.986563
271613675815636, -1.2610176, 4.01396, 9.132208, 0.027477741, 0.036339343, 10.05471
271613685455949, -1.2203395, 4.0331025, 9.01137, -0.018706083, 0.09072149, 9.947429
271613695096261, -1.2191432, 4.0163527, 8.968299, -0.022156954, 0.08538884, 9.901514
271613704736574, -1.2299109, 4.046263, 8.980264, -0.04506445, 0.089319944, 9.925726
271613714376886, -1.2311072, 4.058227, 8.932407, -0.07375407, 0.09526688, 9.887278
271613724017199, -1.2502499, 4.0390844, 8.880961, -0.087197065, 0.07021624, 9.83546
271613733657511, -1.2191432, 4.0211387, 8.892925, -0.04809594, 0.07858139, 9.8352165
271613743297720, -1.1952149, 4.0558343, 8.895318, -0.062318563, 0.11618692, 9.848231
271613752938032, -1.1856437, 4.0534415, 8.909675, -0.048445225, 0.112517, 9.85918
271613762578345, -1.2131611, 4.025924, 8.930014, -0.03215003, 0.07322097, 9.870084
271613772218657, -1.2753744, 3.9421754, 8.980264, 0.022345066, -0.026921451, 9.8899555
271613781858970, -1.2562319, 3.95055, 9.193225, 0.11264491, -0.02529496, 10.084001
271613791499282, -1.2167503, 3.9517467, 9.408579, 0.2134533, -0.0085225105, 10.274847
271613801139595, -1.2454642, 3.9684963, 9.433703, 0.18388367, -0.018122256, 10.308287
271613810779907, -1.2562319, 3.991228, 9.426525, 0.15810275, -0.016063333, 10.312233
271613820420220, -1.2586247, 4.0163527, 9.402596, 0.12352657, 0.0059099197, 10.300911
271613830060428, -1.3160524, 3.9900317, 9.250652, 0.056938887, -0.04077953, 10.159823
271613839700740, -1.3710874, 3.9457645, 9.097511, 0.0071032047, -0.09248918, 10.010246
271613849341053, -1.3722838, 3.9038901, 9.031709, 0.018070221, -0.10433185, 9.933986
271613858981365, -1.4249259, 3.9230328, 9.031709, -0.022053957, -0.14043033, 9.948477
271613868621678, -1.4129617, 3.897908, 8.921639, -0.03695774, -0.12780833, 9.837079
271613878261990, -1.3639089, 3.918247, 8.896515, -0.0300076, -0.060895324, 9.816124
271613887902303, -1.2729816, 3.9625144, 8.932407, -0.002183199, 0.041122437, 9.854352
271613897542615, -1.282553, 3.95055, 8.863015, -0.025638103, 0.033459127, 9.787906
271613907182824, -1.3818551, 3.9158542, 8.72782, -0.09953976, -0.051889658, 9.664662
271613916823136, -1.4751751, 3.8668015, 8.629715, -0.14331627, -0.14470738, 9.568636
271613926463449, -1.4380864, 3.906283, 8.675179, -0.13122869, -0.0896309, 9.620842
271613936103761, -1.3782659, 3.9828532, 8.847462, -0.089327335, -0.014199793, 9.799599
271613945744074, -1.3244274, 4.037888, 8.969496, -0.0545156, 0.04757768, 9.924982
271613955384386, -1.3316058, 4.040281, 8.91805, -0.08059144, 0.047029376, 9.880281
271613965024699, -1.3567305, 4.0510488, 8.88455, -0.11374736, 0.031632125, 9.857636
271613974664907, -1.3244274, 4.052245, 8.878569, -0.095995665, 0.049189806, 9.84846
271613984305220, -1.1928221, 3.8560338, 8.902496, 0.12846804, 0.065808535, 9.773711
271613993945532, -1.314856, 4.4135613, 9.120243, -0.2690835, 0.20192891, 10.211466
271614003585845, -1.0516455, 3.879962, 8.925228, 0.19366503, 0.18553644, 9.785083
271614013226157, -1.4416757, 4.0031924, 8.847462, -0.118314266, -0.092300296, 9.816265
271614022866470, -1.0731809, 4.328616, 8.9013, -0.18668866, 0.37820572, 9.947055
271614032506782, -1.4249259, 3.5736806, 8.559127, 0.114907265, -0.2509387, 9.379984
271614042146990, -1.0719845, 4.7509494, 9.255438, -0.38078475, 0.5383887, 10.437861
271614051787303, -1.3746766, 3.3152559, 8.750552, 0.4165647, -0.33561575, 9.442811
271614061427615, -1.282553, 4.746164, 9.363115, -0.4271791, 0.33742374, 10.561373
271614071067928, -1.3459628, 3.2973096, 8.792427, 0.4587469, -0.31496644, 9.470006
271614080708240, -1.4201403, 4.459025, 9.41456, -0.24323511, 0.080231905, 10.510378
271614090348553, -1.1425728, 3.690929, 9.220742, 0.4000075, 0.0050142407, 9.989519
271614099988865, -1.4847465, 3.970889, 9.262616, 0.044826984, -0.17856276, 10.185019
271614109629074, -1.154537, 4.1312084, 9.21476, 0.03924775, 0.19087797, 10.162365
271614119269386, -1.6235301, 3.4229329, 8.805588, 0.23199773, -0.5102507, 9.569562
271614128909699, -1.2406785, 4.5272202, 9.38824, -0.2387693, 0.2880025, 10.489715
271614138550011, -1.4967105, 3.1920254, 8.773284, 0.46639347, -0.47820407, 9.431516
271614148190324, -1.2777673, 4.7341995, 9.328419, -0.4529693, 0.36357164, 10.522708
271614157830636, -1.329213, 3.2733815, 8.56152, 0.38668227, -0.28790486, 9.249272
271614167470845, -1.4033905, 4.51406, 9.134601, -0.4016428, 0.1559959, 10.27626
271614177111157, -1.1294123, 3.6921253, 8.970692, 0.30248356, 0.04514754, 9.761514
271614186751470, -1.4524434, 4.119244, 9.062816, -0.13260102, -0.06137234, 10.059376
271614196391782, -1.0887343, 4.1982074, 8.946764, -0.08341622, 0.3073566, 9.937476
271614206032095, -1.5553347, 3.5808592, 8.612965, 0.07148838, -0.36045223, 9.449325
271614215672407, -1.1952149, 4.613362, 9.113065, -0.3886788, 0.39437383, 10.269032
271614225312615, -1.4321043, 3.32722, 8.506484, 0.28262758, -0.35189414, 9.234604
271614234952928, -1.1820544, 4.8251266, 9.152547, -0.5327871, 0.50207037, 10.388083
271614244593240, -1.2418749, 3.3320055, 8.569894, 0.3898065, -0.1820299, 9.26836
271614254233553, -1.3280165, 4.6504507, 9.245867, -0.41847563, 0.2777375, 10.422289
271614263873865, -1.1796615, 3.6526437, 8.896515, 0.2962289, -0.014659703, 9.684699
271614273514178, -1.5529419, 4.109673, 9.120243, -0.12958789, -0.16377807, 10.121081
271614283154386, -1.1820544, 4.089334, 9.1669035, 0.060036182, 0.15562832, 10.105651
271614292794699, -1.5577276, 3.6394832, 8.860622, 0.12763, -0.35634196, 9.697408
271614302435011, -1.1353943, 4.564309, 9.341579, -0.23379517, 0.39773446, 10.448651
271614312075324, -1.5062819, 3.278167, 8.745767, 0.39540768, -0.44936895, 9.441687
271614321715636, -1.2442678, 4.7377887, 9.376275, -0.41542888, 0.38571948, 10.563521
271614331355949, -1.2562319, 3.2745779, 8.785249, 0.5217109, -0.20944378, 9.442749
271614340996157, -1.3423735, 4.642076, 9.318848, -0.40443206, 0.25054196, 10.486441
271614350636470, -1.2143575, 3.5294135, 8.829515, 0.36034536, -0.07222286, 9.578972
271614360276782, -1.5888343, 4.1515474, 9.110672, -0.1800263, -0.17051229, 10.134231
271614369917095, -1.1377872, 4.0307097, 8.988638, 0.053180456, 0.19600523, 9.914412
271614379557407, -1.4919249, 3.7483566, 8.662018, -0.00258708, -0.22895885, 9.552704
271614389197615, -1.0456635, 4.6755753, 8.96471, -0.42437816, 0.56790197, 10.1399145
271614398837928, -1.5170496, 3.3415768, 8.508878, 0.24924493, -0.41736203, 9.253771
271614408478240, -1.3579268, 4.664808, 9.192028, -0.44282532, 0.27367216, 10.383968
271614418118553, -1.4691931, 3.1489546, 8.52443, 0.41488075, -0.4681924, 9.184174
271614427758865, -1.4644074, 4.5487556, 9.236296, -0.38260722, 0.13716441, 10.391323
271614437399074, -1.3339987, 3.4612179, 8.751749, 0.32545257, -0.20787501, 9.497556
271614447039386, -1.5613167, 4.208975, 9.097511, -0.22253036, -0.09016693, 10.142005
271614456679699, -1.1521441, 3.9613178, 9.069994, 0.13444972, 0.1653148, 9.961869
271614466320011, -1.5194423, 3.7076788, 8.87139, 0.10223341, -0.26453048, 9.730196
271614475960324, -1.1330016, 4.4075794, 9.195618, -0.16806626, 0.36151123, 10.252361
271614485600532, -1.4895321, 3.2973096, 8.754142, 0.40666962, -0.413814, 9.454594
271614495240845, -1.2047862, 4.7222357, 9.431311, -0.36165738, 0.4137693, 10.601822
271614504881157, -1.3746766, 3.231507, 8.691928, 0.4770713, -0.33275107, 9.356477
271614514521470, -1.4189439, 4.6468616, 9.224331, -0.47660017, 0.21037549, 10.412666
271614524161782, -1.3339987, 3.3918262, 8.732606, 0.3663628, -0.2285226, 9.452831
271614533801990, -1.5672989, 4.2448673, 9.236296, -0.21465659, -0.09373605, 10.282492
271614543442303, -1.2191432, 3.8536408, 9.135797, 0.20476031, 0.053025424, 9.987738
271614553082615, -1.5361922, 3.778267, 9.041281, 0.09224224, -0.2590518, 9.914854
271614562722928, -1.0863415, 4.449454, 9.372686, -0.112600565, 0.42042, 10.422842
271614572363136, -1.430908, 3.4432719, 8.813962, 0.30316186, -0.30476052, 9.560583
271614582003449, -1.1413764, 4.7952166, 9.296116, -0.43631554, 0.52835035, 10.499767
271614591643761, -1.3160524, 3.2709885, 8.566305, 0.3918078, -0.26517665, 9.251438
271614601284074, -1.253839, 4.7509494, 9.182457, -0.50280213, 0.41363502, 10.394096
271614610924386, -1.1916257, 3.4564323, 8.541181, 0.29016638, -0.07178873, 9.285975
271614620564595, -1.463211, 4.3788652, 8.957532, -0.3818214, 0.070048094, 10.069862
271614630204907, -1.1569297, 3.8691943, 8.861818, 0.115044594, 0.121867, 9.737192
271614639845220, -1.5409778, 3.830909, 8.989835, 0.036787033, -0.24540222, 9.889692
271614649485532, -1.0660025, 4.371687, 9.336794, -0.057475805, 0.39263135, 10.356942
271614659125740, -1.4129617, 3.4743786, 8.95155, 0.35542727, -0.29693544, 9.6945095
271614668766053, -1.1162517, 4.7832522, 9.485149, -0.34009647, 0.5160603, 10.663564
271614678406365, -1.3926228, 3.2422748, 8.707481, 0.4393096, -0.3663516, 9.377888
271614688046678, -1.3818551, 4.7401814, 9.304491, -0.5036216, 0.27743226, 10.51769
271614697686886, -1.3196417, 3.3726835, 8.690732, 0.3630569, -0.23414713, 9.405245
271614707327199, -1.538585, 4.362116, 9.0544405, -0.3676808, -0.0041490197, 10.160856
271614716967511, -1.3016955, 3.6693935, 8.774481, 0.17219639, -0.08249712, 9.5976
271614726607824, -1.6594225, 3.8117664, 8.860622, -0.0546484, -0.34395725, 9.781236
271614736248032, -1.180858, 4.2041893, 9.101101, -0.069578886, 0.24281341, 10.091375
271614745888345, -1.5900307, 3.3224342, 8.71466, 0.30493855, -0.49156326, 9.443381
271614755528657, -1.3232309, 4.5690947, 9.2793665, -0.3562138, 0.26448405, 10.418128
271614765168970, -1.5601203, 3.1322048, 8.673982, 0.4505434, -0.5463517, 9.326369
271614774809282, -1.3986049, 4.6504507, 9.38824, -0.3971219, 0.22957653, 10.559896
271614784449490, -1.3280165, 3.2709885, 8.786445, 0.47380686, -0.28286558, 9.453048
271614794089803, -1.4548361, 4.409972, 9.269794, -0.2864256, 0.08757371, 10.36358
271614803730115, -1.1736795, 3.7292142, 8.916854, 0.23158312, 0.051683664, 9.733373
271614813370428, -1.5314065, 3.9673, 8.866604, -0.12947273, -0.15866482, 9.831552
271614823010636, -1.1270195, 4.2723846, 8.9013, -0.17800665, 0.33040506, 9.930546
271614832650949, -1.5062819, 3.5246277, 8.581859, 0.11837578, -0.32353324, 9.392631
271614842291261, -1.1234303, 4.7210393, 9.177671, -0.42226005, 0.5032119, 10.3609085
271614851931574, -1.3663018, 3.3320055, 8.583055, 0.33916306, -0.28587794, 9.29737
271614861571782, -1.1892328, 4.867001, 9.3200445, -0.51741195, 0.4783729, 10.557872
271614871212095, -1.1784651, 3.4049866, 8.769695, 0.4346149, -0.10094428, 9.470544
271614880852407, -1.3268201, 4.5822554, 9.284152, -0.36519814, 0.23897916, 10.428926
271614890492720, -1.1772687, 3.714857, 8.9013, 0.24193716, 0.021629274, 9.713921
271614900132928, -1.4979069, 4.0594234, 9.111869, -0.08173847, -0.13077468, 10.085882
271614909773240, -1.0588241, 4.1982074, 9.21476, 0.027843714, 0.3238173, 10.176061
271614919413553, -1.451247, 3.5365918, 8.851051, 0.24279356, -0.29607832, 9.6336975
271614929053865, -1.1102697, 4.5714874, 9.370294, -0.23194003, 0.42982703, 10.47354
271614938694074, -1.4440684, 3.190829, 8.733803, 0.4795258, -0.44085836, 9.387318
271614948334386, -1.2993027, 4.664808, 9.410972, -0.37279058, 0.29290473, 10.5730915
271614957974699, -1.416551, 3.2075787, 8.683554, 0.45992017, -0.40446815, 9.34474
271614967614907, -1.4943178, 4.505685, 9.2793665, -0.37558794, 0.042684793, 10.416235
271614977255220, -1.2167503, 3.621537, 9.062816, 0.35570526, -0.06968337, 9.828492
271614986895532, -1.5182459, 4.15394, 9.11785, -0.17228174, -0.10976967, 10.13182
271614996535845, -1.1186446, 4.1240296, 8.99462, -0.03556323, 0.24620509, 9.954913
271615006176053, -1.5146568, 3.6047873, 8.769695, 0.13100648, -0.3160946, 9.595787
271615015816365, -1.0863415, 4.5894337, 9.339187, -0.24884057, 0.46663874, 10.449103
271615025456678, -1.4476577, 3.2303107, 8.703893, 0.43712878, -0.41639888, 9.376776
271615035096990, -1.2634103, 4.682754, 9.346365, -0.39280272, 0.33640325, 10.5171995
271615044737199, -1.3734802, 3.2207394, 8.601001, 0.42595243, -0.34422803, 9.270216
271615054377511, -1.4285151, 4.5858445, 9.059227, -0.50170064, 0.17060018, 10.2400875
271615064017824, -1.2227324, 3.6131623, 8.656036, 0.20828319, -0.046078622, 9.456822
271615073658136, -1.5349957, 4.2245283, 8.94796, -0.29133773, -0.08140001, 10.008863
271615083298345, -1.1353943, 4.115655, 8.952746, -0.03911996, 0.2337656, 9.915808
271615092938657, -1.5481563, 3.6394832, 8.776874, 0.09750152, -0.33755434, 9.620432
271615102578970, -1.1832508, 4.442275, 9.326026, -0.16494083, 0.30720896, 10.391684
271615112219178, -1.5457634, 3.1609187, 8.85823, 0.5140183, -0.5428193, 9.502113
271615121859490, -1.2849457, 4.636094, 9.516255, -0.28863358, 0.2916308, 10.65529
271615131499803, -1.3854443, 3.1728828, 8.793623, 0.5472019, -0.38133135, 9.427067
271615141140115, -1.3974084, 4.618148, 9.346365, -0.40484428, 0.19897747, 10.508621
271615150780324, -1.2287145, 3.5210385, 8.813962, 0.3386178, -0.09936601, 9.563934
271615160420636, -1.5062819, 4.2388854, 8.997013, -0.278749, -0.051377326, 10.054997
271615170060949, -1.1485549, 4.0295134, 8.867801, -0.015663624, 0.18710917, 9.80606
271615179701261, -1.4967105, 3.760321, 8.69791, -0.0106880665, -0.23767447, 9.590475
271615189341470, -0.9834501, 4.5822554, 9.1669035, -0.26515937, 0.554412, 10.277094
271615198981782, -1.3124632, 3.4205399, 8.76132, 0.36892724, -0.22576073, 9.486639
271615208622095, -1.0803595, 4.853841, 9.4839525, -0.39117503, 0.5634427, 10.686523
271615218262303, -1.2837493, 3.2997024, 8.719446, 0.44645238, -0.26013112, 9.39669
271615227902615, -1.3459628, 4.7102714, 9.217153, -0.49289727, 0.27247638, 10.422908
271615237542928, -1.1988041, 3.5234313, 8.717052, 0.31269073, -0.08679342, 9.47277
271615247183240, -1.4476577, 4.316652, 9.101101, -0.27433038, 0.02213651, 10.172686
271615256823449, -1.1126626, 3.946961, 8.968299, 0.11341667, 0.16573763, 9.859339
271615266463761, -1.5218352, 3.6933217, 8.902496, 0.1113193, -0.30785966, 9.752121
271615276104074, -1.1976078, 4.3405805, 9.212367, -0.14400458, 0.2538972, 10.249752
271615285744282, -1.5840486, 3.266203, 8.7266245, 0.34596372, -0.5425976, 9.429591
271615295384595, -1.2693924, 4.709075, 9.355937, -0.4181924, 0.34530604, 10.536898
271615305024907, -1.3639089, 3.2303107, 8.860622, 0.53525734, -0.35593557, 9.507503
271615314665220, -1.3375878, 4.7174497, 9.474381, -0.40483618, 0.28369445, 10.656593
271615324305428, -1.2729816, 3.4109688, 8.739784, 0.36329794, -0.1917696, 9.458871
271615333945740, -1.4979069, 4.2999024, 9.0544405, -0.30566168, -0.02204144, 10.130246
271615343586053, -1.1162517, 3.8955152, 8.99821, 0.15806103, 0.14662337, 9.866224
271615353226365, -1.4321043, 3.8560338, 9.036494, 0.06940746, -0.15891516, 9.92714
271615362866574, -1.0755738, 4.430311, 9.158528, -0.18781614, 0.40773708, 10.220648
271615372506886, -1.5050855, 3.3930225, 8.580662, 0.21730804, -0.39949065, 9.338033
271615382147199, -1.1688938, 4.761717, 9.292527, -0.4297886, 0.46687502, 10.487547
271615391787407, -1.3686945, 3.2769706, 8.6141615, 0.3983078, -0.33029848, 9.303112
271615401427720, -1.3208381, 4.755735, 9.136993, -0.5534382, 0.3251502, 10.36505
271615411068032, -1.253839, 3.434897, 8.583055, 0.29719448, -0.15145051, 9.32353
271615420708345, -1.3710874, 4.4279184, 9.127422, -0.31714606, 0.13911271, 10.231143
271615430348553, -1.0911272, 3.8380876, 8.967103, 0.20252609, 0.1435535, 9.8116665
271615439988865, -1.5074782, 3.8321054, 8.9348, 0.008985996, -0.2279762, 9.835453
271615449629178, -1.1880364, 4.267599, 9.122637, -0.12228012, 0.23829126, 10.137781
271615459269386, -1.5541383, 3.3559337, 8.666803, 0.25545073, -0.45410454, 9.408489
271615468909699, -1.2909278, 4.6229334, 9.2997055, -0.3910141, 0.3227154, 10.453014
271615478550011, -1.4691931, 3.1896327, 8.745767, 0.44441748, -0.4475019, 9.40335
271615488190324, -1.262214, 4.658826, 9.537791, -0.3091743, 0.35170847, 10.679326
271615497830532, -1.2873386, 3.2530425, 9.044869, 0.57461834, -0.27296555, 9.677009
271615507470845, -1.4524434, 4.2999024, 9.546165, -0.12215805, 0.030685842, 10.569399
271615517111157, -1.2000005, 3.6179478, 9.206385, 0.38499475, -0.032718897, 9.956796
271615526751470, -1.5278172, 3.8943188, 9.183653, 0.010219574, -0.19469059, 10.089669
271615536391678, -1.0779666, 4.2915273, 9.300901, -0.044925213, 0.3747986, 10.292887
271615546031990, -1.4656038, 3.4947174, 8.864211, 0.22824788, -0.30597568, 9.632734
271615555672303, -1.1760724, 4.658826, 9.285348, -0.38735342, 0.44142085, 10.43842
271615565312511, -1.5194423, 3.1944182, 8.548359, 0.34594512, -0.48062074, 9.232378
271615574952824, -1.4069797, 4.644469, 9.227921, -0.48983407, 0.22729313, 10.412186
271615584593136, -1.3603196, 3.2267213, 8.676374, 0.44918323, -0.32421803, 9.339956
271615594233449, -1.3998013, 4.4614177, 9.343972, -0.28564763, 0.13632905, 10.443816
271615603873657, -1.1676974, 3.6873398, 9.031709, 0.30647087, 0.04202196, 9.8201885
271615613513970, -1.5409778, 3.9625144, 9.075976, -0.05050683, -0.17689025, 10.020761
271615623154282, -1.1629118, 4.1898327, 9.209974, -0.029201746, 0.25478357, 10.181597
271615632794595, -1.5337993, 3.542574, 8.845069, 0.20457911, -0.33718795, 9.642722
271615642434803, -1.1473584, 4.664808, 9.2590275, -0.37634873, 0.46745533, 10.413756
271615652075115, -1.463211, 3.2733815, 8.462217, 0.29826593, -0.36050665, 9.178574
271615661715428, -1.3651053, 4.706682, 8.991031, -0.5950661, 0.3094145, 10.217887
271615671355636, -1.4273187, 3.2410784, 8.321041, 0.27840662, -0.3430276, 9.032518
271615680995949, -1.4548361, 4.517649, 9.073584, -0.428509, 0.15399241, 10.229774
271615690636261, -1.105484, 3.714857, 8.987442, 0.32309532, 0.10580039, 9.781656
271615700276574, -1.463211, 4.162315, 9.18126, -0.109261274, -0.018441796, 10.185732
271615709916782, -1.1904292, 4.2460637, 9.0544405, -0.10864496, 0.27197778, 10.06694
271615719557095, -1.625923, 3.6287155, 8.623733, 0.002156496, -0.36776733, 9.48919
271615729197407, -1.1700903, 4.62413, 9.170493, -0.34491777, 0.454158, 10.321067
271615738837720, -1.4416757, 3.266203, 8.745767, 0.42143798, -0.38811582, 9.429035
271615748477928, -1.2717853, 4.682754, 9.396614, -0.3447678, 0.3808524, 10.563052
271615758118240, -1.4213367, 3.1166515, 8.626125, 0.5091982, -0.41667968, 9.258016
271615767758553, -1.5062819, 4.462614, 9.199206, -0.3635347, 0.08807886, 10.328084
271615777398865, -1.2993027, 3.5330026, 8.944371, 0.36219525, -0.12765181, 9.69663
271615787039074, -1.564906, 4.078566, 9.337991, -0.021005869, -0.1438129, 10.308278
271615796679386, -1.2167503, 4.125226, 9.370294, 0.0970664, 0.19899118, 10.307831
271615806319699, -1.5672989, 3.5413775, 9.219545, 0.35048985, -0.36652797, 9.987021
271615815959907, -1.2669996, 4.447061, 9.598808, -0.0835557, 0.29021913, 10.650238
271615825600220, -1.692922, 3.1549366, 8.892925, 0.46993566, -0.6120768, 9.555535
271615835240532, -1.4608182, 4.6121655, 9.491131, -0.3360219, 0.24035269, 10.645044
271615844880845, -1.4380864, 3.117848, 8.85823, 0.6177087, -0.36961025, 9.473073
271615854521053, -1.4045869, 4.6779685, 9.293723, -0.4300611, 0.35494936, 10.484207
271615864161365, -1.1856437, 3.6861434, 8.724232, 0.22789073, 0.12992188, 9.541321
271615873801678, -1.5397813, 4.358526, 8.922835, -0.37619305, 0.11022419, 10.041463
271615883441990, -1.2969099, 4.1587257, 8.7673025, -0.1651001, 0.24707398, 9.785411
271615893082199, -1.7001005, 3.7878382, 8.483752, -0.1515727, -0.2680149, 9.440198
271615902722511, -1.2227324, 4.636094, 8.846265, -0.47478986, 0.5145222, 10.037663
271615912362824, -1.4560326, 3.501896, 8.390432, 0.15613508, -0.18192124, 9.204628
271615922003136, -1.134198, 4.9399824, 9.047262, -0.58126926, 0.7090956, 10.329671
271615931643345, -1.2562319, 3.418147, 8.405986, 0.31116223, -0.04093018, 9.155542
271615941283657, -1.3639089, 4.741378, 8.908479, -0.57679296, 0.39926925, 10.159224
271615950923970, -1.3232309, 3.4851463, 8.416754, 0.23711991, -0.0790188, 9.201982
271615960564282, -1.6905292, 4.237689, 8.930014, -0.30418992, -0.09740129, 10.022924
271615970204490, -1.3591232, 3.9194436, 9.036494, 0.1329267, 0.058594316, 9.942152
271615979844803, -1.7371893, 3.650251, 9.062816, 0.19843125, -0.400729, 9.913466
271615989485115, -1.3387842, 4.3465624, 9.491131, -0.01696968, 0.2453708, 10.521692
271615999125428, -1.8017955, 3.2147572, 8.903693, 0.45328927, -0.62593603, 9.605187
271616008765636, -1.5672989, 4.520042, 9.420543, -0.29290462, 0.12786481, 10.560858
271616018405949, -1.7527425, 3.0269206, 8.763713, 0.5604768, -0.66587114, 9.395717
271616028046261, -1.605584, 4.4985065, 9.436096, -0.27878332, 0.07481375, 10.572184
271616037686574, -1.4715859, 3.2745779, 8.895318, 0.53318214, -0.3138462, 9.572477
271616047326782, -1.7012969, 4.1838503, 9.150154, -0.18645859, -0.13058007, 10.201592
271616056967095, -1.3938192, 3.7627137, 8.953942, 0.19842267, -0.02648282, 9.809881
271616066607407, -1.7563318, 3.723232, 8.907282, 0.054027796, -0.36751357, 9.805552
271616076247720, -1.2705889, 4.3441696, 9.174082, -0.12887406, 0.32842505, 10.223772
271616085888032, -1.5768701, 3.426522, 8.763713, 0.30104542, -0.33211026, 9.530442
271616095528240, -1.2119647, 4.8179483, 9.367901, -0.4020548, 0.57003456, 10.580757
271616105168553, -1.4069797, 3.3343983, 8.573483, 0.3709519, -0.24479872, 9.2954235
271616114808865, -1.3399807, 4.837091, 9.221938, -0.51656747, 0.45821774, 10.476658
271616124449178, -1.253839, 3.5736806, 8.583055, 0.25436616, -5.632043E-4, 9.37803
271616134089386, -1.43689, 4.540381, 8.9108715, -0.45369506, 0.25024307, 10.090337
271616143729699, -1.1306087, 4.0390844, 8.742178, 0.00488925, 0.30952153, 9.691354
271616153370011, -1.4727824, 4.0737805, 8.73141, -0.17129588, 0.013865471, 9.745398
271616163010324, -1.1030912, 4.4913282, 8.977871, -0.24528432, 0.5162811, 10.082872
271616172650636, -1.5744773, 3.4707892, 8.641679, 0.22610164, -0.3486122, 9.435641
271616182290845, -1.3244274, 4.6504507, 9.359526, -0.31270957, 0.35330775, 10.524206
271616191931157, -1.5672989, 3.141776, 8.733803, 0.5306108, -0.48150125, 9.385793
271616201571470, -1.4356936, 4.604987, 9.469596, -0.27961826, 0.22922033, 10.621189
271616211211782, -1.4057833, 3.2793634, 8.962317, 0.57472396, -0.3027104, 9.624534
271616220851990, -1.605584, 4.362116, 9.458828, -0.16882896, -0.02577132, 10.5378475
271616230492303, -1.3782659, 3.6873398, 9.097511, 0.3135848, -0.10678184, 9.907122
271616240132615, -1.7934206, 3.8129628, 8.99821, -0.012883425, -0.40652233, 9.9276085
271616249772928, -1.3854443, 4.173083, 9.110672, -0.07325816, 0.11309457, 10.115348
271616259413240, -1.7359928, 3.347559, 8.745767, 0.27861047, -0.5432614, 9.504499
271616269053449, -1.3878372, 4.540381, 9.361918, -0.26171613, 0.26832622, 10.490291
271616278693761, -1.6151553, 3.1142588, 8.709874, 0.49206543, -0.54462075, 9.361117
271616288334074, -1.4141582, 4.636094, 9.395418, -0.3374853, 0.28873885, 10.562662
271616297974386, -1.4177474, 3.2530425, 8.758927, 0.48362517, -0.29833877, 9.433356
271616307614699, -1.5840486, 4.4135613, 9.1681, -0.3404758, 0.04703012, 10.291971
271616317254907, -1.3016955, 3.694518, 8.801998, 0.20768452, 0.0021165013, 9.632027
271616326895220, -1.6139588, 3.987639, 8.971889, -0.08598971, -0.15923074, 9.948276
271616336535532, -1.154537, 4.254439, 9.195618, -0.01238656, 0.35950714, 10.19133
271616346175845, -1.5457634, 3.534199, 8.790034, 0.22798228, -0.2870521, 9.592198
271616355816157, -1.2394822, 4.627719, 9.232706, -0.32489562, 0.4466409, 10.387008
271616365456365, -1.5768701, 3.245864, 8.646464, 0.38933277, -0.44548047, 9.350587
271616375096678, -1.3686945, 4.76411, 9.328419, -0.4569707, 0.38214117, 10.546783
271616384736990, -1.3459628, 3.3044882, 8.749356, 0.4806955, -0.2296741, 9.43391
271616394377303, -1.4452649, 4.540381, 9.24826, -0.34750676, 0.2029342, 10.39578
271616404017615, -1.247857, 3.6885362, 8.892925, 0.27448153, 0.009574056, 9.704182
271616413657824, -1.6354942, 4.112066, 8.932407, -0.21626544, -0.15053156, 9.96506
271616423298136, -1.2023934, 4.1850467, 9.022138, -0.051164865, 0.2651993, 10.014309
271616432938449, -1.5493526, 3.6287155, 8.800801, 0.15515971, -0.27791768, 9.639546
271616442578761, -1.1078769, 4.6396832, 9.370294, -0.22631025, 0.5292242, 10.498818
271616452219074, -1.4656038, 3.231507, 8.756535, 0.4886496, -0.3817486, 9.427778
271616461859386, -1.3423735, 4.692325, 9.272188, -0.41027498, 0.34768802, 10.464422
271616471499595, -1.3878372, 3.2745779, 8.566305, 0.39589262, -0.28188175, 9.262524
271616481139907, -1.4129617, 4.6468616, 9.0951185, -0.4897592, 0.26608944, 10.295645
271616490780220, -1.1688938, 3.739982, 8.689535, 0.17693472, 0.09791982, 9.530001
271616500420532, -1.451247, 4.29392, 8.976674, -0.2707765, 0.068162024, 10.052194
271616510060845, -0.9954142, 4.298706, 9.18485, 0.012949705, 0.46087325, 10.179323
271616519701053, -1.4057833, 3.739982, 9.004191, 0.2000215, -0.14913708, 9.847688
271616529341365, -1.174876, 4.534399, 9.408579, -0.16320467, 0.39996314, 10.501232
271616538981678, -1.6570296, 3.1692936, 8.82832, 0.46870255, -0.6084506, 9.494184
271616548621990, -1.3818551, 4.664808, 9.583255, -0.29559755, 0.27971303, 10.739791
271616558262303, -1.3974084, 3.2482567, 8.957532, 0.5611508, -0.3392715, 9.607877
271616567902615, -1.4009976, 4.5726843, 9.474381, -0.28178382, 0.23233873, 10.606731
271616577542928, -1.3316058, 3.4983068, 8.945567, 0.3930037, -0.15918797, 9.687864
271616587183136, -1.6689938, 4.089334, 9.110672, -0.15103722, -0.20715266, 10.121601
271616596823449, -1.3986049, 3.8823547, 9.093923, 0.12403989, -0.04912457, 9.985511
271616606463761, -1.8281165, 3.5306098, 8.839087, 0.11273956, -0.5767841, 9.674258
271616616104074, -1.3268201, 4.408776, 9.32483, -0.1713779, 0.24063009, 10.395332
271616625744386, -1.5625132, 3.2638102, 8.896515, 0.46922755, -0.45869678, 9.581822
271616635384699, -1.2981063, 4.7222357, 9.442079, -0.35600615, 0.41001296, 10.622742
271616645024907, -1.4703895, 3.1692936, 8.551949, 0.43441224, -0.38977456, 9.219635
271616654665220, -1.4536397, 4.578666, 9.119047, -0.4333551, 0.2261815, 10.295403
271616664305532, -1.262214, 3.5437703, 8.633304, 0.2627492, -0.037854433, 9.413552
271616673945845, -1.4751751, 4.3130627, 8.876176, -0.33224988, 0.1068663, 9.972128
271616683586157, -1.1473584, 4.085745, 8.835498, -0.022735357, 0.29340607, 9.797407
271616693226470, -1.6247265, 3.8237305, 8.559127, -0.13453507, -0.23341632, 9.510348
271616702866678, -1.3100704, 4.508078, 8.851051, -0.42125702, 0.3362654, 10.004479
271616712506990, -1.6630118, 3.306881, 8.493324, 0.24341464, -0.49671912, 9.248331
271616722147303, -1.3806586, 4.6935215, 9.311669, -0.40626764, 0.33831966, 10.505381
271616731787615, -1.4871392, 3.1884363, 8.744571, 0.5093386, -0.407436, 9.403181
271616741427928, -1.4057833, 4.613362, 9.462418, -0.2998066, 0.27369505, 10.612818
271616751068240, -1.2658032, 3.4037902, 9.086744, 0.56533384, -0.13561374, 9.768264
271616760708553, -1.4895321, 4.2568316, 9.516255, -0.039943695, 0.028691351, 10.530718
271616770348865, -1.2370893, 3.839284, 9.272188, 0.3023131, 0.08183485, 10.106725
271616779989074, -1.7491534, 3.6670008, 8.920443, 0.071186066, -0.42939407, 9.792411
271616789629386, -1.4177474, 4.274778, 9.120243, -0.18556619, 0.14010805, 10.168998
271616799269699, -1.8005991, 3.2482567, 8.611769, 0.24028563, -0.64203465, 9.353392
271616808910011, -1.4464613, 4.62413, 9.275777, -0.40640068, 0.26503187, 10.453681
271616818550324, -1.5337993, 3.1609187, 8.6548395, 0.4475355, -0.43924814, 9.319708
271616828190636, -1.416551, 4.6528435, 9.30808, -0.41161942, 0.31065446, 10.489517
271616837830949, -1.3471591, 3.4133615, 8.792427, 0.38898826, -0.18121463, 9.517798
271616847471261, -1.5326029, 4.3561335, 9.202796, -0.27096057, 0.06910604, 10.29262
271616857111470, -1.2023934, 3.8787656, 9.018549, 0.17982292, 0.14612639, 9.887928
271616866751782, -1.5122639, 3.9445682, 8.962317, -0.032926798, -0.09453821, 9.907557
271616876392095, -1.0468599, 4.482953, 9.132208, -0.1689558, 0.55416316, 10.210502
271616886032407, -1.4620147, 3.5330026, 8.646464, 0.19138432, -0.22670758, 9.449493
271616895672720, -1.1724831, 4.837091, 9.180064, -0.50045323, 0.58583176, 10.414033
271616905313032, -1.4069797, 3.3343983, 8.541181, 0.3319881, -0.25856984, 9.266741
271616914953345, -1.2981063, 4.796413, 9.2793665, -0.47697854, 0.45235735, 10.505482
271616924593657, -1.2598212, 3.4085758, 8.788837, 0.4307859, -0.10513008, 9.500135
271616934233970, -1.4799608, 4.3992043, 9.300901, -0.23654437, 0.10554311, 10.391484
271616943874178, -1.2131611, 3.804588, 9.083155, 0.25110292, 0.09723559, 9.91856
271616953514490, -1.5756737, 3.9242291, 9.170493, 0.03788662, -0.18619382, 10.096741
271616963154803, -1.2239288, 4.150351, 9.397811, 0.096565485, 0.21944854, 10.343345
271616972795115, -1.5026926, 3.9074793, 9.201599, 0.09193897, -0.12772477, 10.107975
271616982435428, -1.4691931, 3.9373896, 9.186047, 0.07643151, -0.08385855, 10.101097
271616992075740, -1.4943178, 3.9170506, 9.12144, 0.05606699, -0.105336785, 10.038061
271617001716053, -1.4931214, 3.9373896, 9.013762, -0.004076004, -0.08334899, 9.948538
271617011356365, -1.5182459, 3.888337, 8.913264, -0.013871193, -0.11299521, 9.841623
271617020996678, -1.5469599, 3.8907297, 8.860622, -0.050775528, -0.13362408, 9.799034
271617030636990, -1.5098711, 3.8775692, 8.813962, -0.040254593, -0.10055512, 9.746254
271617040277303, -1.4488541, 3.8751762, 8.865408, 0.011140108, -0.05257833, 9.783084
271617049917511, -1.4201403, 3.940979, 8.967103, 0.017967463, -0.0039007664, 9.897307
271617059557824, -1.4057833, 3.952943, 8.949157, 0.008855104, 0.0157125, 9.883778
271617069198136, -1.4644074, 3.9577286, 8.872586, -0.053846598, -0.024749815, 9.824835
271617078838449, -1.524228, 3.938586, 8.853444, -0.07407141, -0.0772903, 9.808556
271617088478761, -1.5457634, 3.9517467, 8.919247, -0.06776929, -0.08998382, 9.876537
271617098119074, -1.5146568, 3.9637108, 8.9312105, -0.05699587, -0.05636221, 9.887633
271617107759386, -1.4943178, 3.9613178, 8.874979, -0.06929517, -0.035751283, 9.832813
271617117399699, -1.4488541, 3.952943, 8.806784, -0.06949091, -0.0018405318, 9.761125
271617127040011, -1.39023, 3.9541395, 8.8905325, -0.008527994, 0.037176907, 9.828939
271617136680324, -1.3866407, 3.9553359, 8.997013, 0.035961628, 0.028003871, 9.9253025
271617146320636, -1.4536397, 3.906283, 9.020942, 0.055323124, -0.055120707, 9.936973
271617155960949, -1.4823537, 3.9278183, 9.031709, 0.02325058, -0.07033038, 9.959488
271617165601261, -1.442872, 3.9684963, 9.108279, 0.035621643, -0.017657101, 10.039421
271617175241574, -1.375873, 4.037888, 9.297313, 0.0851779, 0.0627566, 10.228704
271617184881782, -1.3136597, 4.0642095, 9.397811, 0.13152623, 0.12184745, 10.321348
271617194522095, -1.3663018, 4.058227, 9.303294, 0.073698044, 0.07440776, 10.2409115
271617204162407, -1.4213367, 4.0366917, 9.122637, -0.009907246, 0.028600812, 10.076538
271617213802720, -1.4273187, 3.9984066, 9.0029955, -0.024225235, 4.4685602E-4, 9.953785
271617223443032, -1.3483555, 4.022335, 8.915657, -0.040182114, 0.08079249, 9.873096
271617233083345, -1.3136597, 4.0031924, 8.997013, 0.023267508, 0.09703463, 9.934159
271617242723657, -1.2705889, 4.0366917, 8.9826565, 0.012637615, 0.14460337, 9.928562
271617252363970, -1.2442678, 4.063013, 9.010174, 0.011964321, 0.17844766, 9.9602995
271617262004282, -1.2705889, 4.1024942, 8.955139, -0.05251813, 0.176907, 9.93002
271617271644595, -1.396212, 4.1084766, 8.813962, -0.17033815, 0.07928413, 9.822403
271617281284907, -1.4596218, 4.0642095, 8.682357, -0.21261716, 0.020091057, 9.694639
271617290925220, -1.4356936, 4.0761733, 8.748159, -0.18144536, 0.04954654, 9.755579
271617300565532, -1.3842479, 4.0366917, 8.815159, -0.09771013, 0.073816955, 9.793013
271617310205845, -1.4297116, 3.940979, 8.829515, -0.036747694, -0.0118637085, 9.774162
271617319846157, -1.5397813, 3.8416767, 8.82114, -0.012701511, -0.15530735, 9.742568
271617329486470, -1.5876378, 3.778267, 8.900104, 0.04612446, -0.23312521, 9.795471
271617339126782, -1.564906, 3.792624, 9.101101, 0.12091637, -0.22228712, 9.979928
271617348767095, -1.5804594, 3.7962132, 9.183653, 0.1330421, -0.23507911, 10.058609
271617358407407, -1.5684953, 3.7974095, 9.305687, 0.1889484, -0.23335874, 10.167897
271617368047720, -1.5565311, 3.8440695, 9.265009, 0.13408422, -0.19426787, 10.14812
271617377688032, -1.5002998, 3.8775692, 9.141779, 0.07758832, -0.113327324, 10.041897
271617387328345, -1.4500505, 3.9146578, 9.18126, 0.08957744, -0.05658245, 10.085214
271617396968657, -1.4404793, 3.958925, 9.104691, 0.028645515, -0.01950097, 10.032063
271617406608865, -1.463211, 3.9361932, 8.940782, -0.03210473, -0.041047215, 9.8777275
271617416249282, -1.4656038, 3.9134614, 8.959925, -0.0039458275, -0.06743884, 9.886298
271617425889490, -1.3950156, 3.9828532, 9.040084, 0.009647369, 0.017714262, 9.976568
271617435529803, -1.3447664, 3.991228, 9.072387, 0.04011202, 0.061592877, 10.002054
271617445170115, -1.3674982, 4.0067816, 9.001799, -0.012237787, 0.055558383, 9.947536
271617454810428, -1.3722838, 4.054638, 9.01137, -0.049313784, 0.07669747, 9.975957
271617464450740, -1.2837493, 4.0965123, 9.144172, 0.012835264, 0.1669662, 10.100359
271617474091053, -1.2610176, 4.1240296, 9.202796, 0.028015137, 0.19803226, 10.161161
271617483731365, -1.2981063, 4.0905304, 9.0341015, -0.034730673, 0.16381973, 10.000222
271617493371678, -1.3172488, 4.0103707, 8.843872, -0.059346914, 0.120961666, 9.798681
271617503011990, -1.4045869, 3.9828532, 8.79123, -0.09872174, 0.030998647, 9.752487
271617512652303, -1.3866407, 3.9852462, 8.8187475, -0.0757699, 0.0333817, 9.77591
271617522292615, -1.375873, 3.9649072, 8.935996, -0.006093979, 0.02412343, 9.872433
271617531932928, -1.4045869, 3.9625144, 8.992228, 0.006769657, -0.011173606, 9.926448
271617541573240, -1.4452649, 3.940979, 9.0436735, 0.025527, -0.063108504, 9.970128
271617551213553, -1.4117653, 4.005585, 9.084352, 0.0034041405, -0.0032665133, 10.028121
271617560853865, -1.3651053, 4.034299, 9.170493, 0.038746834, 0.044602275, 10.111062
271617570494178, -1.4189439, 4.0366917, 9.066405, -0.033113718, 0.008561015, 10.02531
271617580134490, -1.4835501, 3.9684963, 8.959925, -0.055850506, -0.07037097, 9.910706
271617589774803, -1.5074782, 3.9230328, 8.962317, -0.03051424, -0.11258733, 9.898091
271617599415115, -1.4668003, 3.92064, 8.922835, -0.025223255, -0.074561894, 9.855644
271617609055428, -1.43689, 3.9026937, 8.877372, -0.015666008, -0.05522096, 9.803065
271617618695740, -1.4093726, 3.9242291, 8.919247, -0.0014503002, -0.024348736, 9.845724
271617628336053, -1.3507484, 3.9314077, 9.089137, 0.089352846, 0.010622859, 9.99424
271617637976365, -1.3387842, 3.9780676, 9.126225, 0.07410526, 0.04162669, 10.044806
271617647616678, -1.3339987, 4.0307097, 9.014959, -0.011738777, 0.07905054, 9.964402
271617657256990, -1.3339987, 4.042674, 8.968299, -0.039445877, 0.08833057, 9.926924
271617666897303, -1.3519448, 4.0271206, 8.959925, -0.03808236, 0.06666148, 9.915634
271617676537615, -1.430908, 4.0271206, 8.88455, -0.10634184, 0.005639851, 9.858452
271617686177928, -1.3770695, 4.0127635, 8.825927, -0.09472108, 0.049455762, 9.792047
271617695818240, -1.3507484, 4.0354953, 8.9013, -0.06905556, 0.08001703, 9.8656845
271617705458553, -1.314856, 4.025924, 9.01137, -5.8817863E-4, 0.09745169, 9.956516
271617715098970, -1.2813566, 4.0271206, 9.133404, 0.059866667, 0.108435035, 10.062966
271617724739282, -1.2454642, 4.0498524, 9.287741, 0.11998296, 0.13358617, 10.206978
271617734379595, -1.2705889, 4.0677986, 9.262616, 0.085511446, 0.11691427, 10.1949215
271617744019907, -1.2933207, 4.066602, 9.138189, 0.02387786, 0.10737896, 10.084859
271617753660220, -1.3375878, 4.0498524, 9.068798, -0.0070533752, 0.063228786, 10.021452
271617763300532, -1.4321043, 4.004389, 8.986245, -0.051883936, -0.034000993, 9.94157
271617772940845, -1.4919249, 3.9242291, 8.9013, -0.05038619, -0.11699593, 9.840851
271617782581157, -1.5122639, 3.879962, 8.99462, 0.017132282, -0.1606909, 9.910508
271617792221470, -1.4955142, 3.8440695, 9.165708, 0.12215853, -0.16887546, 10.048889
271617801861782, -1.4859428, 3.8141594, 9.193225, 0.16018343, -0.17806548, 10.06051
271617811502095, -1.5361922, 3.8201413, 9.18485, 0.12757969, -0.21342206, 10.062456
271617821142407, -1.5266209, 3.8009987, 9.2075815, 0.15441108, -0.20868403, 10.074242
271617830782720, -1.5613167, 3.8476589, 9.103494, 0.05850506, -0.20979846, 10.003418
271617840423032, -1.5637096, 3.8464625, 8.939586, -0.011074066, -0.19686836, 9.854835
271617850063345, -1.5002998, 3.8703907, 8.970692, 0.019319534, -0.1251226, 9.883729
271617859703657, -1.457229, 3.9349968, 8.970692, -0.011298656, -0.056555927, 9.903419
271617869343970, -1.4859428, 3.9553359, 8.861818, -0.07897663, -0.0585078, 9.817072
271617878984282, -1.4715859, 3.9625144, 8.825927, -0.09341884, -0.039185286, 9.785389
271617888624595, -1.4679967, 3.9720855, 8.867801, -0.07575965, -0.035602808, 9.826667
271617898264907, -1.4093726, 4.0151563, 8.874979, -0.07743454, 0.03204024, 9.842055
271617907905220, -1.3627125, 4.068995, 8.900104, -0.08588529, 0.09123641, 9.87977
271617917545532, -1.274178, 4.1431723, 8.914461, -0.097551584, 0.20295942, 9.90991
271617927185845, -1.1964114, 4.193422, 8.876176, -0.11335993, 0.28592885, 9.88474
271617936826157, -1.1820544, 4.1958146, 8.864211, -0.1130147, 0.30079275, 9.872848
