timestamp_acc,device_acc_x,device_acc_y,device_acc_z,earth_acc_x,earth_acc_y,earth_acc_z
256415161947338, -1.896312, 3.9302113, 8.879765, 0.04920894, -3.8218498E-4, 9.893956
256415171586817, -1.8592232, 3.958925, 8.837891, 0.09736514, 0.016263485, 9.860445
256415181226192, -1.8137596, 3.9601214, 8.85464, 0.12745535, -0.017699957, 9.867137
256415190865567, -1.8628124, 3.9493537, 8.896515, 0.07830769, -0.016170502, 9.9100485
256415200505046, -1.9274186, 3.8871403, 8.980264, -0.021790564, -0.061249018, 9.973249
256415210144421, -2.0470598, 3.8380876, 9.055637, -0.1527074, -0.06596589, 10.044813
256415219783796, -2.1415763, 3.8416767, 9.053245, -0.22850364, -0.008703947, 10.062493
256415229423275, -2.0817556, 3.863212, 9.048459, -0.1619947, -0.021789074, 10.055148
256415239062650, -2.062613, 3.912265, 8.991031, -0.11071873, 0.028547764, 10.019268
256415248702025, -1.9334008, 3.9230328, 8.836694, 0.012373149, 0.033504725, 9.85972
256415258341504, -1.8436699, 3.9601214, 8.707481, 0.120333314, 0.066300154, 9.740793
256415267980879, -1.7718852, 4.004389, 8.673982, 0.20930135, 0.07266235, 9.714092
256415277620254, -1.7240287, 4.0127635, 8.782856, 0.24166441, 0.0051550865, 9.805848
256415287259733, -1.7455641, 4.022335, 8.874979, 0.22264957, -0.017320156, 9.896542
256415296899108, -1.7611175, 4.025924, 8.933603, 0.20194805, -0.031764984, 9.953746
256415306538483, -1.861616, 4.0163527, 8.968299, 0.100247085, 0.0016000271, 10.000852
256415316177963, -1.9345971, 3.9828532, 8.993423, 0.01965797, 0.0077898502, 10.024321
256415325817338, -2.0135603, 3.9302113, 9.02812, -0.078941345, -0.0016345978, 10.04996
256415335456713, -2.085345, 3.842873, 9.02812, -0.18777132, -0.02417183, 10.029329
256415345096192, -2.1296122, 3.7950168, 8.965906, -0.24118632, -0.007873535, 9.963265
256415354735567, -2.1068804, 3.735196, 8.974281, -0.24147034, -0.06471276, 9.943132
256415364374942, -2.105684, 3.714857, 8.859426, -0.243096, -0.033237934, 9.831749
256415374014421, -2.0195422, 3.7734814, 8.744571, -0.12271917, 0.014318228, 9.734986
256415383653796, -1.9645073, 3.8668015, 8.691928, -0.01278621, 0.07814193, 9.713639
256415393293171, -1.9381863, 3.897908, 8.709874, 0.023357987, 0.079268694, 9.736803
256415402932650, -1.9585253, 3.9541395, 8.79482, 0.026037335, 0.094055414, 9.839227
256415412572025, -1.9034904, 3.9864426, 8.937193, 0.08022535, 0.02751398, 9.969014
256415422211400, -1.8364913, 4.0235314, 9.078369, 0.13046294, -0.04356742, 10.097493
256415431850879, -1.7670995, 4.045067, 9.200403, 0.18389773, -0.11877966, 10.20219
256415441490254, -1.7694924, 4.025924, 9.127422, 0.17608017, -0.09974122, 10.129562
256415451129629, -1.7934206, 4.0151563, 8.99462, 0.15444982, -0.036706686, 10.010787
256415460769108, -1.8843478, 4.028317, 8.822337, 0.09759277, 0.09622359, 9.878915
256415470408483, -1.9345971, 3.9888353, 8.706285, 0.04632017, 0.14603066, 9.768799
256415480047858, -2.0135603, 3.9242291, 8.660822, -0.048779786, 0.15824938, 9.71784
256415489687338, -2.0470598, 3.839284, 8.7266245, -0.12668142, 0.082372665, 9.749959
256415499326713, -2.091327, 3.737589, 8.825927, -0.22108793, -0.015105963, 9.807706
256415508966088, -2.1212373, 3.694518, 8.946764, -0.27393913, -0.08051777, 9.90516
256415518605567, -2.0937197, 3.7088752, 8.995817, -0.24470407, -0.10208511, 9.949565
256415528244942, -1.9908284, 3.7830527, 9.035298, -0.12021169, -0.114640236, 9.994193
256415537884317, -1.8903298, 3.9146578, 9.032906, 0.035333574, -0.062313557, 10.024278
256415547523796, -1.8448663, 4.0067816, 8.912068, 0.12847552, 0.038564205, 9.943078
256415557163171, -1.7659031, 4.0833516, 8.840283, 0.2390765, 0.08516598, 9.89335
256415566802546, -1.707279, 4.133601, 8.9312105, 0.30879354, 0.046617508, 9.983509
256415576442025, -1.7682959, 4.091727, 8.962317, 0.22892559, 0.034870863, 10.006928
256415586081400, -1.8185452, 3.9613178, 9.02453, 0.10157502, -0.05994153, 10.021346
256415595720775, -1.9334008, 3.859623, 9.05803, -0.054447472, -0.08632231, 10.033554
256415605360254, -1.9980069, 3.7663028, 8.995817, -0.15572333, -0.091100454, 9.953353
256415614999629, -2.0171494, 3.7567315, 8.873783, -0.16431808, -0.035180807, 9.843664
256415624639004, -2.0279171, 3.784249, 8.822337, -0.14985085, 0.014465094, 9.810402
256415634278483, -2.0195422, 3.8380876, 8.857033, -0.11519778, 0.035289526, 9.861135
256415643917858, -1.9800607, 3.8943188, 8.861818, -0.047253132, 0.05466175, 9.87993
256415653557233, -1.922633, 3.973282, 8.830712, 0.05162686, 0.09653425, 9.871828
256415663196713, -1.8496519, 3.9804604, 8.848659, 0.114745855, 0.056703806, 9.876621
256415672836088, -1.8879371, 3.9194436, 8.962317, 0.035982728, -0.019070148, 9.962319
256415682475463, -1.9094725, 3.8500516, 9.0747795, -0.031334817, -0.108284, 10.040312
256415692114942, -1.9118652, 3.8464625, 9.044869, -0.033534646, -0.096741915, 10.012475
256415701754317, -1.9082761, 3.900301, 9.02453, -0.007552445, -0.050513983, 10.01466
256415711393692, -1.9094725, 3.970889, 8.96471, 0.03351283, 0.028235912, 9.988903
256415721033171, -1.9034904, 3.9744785, 8.82473, 0.04761529, 0.08789492, 9.863348
256415730672546, -1.875973, 3.9804604, 8.76491, 0.08047712, 0.10212231, 9.806635
256415740311921, -1.9286151, 3.9756749, 8.718249, 0.04167652, 0.1467588, 9.772929
256415749951400, -1.948954, 3.8967116, 8.830712, -0.022628963, 0.050765753, 9.846886
256415759590775, -1.9549361, 3.8572302, 8.980264, -0.0586648, -0.038472414, 9.966956
256415769230150, -1.9274186, 3.8488553, 9.007781, -0.04207188, -0.070601225, 9.983087
256415778869525, -1.8915263, 3.8644085, 9.010174, -0.009662986, -0.07738447, 9.984421
256415788509004, -1.9010975, 3.8835511, 8.980264, -0.00748682, -0.04512334, 9.966904
256415798148379, -1.8580267, 3.9433718, 8.971889, 0.06211692, -0.020165205, 9.974616
256415807787754, -1.820938, 4.0151563, 8.916854, 0.1377911, 0.038318157, 9.946213
256415817427233, -1.7730815, 4.0534415, 8.916854, 0.1988154, 0.04141426, 9.952048
256415827066608, -1.8221345, 3.9924245, 8.876176, 0.12851906, 0.038104773, 9.900918
256415836705983, -1.8987048, 3.8943188, 8.845069, 0.01202631, 0.016101122, 9.849147
256415846345463, -1.9788643, 3.822534, 8.864211, -0.096586585, -0.0053761005, 9.853555
256415855984838, -2.0458634, 3.769892, 8.926425, -0.18609983, -0.037495375, 9.90165
256415865624213, -2.0673988, 3.7890346, 8.953942, -0.19551891, -0.025519371, 9.938064
256415875263692, -2.0350957, 3.8297126, 8.877372, -0.14123502, 0.020678043, 9.879052
256415884903067, -1.9669002, 3.8943188, 8.8701935, -0.048300266, 0.03776169, 9.884887
256415894542442, -1.902294, 3.9541395, 8.864211, 0.040329814, 0.05136299, 9.890596
256415904181921, -1.8329022, 4.024728, 8.849854, 0.14202815, 0.07410288, 9.892029
256415913821296, -1.7120646, 4.0905304, 8.842676, 0.27982765, 0.062329054, 9.888091
256415923460671, -1.6534405, 4.1479583, 8.785249, 0.36451375, 0.09283805, 9.847769
256415933100150, -1.7419748, 4.0127635, 8.82114, 0.20383966, 0.026515245, 9.844136
256415942739525, -1.8771694, 3.8500516, 8.967103, -0.013534963, -0.08342576, 9.937226
256415952378900, -2.0231316, 3.743571, 9.0436735, -0.20049238, -0.11265516, 9.992124
256415962018275, -2.0542383, 3.7076788, 9.022138, -0.2417016, -0.110720396, 9.964691
256415971657754, -2.082952, 3.7256248, 9.017352, -0.25579512, -0.077876806, 9.972971
256415981297129, -2.0889342, 3.749553, 9.008977, -0.23412818, -0.047969818, 9.976339
256415990936504, -2.0554347, 3.8009987, 8.9348, -0.16497558, 0.0025753975, 9.9235
256416000575983, -1.9824536, 3.8739798, 8.900104, -0.057667494, 0.029488802, 9.90684
256416010215358, -1.9094725, 3.9314077, 8.879765, 0.035952628, 0.042711735, 9.896926
256416019854733, -1.8771694, 3.958925, 8.892925, 0.07459557, 0.036165953, 9.913331
256416029494213, -1.867598, 3.9816568, 8.914461, 0.09377283, 0.038560152, 9.939762
256416039133588, -1.8783658, 4.0031924, 8.898908, 0.091896236, 0.06476927, 9.936384
256416048772963, -1.8592232, 3.9960139, 8.895318, 0.093385756, 0.047081947, 9.92676
256416058412338, -1.8903298, 3.9637108, 8.867801, 0.05141121, 0.051169634, 9.8953
256416068051817, -1.8771694, 3.9373896, 8.865408, 0.049120784, 0.025173187, 9.880242
256416077691192, -1.8747765, 3.8811584, 8.889337, 0.021651864, -0.027071476, 9.879134
256416087330567, -1.875973, 3.8727834, 8.920443, 0.015923262, -0.044728518, 9.904027
256416096970046, -1.9130617, 3.8476589, 8.930014, -0.029550135, -0.047308445, 9.90991
256416106609421, -1.9405792, 3.8237305, 8.9312105, -0.064771, -0.049204588, 9.9069
256416116248796, -1.9465612, 3.8763726, 8.926425, -0.04106587, -0.0052268505, 9.924449
256416125888275, -2.0027926, 3.9086757, 8.883354, -0.06570095, 0.06714773, 9.909293
256416135527650, -1.9980069, 3.9481573, 8.823533, -0.036812007, 0.118175745, 9.870126
256416145167025, -1.9609182, 3.958925, 8.815159, -0.0027254224, 0.10540247, 9.859726
256416154806400, -1.869991, 4.001996, 8.895318, 0.090536356, 0.05313468, 9.931189
256416164445879, -1.7587247, 4.034299, 8.979067, 0.19159979, -0.021154165, 9.997756
256416174085254, -1.7012969, 4.025924, 8.91805, 0.238473, -0.031437397, 9.928556
256416183724629, -1.7228323, 3.991228, 8.874979, 0.20069164, -0.03109312, 9.880387
256416193364108, -1.7874385, 3.9720855, 8.885747, 0.13252503, -0.01414609, 9.895006
256416203003483, -2.0422742, 3.7208393, 8.979067, -0.22928697, -0.093491554, 9.928638
256416212642858, -1.942972, 4.1072803, 8.956335, 0.08013451, 0.1423769, 10.041621
256416222282233, -2.268396, 3.3128629, 8.953942, -0.634849, -0.2599585, 9.788931
256416231921713, -2.0518453, 4.3800616, 9.004191, 0.14033926, 0.37663102, 10.213173
256416241561088, -2.1882362, 3.068795, 8.785249, -0.68968946, -0.40928602, 9.5259285
256416251200463, -1.942972, 4.5020957, 9.017352, 0.30885547, 0.40696192, 10.2516165
256416260839942, -1.8568304, 3.2303107, 8.584251, -0.2958473, -0.38399053, 9.345432
256416270479317, -1.8197416, 4.4339004, 8.959925, 0.37045407, 0.30939555, 10.149789
256416280118692, -1.6366907, 3.851248, 8.620144, 0.22256225, -0.06065154, 9.579381
256416289758067, -1.7958134, 4.17069, 8.95155, 0.24365479, 0.11321044, 10.033825
256416299397546, -1.6187445, 4.359723, 8.859426, 0.49888653, 0.19614673, 9.991477
256416309036921, -1.9286151, 3.5605202, 9.072387, -0.22766131, -0.31743073, 9.927361
256416318676296, -1.82692, 4.4674, 9.192028, 0.35406286, 0.24435449, 10.373217
256416328315671, -2.120041, 3.0149565, 8.968299, -0.67406416, -0.57586217, 9.655514
256416337955150, -1.9932213, 4.4745784, 9.11785, 0.22620541, 0.36558008, 10.341429
256416347594525, -2.0350957, 3.1393833, 8.597412, -0.51945555, -0.35984254, 9.354866
256416357233900, -2.0470598, 4.3322053, 8.986245, 0.10297763, 0.34149456, 10.177614
256416366873275, -1.9298115, 3.5736806, 8.609376, -0.18039113, -0.10193968, 9.517027
256416376512754, -2.1212373, 3.9218364, 8.965906, -0.15082866, 0.09782076, 10.011774
256416386152129, -1.875973, 4.0438704, 8.906086, 0.12501776, 0.08468032, 9.958301
256416395791504, -2.1176481, 3.4085758, 9.081959, -0.4473055, -0.32761765, 9.913493
256416405430879, -1.8448663, 4.442275, 9.050852, 0.36314732, 0.28993464, 10.239107
256416415070358, -2.0063818, 3.199204, 8.784052, -0.4590636, -0.40331268, 9.541836
256416424709733, -1.7946169, 4.6875396, 9.046066, 0.52310747, 0.4407227, 10.322651
256416434349108, -1.8221345, 3.3343983, 8.688339, -0.24356574, -0.37760258, 9.47226
256416443988483, -1.7718852, 4.6672006, 9.072387, 0.52677894, 0.40378428, 10.333925
256416453627963, -1.672583, 3.8321054, 8.645268, 0.17283672, -0.07570505, 9.601439
256416463267338, -1.8687944, 4.2771707, 8.943174, 0.23157036, 0.21577978, 10.082994
256416472906713, -1.6905292, 4.162315, 8.763713, 0.32618505, 0.109909296, 9.842101
256416482546088, -2.0805593, 3.4492538, 8.940782, -0.40346503, -0.28598833, 9.793827
256416492185567, -1.9417756, 4.211368, 9.036494, 0.122115314, 0.16461444, 10.154916
256416501824942, -2.2492533, 2.9479575, 8.96471, -0.82057256, -0.5607283, 9.650277
256416511464317, -2.0721843, 4.4339004, 9.15494, 0.15458244, 0.35701275, 10.373765
256416521103692, -2.1260228, 3.1202407, 8.659625, -0.5867589, -0.36244917, 9.421748
256416530743171, -2.024328, 4.485346, 8.938389, 0.2431671, 0.46058846, 10.190181
256416540382546, -1.8113668, 3.6203406, 8.459825, -0.030563354, -0.07638621, 9.378157
256416550021921, -1.8520447, 4.2628136, 8.857033, 0.26192898, 0.23687267, 9.996197
256416559661296, -1.5481563, 4.2257247, 8.708678, 0.5056099, 0.10661268, 9.789158
256416569300775, -1.8089739, 3.7866418, 8.921639, 0.01568693, -0.16768622, 9.857908
256416578940150, -1.6127625, 4.5008993, 9.01137, 0.571199, 0.21272922, 10.182945
256416588579525, -2.015953, 3.1692936, 9.078369, -0.51864797, -0.57692814, 9.794049
256416598218900, -1.9884356, 4.487739, 9.491131, 0.20873183, 0.19304991, 10.681499
256416607858275, -2.2085752, 3.042474, 9.038888, -0.7422806, -0.5380063, 9.746566
256416617497754, -2.1248264, 4.3992043, 9.126225, 0.0857718, 0.36661053, 10.344763
256416627137129, -2.0147567, 3.4013975, 8.505288, -0.33483404, -0.15314984, 9.371932
256416636776504, -2.1104696, 4.1084766, 8.79482, -0.035514295, 0.28158545, 9.929853
256416646415879, -1.7994026, 3.9481573, 8.499306, 0.16449529, 0.12622166, 9.540493
256416656055358, -1.9465612, 3.6789649, 8.646464, -0.11757004, -0.05867362, 9.595207
256416665694733, -1.6211374, 4.486542, 8.646464, 0.6004471, 0.36407852, 9.850147
256416675334108, -1.875973, 3.37388, 8.739784, -0.2343201, -0.35804343, 9.544792
256416684973483, -1.7120646, 4.7306104, 9.1681, 0.6127832, 0.35878658, 10.433583
256416694612858, -1.9118652, 3.257828, 8.976674, -0.36996472, -0.5282538, 9.717687
256416704252338, -1.9298115, 4.595416, 9.348758, 0.33789992, 0.29219866, 10.584976
256416713891713, -1.9573289, 3.4121652, 8.912068, -0.30897027, -0.3623402, 9.729967
256416723531088, -2.1367905, 4.1001015, 9.274581, -0.10160053, 0.079453945, 10.362333
256416733170463, -1.9238294, 3.8117664, 8.8701935, -0.049390376, -0.062558174, 9.844017
256416742809838, -2.160719, 3.6382868, 8.908479, -0.33562583, -0.087586164, 9.856294
256416752449317, -1.9010975, 4.2855453, 8.685946, 0.26335216, 0.34528208, 9.860891
256416762088692, -2.1332014, 3.1561332, 8.620144, -0.5552199, -0.32877898, 9.402247
256416771728067, -1.8939191, 4.49731, 8.913264, 0.37399203, 0.3879249, 10.1473465
256416781367442, -2.0781665, 3.071188, 9.064013, -0.5771357, -0.6162002, 9.756767
256416791006817, -1.9788643, 4.570291, 9.1681, 0.31874472, 0.38185978, 10.421619
256416800646296, -1.7754744, 3.4660037, 8.505288, -0.08783734, -0.24089909, 9.350919
256416810285671, -1.82692, 4.4482574, 9.056833, 0.37491536, 0.2501452, 10.2444
256416819925046, -1.6163517, 4.0570307, 8.762517, 0.35260695, -0.013003111, 9.784136
256416829564421, -1.9322042, 3.8823547, 8.873783, -0.01072216, -0.025377274, 9.87671
256416839203796, -1.7886349, 4.389633, 8.873783, 0.39876664, 0.26763487, 10.048954
256416848843275, -2.1738794, 3.3284163, 8.937193, -0.52046907, -0.33728623, 9.7618065
256416858482650, -2.0219352, 4.5762734, 9.092726, 0.28551406, 0.43117762, 10.36536
256416868122025, -2.1894326, 3.1022944, 8.721839, -0.65448326, -0.3992467, 9.481592
256416877761400, -2.082952, 4.5020957, 9.040084, 0.20317817, 0.42556405, 10.300888
256416887400775, -1.98365, 3.2757742, 8.590233, -0.370336, -0.3240409, 9.392311
256416897040150, -1.989632, 4.1922255, 8.880961, 0.11100185, 0.2113421, 10.017381
256416906679629, -1.7802601, 3.769892, 8.5112705, 0.08072621, -0.04312873, 9.477064
256416916319004, -1.9214365, 3.8871403, 8.867801, 0.011902094, -0.0363338, 9.87108
256416925958379, -1.6701902, 4.406383, 8.848659, 0.5087989, 0.22277546, 10.009796
256416935597754, -1.9872392, 3.4396825, 8.963513, -0.3017006, -0.36916804, 9.792743
256416945237129, -1.8592232, 4.5930233, 9.208778, 0.42829818, 0.30201292, 10.444114
256416954876608, -2.1080768, 3.1274192, 8.975478, -0.58233905, -0.5436487, 9.703055
256416964515983, -2.015953, 4.595416, 9.217153, 0.30054796, 0.38117552, 10.483427
256416974155358, -1.9920249, 3.3762727, 8.641679, -0.3315807, -0.2754395, 9.47946
256416983794733, -2.009971, 4.4051867, 8.98146, 0.2016021, 0.33670354, 10.1959915
256416993434108, -1.8317057, 3.8081772, 8.577073, 0.05504304, -0.015968561, 9.561393
256417003073483, -2.0063818, 3.900301, 8.827123, -0.048992753, 0.026728153, 9.856616
256417012712858, -1.7455641, 4.2568316, 8.669196, 0.37534606, 0.21947455, 9.8047695
256417022352338, -2.0183458, 3.353541, 8.699107, -0.3536201, -0.30853415, 9.527548
256417031991713, -1.8915263, 4.4315076, 9.014959, 0.33524, 0.27615476, 10.212589
256417041631088, -2.1870399, 3.0161529, 8.921639, -0.6987758, -0.56365514, 9.626525
256417051270463, -2.0805593, 4.506881, 9.27817, 0.19406384, 0.3140092, 10.516123
256417060909838, -2.091327, 3.2350962, 8.779266, -0.48133588, -0.39218426, 9.567107
256417070549213, -2.0949163, 4.406383, 9.115458, 0.13786697, 0.32437038, 10.333066
256417080188692, -1.8867407, 3.8213377, 8.65125, 0.026192278, -0.005275011, 9.643953
256417089828067, -1.9561325, 4.085745, 8.91805, 0.094762415, 0.10161519, 10.001604
256417099467442, -1.6175481, 4.402794, 8.713464, 0.56272817, 0.24931741, 9.876573
256417109106817, -1.8257236, 3.6634114, 8.736196, -0.022973955, -0.20585299, 9.645312
256417118746192, -1.5984055, 4.6959143, 8.889337, 0.7234242, 0.37554693, 10.147042
256417128385567, -1.9046868, 3.2685957, 8.733803, -0.29539484, -0.45778728, 9.502317
256417138025046, -1.875973, 4.636094, 9.133404, 0.44618732, 0.3628502, 10.3971615
256417147664421, -2.0889342, 3.1597223, 8.825927, -0.53499925, -0.47702956, 9.577614
256417157303796, -2.2348964, 4.2245283, 9.26142, -0.08610594, 0.19680738, 10.419653
256417166943171, -2.1834507, 3.4408789, 8.864211, -0.44674918, -0.23988318, 9.742905
256417176582546, -2.3234308, 3.8177485, 9.107083, -0.37344003, 0.009340048, 10.137698
256417186221921, -1.9884356, 4.0474596, 8.784052, 0.06491351, 0.14394021, 9.872713
256417195861296, -2.1571295, 3.4420755, 8.703893, -0.40397948, -0.17769384, 9.595002
256417205500775, -1.7682959, 4.56072, 8.739784, 0.5478522, 0.41536522, 9.991907
256417215140150, -1.902294, 3.367898, 8.612965, -0.21696597, -0.33026147, 9.433371
256417224779525, -1.68694, 4.8490553, 8.925228, 0.7407303, 0.5145476, 10.256966
256417234418900, -1.7790636, 3.455236, 8.572288, -0.06685114, -0.31346726, 9.406654
256417244058275, -1.820938, 4.601398, 9.127422, 0.4758106, 0.2996874, 10.367367
256417253697650, -1.8125632, 3.6837504, 8.898908, -0.012132913, -0.27705383, 9.79638
256417263337025, -2.0638096, 4.048656, 9.260223, -0.04924357, -0.03827381, 10.31498
256417272976504, -1.9334008, 4.0642095, 8.932407, 0.08736026, 0.055885315, 10.001649
256417282615879, -2.225325, 3.4672, 8.859426, -0.47042134, -0.21272516, 9.7568655
256417292255254, -2.0051854, 4.3537407, 8.894122, 0.20426014, 0.3287754, 10.096109
256417301894629, -2.254039, 3.028117, 8.817552, -0.72063094, -0.4918015, 9.55187
256417311534004, -2.0925233, 4.4434714, 9.010174, 0.1985321, 0.38585234, 10.252709
256417321173379, -2.1858435, 3.01376, 8.595019, -0.6539362, -0.43643832, 9.333644
256417330812754, -2.1332014, 4.386044, 8.997013, 0.14025211, 0.36874223, 10.226364
256417340452233, -1.9405792, 3.5413775, 8.642876, -0.15701306, -0.20054555, 9.536333
256417350091608, -1.9788643, 4.17069, 8.993423, 0.1365465, 0.1320324, 10.107231
256417359730983, -1.7084754, 4.2041893, 8.717052, 0.38942462, 0.14645767, 9.818759
256417369370358, -1.9118652, 3.7974095, 8.860622, -0.0105757415, -0.12603092, 9.827013
256417379009733, -1.599602, 4.6971107, 8.837891, 0.7269009, 0.41489673, 10.100959
256417388649108, -1.8939191, 3.4073794, 8.689535, -0.19025233, -0.35199833, 9.515518
256417398288483, -1.8293129, 4.709075, 9.162118, 0.5127249, 0.38667488, 10.442883
256417407927858, -2.1128623, 3.0951161, 8.968299, -0.5648601, -0.5942886, 9.685147
256417417567338, -2.2372892, 4.3058844, 9.341579, -0.043319732, 0.21340466, 10.524439
256417427206713, -2.2157538, 3.2614172, 8.876176, -0.55522543, -0.37255526, 9.68947
256417436846088, -2.2983062, 3.9517467, 9.073584, -0.2513757, 0.099229336, 10.156545
256417446485463, -2.0231316, 3.8931224, 8.696713, -0.030986607, 0.083217144, 9.740349
256417456124838, -2.1655045, 3.6394832, 8.720642, -0.28672773, -0.03922844, 9.690259
256417465764213, -1.7647067, 4.536792, 8.630911, 0.5572532, 0.4359057, 9.883761
256417475403588, -1.8532411, 3.5102708, 8.544769, -0.09885073, -0.23406672, 9.418335
256417485042963, -1.6283158, 4.9196434, 8.876176, 0.85078466, 0.5422101, 10.2285385
256417494682442, -1.8029919, 3.3726835, 8.656036, -0.15273684, -0.4134605, 9.452961
256417504321817, -1.8987048, 4.557131, 9.177671, 0.40141612, 0.28053713, 10.409723
256417513961192, -2.0075781, 3.3487554, 8.965906, -0.3528092, -0.4550259, 9.762197
256417523600567, -2.2097716, 4.0474596, 9.416953, -0.15371346, -0.03068304, 10.484248
256417533239942, -2.0338993, 3.8488553, 9.007781, -0.09335983, -0.08646345, 10.003718
256417542879317, -2.1655045, 3.6849468, 8.849854, -0.28101164, -0.07220197, 9.823645
256417552518692, -1.9334008, 4.4315076, 8.65125, 0.33437434, 0.44348073, 9.895046
256417562158067, -2.0925233, 3.3164523, 8.416754, -0.40116376, -0.19340491, 9.274747
256417571797546, -1.8257236, 4.6672006, 8.653643, 0.56086725, 0.5430908, 9.969557
256417581436921, -1.9465612, 3.245864, 8.618947, -0.32199234, -0.4072559, 9.3990135
256417591076296, -1.9537396, 4.566702, 9.262616, 0.37432122, 0.2819252, 10.49992
256417600715671, -2.036292, 3.2973096, 8.995817, -0.3979581, -0.48353195, 9.775034
256417610355046, -2.2037897, 4.1204405, 9.404989, -0.100271225, 0.0220747, 10.501333
256417619994421, -2.0482562, 3.8069808, 8.968299, -0.1229682, -0.09335828, 9.954646
256417629633796, -2.219343, 3.6789649, 9.006584, -0.33847255, -0.11433005, 9.972521
256417639273275, -1.8927227, 4.316652, 8.7780695, 0.30399215, 0.2832024, 9.954786
256417648912650, -2.0386848, 3.3954153, 8.7015, -0.31915814, -0.2862959, 9.550779
256417658552025, -1.7503498, 4.8035913, 8.82832, 0.686875, 0.54349995, 10.1641655
256417668191400, -1.8305093, 3.3930225, 8.55793, -0.13340148, -0.3354497, 9.379297
256417677830775, -1.7324036, 4.7605205, 8.946764, 0.6838405, 0.45839262, 10.248445
256417687470150, -1.820938, 3.434897, 8.5938225, -0.103963256, -0.32510114, 9.426115
256417697109525, -2.0398812, 4.223332, 9.1465645, 0.109844804, 0.12694693, 10.277603
256417706748900, -1.969293, 3.731607, 8.985049, -0.08802816, -0.1964407, 9.924099
256417716388275, -2.2695923, 3.7052858, 9.190832, -0.37175992, -0.15908957, 10.158154
256417726027754, -2.0578275, 4.188636, 8.921639, 0.078104675, 0.21416378, 10.065933
256417735667129, -2.3042881, 3.2135608, 8.813962, -0.6459348, -0.33859277, 9.632796
256417745306504, -2.0231316, 4.4817567, 8.961121, 0.2813411, 0.3982706, 10.209951
256417754945879, -2.1224337, 3.0939198, 8.695518, -0.5350094, -0.46977782, 9.44363
256417764585254, -1.9992033, 4.597809, 8.926425, 0.37051296, 0.47793555, 10.220177
256417774224629, -2.0063818, 3.324827, 8.437093, -0.30503762, -0.23354053, 9.279923
256417783864004, -2.0662024, 4.325027, 8.952746, 0.17765546, 0.30440545, 10.149015
256417793503483, -1.8867407, 3.784249, 8.807981, 0.03122741, -0.120411396, 9.769614
256417803142858, -2.0279171, 3.9086757, 9.108279, -0.04271555, -0.089417934, 10.11638
256417812782233, -1.719243, 4.3465624, 8.985049, 0.46292263, 0.11542487, 10.116912
256417822421608, -1.9106688, 3.5210385, 9.006584, -0.17969042, -0.38254237, 9.848264
256417832060983, -1.7036897, 4.7210393, 9.15494, 0.6682626, 0.29928064, 10.414776
256417841700358, -1.9764715, 3.2853456, 8.843872, -0.34276646, -0.44813633, 9.622666
256417851339733, -1.9657038, 4.7138605, 8.967103, 0.44822997, 0.5384989, 10.295753
256417860979108, -2.0279171, 3.3355947, 8.572288, -0.33649826, -0.2729349, 9.409306
256417870618588, -2.1451654, 4.322634, 9.018549, 0.080881864, 0.3158145, 10.223249
256417880257963, -2.091327, 3.542574, 8.750552, -0.283282, -0.1731677, 9.663611
256417889897338, -2.2743778, 3.6550367, 9.067601, -0.39330184, -0.14170694, 10.028893
256417899536713, -1.969293, 3.9960139, 8.834301, 0.05839789, 0.062206984, 9.893625
256417909176088, -2.1690936, 3.3918262, 8.805588, -0.4386597, -0.27042603, 9.668625
256417918815463, -1.8089739, 4.633701, 8.9013, 0.5532183, 0.41004634, 10.17362
256417928454838, -1.975275, 3.3224342, 8.644072, -0.30417317, -0.3421359, 9.457838
256417938094213, -1.774278, 4.8705907, 8.988638, 0.71146715, 0.5310476, 10.338187
256417947733692, -1.8101703, 3.495914, 8.584251, -0.06467718, -0.2746842, 9.439695
256417957373067, -1.9250258, 4.4949174, 9.066405, 0.36855084, 0.3022151, 10.289925
256417967012442, -1.9118652, 3.5856447, 8.914461, -0.12511128, -0.29811406, 9.791587
256417976651817, -2.2325034, 3.7686956, 9.293723, -0.31758744, -0.16218567, 10.26807
256417986291192, -2.0805593, 3.9194436, 8.958728, -0.08643371, 0.013869047, 9.997095
256417995930567, -2.306681, 3.3116665, 8.894122, -0.60954934, -0.27917266, 9.743914
256418005569942, -1.9788643, 4.506881, 8.897711, 0.34491557, 0.41514754, 10.154104
256418015209421, -2.1343977, 3.2889347, 8.6548395, -0.45297784, -0.28170586, 9.486541
256418024848796, -1.8999012, 4.776074, 8.864211, 0.56606734, 0.5897076, 10.214037
256418034488171, -1.875973, 3.3918262, 8.415557, -0.15866107, -0.23810029, 9.2608595
256418044127546, -1.8496519, 4.5690947, 8.928818, 0.48484844, 0.37034273, 10.180835
256418053766921, -1.7838492, 3.6921253, 8.720642, 0.05288112, -0.20862651, 9.634167
256418063406296, -2.0614166, 3.9720855, 9.1681, -0.0501014, -0.05725193, 10.201723
256418073045671, -1.9082761, 3.9804604, 8.969496, 0.08010131, -0.037051678, 9.996482
256418082685150, -2.260021, 3.3882368, 9.097511, -0.5424043, -0.35479116, 9.946481
256418092324525, -2.0398812, 4.3944187, 9.092726, 0.18275979, 0.28176737, 10.297422
256418101963900, -2.201397, 3.1357942, 8.872586, -0.61445045, -0.46525335, 9.633698
256418111603275, -1.975275, 4.615755, 9.046066, 0.36811718, 0.4397087, 10.330025
256418121242650, -2.009971, 3.2362926, 8.6548395, -0.3639248, -0.3893504, 9.441175
256418130882025, -1.969293, 4.510471, 8.961121, 0.3376372, 0.40384626, 10.210145
256418140521400, -1.8257236, 3.6251264, 8.57468, 0.010011882, -0.15207195, 9.485607
256418150160879, -2.0015962, 4.141976, 9.004191, 0.11912751, 0.12369585, 10.109815
256418159800254, -1.8137596, 4.089334, 8.7984085, 0.24266648, 0.08123708, 9.86706
256418169439629, -2.0793629, 3.6287155, 8.955139, -0.25236398, -0.19474506, 9.878475
256418179079004, -1.820938, 4.546363, 8.988638, 0.4593524, 0.3409505, 10.220255
256418188718379, -2.012364, 3.3008988, 8.87139, -0.36328992, -0.4413185, 9.660249
256418198357754, -1.820938, 4.6803613, 9.062816, 0.529081, 0.40442777, 10.339863
256418207997233, -1.9453648, 3.205186, 8.660822, -0.35490808, -0.44794583, 9.4202385
256418217636608, -1.9944177, 4.4745784, 9.0029955, 0.27305496, 0.35866404, 10.239643
256418227275983, -1.9788643, 3.4277184, 8.599805, -0.2506703, -0.24045682, 9.460505
256418236915358, -2.2456641, 4.0031924, 9.025727, -0.18625727, 0.13579965, 10.1231985
256418246554733, -2.099702, 3.8368912, 8.853444, -0.13735133, 0.023415804, 9.873933
256418256194108, -2.3808584, 3.4229329, 9.041281, -0.6046205, -0.2268591, 9.935426
256418265833483, -2.056631, 4.3094735, 8.965906, 0.15779388, 0.30032706, 10.15252
256418275472963, -2.143969, 3.2386854, 8.843872, -0.5092683, -0.3820188, 9.638178
256418285112338, -1.8293129, 4.6731825, 9.099904, 0.53428054, 0.3903463, 10.3708935
256418294751713, -1.867598, 3.225525, 8.785249, -0.2723009, -0.509166, 9.525709
256418304391088, -1.727618, 4.674379, 9.152547, 0.6175821, 0.31581378, 10.398196
256418314030463, -1.605584, 3.7280176, 8.738588, 0.21867877, -0.25009394, 9.629569
256418323669942, -1.6857436, 4.4805603, 9.099904, 0.52993035, 0.18419576, 10.26697
256418333309317, -1.599602, 4.1778684, 8.629715, 0.4634443, 0.120619535, 9.708551
256418342948692, -2.0434706, 3.7627137, 8.758927, -0.1496957, -0.019269466, 9.748324
256418352588067, -1.9525433, 4.2795634, 8.836694, 0.20250428, 0.28409958, 10.004626
256418362227442, -2.3425734, 3.0735807, 8.874979, -0.7807137, -0.42399096, 9.63901
256418371866817, -2.1738794, 4.389633, 9.162118, 0.07153627, 0.34668207, 10.383341
256418381506296, -2.3102703, 2.9216363, 8.843872, -0.8263487, -0.52776504, 9.545995
256418391145671, -2.1750758, 4.3405805, 9.195618, 0.03842461, 0.2907114, 10.394468
256418400785046, -2.0147567, 3.2913275, 8.737391, -0.3565168, -0.36890483, 9.537868
256418410424421, -1.9800607, 4.267599, 9.09153, 0.18289575, 0.19570637, 10.233143
256418420063796, -1.7168503, 4.071388, 8.750552, 0.31772342, 0.06612396, 9.797481
256418429703171, -1.9274186, 3.8871403, 8.907282, 0.031888098, -0.039648533, 9.907669
256418439342650, -1.698904, 4.429115, 8.816355, 0.50989956, 0.29494762, 9.994223
256418448982025, -1.989632, 3.3619158, 8.880961, -0.31766352, -0.39902234, 9.688781
256418458621400, -1.8376877, 4.62413, 9.15135, 0.46585646, 0.35557032, 10.400166
256418468260775, -2.024328, 3.162115, 8.874979, -0.45157886, -0.5232873, 9.611678
256418477900150, -1.975275, 4.575077, 9.141779, 0.329773, 0.3778901, 10.3996935
256418487539629, -1.969293, 3.3643086, 8.687142, -0.30136114, -0.3022635, 9.512148
256418497179004, -2.0865414, 4.237689, 8.993423, 0.072279155, 0.25614333, 10.154926
256418506818379, -1.9405792, 3.7710886, 8.5938225, -0.0311113, 0.018241405, 9.58329
256418516457754, -2.1511476, 3.690929, 8.807981, -0.2637908, -0.01885891, 9.785754
256418526097129, -1.8664017, 4.206582, 8.751749, 0.26531148, 0.23110151, 9.881706
256418535736504, -2.1379871, 3.245864, 8.812766, -0.49530584, -0.3549459, 9.612501
256418545375983, -1.922633, 4.5248275, 9.11785, 0.35978836, 0.34999442, 10.3466835
256418555015358, -2.085345, 3.1286156, 8.91805, -0.5222414, -0.5351136, 9.649321
256418564654733, -1.902294, 4.6612186, 9.238688, 0.42871678, 0.38543224, 10.505555
256418574294108, -1.841277, 3.4887354, 8.8187475, -0.11769268, -0.331455, 9.654438
256418583933483, -1.8855443, 4.4745784, 9.201599, 0.34154716, 0.25694418, 10.395376
256418593572963, -1.7240287, 3.9110687, 8.848659, 0.20172682, -0.08510542, 9.824437
256418603212338, -1.9405792, 3.9373896, 8.99821, 0.027396768, -0.023998499, 10.011759
256418612851713, -1.6941184, 4.301099, 8.744571, 0.44213608, 0.23661542, 9.878539
256418622491088, -2.0721843, 3.2973096, 8.7673025, -0.4102982, -0.33460212, 9.578699
256418632130463, -1.9585253, 4.389633, 9.036494, 0.26343226, 0.3067305, 10.227388
256418641769942, -2.2552354, 2.9240294, 8.843872, -0.78824157, -0.54001045, 9.536099
256418651409317, -2.152344, 4.408776, 9.129815, 0.09907174, 0.3833027, 10.356964
256418661048692, -2.1463618, 3.1980073, 8.670393, -0.5365976, -0.3207457, 9.466733
256418670688067, -2.1224337, 4.336991, 9.085547, 0.08561513, 0.3301139, 10.283242
256418680327546, -1.8807586, 3.760321, 8.706285, -0.007622212, -0.06063342, 9.668142
256418689966921, -1.9381863, 3.9828532, 8.969496, 0.051173568, 0.018252134, 10.00343
256418699606296, -1.6187445, 4.3645086, 8.796016, 0.54393584, 0.19730973, 9.935008
256418709245671, -1.855634, 3.5760734, 8.874979, -0.11167097, -0.2763977, 9.742077
256418718885046, -1.6558332, 4.6731825, 9.035298, 0.6609995, 0.34678817, 10.2790985
256418728524525, -1.942972, 3.2243285, 8.863015, -0.36715817, -0.4820528, 9.61027
256418738163900, -1.8580267, 4.674379, 9.229117, 0.469594, 0.37399483, 10.493727
256418747803275, -1.9465612, 3.3152559, 8.82832, -0.3293972, -0.39092946, 9.615502
256418757442650, -2.0171494, 4.348955, 9.133404, 0.1550852, 0.2653582, 10.310524
256418767082129, -1.9322042, 3.5270207, 8.772088, -0.1950258, -0.22238374, 9.645484
256418776721504, -2.2037897, 3.7674992, 9.152547, -0.31221566, -0.07686114, 10.1349125
256418786360879, -2.0518453, 3.9433718, 8.87139, -0.06684479, 0.10369253, 9.922027
256418796000254, -2.329413, 3.2075787, 8.793623, -0.6783093, -0.27915668, 9.617928
256418805639629, -2.0279171, 4.3537407, 8.85464, 0.1854575, 0.40762973, 10.063381
256418815279108, -2.1738794, 3.1405797, 8.76132, -0.57833016, -0.38919568, 9.532251
256418824918483, -1.9513469, 4.6492543, 9.069994, 0.39439073, 0.5003736, 10.357713
256418834557858, -1.9106688, 3.2925239, 8.671589, -0.27094334, -0.35566664, 9.459805
256418844197233, -1.8053846, 4.5320063, 9.144172, 0.45619476, 0.29860234, 10.349741
256418853836713, -1.6534405, 3.7998023, 8.851051, 0.19744557, -0.19513369, 9.7691555
256418863476088, -1.7982062, 4.1898327, 9.171689, 0.27068043, 0.028279066, 10.23885
256418873115463, -1.6223338, 4.26401, 8.7673025, 0.47670484, 0.16026974, 9.8704815
256418882754838, -1.9345971, 3.5904303, 8.811569, -0.16422713, -0.1896658, 9.706424
256418892394317, -1.7922242, 4.510471, 8.909675, 0.46428114, 0.37158775, 10.128428
256418902033692, -2.1128623, 3.12383, 8.790034, -0.57129204, -0.41557193, 9.53877
256418911673067, -1.9800607, 4.5020957, 9.114262, 0.29650378, 0.38374805, 10.345245
256418921312442, -2.0949163, 3.0939198, 8.743374, -0.5654922, -0.4268582, 9.481858
256418930951921, -2.0961127, 4.334598, 9.085547, 0.10704595, 0.33053422, 10.276619
256418940591296, -1.9250258, 3.463611, 8.725428, -0.20971537, -0.22970438, 9.578032
256418950230671, -2.0398812, 4.0271206, 9.160921, -0.004996717, 0.054534197, 10.212654
256418959870046, -1.8065811, 4.091727, 8.878569, 0.24571091, 0.09604931, 9.938076
256418969509525, -2.0805593, 3.5641093, 8.993423, -0.28848946, -0.18479776, 9.88918
256418979148900, -1.8293129, 4.429115, 9.0544405, 0.40014797, 0.27988338, 10.232686
256418988788275, -2.1248264, 3.1274192, 8.9312105, -0.5753487, -0.46506834, 9.670308
256418998427650, -1.9405792, 4.546363, 9.1465645, 0.35589904, 0.3819604, 10.383755
256419008067129, -2.0027926, 3.1537402, 8.696713, -0.45268595, -0.38993263, 9.446328
256419017706504, -1.9058832, 4.526024, 9.042477, 0.38199204, 0.3999076, 10.275106
256419027345879, -1.7682959, 3.6227336, 8.668, 0.01733005, -0.17190313, 9.558004
256419036985254, -1.847259, 4.220939, 9.036494, 0.26034892, 0.13931131, 10.139021
256419046624733, -1.6594225, 4.106084, 8.71466, 0.3777299, 0.101812124, 9.767592
256419056264108, -1.9716859, 3.6083765, 8.835498, -0.16888922, -0.14585257, 9.742903
256419065903483, -1.7910278, 4.365705, 8.967103, 0.39950508, 0.24719262, 10.1220255
256419075542963, -2.172683, 3.1070802, 9.012567, -0.63565, -0.46634173, 9.745733
256419085182338, -2.1068804, 4.456632, 9.256635, 0.16484839, 0.36653018, 10.47971
256419094821713, -2.2073789, 2.9910283, 8.833105, -0.73373085, -0.45895195, 9.544291
256419104461088, -2.099702, 4.402794, 9.047262, 0.14545518, 0.4043026, 10.269453
256419114100567, -1.9597218, 3.397808, 8.539984, -0.26230764, -0.17920923, 9.392336
256419123739942, -2.032703, 4.1084766, 8.889337, 0.052233815, 0.22555685, 9.998908
256419133379317, -1.7706888, 3.932604, 8.566305, 0.19192445, 0.099779606, 9.588301
256419143018796, -1.8987048, 3.7531424, 8.712267, -0.022684455, -0.029792547, 9.674366
256419152658171, -1.5780666, 4.558327, 8.752945, 0.68023676, 0.38840437, 9.963389
256419162297546, -1.8927227, 3.3702908, 9.017352, -0.25284874, -0.43628645, 9.797939
256419171936921, -1.7898313, 4.6037908, 9.582058, 0.4761995, 0.17472267, 10.768331
256419181576400, -2.0374885, 3.1070802, 9.403793, -0.55142206, -0.7048943, 10.071528
256419191215775, -2.0171494, 4.0163527, 9.556933, -0.0339666, -0.10401249, 10.560444
256419200855150, -2.0542383, 3.7555351, 9.253045, -0.19066215, -0.14578724, 10.192408
256419210494629, -1.995614, 3.900301, 8.955139, -0.046235323, 0.053465128, 9.969169
256419220134004, -1.9441684, 3.9170506, 8.584251, 0.031258374, 0.18524313, 9.63209
256419229773379, -1.8831514, 3.9230328, 8.435896, 0.09888911, 0.21641564, 9.4891615
256419239412858, -1.8640088, 3.9086757, 8.40479, 0.111460716, 0.20725441, 9.451846
256419249052233, -1.8771694, 3.8727834, 8.560323, 0.070700526, 0.120773554, 9.58028
256419258691608, -1.902294, 3.8656049, 8.82114, 0.03161031, 0.019709349, 9.816963
256419268330983, -1.9776679, 3.8057845, 9.047262, -0.07736176, -0.08317971, 10.011755
256419277970463, -2.0673988, 3.731607, 9.273384, -0.21321869, -0.17643619, 10.203827
256419287609838, -2.0937197, 3.7280176, 9.38824, -0.243227, -0.21086502, 10.311024
256419297249213, -2.1044874, 3.7770705, 9.329616, -0.22095728, -0.14456034, 10.279453
256419306888692, -2.0291135, 3.8344984, 9.201599, -0.109873295, -0.08206606, 10.172086
256419316528067, -1.9345971, 3.8991046, 9.006584, 0.021914482, -0.0011000633, 10.003187
256419326167442, -1.8077775, 3.9840498, 8.85464, 0.1835261, 0.059972525, 9.874619
256419335806921, -1.7359928, 4.037888, 8.718249, 0.28316277, 0.1137619, 9.758738
256419345446296, -1.7407784, 4.0797625, 8.58784, 0.3091443, 0.20488334, 9.658583
256419355085671, -1.747957, 4.071388, 8.605786, 0.29057252, 0.19275951, 9.673134
256419364725150, -1.7982062, 4.040281, 8.756535, 0.20929432, 0.12224293, 9.806915
256419374364525, -1.8664017, 3.9804604, 8.894122, 0.11170134, 0.05375433, 9.920563
256419384003900, -1.9298115, 3.8763726, 9.020942, -0.011069655, -0.04599309, 10.006279
256419393643379, -2.0279171, 3.7567315, 9.119047, -0.16439033, -0.12638116, 10.066753
256419403282754, -2.105684, 3.6789649, 9.217153, -0.26610866, -0.18181634, 10.140054
256419412922129, -2.1379871, 3.6873398, 9.153743, -0.28451884, -0.13407922, 10.092547
256419422561608, -2.0805593, 3.743571, 9.065208, -0.18317589, -0.076102495, 10.024057
256419432200983, -2.0721843, 3.8356948, 8.9108715, -0.113313794, 0.056598425, 9.919381
256419441840358, -2.0434706, 3.8787656, 8.815159, -0.05833602, 0.114163876, 9.844349
256419451479838, -1.9848464, 3.8548372, 8.822337, -0.021913886, 0.06388688, 9.829978
256419461119213, -1.9561325, 3.859623, 8.819944, 0.005281955, 0.05165553, 9.824045
256419470758588, -1.8747765, 3.8751762, 8.851051, 0.07742047, 0.0071935654, 9.842095
256419480398067, -1.8281165, 3.9218364, 8.904889, 0.12785646, -0.009804964, 9.899669
256419490037442, -1.7790636, 3.9577286, 8.988638, 0.17793757, -0.046687365, 9.979501
256419499676817, -1.7886349, 4.0271206, 8.973084, 0.20819509, 0.014715433, 9.994476
256419509316296, -1.8125632, 4.028317, 8.952746, 0.18241227, 0.033846617, 9.981481
256419518955671, -1.9190438, 3.9541395, 8.938389, 0.05371338, 0.039844036, 9.960334
256419528595046, -2.0733807, 3.8009987, 9.007781, -0.16146803, -0.021042824, 9.993004
256419538234525, -2.1547368, 3.7196429, 9.08794, -0.27908528, -0.0728755, 10.049186
256419547873900, -2.143969, 3.749553, 9.133404, -0.24832124, -0.0733726, 10.09989
256419557513275, -2.0721843, 3.824927, 9.040084, -0.13834548, -0.016367435, 10.031337
256419567152754, -1.9908284, 3.885944, 8.919247, -0.02941829, 0.03782606, 9.93049
256419576792129, -1.8807586, 3.9302113, 8.784052, 0.095900714, 0.06796527, 9.804569
256419586431504, -1.7874385, 3.9541395, 8.656036, 0.1938762, 0.08738685, 9.68049
256419596070983, -1.7096717, 3.9816568, 8.669196, 0.27375692, 0.05902195, 9.687781
256419605710358, -1.692922, 4.0295134, 8.76132, 0.30643082, 0.04600787, 9.786096
256419615349838, -1.7300107, 4.0295134, 8.827123, 0.2634573, 0.036427736, 9.85278
256419624989213, -1.8364913, 3.9972103, 8.945567, 0.14608341, 0.016263485, 9.967546
256419634628588, -1.9680966, 3.879962, 9.111869, -0.0408504, -0.07008195, 10.096884
256419644268067, -2.158326, 3.7627137, 9.196814, -0.26828873, -0.08553362, 10.16457
256419653907442, -2.251646, 3.696911, 9.15135, -0.37953144, -0.05986166, 10.116158
256419663546817, -2.2360928, 3.7124643, 9.02453, -0.3433562, 0.0029013157, 10.005338
256419673186296, -2.1511476, 3.7555351, 8.933603, -0.23667294, 0.02116108, 9.923924
256419682825671, -2.082952, 3.7663028, 8.857033, -0.1590535, 0.021561861, 9.8460655
256419692465150, -1.963311, 3.8213377, 8.82832, -0.027803361, 0.0099179745, 9.818124
256419702104525, -1.8233309, 3.9158542, 8.845069, 0.14294583, -0.0020234585, 9.842421
256419711743900, -1.7359928, 4.019942, 8.857033, 0.26713827, 0.02597022, 9.876671
256419721383379, -1.7108682, 4.072584, 8.913264, 0.3056073, 0.027414083, 9.943096
256419731022754, -1.7946169, 4.046263, 8.925228, 0.21136296, 0.042764187, 9.960226
256419740662129, -1.8496519, 3.993621, 9.008977, 0.12568724, -0.0073194504, 10.025769
256419750301608, -1.9178474, 3.9984066, 9.086744, 0.06685078, -0.0032570362, 10.110878
256419759940983, -1.9537396, 3.938586, 9.0747795, 0.0028263032, -0.02575636, 10.083674
256419769580463, -1.9812572, 3.8739798, 8.965906, -0.04962167, -0.012340546, 9.96584
256419779219838, -1.9944177, 3.8297126, 8.873783, -0.06774306, 0.0011813641, 9.868326
256419788859213, -1.9824536, 3.8165522, 8.804391, -0.05346173, 0.015495539, 9.798489
256419798498692, -2.0075781, 3.8356948, 8.733803, -0.06064266, 0.073167324, 9.747471
256419808138067, -2.0135603, 3.8057845, 8.770891, -0.07424137, 0.036909103, 9.770367
256419817777546, -2.0925233, 3.7914274, 8.894122, -0.15483668, 0.012562752, 9.89115
256419827416921, -2.1224337, 3.8069808, 8.952746, -0.17703566, 0.014434099, 9.9558
256419837056296, -2.0602202, 3.859623, 8.987442, -0.09814298, 0.006733656, 9.995282
256419846695775, -1.9704895, 3.9457645, 9.012567, 0.015468538, 0.008220673, 10.033841
256419856335150, -1.896312, 3.9601214, 8.962317, 0.08624375, -5.571842E-4, 9.979693
256419865974629, -1.8376877, 3.9098723, 8.937193, 0.10794151, -0.059874773, 9.925845
256419875614004, -1.8233309, 3.9338005, 9.016156, 0.13146019, -0.08239579, 10.003316
256419885253379, -1.8580267, 3.9361932, 9.029316, 0.10365403, -0.06745911, 10.02293
256419894892858, -1.881955, 3.9146578, 8.993423, 0.07951331, -0.05372119, 9.98693
256419904532233, -1.9728823, 3.8895333, 8.927621, -0.0049461722, 0.005429268, 9.935951
256419914171713, -2.1020947, 3.8440695, 8.873783, -0.13475144, 0.061919928, 9.895338
256419923811088, -2.1798615, 3.7794633, 8.848659, -0.2385593, 0.059960365, 9.86278
256419933450463, -2.2181466, 3.7423747, 8.860622, -0.2918713, 0.046921253, 9.8665495
256419943089942, -2.1894326, 3.7734814, 8.841479, -0.25130928, 0.056250334, 9.855871
256419952729317, -2.0697916, 3.851248, 8.834301, -0.10841468, 0.04879713, 9.856312
256419962368796, -1.9262222, 3.9254255, 8.857033, 0.05082062, 0.019987583, 9.877417
256419972008171, -1.8496519, 3.9649072, 8.877372, 0.13450196, -2.8252602E-4, 9.896028
256419981647546, -1.7874385, 3.999603, 8.882157, 0.20396063, -0.009723902, 9.901654
256419991287025, -1.7503498, 4.0534415, 8.916854, 0.26134345, -0.0037636757, 9.946662
256420000926400, -1.7264216, 4.098905, 8.920443, 0.3018871, 0.019411564, 9.96315
256420010565879, -1.7216359, 4.126423, 8.95155, 0.31555265, 0.024698019, 10.00107
256420020205254, -1.8221345, 4.0797625, 8.9108715, 0.20550227, 0.056319714, 9.966085
256420029844733, -1.9381863, 3.9613178, 8.853444, 0.04540348, 0.054336548, 9.890758
256420039484108, -2.0003998, 3.879962, 8.885747, -0.05236876, 0.012592554, 9.899965
256420049123483, -2.0374885, 3.8524444, 8.953942, -0.1008175, -0.017619371, 9.957677
256420058762963, -2.0805593, 3.8368912, 8.953942, -0.14521205, -0.00605011, 9.960042
256420068402338, -2.1272194, 3.7938204, 8.928818, -0.20356393, -3.1375885E-4, 9.929777
256420078041817, -2.1248264, 3.769892, 8.98146, -0.21256483, -0.040601015, 9.967286
256420087681192, -2.0985055, 3.7794633, 8.950353, -0.18342191, -0.034283638, 9.937912
256420097320567, -2.0219352, 3.7938204, 8.872586, -0.10065514, -0.03178644, 9.85865
256420106960046, -1.9657038, 3.8548372, 8.831908, -0.01712954, -1.5807152E-4, 9.834944
256420116599421, -1.9728823, 3.9134614, 8.865408, 0.010747075, 0.031807423, 9.889479
256420126238900, -1.9645073, 3.9684963, 8.926425, 0.046025395, 0.041454315, 9.9642105
256420135878275, -1.8879371, 4.0331025, 8.941978, 0.14420652, 0.040242434, 9.988334
256420145517754, -1.8245273, 4.0905304, 8.873783, 0.23074085, 0.07705307, 9.937111
256420155157129, -1.7982062, 4.063013, 8.847462, 0.23618007, 0.054437637, 9.897497
