timestamp_acc,device_acc_x,device_acc_y,device_acc_z,earth_acc_x,earth_acc_y,earth_acc_z
273493105604237, 0.2620141, 7.4069824, 6.599405, -0.025563598, -0.047530174, 9.923773
273493115243404, 0.22372891, 7.381858, 6.518049, -0.045424104, 0.009764671, 9.850111
273493124882466, 0.21774685, 7.4033933, 6.5347986, -0.051344156, 0.0133571625, 9.877167
273493134521633, 0.2321038, 7.402197, 6.521638, -0.034513354, 0.01842928, 9.86796
273493144160695, 0.26919255, 7.422536, 6.513263, 0.0062355995, 0.027499199, 9.878681
273493153799758, 0.2943172, 7.4273214, 6.5144596, 0.030337572, 0.02359581, 9.883746
273493163438925, 0.31465617, 7.426125, 6.5288167, 0.04511857, 0.00808382, 9.892912
273493173077987, 0.31106696, 7.4356966, 6.521638, 0.04317069, 0.022141933, 9.895238
273493182717050, 0.33260235, 7.408179, 6.509674, 0.06198311, 0.0076975822, 9.867305
273493192356216, 0.32183465, 7.3866434, 6.5108705, 0.047762513, -0.0035376549, 9.85166
273493201995279, 0.2943172, 7.38784, 6.526424, 0.018194437, -0.0062537193, 9.862082
273493211634341, 0.25124636, 7.3770723, 6.5431733, -0.028012633, -0.013428211, 9.863897
273493221273508, 0.23688944, 7.3866434, 6.562316, -0.04463935, -0.016848564, 9.883336
273493230912570, 0.2440679, 7.3926253, 6.5659056, -0.0356611, -0.016614914, 9.890402
273493240551737, 0.28115666, 7.405786, 6.5611196, 0.0039057732, -0.015091896, 9.898119
273493250190800, 0.28235307, 7.4416785, 6.5491557, 0.013739467, 0.016017437, 9.917122
273493259829862, 0.25962126, 7.4344997, 6.576673, -0.01550138, -0.0019111633, 9.92933
273493269469029, 0.25722843, 7.428518, 6.5551376, -0.0129807, 0.010476589, 9.91053
273493279108091, 0.2416751, 7.3986077, 6.582655, -0.039676428, -0.02300167, 9.9059105
273493288747154, 0.23330021, 7.396215, 6.600601, -0.052230835, -0.033796787, 9.9157715
273493298386320, 0.23090738, 7.3830543, 6.593423, -0.05527556, -0.035584927, 9.901096
273493308025383, 0.2739782, 7.3782687, 6.5778694, -0.010317922, -0.04052162, 9.888403
273493317664445, 0.29312077, 7.399804, 6.509674, 0.025971651, 0.016770363, 9.859915
273493327303612, 0.3074777, 7.4177504, 6.463014, 0.0532068, 0.057670593, 9.842863
273493336942675, 0.30149564, 7.408179, 6.4211397, 0.055212975, 0.08139038, 9.807821
273493346581737, 0.2739782, 7.422536, 6.437889, 0.02646041, 0.085335255, 9.828914
273493356220904, 0.2632105, 7.4213395, 6.472585, 0.0066797733, 0.061997414, 9.850688
273493365859966, 0.26799613, 7.4273214, 6.509674, 0.0028271675, 0.03713131, 9.879848
273493375499133, 0.25842485, 7.4153576, 6.5515485, -0.017732382, 0.0020971298, 9.898322
273493385138195, 0.23928227, 7.3986077, 6.586244, -0.04647529, -0.02747631, 9.908197
273493394777258, 0.2835495, 7.4033933, 6.613762, -0.009752035, -0.056526184, 9.931223
273493404416425, 0.3062813, 7.385447, 6.611369, 0.01048708, -0.07184982, 9.916834
273493414055487, 0.32063824, 7.4069824, 6.593423, 0.03151524, -0.046753407, 9.921505
273493423694550, 0.29192436, 7.4189467, 6.5958157, 0.0056796074, -0.032650948, 9.931247
273493433333716, 0.26679972, 7.4129643, 6.6101727, -0.023695469, -0.038710594, 9.93557
273493442972779, 0.2428715, 7.4309106, 6.579066, -0.03684628, 0.0018701553, 9.927747
273493452611841, 0.23090738, 7.4189467, 6.539584, -0.04131496, 0.023665905, 9.892321
273493462251008, 0.21535404, 7.393822, 6.5108705, -0.05378592, 0.032534122, 9.854057
273493471890070, 0.25124636, 7.4129643, 6.465407, -0.005968094, 0.062729836, 9.839344
273493481529237, 0.27158538, 7.4069824, 6.448657, 0.015289426, 0.06274986, 9.824366
273493491168300, 0.28713873, 7.3926253, 6.4618177, 0.02458167, 0.039916515, 9.822742
273493500807362, 0.2847459, 7.3627152, 6.5407805, -0.0030870438, -0.0382185, 9.852461
273493510446529, 0.24885355, 7.350751, 6.664011, -0.06968391, -0.1248498, 9.923914
273493520085591, 0.21415763, 7.3663044, 6.759724, -0.12300694, -0.17563057, 9.997808
273493529724654, 0.10049855, 7.3950186, 6.789634, -0.23510385, -0.14498758, 10.035898
273493539363820, 0.2620141, 7.503892, 6.6352973, -0.026419163, -0.015154839, 10.020145
273493549002883, 0.2955136, 7.483553, 6.411568, 0.056785345, 0.11743212, 9.858098
273493558641945, 0.18185452, 7.475178, 6.503692, -0.07921958, 0.06500721, 9.909534
273493568281112, 0.19621146, 7.5146594, 6.350551, -0.024356365, 0.19052792, 9.838762
273493577920175, 0.28115666, 7.479964, 6.306284, 0.061321616, 0.17638493, 9.7858715
273493587559341, 0.36370903, 7.436893, 6.314659, 0.12841189, 0.113025665, 9.761419
273493597198404, 0.5024927, 7.479964, 6.245267, 0.2746868, 0.14590597, 9.752386
273493606837466, 0.41635114, 7.3986077, 6.330212, 0.15141392, 0.05795765, 9.744642
273493616476633, 0.4331009, 7.3926253, 6.4414787, 0.14082682, -0.029613972, 9.813787
273493626115695, 0.40797627, 7.399804, 6.4977098, 0.09664357, -0.05224943, 9.85554
273493635754758, 0.3792624, 7.405786, 6.558727, 0.05530429, -0.084076405, 9.899305
273493645393925, 0.38165522, 7.385447, 6.559923, 0.050584793, -0.095196724, 9.884911
273493655032987, 0.34456646, 7.426125, 6.5551376, 0.023824573, -0.04886055, 9.911253
273493664672050, 0.31465617, 7.452446, 6.502496, 0.014665961, 0.014815807, 9.8954525
273493674311216, 0.25124636, 7.4715886, 6.4701924, -0.034560323, 0.06891918, 9.886618
273493683950279, 0.23330021, 7.483553, 6.430711, -0.037970424, 0.10907602, 9.869079
273493693589445, 0.22372891, 7.496713, 6.4235325, -0.03966081, 0.124560356, 9.873978
273493703228508, 0.25244278, 7.48116, 6.4211397, -0.013208747, 0.10689163, 9.861588
273493712867570, 0.29192436, 7.452446, 6.4402823, 0.017768025, 0.06469822, 9.853777
273493722506737, 0.33499518, 7.420143, 6.4462643, 0.05217445, 0.030306816, 9.834705
273493732145800, 0.357727, 7.3974113, 6.4737816, 0.06424737, -0.0070319176, 9.836429
273493741784862, 0.3361916, 7.3698936, 6.5276203, 0.026016712, -0.056910038, 9.850597
273493751424029, 0.32662028, 7.3770723, 6.580262, 0.0070103407, -0.07823324, 9.890478
273493761063091, 0.30987054, 7.3746796, 6.613762, -0.018279433, -0.098660946, 9.910282
273493770702154, 0.30987054, 7.3830543, 6.661618, -0.027525902, -0.12240791, 9.948214
273493780341320, 0.24765715, 7.3926253, 6.708278, -0.09469545, -0.12214184, 9.984455
273493789980383, 0.2009971, 7.4069824, 6.708278, -0.13490987, -0.10120344, 9.993814
273493799619445, 0.17467605, 7.4033933, 6.6484575, -0.14294589, -0.05058813, 9.950865
273493809258612, 0.16031912, 7.420143, 6.5886374, -0.13897157, 0.0064053535, 9.923458
273493818897675, 0.21535404, 7.4644103, 6.5168524, -0.062446833, 0.06744146, 9.910839
273493828536737, 0.2644069, 7.4392858, 6.445068, -0.005213022, 0.08634138, 9.846031
273493838175904, 0.30149564, 7.4739814, 6.4414787, 0.03399384, 0.098902225, 9.870817
273493847814966, 0.34337005, 7.4859457, 6.4151573, 0.08160937, 0.11369038, 9.863668
273493857454133, 0.357727, 7.4584284, 6.4354963, 0.08269596, 0.0765996, 9.856927
273493867093195, 0.31944183, 7.426125, 6.45105, 0.03352058, 0.05552721, 9.84181
273493876732258, 0.30388847, 7.411768, 6.4677997, 0.01030457, 0.039398193, 9.841618
273493886371425, 0.3182454, 7.34118, 6.474978, 0.00888741, -0.013687611, 9.7938385
273493896010487, 0.357727, 7.3627152, 6.5371914, 0.034306407, -0.054224014, 9.852325
273493905649550, 0.37208393, 7.3663044, 6.5407805, 0.04598677, -0.056702614, 9.857858
273493915288716, 0.3924229, 7.405786, 6.5886374, 0.05895102, -0.0695982, 9.919754
273493924927779, 0.41635114, 7.432107, 6.599405, 0.083749175, -0.065485954, 9.947382
273493934566841, 0.4103691, 7.4237323, 6.5982084, 0.07810497, -0.06825876, 9.940111
273493944206008, 0.3397808, 7.4189467, 6.5922265, 0.013113141, -0.048971653, 9.930311
273493953845070, 0.2847459, 7.4129643, 6.530013, -0.01858735, 0.00166893, 9.883009
273493963484133, 0.25244278, 7.393822, 6.4821568, -0.041362643, 0.033141613, 9.836052
273493973123300, 0.2440679, 7.3950186, 6.4331036, -0.032373548, 0.06386995, 9.804365
273493982762362, 0.27996024, 7.409375, 6.385247, 0.016272426, 0.0967412, 9.78463
273493992401425, 0.28594232, 7.428518, 6.3888364, 0.02404952, 0.102101326, 9.801574
273494002040591, 0.30149564, 7.450053, 6.4211397, 0.033138514, 0.087172985, 9.83954
273494011679654, 0.33140594, 7.4333034, 6.4570317, 0.050524116, 0.041626453, 9.851538
273494021318716, 0.3182454, 7.4141607, 6.533602, 0.01632595, -0.02110815, 9.88728
273494030957883, 0.28713873, 7.391429, 6.5958157, -0.032729506, -0.07009506, 9.910322
273494040596945, 0.24646074, 7.3866434, 6.5850477, -0.06856799, -0.052355766, 9.898417
273494050236008, 0.23330021, 7.4105716, 6.570691, -0.07281649, -0.023246288, 9.906519
273494059875175, 0.23688944, 7.4189467, 6.5407805, -0.060382962, 0.0010094643, 9.893182
273494069514237, 0.2620141, 7.440482, 6.5288167, -0.029895544, 0.01555872, 9.902208
273494079153300, 0.27517462, 7.4739814, 6.530013, -0.012188315, 0.0322361, 9.928546
273494088792466, 0.3062813, 7.4644103, 6.552745, 0.01043129, 8.044243E-4, 9.9372835
273494098431529, 0.30987054, 7.4392858, 6.567102, 0.005055666, -0.026936531, 9.927995
273494108070591, 0.29312077, 7.402197, 6.533602, -0.010016203, -0.022147655, 9.877541
273494117709758, 0.2620141, 7.37109, 6.5048885, -0.039083958, -0.013298035, 9.834303
273494127348820, 0.28953153, 7.367501, 6.4402823, -3.516674E-4, 0.020665646, 9.789827
273494136987883, 0.35294133, 7.373483, 6.3768725, 0.07583654, 0.05252838, 9.754426
273494146627050, 0.42711884, 7.804191, 6.4151573, 0.20400906, 0.2749715, 10.105684
273494156266112, 0.3361916, 7.038488, 6.385247, -0.009924889, -0.17019367, 9.507662
273494165905175, 0.41994038, 7.68455, 6.4594245, 0.16143596, 0.16509867, 10.044874
273494175544237, 0.35174492, 7.4416785, 6.4438715, 0.05833614, 0.042487144, 9.849901
273494185183404, 0.2620141, 7.153343, 6.478567, -0.08482373, -0.1397934, 9.653189
273494194822466, 0.35294133, 7.9226356, 6.5108705, 0.1343044, 0.3013935, 10.255501
273494204461529, 0.15672988, 6.728617, 6.458228, -0.2580738, -0.35644722, 9.3174
273494214100695, 0.3589234, 8.183454, 6.613762, 0.16183126, 0.38664103, 10.519693
273494223739758, 0.12083755, 6.6460648, 6.5072813, -0.32103586, -0.42666674, 9.286785
273494233378820, 0.3493521, 8.1020975, 6.678368, 0.120513916, 0.2954564, 10.500706
273494243017987, 0.15672988, 6.884151, 6.5754766, -0.26829362, -0.33232355, 9.511603
273494252657050, 0.32542387, 7.7156568, 6.640083, 0.04045105, 0.0876317, 10.184236
273494262296112, 0.28953153, 7.4380894, 6.5515485, -0.021676898, -0.008081913, 9.916212
273494271935279, 0.2739782, 7.2119675, 6.471389, -0.06090772, -0.09326267, 9.692987
273494281574341, 0.38763726, 7.9190464, 6.4642105, 0.18350053, 0.31794024, 10.223152
273494291213404, 0.18903299, 6.7465634, 6.35773, -0.20156932, -0.29145575, 9.265366
273494300852466, 0.43070808, 8.193025, 6.471389, 0.26485848, 0.4729762, 10.435333
273494310491633, 0.2105684, 6.613762, 6.343373, -0.20057845, -0.3684616, 9.156887
273494320130695, 0.4642076, 8.109276, 6.4618177, 0.27706873, 0.40904427, 10.367586
273494329769758, 0.2620141, 6.875776, 6.390033, -0.11107278, -0.2563181, 9.386131
273494339408925, 0.4235296, 7.789834, 6.533602, 0.16564417, 0.17214394, 10.173092
273494349047987, 0.33260235, 7.3698936, 6.492924, 0.013992429, -0.037915707, 9.827634
273494358687050, 0.31226337, 7.2490563, 6.472585, -0.022615314, -0.09509468, 9.722713
273494368326112, 0.39601216, 7.8496547, 6.519245, 0.15511453, 0.22539568, 10.207821
273494377965279, 0.22372891, 6.778867, 6.4797635, -0.19736314, -0.37053776, 9.370922
273494387604341, 0.40438703, 8.182257, 6.5922265, 0.20096493, 0.38238907, 10.506365
273494397243404, 0.1794617, 6.6125655, 6.4594245, -0.25688708, -0.45055246, 9.23111
273494406882570, 0.43788654, 8.170293, 6.5898337, 0.23525178, 0.36558294, 10.496777
273494416521633, 0.22492532, 6.838687, 6.478567, -0.18058121, -0.33133745, 9.41529
273494426160695, 0.35533416, 7.820941, 6.5551376, 0.110999584, 0.1987772, 10.208397
273494435799758, 0.26081768, 7.3232336, 6.4797635, -0.052212834, -0.033113003, 9.781682
273494445438925, 0.27517462, 7.300502, 6.4737816, -0.04170692, -0.050961494, 9.761074
273494455077987, 0.3481557, 7.820941, 6.5204415, 0.11047673, 0.2246952, 10.185372
273494464717050, 0.2213361, 6.799206, 6.471389, -0.18651819, -0.35105896, 9.380781
273494474356216, 0.43070808, 8.172686, 6.6676, 0.21480179, 0.31369114, 10.549439
273494483995279, 0.17228323, 6.611369, 6.5491557, -0.2847047, -0.51086473, 9.289203
273494493634341, 0.40677986, 8.132008, 6.6053867, 0.19095552, 0.3453188, 10.4771385
273494503273404, 0.14596218, 6.798009, 6.4414787, -0.23651898, -0.30809212, 9.358205
273494512912570, 0.30029923, 7.874779, 6.4869423, 0.071296096, 0.29864073, 10.202375
273494522551633, 0.21535404, 7.263413, 6.38764, -0.08457768, 0.0069913864, 9.674622
273494532190695, 0.27038896, 7.3663044, 6.38764, -0.017270803, 0.049605846, 9.753704
273494541829862, 0.357727, 7.8017983, 6.3960147, 0.13863397, 0.2933774, 10.089585
273494551468925, 0.26679972, 6.88774, 6.384051, -0.104254484, -0.2541976, 9.3911
273494561107987, 0.47976094, 8.163115, 6.5276203, 0.28917873, 0.3857298, 10.451988
273494570747050, 0.22253251, 6.6364937, 6.4558353, -0.21461928, -0.45778942, 9.247418
273494580386216, 0.47018966, 8.1942215, 6.6089764, 0.26621163, 0.33951855, 10.52895
273494590025279, 0.22851457, 6.7441707, 6.478567, -0.20183444, -0.40175867, 9.343753
273494599664341, 0.39720857, 7.8867435, 6.602994, 0.14426541, 0.1839118, 10.290937
273494609303404, 0.23928227, 7.1629148, 6.535995, -0.12818778, -0.17689037, 9.697223
273494618942570, 0.29312077, 7.409375, 6.5539412, -0.03345287, -0.04846573, 9.896234
273494628581633, 0.41635114, 7.7551384, 6.4869423, 0.16586804, 0.17719078, 10.116176
273494638220695, 0.17108682, 6.8817577, 6.468996, -0.2306484, -0.28663254, 9.439302
273494647859758, 0.39720857, 8.145168, 6.62094, 0.17989945, 0.33164358, 10.497431
273494657498925, 0.18544376, 6.6759753, 6.4259253, -0.23921847, -0.388875, 9.256733
273494667137987, 0.39361933, 8.230113, 6.5898337, 0.19681513, 0.40700483, 10.540932
273494676777050, 0.14955142, 6.7298136, 6.4163537, -0.2624339, -0.33623505, 9.289803
273494686416112, 0.3385844, 7.9334035, 6.465407, 0.12589931, 0.328588, 10.233828
273494696055279, 0.19142582, 7.152147, 6.398408, -0.1399126, -0.071982384, 9.597122
273494705694341, 0.29312077, 7.459625, 6.3948183, 0.012087345, 0.08742666, 9.829435
273494715333404, 0.38763726, 7.672586, 6.367301, 0.14830351, 0.20863438, 9.974761
273494724972466, 0.32662028, 6.9655066, 6.3589263, -0.039316297, -0.21579456, 9.434659
273494734611633, 0.51565325, 8.106883, 6.5084777, 0.31162286, 0.34329224, 10.398691
273494744250695, 0.30269206, 6.6735826, 6.465407, -0.14565372, -0.4632826, 9.284071
273494753889758, 0.49052864, 8.212168, 6.5886374, 0.29299164, 0.36056566, 10.5297
273494763528820, 0.2105684, 6.6831536, 6.4737816, -0.231058, -0.43830156, 9.293719
273494773167883, 0.36251262, 7.9800634, 6.5982084, 0.11607993, 0.24621058, 10.357368
273494782807050, 0.23090738, 7.0839515, 6.5072813, -0.13904667, -0.20981693, 9.618577
273494792446112, 0.3397808, 7.520642, 6.5371914, 0.03453493, 0.007490158, 9.970412
273494802085175, 0.33499518, 7.635497, 6.501299, 0.06429219, 0.1093483, 10.033137
273494811724237, 0.23688944, 7.012167, 6.445068, -0.12771451, -0.21585321, 9.523791
273494821363404, 0.37208393, 8.051848, 6.519245, 0.16913474, 0.34466076, 10.359723
273494831002466, 0.14955142, 6.664011, 6.4199433, -0.25852728, -0.40413523, 9.242129
273494840641529, 0.4103691, 8.199007, 6.4977098, 0.23530626, 0.44639826, 10.457424
273494850280591, 0.1591227, 6.686743, 6.3457656, -0.22409427, -0.3335991, 9.21114
273494859919654, 0.36490545, 8.039884, 6.4474607, 0.17617106, 0.3932371, 10.303249
273494869558820, 0.25842485, 7.051648, 6.40439, -0.081750154, -0.18026447, 9.527306
273494879197883, 0.30508488, 7.598408, 6.533602, 0.02787292, 0.064400196, 10.025564
273494888836945, 0.30149564, 7.600801, 6.512067, 0.029763103, 0.08219528, 10.013114
273494898476008, 0.21535404, 7.068398, 6.4666033, -0.1315279, -0.19983768, 9.57958
273494908115175, 0.32422748, 8.04467, 6.570691, 0.11484194, 0.31368637, 10.386733
273494917754237, 0.1471586, 6.7202425, 6.5252275, -0.28694844, -0.42784977, 9.353958
273494927393300, 0.33379877, 8.190632, 6.6257257, 0.14945185, 0.35644007, 10.53322
273494937032362, 0.09332009, 6.6364937, 6.4881387, -0.33784628, -0.43786287, 9.265088
273494946671425, 0.3361916, 8.054241, 6.606583, 0.14364004, 0.2867794, 10.417674
273494956310591, 0.25603202, 7.0025954, 6.474978, -0.106987596, -0.2525344, 9.536877
273494965949654, 0.3900301, 7.643872, 6.533602, 0.123532295, 0.059271812, 10.062309
273494975588716, 0.37806597, 7.5589266, 6.4474607, 0.11568248, 0.07212305, 9.941402
273494985227779, 0.3074777, 7.153343, 6.3972116, -0.017634511, -0.12741566, 9.600658
273494994866841, 0.40917268, 7.993224, 6.448657, 0.223279, 0.33367443, 10.2704935
273495004506008, 0.18903299, 6.686743, 6.364908, -0.20079947, -0.37080336, 9.224018
273495014145070, 0.42592242, 8.188239, 6.4606214, 0.2616719, 0.4420414, 10.426142
273495023784133, 0.2105684, 6.6329045, 6.3218374, -0.18113482, -0.38096094, 9.155734
273495033423195, 0.44865423, 8.10449, 6.4845495, 0.26637053, 0.36049604, 10.379427
273495043062258, 0.2632105, 6.942775, 6.437889, -0.10883701, -0.27946138, 9.467199
273495052701425, 0.37328035, 7.7156568, 6.579066, 0.10387695, 0.07897806, 10.145828
273495062340487, 0.2644069, 7.495517, 6.518049, -0.025385737, 0.017800331, 9.936634
273495071979550, 0.18783657, 7.1509504, 6.4965134, -0.15687871, -0.1599927, 9.66053
273495081618612, 0.2739782, 7.9597244, 6.5479593, 0.06812179, 0.2862301, 10.30638
273495091257675, 0.08973085, 6.73101, 6.465407, -0.3100412, -0.37446642, 9.320927
273495100896841, 0.357727, 8.2014, 6.570691, 0.19051385, 0.3967409, 10.50577
273495110535904, 0.13758731, 6.6352973, 6.4163537, -0.2640034, -0.41581106, 9.218086
273495120174966, 0.4019942, 8.135597, 6.5276203, 0.23698854, 0.3696556, 10.429121
273495129814029, 0.2213361, 6.9320073, 6.4402823, -0.1356889, -0.2706604, 9.459772
273495139453091, 0.3361916, 7.7754774, 6.5431733, 0.10058379, 0.15151072, 10.166176
273495149092258, 0.29072794, 7.416554, 6.472585, 0.0076243877, -0.009922504, 9.848045
273495158731320, 0.27038896, 7.2215385, 6.458228, -0.046879888, -0.11868858, 9.691034
273495168370383, 0.38524446, 7.9022965, 6.485746, 0.18710423, 0.25313854, 10.225485
273495178009445, 0.20338993, 6.7704916, 6.4558353, -0.19476604, -0.37793207, 9.34762
273495187648508, 0.39840496, 8.200203, 6.526424, 0.23798013, 0.40566492, 10.477359
273495197287675, 0.16749759, 6.6161547, 6.3828545, -0.22206521, -0.41962767, 9.182428
273495206926737, 0.38763726, 8.129615, 6.495317, 0.21412194, 0.3900633, 10.403463
273495216565800, 0.19501504, 6.859026, 6.385247, -0.1577053, -0.27379084, 9.367807
273495226204862, 0.35533416, 7.792227, 6.485746, 0.13161719, 0.19055414, 10.14181
273495235843925, 0.27517462, 7.4010005, 6.448657, -0.0020228624, -0.0013866425, 9.820168
273495245483091, 0.2847459, 7.298109, 6.4534426, -0.013335943, -0.07521868, 9.746002
273495255122154, 0.36251262, 7.8496547, 6.4331036, 0.16356969, 0.26453018, 10.150693
273495264761216, 0.2644069, 6.8243303, 6.4127645, -0.10610056, -0.3379898, 9.361593
273495274400279, 0.44745782, 8.170293, 6.5886374, 0.25871456, 0.33113337, 10.497021
273495284039341, 0.19860429, 6.661618, 6.4534426, -0.2249099, -0.4430709, 9.263726
273495293678404, 0.37686956, 8.17149, 6.5539412, 0.2031064, 0.37934875, 10.473024
273495303317570, 0.15672988, 6.8446693, 6.452246, -0.21795452, -0.30913305, 9.400131
273495312956633, 0.32422748, 7.85444, 6.5371914, 0.11033964, 0.21506119, 10.221243
273495322595695, 0.20219351, 7.3052874, 6.468996, -0.09053242, -0.043291092, 9.759405
273495332234758, 0.2213361, 7.3028946, 6.4438715, -0.06672108, -0.03723383, 9.741606
273495341873820, 0.27876383, 7.786245, 6.465407, 0.08167708, 0.2331047, 10.121453
273495351512883, 0.19262223, 6.8374906, 6.4402823, -0.18564653, -0.31068707, 9.388004
273495361152050, 0.41874397, 8.145168, 6.611369, 0.2435317, 0.30988693, 10.491615
273495370791112, 0.18903299, 6.6257257, 6.5479593, -0.26456618, -0.51581526, 9.299232
273495380430175, 0.40438703, 8.199007, 6.6568327, 0.23233533, 0.33064556, 10.561125
273495390069237, 0.14237295, 6.8051877, 6.5204415, -0.25571156, -0.36925268, 9.415163
273495399708300, 0.276371, 7.8927255, 6.5754766, 0.068146944, 0.23160839, 10.273758
273495409347466, 0.11844472, 7.253842, 6.454639, -0.16665912, -0.027281761, 9.709072
273495418986529, 0.14955142, 7.411768, 6.4462643, -0.10039592, 0.05872345, 9.823313
273495428625591, 0.22731815, 7.7742805, 6.4235325, 0.052030087, 0.27677107, 10.08333
273495438264654, 0.1363909, 6.906883, 6.4175506, -0.20595598, -0.23764181, 9.423889
273495447903716, 0.36011982, 8.151151, 6.5754766, 0.206761, 0.3655796, 10.470503
273495457542779, 0.19142582, 6.6185474, 6.5288167, -0.2313056, -0.5143957, 9.281656
273495467181945, 0.4642076, 8.181061, 6.6771717, 0.27607143, 0.29054356, 10.5626335
273495476821008, 0.25124636, 6.7226353, 6.5084777, -0.13654006, -0.4551463, 9.348338
273495486460070, 0.40677986, 7.9334035, 6.600601, 0.19358301, 0.20559883, 10.324368
273495496099133, 0.23688944, 7.1688967, 6.502496, -0.07104385, -0.1652317, 9.67984
273495505738195, 0.2548356, 7.4273214, 6.474978, -0.00511086, 0.0076322556, 9.856739
273495515377362, 0.2727818, 7.7156568, 6.4151573, 0.07062662, 0.23011923, 10.035042
273495525016425, 0.15672988, 6.943971, 6.3661046, -0.15254533, -0.1977539, 9.418505
273495534655487, 0.34097722, 8.158329, 6.498906, 0.18948185, 0.4251485, 10.425629
273495544294550, 0.15433706, 6.6795645, 6.4331036, -0.21384168, -0.4146242, 9.263237
273495553933612, 0.3912265, 8.244471, 6.5371914, 0.2570231, 0.4359975, 10.5168
273495563572675, 0.15672988, 6.7501526, 6.398408, -0.19257057, -0.3444209, 9.29371
273495573211841, 0.33140594, 7.989635, 6.519245, 0.15151918, 0.3068123, 10.311526
273495582850904, 0.18424734, 7.117451, 6.4271216, -0.11311436, -0.14031887, 9.589968
273495592489966, 0.27517462, 7.4656067, 6.4331036, 0.031408668, 0.04788971, 9.858627
273495602129029, 0.2739782, 7.6426754, 6.4271216, 0.06426513, 0.16398573, 9.988113
273495611768091, 0.17587246, 6.969096, 6.437889, -0.15629804, -0.23816729, 9.484961
273495621407154, 0.35653058, 8.1020975, 6.570691, 0.19674051, 0.32675028, 10.430706
273495631046320, 0.15672988, 6.695118, 6.519245, -0.2526604, -0.46249723, 9.331236
273495640685383, 0.4103691, 8.258827, 6.6388865, 0.26750815, 0.3572364, 10.594915
273495650324445, 0.16749759, 6.715457, 6.501299, -0.24206305, -0.43503952, 9.335121
273495659963508, 0.35174492, 8.000402, 6.573084, 0.17488277, 0.26388502, 10.355452
273495669602570, 0.18544376, 7.064809, 6.485746, -0.1437223, -0.21368122, 9.588769
273495679241737, 0.29312077, 7.5493555, 6.5072813, 0.046613812, 0.04537821, 9.970917
273495688880800, 0.30867413, 7.609176, 6.4606214, 0.08014357, 0.112026215, 9.985765
273495698519862, 0.2416751, 7.015756, 6.4211397, -0.081155896, -0.21733904, 9.510861
273495708158925, 0.41874397, 8.069795, 6.512067, 0.25596118, 0.33345318, 10.369535
273495717797987, 0.20219351, 6.7011, 6.428318, -0.17467117, -0.40698338, 9.277541
273495727437050, 0.41754755, 8.219346, 6.5276203, 0.27760506, 0.41803503, 10.492378
273495737076216, 0.14117654, 6.6628146, 6.385247, -0.23209941, -0.38044834, 9.218775
273495746715279, 0.35533416, 8.051848, 6.4666033, 0.20091641, 0.36609173, 10.3247795
273495756354341, 0.18544376, 7.038488, 6.378069, -0.1189028, -0.1516881, 9.498281
273495765993404, 0.30029923, 7.6331043, 6.465407, 0.077911615, 0.12356424, 10.006729
273495775632466, 0.30388847, 7.564909, 6.439086, 0.07748866, 0.09665537, 9.938142
273495785271633, 0.21774685, 7.1018977, 6.4594245, -0.09540641, -0.1838665, 9.600293
273495794910695, 0.317049, 8.037491, 6.5850477, 0.14201581, 0.29159164, 10.390354
273495804549758, 0.09451649, 6.6939216, 6.5347986, -0.29965627, -0.4597082, 9.339165
273495814188820, 0.30388847, 8.210971, 6.6364937, 0.14446747, 0.36562824, 10.554662
273495823827883, 0.0634098, 6.649654, 6.4773707, -0.31751013, -0.43014956, 9.267815
273495833466945, 0.32063824, 8.085348, 6.570691, 0.15303504, 0.33278322, 10.417078
273495843106112, 0.19740787, 6.969096, 6.4761744, -0.13638496, -0.267848, 9.510928
273495852745175, 0.33499518, 7.672586, 6.546763, 0.10591245, 0.08410311, 10.090719
273495862384237, 0.28953153, 7.5086775, 6.5084777, 0.04477477, 0.026522636, 9.940906
273495872023300, 0.21296121, 7.097112, 6.4845495, -0.09987819, -0.19382429, 9.613335
273495881662362, 0.32183465, 7.9501534, 6.535995, 0.14994025, 0.27322483, 10.292258
273495891301529, 0.13040884, 6.7226353, 6.4199433, -0.24044895, -0.35745192, 9.286598
273495900940591, 0.38763726, 8.19781, 6.4965134, 0.27259362, 0.43035078, 10.454641
273495910579654, 0.1698904, 6.650851, 6.326623, -0.19235837, -0.3434205, 9.172453
273495920218716, 0.41874397, 8.115258, 6.4343, 0.29721797, 0.41191387, 10.352535
273495929857779, 0.25244278, 6.9619174, 6.35773, -0.059009433, -0.19939947, 9.429184
273495939496945, 0.3397808, 7.719246, 6.492924, 0.12600505, 0.15144444, 10.090662
273495949136008, 0.2739782, 7.411768, 6.4821568, 0.013680458, -0.01053381, 9.850249
273495958775070, 0.21535404, 7.179664, 6.5048885, -0.09143257, -0.15276098, 9.688955
273495968414133, 0.28235307, 7.9429746, 6.6041903, 0.08565891, 0.23929262, 10.330601
273495978053195, 0.07298109, 6.769295, 6.6161547, -0.3354118, -0.4405508, 9.449635
273495987692362, 0.26799613, 8.209774, 6.7369924, 0.09597182, 0.3181877, 10.618324
273495997331425, 0.076570325, 6.626922, 6.546763, -0.3356743, -0.48085976, 9.297213
273496006970487, 0.29671, 8.155936, 6.6364937, 0.1461668, 0.3580699, 10.511936
273496016609550, 0.16151553, 6.873383, 6.4534426, -0.18610358, -0.283875, 9.423439
273496026248612, 0.317049, 7.7814593, 6.503692, 0.12636149, 0.2008977, 10.143635
273496035887779, 0.23928227, 7.4249287, 6.4618177, -0.009099841, 0.03381443, 9.845846
273496045526841, 0.26919255, 7.2729845, 6.4366927, -0.002610445, -0.05368948, 9.715807
273496055165904, 0.3278167, 7.8927255, 6.515656, 0.15269256, 0.2620597, 10.235447
273496064804966, 0.18903299, 6.7740808, 6.4642105, -0.18268585, -0.359365, 9.356678
273496074444029, 0.4139583, 8.153543, 6.5898337, 0.26536536, 0.34220123, 10.482843
273496084083091, 0.12921242, 6.5898337, 6.4534426, -0.27696753, -0.4487815, 9.209312
273496093722258, 0.3589234, 8.106883, 6.4881387, 0.22329187, 0.409369, 10.379252
273496103361320, 0.124426775, 6.789634, 6.4175506, -0.22825623, -0.28864908, 9.336174
273496113000383, 0.2943172, 7.830512, 6.5276203, 0.10675776, 0.23674965, 10.195388
273496122639445, 0.22492532, 7.3495545, 6.4761744, -0.042717814, -0.006319046, 9.798241
273496132278612, 0.2656033, 7.314859, 6.519245, -0.024660468, -0.073446274, 9.801646
273496141917675, 0.36251262, 7.84128, 6.579066, 0.15064585, 0.19268751, 10.239208
273496151556737, 0.21415763, 6.8051877, 6.559923, -0.17630291, -0.40446234, 9.444277
273496161195800, 0.4211368, 8.128419, 6.6855464, 0.22732115, 0.28198385, 10.526819
273496170834862, 0.16031912, 6.5635123, 6.559923, -0.2615446, -0.5402708, 9.261625
273496180474029, 0.42711884, 8.124829, 6.6305118, 0.24755502, 0.3309226, 10.487525
273496190113091, 0.18424734, 6.780063, 6.485746, -0.18940556, -0.35616493, 9.375788
273496199752154, 0.39481574, 7.8424764, 6.5491557, 0.18382287, 0.21998549, 10.221037
273496209391216, 0.28713873, 7.2323065, 6.483353, -0.012547016, -0.08938885, 9.716709
273496219030383, 0.29072794, 7.3268228, 6.4606214, 0.010900021, -0.016447067, 9.772722
273496228669445, 0.37567315, 7.7647095, 6.468996, 0.17419946, 0.22676706, 10.1093025
273496238308508, 0.2548356, 6.8195443, 6.4402823, -0.12087512, -0.30848217, 9.377559
273496247947570, 0.47736812, 8.139186, 6.611369, 0.312235, 0.32673883, 10.487143
273496257586633, 0.25722843, 6.6017976, 6.4905314, -0.18697011, -0.47380066, 9.247564
273496267225800, 0.465404, 8.16431, 6.640083, 0.29124177, 0.33894062, 10.524427
273496276864862, 0.1591227, 6.7298136, 6.530013, -0.2579081, -0.3840785, 9.367109
273496286503925, 0.26919255, 7.874779, 6.623333, 0.04581046, 0.23105955, 10.290659
273496296142987, 0.14955142, 7.190432, 6.5048885, -0.16274571, -0.07371569, 9.695687
273496305782154, 0.18424734, 7.399804, 6.4677997, -0.08102441, 0.070077896, 9.829142
273496315421216, 0.24765715, 7.725228, 6.445068, 0.04750812, 0.27315474, 10.059946
273496325060279, 0.16510476, 6.9128647, 6.364908, -0.15668976, -0.16149902, 9.395552
273496334699341, 0.35653058, 8.130812, 6.512067, 0.20878172, 0.4475174, 10.4115505
273496344338404, 0.16031912, 6.641279, 6.485746, -0.24042273, -0.4153781, 9.2718315
273496353977570, 0.40677986, 8.183454, 6.613762, 0.25189686, 0.4028039, 10.519056
273496363616633, 0.16031912, 6.698707, 6.5168524, -0.23536468, -0.40119314, 9.335491
273496373255695, 0.37208393, 7.928618, 6.6161547, 0.16690195, 0.24620199, 10.328915
273496382894758, 0.25962126, 7.1007013, 6.5682983, -0.07328415, -0.2083478, 9.673735
273496392533925, 0.30508488, 7.4356966, 6.5850477, 0.027417064, -0.020220757, 9.937019
273496402172987, 0.33379877, 7.6390862, 6.582655, 0.09286034, 0.10962343, 10.088497
273496411812050, 0.20338993, 6.8781686, 6.573084, -0.1626519, -0.32901573, 9.509012
273496421451112, 0.36251262, 8.036295, 6.6975107, 0.16749442, 0.28564978, 10.462336
273496431090279, 0.14237295, 6.586244, 6.602994, -0.28685272, -0.5080824, 9.309027
273496440729341, 0.39481574, 8.185846, 6.6795645, 0.23885477, 0.38813925, 10.562805
273496450368404, 0.15672988, 6.6963143, 6.502496, -0.23109722, -0.3641305, 9.325323
273496460007466, 0.33020952, 7.96451, 6.5491557, 0.1716801, 0.3501072, 10.309309
273496469646633, 0.1698904, 7.0731835, 6.454639, -0.12597024, -0.08962631, 9.575868
273496479285695, 0.23928227, 7.4883385, 6.4797635, 0.011552691, 0.129673, 9.90469
273496488924758, 0.28115666, 7.588837, 6.4558353, 0.08039224, 0.20116138, 9.964958
273496498563820, 0.17587246, 6.9116683, 6.439086, -0.13651133, -0.18867016, 9.445087
273496508202987, 0.36131623, 7.999206, 6.5778694, 0.19458997, 0.36829662, 10.354358
273496517842050, 0.17467605, 6.6185474, 6.5443697, -0.21369076, -0.44194603, 9.296425
273496527481112, 0.41994038, 8.149954, 6.650851, 0.26061475, 0.39347982, 10.51709
273496537120175, 0.1591227, 6.634101, 6.576673, -0.2267226, -0.44228172, 9.329642
273496546759341, 0.3684947, 7.969296, 6.704689, 0.17120612, 0.26346254, 10.416313
273496556398404, 0.18783657, 6.960721, 6.658029, -0.1659435, -0.285398, 9.628462
273496566037466, 0.27876383, 7.4715886, 6.7226353, 0.0013204813, -0.020316124, 10.054639
273496575676529, 0.276371, 7.4787674, 6.704689, 0.004388809, -0.00237751, 10.047943
273496585315695, 0.23090738, 6.943971, 6.649654, -0.12622511, -0.2840519, 9.612144
273496594954758, 0.36251262, 7.9154572, 6.7429743, 0.16017485, 0.23186445, 10.400681
273496604593820, 0.13519448, 6.573084, 6.6424756, -0.27052557, -0.490983, 9.329092
273496614232883, 0.3792624, 8.126026, 6.7369924, 0.21455908, 0.38449097, 10.553167
273496623872050, 0.09332009, 6.5694947, 6.580262, -0.30077076, -0.43202066, 9.28384
273496633511112, 0.32422748, 7.969296, 6.63769, 0.15115237, 0.3637967, 10.369114
273496643150175, 0.17347965, 6.9188466, 6.5371914, -0.15196657, -0.19910908, 9.516968
273496652789341, 0.30388847, 7.578069, 6.5958157, 0.07724702, 0.14966726, 10.049671
273496662428404, 0.2955136, 7.460821, 6.579066, 0.049013615, 0.08658838, 9.951149
273496672067466, 0.23569304, 7.0301127, 6.558727, -0.07496607, -0.16167974, 9.615778
273496681706529, 0.37447673, 7.899904, 6.6711893, 0.18443704, 0.27720022, 10.341308
273496691345695, 0.1902294, 6.6281185, 6.6388865, -0.2071501, -0.46319914, 9.369392
273496700984758, 0.38165522, 8.133204, 6.7585278, 0.20184374, 0.36663198, 10.57342
273496710623820, 0.12203395, 6.550352, 6.6352973, -0.28810573, -0.49618483, 9.306986
273496720262987, 0.33499518, 8.001599, 6.7094746, 0.14795399, 0.3282342, 10.441515
273496729902050, 0.17587246, 6.8650084, 6.6089764, -0.17685378, -0.2875185, 9.52491
273496739541112, 0.29671, 7.6223364, 6.678368, 0.05879891, 0.11522913, 10.137648
273496749180175, 0.27158538, 7.3746796, 6.6077795, 0.007523775, 0.017949581, 9.905657
273496758819341, 0.2620141, 7.0600233, 6.5455666, -0.048438072, -0.13992977, 9.629909
273496768458404, 0.357727, 7.8783684, 6.5886374, 0.18903673, 0.32229853, 10.269722
273496778097466, 0.18664017, 6.652047, 6.5539412, -0.20266128, -0.3833995, 9.330093
273496787736633, 0.4223332, 8.143971, 6.6771717, 0.27478826, 0.40280867, 10.528508
273496797375695, 0.14955142, 6.570691, 6.539584, -0.24518728, -0.42795324, 9.258471
273496807014758, 0.3804588, 8.067402, 6.6245294, 0.2250526, 0.40537405, 10.43538
273496816653820, 0.14476576, 6.8195443, 6.5515485, -0.205706, -0.26712656, 9.451786
273496826292987, 0.29192436, 7.6426754, 6.6628146, 0.05159092, 0.13249683, 10.142415
273496835932050, 0.23569304, 7.3232336, 6.6245294, -0.0433625, -0.026718616, 9.877605
273496845571112, 0.25722843, 7.1389866, 6.5958157, -0.04814422, -0.13566685, 9.721901
273496855210279, 0.3397808, 7.8400836, 6.631708, 0.14520967, 0.2678795, 10.269814
273496864849341, 0.14955142, 6.6771717, 6.5898337, -0.23429763, -0.40193748, 9.371044
273496874488404, 0.31226337, 8.13799, 6.7166533, 0.15564644, 0.4046316, 10.547506
273496884127570, 0.06580263, 6.5575304, 6.6185474, -0.35074222, -0.4720807, 9.298648
273496893766633, 0.3074777, 8.086544, 6.6819572, 0.15772462, 0.38351202, 10.4863405
273496903405695, 0.1363909, 6.789634, 6.587441, -0.23359704, -0.31421566, 9.452979
273496913044862, 0.35294133, 7.732406, 6.6305118, 0.1485368, 0.17176294, 10.189544
273496922683925, 0.30149564, 7.2897344, 6.5886374, 0.014545798, -0.063277245, 9.830414
273496932322987, 0.30269206, 7.200003, 6.5431733, 0.008716583, -0.08893299, 9.733283
273496941962154, 0.40797627, 7.816155, 6.580262, 0.22275078, 0.24106741, 10.220119
273496951601216, 0.22253251, 6.7525454, 6.526424, -0.16100824, -0.34046745, 9.386093
273496961240279, 0.4031906, 8.140383, 6.6281185, 0.2606864, 0.41647005, 10.493757
273496970879445, 0.1591227, 6.5742803, 6.4941206, -0.2436825, -0.41830683, 9.229611
273496980518508, 0.40438703, 8.115258, 6.5443697, 0.27670336, 0.4556861, 10.4194765
273496990157570, 0.18305093, 6.7633133, 6.4462643, -0.17029488, -0.27674437, 9.339415
273496999796737, 0.35294133, 7.773084, 6.546763, 0.15002966, 0.24751234, 10.16473
273497009435800, 0.25603202, 7.2155566, 6.5371914, -0.042105436, -0.0717268, 9.739494
273497019074862, 0.2644069, 7.259824, 6.533602, -0.025425911, -0.04139805, 9.770391
273497028714029, 0.3278167, 7.759924, 6.5455666, 0.12510526, 0.250803, 10.153313
273497038353091, 0.16869399, 6.79442, 6.5228343, -0.20108902, -0.30551004, 9.413087
273497047992154, 0.40079778, 8.135597, 6.65444, 0.24296367, 0.39020061, 10.508038
273497057631320, 0.18783657, 6.5838513, 6.562316, -0.22723722, -0.4696784, 9.283003
273497067270383, 0.4211368, 8.147561, 6.6628146, 0.2546059, 0.38139963, 10.523445
273497076909445, 0.17228323, 6.7166533, 6.5742803, -0.21969843, -0.38680458, 9.389695
273497086548612, 0.34576288, 7.834101, 6.664011, 0.12811172, 0.21311712, 10.287851
273497096187675, 0.23808585, 7.196414, 6.629315, -0.08746612, -0.14002705, 9.785992
273497105826737, 0.2943172, 7.3136625, 6.643672, -0.015336394, -0.08969355, 9.884653
273497115465904, 0.33379877, 7.7216387, 6.660422, 0.09688079, 0.14511442, 10.201269
273497125104966, 0.25124636, 7.1653075, 6.6352973, -0.08717275, -0.1612482, 9.767206
273497134744029, 0.30029923, 7.4392858, 6.62094, 0.01501894, 0.004421234, 9.963421
273497144383195, 0.276371, 7.3363943, 6.552745, -0.009307146, -0.0035552979, 9.840602
273497154022258, 0.27158538, 7.381858, 6.431907, 0.026043057, 0.10975504, 9.793993
273497163661425, 0.2548356, 7.3770723, 6.418747, 0.011175752, 0.115706444, 9.781256
273497173300487, 0.27876383, 7.379465, 6.437889, 0.029206395, 0.096411705, 9.796453
273497182939550, 0.31944183, 7.4129643, 6.452246, 0.069431305, 0.092980385, 9.832197
273497192578716, 0.34456646, 7.405786, 6.5144596, 0.076111674, 0.036958694, 9.868912
273497202217779, 0.36610186, 7.3950186, 6.5982084, 0.07540536, -0.034492016, 9.917148
273497211856841, 0.32542387, 7.379465, 6.6759753, 0.016096234, -0.08764553, 9.956059
273497221496008, 0.30269206, 7.3543406, 6.7058854, -0.01608932, -0.11299038, 9.956597
273497231135070, 0.27756742, 7.3543406, 6.704689, -0.04011345, -0.105501175, 9.955073
273497240774133, 0.2620141, 7.361519, 6.68435, -0.04957843, -0.079045296, 9.946478
273497250413300, 0.27038896, 7.3627152, 6.6771717, -0.039322138, -0.07340479, 9.942855
273497260052362, 0.25842485, 7.3639116, 6.6556363, -0.04592979, -0.05200672, 9.929083
273497269691529, 0.24047868, 7.3698936, 6.63769, -0.058585286, -0.030273438, 9.921076
273497279330591, 0.22971097, 7.373483, 6.599405, -0.05894351, 0.0010004044, 9.897964
273497288969654, 0.2440679, 7.3782687, 6.5479593, -0.032257438, 0.03728819, 9.867712
273497298608820, 0.23808585, 7.409375, 6.492924, -0.017811537, 0.09602499, 9.854139
273497308247883, 0.22253251, 7.408179, 6.4474607, -0.021134734, 0.12603521, 9.82263
273497317887050, 0.24047868, 7.4069824, 6.4474607, -0.004859686, 0.11976433, 9.822252
273497327526112, 0.29072794, 7.3830543, 6.468996, 0.03288579, 0.06955576, 9.820185
273497337165175, 0.33140594, 7.379465, 6.492924, 0.06543684, 0.037692547, 9.834566
273497346804341, 0.34217364, 7.372287, 6.512067, 0.068344, 0.01640749, 9.842242
273497356443404, 0.3385844, 7.367501, 6.541977, 0.05540812, -0.0062747, 9.858452
273497366082570, 0.34097722, 7.372287, 6.59103, 0.045374036, -0.03771639, 9.894701
273497375721633, 0.3696911, 7.375876, 6.623333, 0.06497991, -0.061523438, 9.919716
273497385360695, 0.38285163, 7.3866434, 6.6568327, 0.0721091, -0.081766605, 9.950408
273497394999862, 0.3361916, 7.372287, 6.68435, 0.01734984, -0.092484474, 9.956672
273497404638925, 0.2739782, 7.3746796, 6.690332, -0.042906046, -0.07480574, 9.960627
273497414278091, 0.2428715, 7.3627152, 6.6759753, -0.06835461, -0.06303406, 9.941256
273497423917154, 0.19142582, 7.361519, 6.6017976, -0.100269556, 0.004703045, 9.889502
273497433556216, 0.2009971, 7.3627152, 6.5958157, -0.087613225, 0.005914688, 9.886711
273497443195383, 0.2644069, 7.3782687, 6.5347986, -0.00875771, 0.038161755, 9.859556
273497452834445, 0.2656033, 7.3986077, 6.509674, 0.0026379824, 0.06698084, 9.858059
273497462473612, 0.27756742, 7.393822, 6.519245, 0.009550452, 0.05067873, 9.861216
273497472112675, 0.29910284, 7.3830543, 6.5407805, 0.022525191, 0.022085667, 9.868116
273497481751737, 0.31106696, 7.4010005, 6.5575304, 0.032915473, 0.01890564, 9.892994
273497491390904, 0.30149564, 7.385447, 6.5718875, 0.017598152, 0.0014271736, 9.890659
273497501029966, 0.30867413, 7.379465, 6.567102, 0.024618387, -0.0011043549, 9.883219
273497510669133, 0.29671, 7.3806615, 6.5754766, 0.0120277405, -0.0029730797, 9.889336
273497520308195, 0.27517462, 7.3459654, 6.559923, -0.010483503, -0.00826931, 9.852478
273497529947362, 0.2955136, 7.348358, 6.5647087, 0.00882256, -0.014660358, 9.858032
273497539586425, 0.30508488, 7.368697, 6.5886374, 0.016084552, -0.021083832, 9.889399
273497549225487, 0.27517462, 7.3543406, 6.6077795, -0.019801736, -0.033210278, 9.890566
273497558864654, 0.27756742, 7.38784, 6.634101, -0.017845035, -0.029580593, 9.933142
273497568503716, 0.276371, 7.3986077, 6.6245294, -0.015116096, -0.015477657, 9.934772
273497578142883, 0.26679972, 7.4105716, 6.6221366, -0.02045679, -0.003232479, 9.941832
273497587781945, 0.25244278, 7.3974113, 6.6101727, -0.032827616, 4.210472E-4, 9.923645
273497597421112, 0.2620141, 7.3974113, 6.5946193, -0.020088434, 0.008770943, 9.91357
273497607060175, 0.26799613, 7.389036, 6.5539412, -0.0053691864, 0.02982235, 9.88043
273497616699237, 0.2847459, 7.3567333, 6.5742803, 4.3046474E-4, -0.01123476, 9.870341
273497626338404, 0.29910284, 7.3627152, 6.5443697, 0.021168947, 0.0076699257, 9.85532
273497635977466, 0.33499518, 7.375876, 6.559923, 0.053831697, -0.0055742264, 9.876511
273497645616633, 0.33499518, 7.4010005, 6.5778694, 0.052886844, -0.002322197, 9.907198
273497655255695, 0.30388847, 7.399804, 6.5682983, 0.024445534, 0.0137376785, 9.899052
273497664894862, 0.24885355, 7.3866434, 6.59103, -0.036046505, 0.005795002, 9.902765
273497674533925, 0.2105684, 7.3770723, 6.570691, -0.06873441, 0.024407864, 9.881003
273497684173091, 0.15074782, 7.3112698, 6.5288167, -0.1254971, 0.028738499, 9.802361
273497693812154, 0.26919255, 7.4129643, 6.5072813, 0.0128721, 0.07372284, 9.867302
273497703451216, 0.3505485, 7.411768, 6.559923, 0.07673693, 0.012098312, 9.903725
273497713090383, 0.33499518, 7.4033933, 6.611369, 0.046596527, -0.02400732, 9.931259
273497722729445, 0.29671, 7.396215, 6.678368, -0.007130623, -0.065143585, 9.96937
273497732368612, 0.28235307, 7.367501, 6.721439, -0.036045313, -0.10808563, 9.9762
273497742007675, 0.2835495, 7.353144, 6.669993, -0.02619791, -0.08090973, 9.931299
273497751646841, 0.2739782, 7.373483, 6.579066, -0.007186413, -0.0025763512, 9.8857155
273497761285904, 0.26081768, 7.3866434, 6.5144596, -0.0020809174, 0.05546236, 9.85219
273497770925070, 0.27756742, 7.3926253, 6.4677997, 0.026388764, 0.08508015, 9.826111
273497780564133, 0.276371, 7.4045897, 6.4498534, 0.03197086, 0.10241127, 9.823107
273497790203300, 0.2739782, 7.3986077, 6.4977098, 0.016184807, 0.06488991, 9.850392
273497799842362, 0.23569304, 7.3806615, 6.5276203, -0.03132713, 0.0434556, 9.855795
273497809481529, 0.24047868, 7.3866434, 6.579066, -0.03715968, 0.010477543, 9.894592
273497819120591, 0.26679972, 7.385447, 6.5898337, -0.014410615, -0.005109787, 9.9016
273497828759758, 0.29072794, 7.385447, 6.606583, 0.0045746565, -0.02390337, 9.91341
273497838398820, 0.29072794, 7.3746796, 6.606583, 0.003307104, -0.03030157, 9.905374
273497848037883, 0.28115666, 7.38784, 6.611369, -0.004656315, -0.022456646, 9.91811
273497857677050, 0.27876383, 7.3830543, 6.631708, -0.011489272, -0.039121628, 9.927996
273497867316112, 0.26679972, 7.389036, 6.6149583, -0.016794682, -0.019943714, 9.92099
273497876955279, 0.24765715, 7.38784, 6.599405, -0.031127453, -0.004766941, 9.909222
273497886594341, 0.2656033, 7.396215, 6.582655, -0.0085145235, 0.007370472, 9.904836
273497896233508, 0.25842485, 7.3926253, 6.5682983, -0.012470603, 0.015799046, 9.892414
273497905872570, 0.2739782, 7.4141607, 6.5778694, 0.0039476156, 0.018385887, 9.915285
273497915511737, 0.28713873, 7.399804, 6.586244, 0.011890292, -0.0012073517, 9.9105
273497925150800, 0.27756742, 7.385447, 6.5886374, -6.5636635E-4, -0.010320663, 9.901107
273497934789966, 0.27038896, 7.3567333, 6.5958157, -0.014899969, -0.03139305, 9.884241
273497944429029, 0.27517462, 7.368697, 6.5659056, -3.414154E-4, -0.005057335, 9.873425
273497954068195, 0.28235307, 7.372287, 6.5168524, 0.019077897, 0.028513908, 9.843705
273497963707258, 0.27038896, 7.385447, 6.495317, 0.014801502, 0.054671288, 9.838896
273497973346425, 0.2883351, 7.4045897, 6.4821568, 0.03911364, 0.07038832, 9.844946
273497982985487, 0.29790643, 7.4069824, 6.515656, 0.039935946, 0.04403162, 9.869265
273497992624654, 0.26679972, 7.3902326, 6.559923, -0.0048726797, 0.011398792, 9.8853
273498002263716, 0.2656033, 7.3770723, 6.5814586, -0.013636708, -0.011353493, 9.889743
273498011902883, 0.27756742, 7.375876, 6.59103, -0.0046112537, -0.02266121, 9.895541
273498021541945, 0.27158538, 7.3806615, 6.5946193, -0.009238243, -0.019909859, 9.901336
273498031181112, 0.28953153, 7.405786, 6.562316, 0.021244764, 0.014098167, 9.899133
273498040820175, 0.30867413, 7.396215, 6.5575304, 0.041265726, 0.005241394, 9.889326
273498050459341, 0.2835495, 7.3842506, 6.5276203, 0.021784425, 0.025706768, 9.859831
273498060098404, 0.29072794, 7.3926253, 6.48096, 0.040630102, 0.062146187, 9.835282
273498069737570, 0.29671, 7.4010005, 6.474978, 0.048208714, 0.070533276, 9.8377285
273498079376633, 0.3062813, 7.3866434, 6.502496, 0.046626568, 0.04057455, 9.845554
273498089015800, 0.2847459, 7.373483, 6.570691, 0.00559628, -0.00729084, 9.880446
273498098654862, 0.317049, 7.3698936, 6.6484575, 0.016295314, -0.07038069, 9.9303875
