timestamp_acc,device_acc_x,device_acc_y,device_acc_z,earth_acc_x,earth_acc_y,earth_acc_z
273950432864939, 8.007581, -0.022731815, 5.9497533, 0.010169923, 0.13038683, 9.975185
273950442503897, 7.9657063, 0.023928227, 5.9150577, -0.035506368, 0.13902903, 9.920704
273950452142960, 7.9776707, 0.011964113, 5.9066825, -0.020159364, 0.15084839, 9.925177
273950461782022, 7.946564, -0.046660043, 5.933004, 0.03034532, 0.10743284, 9.916559
273950471421085, 7.932207, -0.058624156, 5.9700923, 0.033937275, 0.07341051, 9.927679
273950481060043, 7.925029, -0.09571291, 6.131608, 0.046501517, -0.06379604, 10.02026
273950490699105, 7.9776707, -0.09571291, 6.1363935, 0.04951656, -0.030225754, 10.065006
273950500338168, 7.920243, -0.10767702, 6.1938214, 0.045461416, -0.103832245, 10.054473
273950509977126, 7.9764743, -0.13998012, 6.161518, 0.0848757, -0.03860426, 10.07965
273950519616189, 7.9597244, -0.11246266, 6.224928, 0.047599614, -0.092727184, 10.104886
273950529255251, 7.982456, -0.10049855, 6.2727847, 0.02762115, -0.108366966, 10.152094
273950538894314, 7.9860454, -0.08733802, 6.192625, 0.024909139, -0.038231373, 10.105993
273950548533272, 7.9776707, -0.06460621, 6.1447687, 0.007308781, -0.0014095306, 10.070031
273950558172335, 7.948957, -0.05503492, 6.1005015, 6.3967705E-4, 0.017390728, 10.020218
273950567811397, 7.962117, -0.04546363, 6.0777693, -0.0058754086, 0.0424757, 10.016728
273950577450355, 7.9106717, -0.029910283, 6.053841, -0.022620857, 0.032424927, 9.961277
273950587089418, 7.91785, -0.022731815, 6.0490556, -0.02824229, 0.041247368, 9.964006
273950596728480, 7.897511, -0.021535404, 6.0622163, -0.03195411, 0.01930952, 9.9559145
273950606367439, 7.938189, -0.0071784677, 6.0825553, -0.045094907, 0.03011322, 10.000473
273950616006501, 7.9393854, 0.019142581, 6.087341, -0.07086587, 0.031351566, 10.004196
273950625645564, 7.972885, 0.0035892338, 6.1040907, -0.050947547, 0.039136887, 10.041052
273950635284626, 7.9908314, -0.010767702, 6.128019, -0.037699997, 0.029615879, 10.069946
273950644923585, 7.9800634, -0.0047856453, 6.1639113, -0.045064628, -0.0032567978, 10.083312
273950654562647, 7.9908314, -0.011964113, 6.1675005, -0.03747505, -6.518364E-4, 10.094067
273950664201710, 7.96451, -0.019142581, 6.134001, -0.024856508, 0.009442329, 10.0528145
273950673840668, 7.958528, -0.022731815, 6.068198, -0.012974083, 0.056498528, 10.0079155
273950683479730, 7.9680996, -0.05623133, 6.070591, 0.020680964, 0.055697918, 10.0171
273950693118793, 7.9633136, -0.034695927, 6.007181, 0.0075948834, 0.10354805, 9.974519
273950702757855, 7.941778, -0.0634098, 6.1878395, 0.011347353, -0.05653906, 10.067864
273950712396814, 7.9537425, -0.06699903, 6.1268225, 0.022390962, -0.003387928, 10.040118
273950722035876, 7.940582, -0.1268196, 6.181857, 0.0731166, -0.06124544, 10.063559
273950731674939, 7.9573317, -0.12083755, 6.229714, 0.058960497, -0.08805847, 10.1060295
273950741314001, 7.9680996, -0.11006984, 6.224928, 0.049773872, -0.07623625, 10.111586
273950750952960, 7.96451, -0.08733802, 6.2237315, 0.025574267, -0.07550621, 10.107895
273950760592022, 7.9740815, -0.07537391, 6.151947, 0.022559404, -0.011766911, 10.071617
273950770231085, 7.995617, -0.03708875, 6.105287, -0.009041965, 0.042382717, 10.060017
273950779870147, 7.9980097, 0.0059820567, 6.111269, -0.05273509, 0.042758465, 10.065346
273950789509105, 7.984849, 0.0047856453, 6.0717874, -0.04863119, 0.06279802, 10.030859
273950799148168, 7.9836526, -0.0071784677, 6.067002, -0.035316885, 0.061523438, 10.027076
273950808787230, 7.966903, -0.051445685, 6.1100726, 0.0036411881, 0.011080265, 10.040272
273950818426189, 7.944171, -0.023928227, 6.13759, -0.028163731, -0.020773888, 10.038885
273950828065251, 7.932207, -0.051445685, 6.105287, 0.0026147962, -0.0049643517, 10.009848
273950837704314, 7.9513497, -0.0634098, 6.1028943, 0.016632259, 0.0084347725, 10.023621
273950847343376, 7.9573317, -0.078963146, 6.113662, 0.031336367, 0.001513958, 10.035002
273950856982335, 7.9920278, -0.09810573, 6.1292152, 0.05036664, 0.010679245, 10.072079
273950866621397, 7.9764743, -0.0849452, 6.145965, 0.032859802, -0.009354591, 10.069908
273950876260460, 7.96451, -0.08733802, 6.15434, 0.033309698, -0.023488998, 10.065549
273950885899522, 7.952546, -0.059820566, 6.1639113, 0.002932012, -0.034353733, 10.061769
273950895538480, 7.926225, -0.029910283, 6.1363935, -0.026440442, -0.024644375, 10.02397
273950905177543, 7.9537425, -0.020338992, 6.088537, -0.028499007, 0.03118658, 10.016533
273950914816605, 7.96451, 0.009571291, 6.0490556, -0.05051607, 0.074276924, 10.000826
273950924455564, 7.952546, 0.008374879, 6.0490556, -0.051080763, 0.06630087, 9.991353
273950934094626, 7.9740815, -0.021535404, 6.0658054, -0.020427108, 0.06183958, 10.018793
273950943733689, 7.969296, -0.06580263, 6.122037, 0.01847601, 0.009475231, 10.049524
273950953372751, 7.9573317, -0.076570325, 6.1734824, 0.021902382, -0.039904594, 10.0714855
273950963011710, 7.9537425, -0.0849452, 6.2081785, 0.024792194, -0.068908215, 10.089864
273950972650772, 7.945368, -0.09332009, 6.206982, 0.033344567, -0.07168102, 10.082558
273950982289835, 7.948957, -0.08015956, 6.2117677, 0.020823836, -0.06641483, 10.088287
273950991928897, 7.958528, -0.059820566, 6.2309103, -2.2572279E-4, -0.07241583, 10.10746
273951001567855, 7.9800634, -0.05742774, 6.2416778, -0.0022711754, -0.06564045, 10.131088
273951011206918, 7.9657063, -0.059820566, 6.2488565, -0.004497826, -0.0792923, 10.124126
273951020845980, 8.000402, -0.0526421, 6.250053, -0.008168936, -0.058197975, 10.152286
273951030485043, 7.9920278, -0.033499517, 6.1734824, -0.020955563, -0.005806446, 10.098764
273951040124001, 7.9704924, -0.025124637, 6.06102, -0.018952012, 0.07023382, 10.012994
273951049763064, 7.972885, 0.02632105, 6.088537, -0.072292864, 0.044159412, 10.031485
273951059402126, 7.960921, 0.062213387, 5.9138613, -0.086633444, 0.1766696, 9.9154005
273951069041189, 7.960921, 0.062213387, 5.8839507, -0.083331406, 0.20015192, 9.897172
273951078680147, 7.960921, 0.034695927, 5.916254, -0.053242147, 0.16406298, 9.917146
273951088319210, 7.9310107, -0.015553347, 5.99761, -0.014949739, 0.075021744, 9.943171
273951097958272, 7.9298143, -0.0634098, 6.0729837, 0.024263442, 0.0053777695, 9.9883175
273951107597335, 7.944171, -0.11365908, 6.068198, 0.07852316, 0.0143013, 9.996969
273951117236293, 7.9357963, -0.15194423, 6.1304116, 0.10798329, -0.04037714, 10.02839
273951126875355, 7.9393854, -0.18185452, 6.1567326, 0.13370371, -0.059396744, 10.04743
273951136514418, 7.9369926, -0.18544376, 6.233303, 0.125646, -0.11912632, 10.092291
273951146153480, 7.946564, -0.12562318, 6.253642, 0.06416941, -0.11714506, 10.112066
273951155792439, 7.945368, -0.076570325, 6.245267, 0.017022729, -0.10422897, 10.105787
273951165431501, 7.9680996, -0.050249275, 6.1878395, -0.0012714863, -0.039862633, 10.088652
273951175070564, 7.972885, -0.033499517, 6.135197, -0.010685265, 0.007722378, 10.060244
273951184709626, 7.958528, 0.0035892338, 6.1244297, -0.04666102, 0.012024879, 10.042137
273951194348585, 7.98126, 0.029910283, 6.094519, -0.06708938, 0.04984474, 10.041791
273951203987647, 7.9800634, 0.016749758, 6.0753765, -0.05151272, 0.060507774, 10.029237
273951213626710, 7.9884386, 0.008374879, 6.084948, -0.043460906, 0.05698204, 10.041748
273951223265772, 7.9860454, 0.0071784677, 6.0693946, -0.041481853, 0.065313816, 10.030381
273951232904730, 7.9633136, -0.015553347, 6.078966, -0.023938537, 0.037287712, 10.018308
273951242543793, 7.969296, -0.011964113, 6.0933228, -0.028942525, 0.029842854, 10.031782
273951252182855, 7.9573317, -0.034695927, 6.1232333, -0.011392951, -0.005335808, 10.040627
273951261821918, 7.966903, -0.051445685, 6.1328044, 0.0045755506, -0.010418892, 10.05412
273951271460876, 7.9597244, -0.046660043, 6.1435723, -0.002192974, -0.022946835, 10.054968
273951281099939, 7.9704924, -0.029910283, 6.1196437, -0.01530081, 0.004700184, 10.048851
273951290739001, 7.9740815, -0.0059820567, 6.1100726, -0.03674525, 0.017529964, 10.045763
273951300377960, 7.960921, -0.02871387, 6.125626, -0.013332427, -0.007831097, 10.044907
273951310017022, 7.9740815, 0.0011964113, 6.087341, -0.03514409, 0.034390926, 10.031914
273951319656085, 7.9369926, -0.038285162, 6.070591, 0.0026946664, 0.019217968, 9.992449
273951329295147, 7.921439, -0.043070808, 6.0801625, 0.008164346, 0.0021719933, 9.985958
273951338934105, 7.9740815, -0.059820566, 6.064609, 0.031945407, 0.045425415, 10.01828
273951348573168, 7.945368, -0.09451649, 6.1005015, 0.0591774, -0.003768444, 10.017506
273951358212230, 7.9537425, -0.09451649, 6.0729837, 0.06290531, 0.022894382, 10.007378
273951367851293, 7.9633136, -0.07058827, 6.1387863, 0.030243933, -0.019340992, 10.054986
273951377490251, 7.9716887, -0.069391854, 6.148358, 0.0283674, -0.020354748, 10.067459
273951387129314, 7.9764743, -0.05503492, 6.1447687, 0.014744282, -0.010788918, 10.069012
273951396768376, 7.975278, -0.050249275, 6.1196437, 0.012643695, 0.009028912, 10.052729
273951406407439, 7.966903, -0.040677983, 6.108876, 0.0035430193, 0.015041351, 10.039489
273951416046397, 7.9776707, -0.03589234, 6.0957155, 5.3602457E-4, 0.031521797, 10.039984
273951425685460, 7.9657063, -0.022731815, 6.0777693, -0.011834025, 0.03995037, 10.019508
273951435324522, 7.954939, -0.020338992, 6.047859, -0.011922181, 0.056085587, 9.992737
273951444963585, 7.9537425, -0.019142581, 6.0526447, -0.014215112, 0.050301075, 9.994706
273951454602543, 7.941778, -0.020338992, 6.047859, -0.012336969, 0.044700146, 9.982321
273951464241605, 7.921439, 0.0023928226, 6.0837517, -0.039152384, 0.0066127777, 9.987976
273951473880668, 7.989635, 0.17347965, 6.151947, -0.21085936, 0.014132023, 10.082963
273951483519730, 7.8293157, -0.19740787, 6.0167527, 0.16379333, -0.014000416, 9.874788
273951493158689, 8.031509, -0.08135597, 6.1854467, 0.04611689, -0.013009071, 10.137515
273951502797751, 7.9369926, 0.19621146, 6.033502, -0.22220743, 0.08773279, 9.968973
273951512436814, 7.972885, -0.4953143, 6.1794643, 0.45405424, -0.09501696, 10.088748
273951522075772, 8.050652, 0.56350976, 6.155536, -0.5862642, 0.11377525, 10.132351
273951531714835, 7.836494, -0.7286145, 6.1387863, 0.68094426, -0.18138218, 9.956387
273951541353897, 8.0614195, 0.6197411, 6.1878395, -0.63985944, 0.11036444, 10.160625
273951550992960, 7.773084, -0.66400826, 6.068198, 0.6166926, -0.16425323, 9.862936
273951560631918, 8.070991, 0.37686956, 6.2416778, -0.40409434, 0.05222082, 10.201738
273951570270980, 7.8400836, -0.31465617, 6.056234, 0.26901513, -0.057659626, 9.907986
273951579910043, 8.047063, -0.023928227, 6.2871413, -0.029606223, -0.067756176, 10.211682
273951589549105, 7.9190464, 0.16630118, 6.108876, -0.20791692, 0.02423668, 10.000674
273951599188064, 7.952546, -0.46301118, 6.2380886, 0.39934117, -0.15855551, 10.108732
273951608827126, 8.023134, 0.51565325, 6.087341, -0.54497963, 0.1612277, 10.068232
273951618466189, 7.856833, -0.70229346, 6.105287, 0.64420253, -0.16521454, 9.952652
273951628105147, 8.087741, 0.6305088, 6.070591, -0.63794184, 0.23606062, 10.109325
273951637744210, 7.8017983, -0.6723832, 5.9473605, 0.6281871, -0.074064255, 9.812805
273951647383272, 8.072187, 0.45583272, 6.101698, -0.47882167, 0.1551137, 10.116589
273951657022335, 7.8173513, -0.2883351, 5.960521, 0.23857647, -0.013385296, 9.831827
273951666661293, 8.050652, 0.09571291, 6.141179, -0.13410473, 0.04925537, 10.1250105
273951676300355, 7.899904, 0.16271193, 5.9449677, -0.19084787, 0.12409544, 9.885635
273951685939418, 7.984849, -0.37806597, 6.151947, 0.32341594, -0.07694149, 10.081502
273951695578376, 8.033902, 0.5132605, 6.0634127, -0.54086816, 0.16927767, 10.0623455
273951705217439, 7.893922, -0.6831509, 6.181857, 0.6130416, -0.19488811, 10.029071
273951714856501, 8.105687, 0.613759, 6.1531434, -0.6456301, 0.15919876, 10.173391
273951724495564, 7.8281193, -0.7082755, 6.0155563, 0.6615321, -0.11570454, 9.875071
273951734134522, 8.1344, 0.46660042, 6.1878395, -0.5022522, 0.12228584, 10.2180395
273951743773585, 7.8352976, -0.37328035, 6.047859, 0.31685436, -0.083106995, 9.899521
273951753412647, 8.076973, 0.078963146, 6.250053, -0.12632388, -0.027493477, 10.212257
273951763051605, 7.9166536, 0.124426775, 6.017949, -0.15969574, 0.06581497, 9.94358
273951772690668, 7.9716887, -0.3505485, 6.204589, 0.29537636, -0.12644291, 10.102692
273951782329730, 8.032705, 0.5276174, 6.151947, -0.5632194, 0.099618435, 10.115436
273951791968793, 7.9369926, -0.6364908, 6.2105713, 0.56504494, -0.20618439, 10.080196
273951801607751, 8.136793, 0.73579293, 6.2237315, -0.7675318, 0.13747978, 10.240879
273951811246814, 7.8831544, -0.6891329, 6.0921264, 0.62890744, -0.15679884, 9.965587
273951820885876, 8.207381, 0.5347959, 6.1651077, -0.5546684, 0.17626429, 10.2624035
273951830524835, 7.88794, -0.3804588, 6.0083776, 0.33663446, -0.04820919, 9.917121
273951840163897, 8.098508, 0.12562318, 6.108876, -0.15686166, 0.059490204, 10.143561
273951849802960, 7.9477606, -0.0526421, 5.782256, 0.05175346, 0.18555403, 9.826854
273951859442022, 7.969296, -0.42951167, 5.861219, 0.40834945, 0.06056595, 9.893312
273951869080980, 7.969296, 0.38524446, 5.8432727, -0.4028845, 0.20916748, 9.879061
273951878720043, 7.8017983, -0.7393822, 5.9641104, 0.6790417, -0.17513561, 9.823114
273951888359105, 8.006385, 0.48933223, 5.9007006, -0.5191543, 0.19515467, 9.9424515
273951897998064, 7.8113694, -0.8171489, 5.9342003, 0.7516881, -0.17030096, 9.813557
273951907637126, 8.097312, 0.44865423, 6.007181, -0.4793327, 0.15190458, 10.079739
273951917276189, 7.8664045, -0.5096712, 5.9760747, 0.43185025, -0.12237072, 9.881907
273951926915147, 8.139186, 0.14955142, 6.1974106, -0.22250521, -0.008183956, 10.228737
273951936554210, 7.9537425, -0.05383851, 6.0215383, -0.015564442, -0.015813828, 9.97614
273951946193272, 8.076973, -0.3361916, 6.175875, 0.25288117, -0.11309004, 10.169328
273951955832335, 8.04108, 0.41635114, 6.081359, -0.47706133, 0.07889223, 10.078762
273951965471293, 7.9716887, -0.6436693, 6.1902323, 0.53075993, -0.24608421, 10.096477
273951975110355, 8.124829, 0.6113662, 6.114858, -0.66573554, 0.13942432, 10.164422
273951984749418, 7.881958, -0.68195444, 5.98086, 0.5952564, -0.14404249, 9.898785
273951994388376, 8.178668, 0.5766702, 6.0526447, -0.62001383, 0.21315336, 10.169946
273952004027439, 7.8699937, -0.4761717, 5.8803616, 0.3956856, -0.025457382, 9.827766
273952013666501, 8.139186, 0.23569304, 6.064609, -0.2979496, 0.109972954, 10.147932
273952023305460, 7.9094753, -0.046660043, 5.855237, -0.021101236, 0.08710384, 9.840617
273952032944522, 8.032705, -0.26679972, 6.0287166, 0.18225288, -0.02094984, 10.045263
273952042583585, 8.018349, 0.35174492, 5.9904313, -0.42739314, 0.11426878, 10.005358
273952052222543, 7.9310107, -0.7082755, 6.076573, 0.58943295, -0.20798206, 9.996832
273952061861605, 8.118847, 0.57906306, 6.1387863, -0.66668653, 0.10665846, 10.172504
273952071500668, 7.8723865, -0.80159557, 6.076573, 0.6854445, -0.2458458, 9.950453
273952081139626, 8.16431, 0.5096712, 6.1842504, -0.5892244, 0.08294821, 10.237511
273952090778689, 7.8604226, -0.5706882, 5.9521465, 0.46626878, -0.10690737, 9.864641
273952100417751, 8.122437, 0.19501504, 6.1232333, -0.28203392, 0.050472736, 10.169754
273952110056814, 7.9657063, -0.10289137, 5.753542, 0.049072385, 0.19967127, 9.824665
273952119695772, 8.073383, -0.2321038, 5.814559, 0.18195343, 0.18717909, 9.948585
273952129334835, 8.026724, 0.37806597, 5.633901, -0.39897546, 0.40538216, 9.797376
273952138973897, 7.9298143, -0.60059845, 5.828916, 0.52927625, 0.0073919296, 9.845749
273952148612855, 8.070991, 0.6113662, 5.905486, -0.65581536, 0.26587915, 9.994431
273952158251918, 7.826923, -0.7860422, 5.918647, 0.6717597, -0.16215372, 9.819948
273952167890980, 8.10808, 0.5168497, 6.1244297, -0.613973, 0.117687225, 10.155093
273952177529939, 7.806584, -0.6687939, 6.0717874, 0.52824366, -0.25447226, 9.895092
273952187169001, 8.1020975, 0.13998012, 6.350551, -0.27835637, -0.1317606, 10.290688
273952196808064, 7.8927255, -0.29910284, 6.1938214, 0.14135957, -0.21652174, 10.034
273952206447022, 8.035098, -0.34576288, 6.38764, 0.17687881, -0.28225517, 10.265152
273952216086085, 8.033902, 0.12921242, 6.224928, -0.26809365, -0.049670696, 10.160496
273952225725147, 7.98126, -0.7298109, 6.29432, 0.56111634, -0.29257154, 10.171095
273952235364105, 8.12124, 0.47018966, 6.209375, -0.5854926, 0.08290291, 10.216764
273952245003168, 7.9022965, -0.8219346, 6.0921264, 0.6694657, -0.19482374, 9.987479
273952254642230, 8.13799, 0.55393845, 6.1328044, -0.6661459, 0.17163372, 10.181936
273952264281189, 7.836494, -0.6041877, 5.9880385, 0.4601736, -0.123048306, 9.869417
273952273920251, 8.097312, 0.33379877, 6.1854467, -0.45343798, 0.05943203, 10.184718
273952283559314, 7.8628154, -0.19860429, 5.9294147, 0.076758265, 0.016462326, 9.849625
273952293198272, 8.021938, -0.148355, 6.0957155, 0.02365172, -0.010653019, 10.076238
273952302837335, 7.972885, 0.2105684, 5.922236, -0.30317014, 0.17178297, 9.927875
273952312476397, 7.958528, -0.6053841, 6.0957155, 0.46237504, -0.14116573, 10.031385
273952322115355, 8.085348, 0.46181476, 6.070591, -0.55655324, 0.17343092, 10.104374
273952331754418, 7.874779, -0.8805587, 6.087341, 0.72085655, -0.23996735, 9.963236
273952341393480, 8.145168, 0.49172506, 6.084948, -0.5972838, 0.19408369, 10.159613
273952351032439, 7.874779, -0.72023964, 5.960521, 0.58208066, -0.10795593, 9.884748
273952360671501, 8.148758, 0.2883351, 6.1471615, -0.39791268, 0.10434723, 10.203125
273952370310564, 7.884351, -0.30867413, 5.948557, 0.1810208, -0.016121387, 9.879807
273952379949522, 8.05783, -0.13399807, 6.151947, -4.4107437E-5, -0.038898945, 10.138617
273952389588585, 7.960921, 0.15792629, 6.000003, -0.272403, 0.08008909, 9.965974
273952399227647, 7.9357963, -0.5694918, 6.148358, 0.42527413, -0.18194246, 10.044377
273952408866605, 8.037491, 0.47377887, 6.10768, -0.59216887, 0.103978634, 10.088013
273952418505668, 7.844869, -0.81954175, 6.122037, 0.6665017, -0.2662983, 9.958807
273952428144730, 8.128419, 0.52163535, 6.1232333, -0.63221455, 0.16051388, 10.169161
273952437783689, 7.853244, -0.74895346, 5.9952173, 0.6174385, -0.14238071, 9.88815
273952447422751, 8.143971, 0.29910284, 6.175875, -0.41262847, 0.073596954, 10.216628
273952457061814, 7.87119, -0.37447673, 5.986842, 0.24658966, -0.06228733, 9.893103
273952466700772, 8.078169, -0.09332009, 6.1292152, -0.03468573, -0.0023856163, 10.140593
273952476339835, 7.9944205, 0.09810573, 5.8875403, -0.19576472, 0.16948843, 9.925546
273952485978897, 7.9884386, -0.52522457, 5.986842, 0.4030211, -0.020057201, 9.988517
273952495617855, 8.073383, 0.47138608, 5.942575, -0.55977106, 0.23276329, 10.017405
273952505256918, 7.8903327, -0.77766734, 5.9270215, 0.6591393, -0.08159113, 9.876769
273952514895980, 8.151151, 0.567099, 5.9413786, -0.64400727, 0.2916131, 10.077848
273952524534939, 7.8460655, -0.7178468, 5.9234324, 0.5859105, -0.09283352, 9.839268
273952534174001, 8.114061, 0.39481574, 6.157929, -0.5070191, 0.075390816, 10.180924
273952543813064, 7.826923, -0.39361933, 6.067002, 0.2454136, -0.15865612, 9.906502
273952553452022, 8.030313, -0.047856454, 6.2847486, -0.09950888, -0.14218426, 10.19589
273952563091085, 7.9334035, 0.03589234, 6.099305, -0.16300434, -0.034233093, 10.005696
273952572730147, 7.993224, -0.52522457, 6.2177496, 0.38602525, -0.18843031, 10.131309
273952582369105, 8.086544, 0.4019942, 6.1471615, -0.51007795, 0.09960127, 10.152403
273952592008168, 7.920243, -0.8458628, 6.113662, 0.70234084, -0.21074772, 10.014235
273952601647126, 8.17149, 0.49651068, 6.1531434, -0.5841657, 0.16842651, 10.223077
273952611286189, 7.85444, -0.8279166, 6.0658054, 0.6838985, -0.19982815, 9.932978
273952620925251, 8.128419, 0.34456646, 6.1471615, -0.44359934, 0.11037207, 10.1866865
273952630564210, 7.8400836, -0.465404, 5.851648, 0.35648912, 0.009756565, 9.787652
273952640203272, 8.042277, -0.016749758, 5.9545393, -0.073221624, 0.13024378, 10.005634
273952649842335, 7.8783684, -0.021535404, 5.8133626, -0.06356299, 0.14209414, 9.789796
273952659481293, 7.9884386, -0.47018966, 6.023931, 0.3607244, -0.03895569, 10.009612
273952669120355, 8.031509, 0.38883367, 6.0155563, -0.48456383, 0.15123129, 10.029236
273952678759418, 7.90469, -0.762114, 6.1447687, 0.6240114, -0.23482275, 10.018911
273952688398376, 8.129615, 0.57427746, 6.1806607, -0.6818192, 0.1250515, 10.204924
273952698037439, 7.8687973, -0.6963114, 6.108876, 0.55214435, -0.20690536, 9.968627
273952707676501, 8.182257, 0.55034924, 6.2237315, -0.64785385, 0.11866617, 10.273912
273952717315460, 7.958528, -0.31106696, 6.056234, 0.1905002, -0.041222572, 10.003746
273952726954522, 8.208578, 0.2739782, 6.209375, -0.37250763, 0.10350704, 10.28896
273952736593585, 8.05783, 0.23569304, 6.084948, -0.33859384, 0.10559082, 10.093809
273952746232543, 8.126026, -0.13160525, 6.2715883, -0.001276195, -0.08093357, 10.265276
273952755871605, 8.112865, 0.6017949, 6.209375, -0.71345043, 0.10443926, 10.208681
273952765510668, 7.941778, -0.58983076, 6.2177496, 0.43438554, -0.22954273, 10.09152
273952775149626, 8.124829, 0.6376872, 6.0825553, -0.7411686, 0.19080114, 10.140575
273952784788689, 7.8352976, -0.79441714, 5.898308, 0.6689216, -0.08217573, 9.816254
273952794427751, 8.039884, 0.3792624, 5.946164, -0.4673528, 0.18768501, 9.994339
273952804066710, 7.739585, -0.6831509, 5.8241305, 0.5650821, -0.07382679, 9.693481
273952813705772, 7.9680996, -0.0849452, 5.979664, -0.028034925, 0.026524544, 9.962567
273952823344835, 7.8257265, -0.30029923, 5.7870417, 0.18838835, 0.06318283, 9.735633
273952832983793, 7.9393854, -0.56829536, 5.9748783, 0.43812913, -0.05815077, 9.942869
273952842622855, 7.9800634, 0.09810573, 6.0574307, -0.23087662, 0.01020813, 10.016493
273952852261918, 7.9094753, -0.95473623, 6.1591253, 0.7786266, -0.29801798, 10.035492
273952861900876, 8.118847, 0.4438686, 6.186643, -0.57960165, 0.06328344, 10.200359
273952871539939, 7.8987074, -0.90448695, 6.1304116, 0.7303749, -0.27090693, 10.009134
273952881179001, 8.2145605, 0.44865423, 6.2285175, -0.5798454, 0.10101032, 10.301859
273952890817960, 7.90469, -0.53599226, 6.0861444, 0.37838483, -0.15914488, 9.982187
273952900457022, 8.160722, 0.22971097, 6.178268, -0.3591516, 0.073088646, 10.231658
273952910096085, 7.9130645, -0.07537391, 5.960521, -0.05440855, 0.03642273, 9.906857
273952919735043, 8.04108, -0.2440679, 6.02752, 0.12339616, 0.018702507, 10.051566
273952929374105, 8.036295, 0.34097722, 5.881558, -0.43210185, 0.22954369, 9.952469
273952939013168, 7.914261, -0.68075806, 5.989235, 0.5515407, -0.12618494, 9.932259
273952948652126, 8.109276, 0.57906306, 6.113662, -0.69231915, 0.1309681, 10.147713
273952958291189, 7.879565, -0.8171489, 5.983253, 0.6894963, -0.17047644, 9.902026
273952967930251, 8.163115, 0.50129634, 6.0119667, -0.58939373, 0.22430134, 10.130833
273952977569210, 7.8927255, -0.6652047, 5.933004, 0.54126906, -0.090856075, 9.881139
273952987208272, 8.136793, 0.11006984, 6.0311093, -0.20061928, 0.112543106, 10.126248
273952996847335, 7.8903327, -0.30269206, 5.877969, 0.19604069, 0.00954771, 9.841797
273953006486293, 8.017152, -0.35294133, 5.9653068, 0.24773657, -0.003906727, 9.996138
273953016125355, 7.9908314, 0.15074782, 5.948557, -0.25062203, 0.07667303, 9.959555
273953025764418, 7.941778, -0.75254273, 5.986842, 0.6346514, -0.13986635, 9.952793
273953035403376, 8.086544, 0.47736812, 6.07418, -0.5855352, 0.08095312, 10.107737
273953045042439, 7.8831544, -0.8422736, 6.105287, 0.7143274, -0.24936008, 9.977758
273953054681501, 8.183454, 0.5694918, 6.2009997, -0.6709939, 0.05969906, 10.261183
273953064320460, 7.8987074, -0.55752766, 6.070591, 0.4274661, -0.16656494, 9.967047
273953073959522, 8.210971, 0.38285163, 6.204589, -0.4812422, 0.052807808, 10.287331
273953083598585, 8.019546, -0.06580263, 6.029913, -0.038078845, 0.014315605, 10.033725
273953093237543, 8.176275, -0.05383851, 6.1184473, -0.04234481, 0.034205914, 10.212092
273953102876605, 8.0817585, 0.34576288, 5.9377894, -0.42471054, 0.17538881, 10.024
273953112515668, 8.020741, -0.51086766, 6.047859, 0.40211314, -0.07952595, 10.049969
273953122154626, 8.1020975, 0.57547385, 5.9904313, -0.658964, 0.17845106, 10.069475
273953131793689, 7.8687973, -0.7728817, 5.9377894, 0.6687179, -0.13894987, 9.864389
273953141432751, 8.126026, 0.5515456, 5.942575, -0.6178452, 0.21831179, 10.060881
273953151071710, 7.813762, -0.7082755, 5.8827543, 0.5944786, -0.12532616, 9.787453
273953160710772, 8.100901, 0.2440679, 6.0921264, -0.3351199, 0.044314384, 10.133307
273953170349835, 7.867601, -0.36131623, 5.9449677, 0.25308335, -0.069070816, 9.864255
273953179988897, 8.097312, -0.23330021, 6.1651077, 0.120698154, -0.07908821, 10.178832
273953189627855, 8.012366, 0.07178468, 6.017949, -0.17128307, 0.039382458, 10.0193815
273953199266918, 8.035098, -0.63170516, 6.181857, 0.5025431, -0.19053221, 10.143391
273953208905980, 8.114061, 0.46899325, 6.155536, -0.5781299, 0.067914486, 10.178885
273953218544939, 7.914261, -0.77647096, 6.13759, 0.631316, -0.25266743, 10.022277
273953228184001, 8.172686, 0.5838487, 6.1651077, -0.68997985, 0.11716652, 10.229976
273953237823064, 7.8520474, -0.65922266, 6.053841, 0.5303785, -0.20351076, 9.920458
273953247462022, 8.140383, 0.37208393, 6.186643, -0.48540583, 0.049981117, 10.219624
273953257101085, 7.8759756, -0.29072794, 5.9473605, 0.17545891, -0.044160843, 9.871872
273953266740147, 8.082955, -0.061016977, 6.076573, -0.041646004, 0.017672539, 10.112398
273953276379105, 7.9513497, 0.12921242, 5.875576, -0.21445262, 0.13049269, 9.884333
273953286018168, 7.999206, -0.5084748, 6.056234, 0.39675373, -0.09375858, 10.037809
273953295657230, 8.076973, 0.47258246, 5.959325, -0.54993075, 0.19143534, 10.031716
273953305296293, 7.9226356, -0.7848458, 6.0155563, 0.6683433, -0.1643424, 9.954765
273953314935251, 8.181061, 0.56470615, 6.0119667, -0.6354292, 0.22623968, 10.145809
273953324574314, 7.885547, -0.7322037, 5.9294147, 0.6135284, -0.113255024, 9.873534
273953334213376, 8.172686, 0.35413775, 6.0729837, -0.43617728, 0.1401496, 10.177891
273953343852335, 7.911868, -0.38404804, 5.866005, 0.28576338, 0.020190716, 9.852569
273953353491397, 8.10449, -0.025124637, 6.050252, -0.068935394, 0.049893856, 10.113441
273953363130460, 7.9537425, 0.05503492, 5.871987, -0.13851571, 0.11727333, 9.884954
273953372769418, 7.9908314, -0.54675996, 6.108876, 0.42330468, -0.14877415, 10.06327
273953382408480, 8.056634, 0.34217364, 6.076573, -0.44809133, 0.07362127, 10.086872
273953392047543, 7.9166536, -0.8709874, 6.1734824, 0.72545123, -0.2994275, 10.046291
273953401686605, 8.148758, 0.50009996, 6.195018, -0.6053858, 0.056158066, 10.230394
273953411325564, 7.88794, -0.79800636, 6.1100726, 0.6475068, -0.247056, 9.985445
273953420964626, 8.208578, 0.36610186, 6.215357, -0.4725824, 0.06877422, 10.291618
273953430603689, 7.905886, -0.43429732, 5.9904313, 0.30558407, -0.07947159, 9.92357
273953440242647, 8.122437, 0.029910283, 6.0957155, -0.13870883, 0.051506042, 10.154346
273953449881710, 7.969296, 0.1160519, 5.9114685, -0.21573585, 0.12118769, 9.920051
273953459520772, 7.9944205, -0.40917268, 6.0227346, 0.28515196, -0.05537033, 10.013348
273953469159835, 8.053044, 0.49292147, 5.9844494, -0.58810055, 0.18059826, 10.026448
273953478798793, 7.885547, -0.7070791, 6.0693946, 0.55132055, -0.21152592, 9.9584465
273953488437855, 8.122437, 0.63529444, 6.0729837, -0.7356123, 0.17180538, 10.1335125
273953498076918, 7.847262, -0.70229346, 5.948557, 0.57185334, -0.14059496, 9.854506
273953507715980, 8.148758, 0.47018966, 6.0777693, -0.5775312, 0.16079426, 10.158897
273953517354939, 7.864012, -0.45822555, 5.9784675, 0.31898844, -0.10935974, 9.883369
273953526994001, 8.13799, 0.043070808, 6.1639113, -0.1672396, 0.006884575, 10.207571
273953536633064, 7.972885, -0.058624156, 5.9473605, -0.048356235, 0.061904907, 9.94662
273953546272022, 8.059027, -0.424726, 6.1603217, 0.29510164, -0.11217785, 10.147818
273953555911085, 8.066205, 0.35174492, 6.046663, -0.45654306, 0.1017952, 10.076245
273953565550147, 7.928618, -0.75493556, 6.178268, 0.6017898, -0.25846815, 10.058577
273953575189210, 8.115258, 0.5347959, 6.155536, -0.6418553, 0.067477226, 10.17927
273953584828168, 7.8520474, -0.80757767, 6.0514483, 0.6690434, -0.1983757, 9.921688
273953594467230, 8.169097, 0.44147578, 6.155536, -0.5506407, 0.0998683, 10.222842
273953604106293, 7.8628154, -0.52522457, 6.007181, 0.39874977, -0.11307192, 9.900209
273953613745355, 8.103293, 0.07298109, 6.134001, -0.17976469, 0.016851425, 10.161795
273953623384314, 7.9346, -0.096909314, 5.8301125, 0.007528901, 0.13105297, 9.845823
273953633023376, 8.02792, -0.43429732, 5.9952173, 0.3299722, -5.0497055E-4, 10.023466
273953642662439, 8.012366, 0.26081768, 5.9964137, -0.35816324, 0.101089, 10.004225
273953652301501, 7.940582, -0.7920243, 6.2033925, 0.63373166, -0.28477907, 10.083625
273953661940460, 8.124829, 0.54317075, 6.2644095, -0.66864794, 0.012406349, 10.252
273953671579522, 7.8664045, -0.85184485, 6.1998034, 0.67638415, -0.33805227, 10.0235615
273953681218585, 8.19781, 0.5180461, 6.2213387, -0.6315643, 0.091321945, 10.284469
273953690857647, 7.8759756, -0.4989035, 6.0981083, 0.34028137, -0.19694662, 9.965554
273953700496605, 8.146365, 0.19501504, 6.229714, -0.32405567, -0.014283657, 10.252094
273953710135668, 7.9334035, -0.033499517, 5.968896, -0.07991916, 0.0043463707, 9.927806
273953719774730, 8.075776, -0.35294133, 6.0119667, 0.24182004, -0.0072550774, 10.071145
273953729413793, 8.115258, 0.3385844, 5.852844, -0.40458637, 0.2658887, 9.999673
273953739052751, 7.995617, -0.67836523, 5.9234324, 0.5785948, -0.058456898, 9.956852
273953748691814, 8.179864, 0.60658056, 5.8636117, -0.6661655, 0.32224178, 10.055469
273953758330876, 7.8891363, -0.7585248, 5.9234324, 0.6535052, -0.14840794, 9.871766
273953767969939, 8.130812, 0.5288138, 5.9449677, -0.60042864, 0.20680952, 10.066236
273953777608897, 7.853244, -0.5623133, 5.831309, 0.47522688, -0.064493656, 9.785898
273953787247960, 8.158329, 0.23330021, 6.0119667, -0.30853635, 0.11790037, 10.131505
273953796887022, 7.9310107, -0.09451649, 5.871987, 0.018115103, 0.03348875, 9.868569
273953806526085, 8.085348, -0.276371, 6.0490556, 0.18661046, -0.046803474, 10.0996685
273953816165147, 8.073383, 0.30867413, 5.9844494, -0.3760631, 0.10660362, 10.046673
273953825804105, 7.9968133, -0.6831509, 6.005985, 0.58442307, -0.14674377, 10.006223
273953835443168, 8.166703, 0.6029913, 6.068198, -0.6608442, 0.17054796, 10.169359
273953845082230, 7.911868, -0.80877405, 5.9700923, 0.71172005, -0.1762352, 9.917469
273953854721293, 8.199007, 0.5168497, 6.0981083, -0.56355613, 0.14603329, 10.21464
273953864360251, 7.881958, -0.613759, 6.007181, 0.5146588, -0.18657207, 9.914056
273953873999314, 8.110473, 0.19381863, 6.1651077, -0.2708838, -0.017992496, 10.185881
273953883638376, 7.921439, -0.17826529, 6.0227346, 0.09606403, -0.08576012, 9.95177
273953893277439, 8.068598, -0.25244278, 6.064609, 0.18569934, -0.04219675, 10.09501
273953902916501, 8.053044, 0.27996024, 5.989235, -0.32922423, 0.10119343, 10.034052
273953912555460, 8.003992, -0.6448657, 6.013163, 0.5720652, -0.10000515, 10.015019
273953922194522, 8.1679, 0.5838487, 6.0430737, -0.6209026, 0.17481756, 10.15668
273953931833585, 7.952546, -0.7501499, 5.966503, 0.6734884, -0.11968422, 9.946707
273953941472647, 8.193025, 0.6412765, 6.068198, -0.6813679, 0.16425896, 10.191599
273953951111710, 7.884351, -0.5766702, 5.9641104, 0.4975682, -0.11776543, 9.889626
273953960750668, 8.10808, 0.30029923, 6.142376, -0.36812398, 0.012020588, 10.169772
273953970389730, 7.8604226, -0.18185452, 5.9342003, 0.1132642, -0.044398308, 9.849834
273953980028793, 7.9860454, -0.17108682, 5.9653068, 0.1155833, 0.009022713, 9.968833
273953989667855, 7.958528, 0.276371, 5.905486, -0.3250671, 0.104314804, 9.908217
273953999306918, 7.9310107, -0.6269195, 5.771488, 0.5885001, 0.05557251, 9.810944
273954008945876, 8.088937, 0.54436713, 5.8169518, -0.5716549, 0.29633904, 9.957388
273954018584939, 7.8783684, -0.80757767, 5.828916, 0.7500569, -0.058994293, 9.804646
273954028224001, 8.166703, 0.53240305, 5.9581285, -0.5648185, 0.22370768, 10.104886
273954037863064, 7.8987074, -0.69152576, 5.918647, 0.61276305, -0.08507395, 9.87499
273954047502126, 8.184649, 0.3062813, 6.148358, -0.36809644, 0.0637002, 10.234503
273954057141085, 7.911868, -0.3481557, 6.1363935, 0.24570262, -0.18122625, 10.014039
273954066780147, 8.076973, -0.17467605, 6.279963, 0.07524574, -0.14833641, 10.231239
273954076419210, 7.952546, 0.11964113, 6.2380886, -0.22104514, -0.14551306, 10.104504
273954086058272, 7.9764743, -0.58504516, 6.352944, 0.45498973, -0.3277731, 10.198622
273954095697335, 8.100901, 0.5383851, 6.256035, -0.62141705, 0.025986195, 10.230619
273954105336397, 7.9022965, -0.75493556, 6.087341, 0.6485574, -0.18218088, 9.980887
273954114975355, 8.161918, 0.6125626, 6.0119667, -0.64842635, 0.27463722, 10.131141
273954124614418, 7.87119, -0.634098, 5.9138613, 0.55515426, -0.06206131, 9.849844
273954134253480, 8.152347, 0.4235296, 6.0634127, -0.47469485, 0.19181395, 10.155932
273954143892543, 7.8903327, -0.27876383, 5.9617176, 0.18863457, -0.02016735, 9.891468
273954153531605, 8.084151, -0.050249275, 6.1160545, -0.034616828, 0.016339302, 10.137094
273954163170668, 7.9908314, 0.16390835, 6.0574307, -0.25096697, 0.052800655, 10.025316
273954172809626, 7.966903, -0.5096712, 6.2237315, 0.3775965, -0.21949434, 10.113129
273954182448689, 8.066205, 0.50009996, 6.195018, -0.6027261, 0.06049347, 10.164894
273954192087751, 7.8963146, -0.73579293, 6.1830535, 0.59518385, -0.26077843, 10.034992
273954201726814, 8.148758, 0.64965135, 6.233303, -0.7511301, 0.10331535, 10.252001
273954211365876, 7.8664045, -0.6448657, 6.186643, 0.5167685, -0.24790192, 10.012104
273954221004939, 8.165507, 0.44865423, 6.2955165, -0.5589862, 0.034503937, 10.305178
273954230643897, 7.8699937, -0.29192436, 6.0921264, 0.17266, -0.10979414, 9.954605
273954240282960, 8.092526, 0.043070808, 6.2081785, -0.15023297, -0.016860008, 10.1985035
273954249922022, 7.9513497, 0.12323037, 5.938986, -0.20321447, 0.12156153, 9.92243
273954259561085, 7.987242, -0.44147578, 6.0358953, 0.34132963, -0.03853035, 10.015236
273954269200147, 8.045866, 0.5096712, 5.8947186, -0.5650662, 0.28275394, 9.967156
273954278839210, 7.884351, -0.6987042, 5.933004, 0.6068914, -0.083381176, 9.873016
273954288478272, 8.103293, 0.6149554, 5.9210396, -0.6647069, 0.31045437, 10.028062
273954298117230, 7.8376904, -0.70588267, 5.8947186, 0.61889654, -0.08850956, 9.812466
273954307756293, 8.139186, 0.41874397, 6.026324, -0.4736799, 0.227252, 10.122364
273954317395355, 7.874779, -0.43669012, 5.956932, 0.34199584, -0.05692053, 9.877636
273954327034418, 8.098508, -0.033499517, 6.198607, -0.056358635, -0.02506113, 10.198328
273954336673480, 7.9633136, -0.013160525, 6.0981083, -0.07737899, -0.016324997, 10.029717
273954346312543, 7.999206, -0.5204389, 6.289534, 0.39527333, -0.23893833, 10.178559
273954355951605, 8.038688, 0.37567315, 6.282356, -0.47809994, -0.019992352, 10.198071
273954365590668, 7.90469, -0.7860422, 6.290731, 0.6397549, -0.34236288, 10.106868
273954375229730, 8.136793, 0.56470615, 6.263213, -0.6513277, 0.09331751, 10.262611
273954384868689, 7.8664045, -0.74895346, 6.1064835, 0.6320784, -0.19908285, 9.9644985
273954394507751, 8.139186, 0.44985065, 6.1878395, -0.517331, 0.12450743, 10.220322
273954404146814, 7.8759756, -0.44985065, 6.1268225, 0.33726698, -0.14643288, 9.981789
273954413785876, 8.036295, 0.009571291, 6.1399827, -0.092925966, 0.019055367, 10.112988
273954423424939, 7.9238324, -0.0035892338, 5.9880385, -0.07480067, 0.07092428, 9.931421
273954433064001, 7.9908314, -0.424726, 6.114858, 0.32883883, -0.060879707, 10.065457
273954442703064, 8.01117, 0.33499518, 6.07418, -0.41968954, 0.11274862, 10.049771
273954452342126, 7.9429746, -0.5288138, 6.111269, 0.4215417, -0.09660816, 10.026519
273954461981189, 7.972885, -0.041874398, 6.0370917, -0.049816966, 0.052516937, 10.000495
273954471620147, 7.9657063, -0.14476576, 6.003592, 0.055790424, 0.057844162, 9.975475
273954481259210, 7.952546, -0.08973085, 6.005985, -0.0015324354, 0.05366516, 9.965943
273954490898272, 7.948957, -0.10289137, 6.058627, 6.2704086E-4, 0.0048093796, 9.995171
273954500537335, 7.969296, -0.10289137, 6.0717874, 5.7399273E-4, 0.006709099, 10.019322
273954510176397, 7.9884386, -0.0634098, 6.113662, -0.04435289, -0.00705719, 10.059525
273954519815460, 7.989635, -0.076570325, 6.1005015, -0.029590428, 0.0020184517, 10.052629
273954529454522, 8.009974, -0.086141616, 6.1232333, -0.020664096, -0.004878998, 10.082689
273954539093585, 8.015956, -0.08853444, 6.1184473, -0.01728177, 0.0020475388, 10.084566
273954548732647, 8.002795, -0.0526421, 6.10768, -0.05133879, 0.006500721, 10.067204
273954558371710, 8.001599, -0.03708875, 6.0658054, -0.05966413, 0.040729046, 10.040705
273954568010772, 7.982456, -0.058624156, 6.0454664, -0.03573203, 0.040699005, 10.01338
273954577649730, 7.9704924, -0.06460621, 6.06102, -0.032775104, 0.020399094, 10.013361
273954587288793, 7.9740815, -0.069391854, 6.068198, -0.02649498, 0.016703129, 10.02062
273954596927855, 7.966903, -0.061016977, 6.0921264, -0.037504017, -0.0038251877, 10.029349
273954606566918, 7.982456, -0.09212367, 6.1005015, -0.0056813955, -0.004371166, 10.047096
273954616205980, 7.978867, -0.11724831, 6.1160545, 0.016596973, -0.022720814, 10.0539255
273954625845043, 7.975278, -0.096909314, 6.1387863, -0.00570333, -0.03708124, 10.064678
273954635484105, 7.98126, -0.101694964, 6.1268225, 0.002497375, -0.02341032, 10.062218
273954645123168, 7.98126, -0.11246266, 6.0837517, 0.01802504, 0.009017944, 10.036173
273954654762230, 7.984849, -0.10049855, 6.076573, 0.00808686, 0.019180298, 10.034552
273954664401293, 7.9884386, -0.09092726, 6.0729837, -3.5601854E-4, 0.025191307, 10.035134
273954674040355, 7.9944205, -0.06819545, 6.0526447, -0.019876003, 0.047373295, 10.027327
273954683679418, 8.008778, -0.07776674, 6.0251274, -0.0062507987, 0.07637501, 10.022119
273954693318480, 7.989635, -0.09571291, 6.0394845, 0.009311676, 0.051225662, 10.015792
273954702957543, 7.984849, -0.09332009, 6.128019, -0.002753079, -0.020554543, 10.06572
273954712596605, 7.984849, -0.106480606, 6.141179, 0.00939852, -0.0299654, 10.073839
273954722235668, 7.9704924, -0.10887343, 6.114858, 0.013680816, -0.018325806, 10.046471
273954731874626, 7.9573317, -0.11246266, 6.10768, 0.01757586, -0.018913746, 10.0316925
273954741513689, 7.966903, -0.111266255, 6.0921264, 0.019748867, 1.8262863E-4, 10.029833
273954751152751, 7.987242, -0.10887343, 6.099305, 0.018664658, 0.007733345, 10.0503235
273954760791814, 7.9908314, -0.096909314, 6.1005015, 0.0070462227, 0.011051655, 10.053791
273954770430876, 7.9944205, -0.08015956, 6.1304116, -0.013338506, -0.0062584877, 10.074666
273954780069939, 7.98126, -0.086141616, 6.1304116, -0.0076035857, -0.011752605, 10.064278
273954789709001, 7.9836526, -0.101694964, 6.1268225, 0.008805096, -0.008711338, 10.0641365
273954799348064, 7.9597244, -0.10767702, 6.105287, 0.01510787, -0.0067009926, 10.032102
273954808987126, 7.978867, -0.086141616, 6.111269, -0.0059358478, 0.0036244392, 10.050736
273954818626189, 7.9716887, -0.08255238, 6.1064835, -0.010054469, 0.0033450127, 10.042095
273954828265251, 7.9716887, -0.078963146, 6.1268225, -0.016476095, -0.011354923, 10.054433
273954837904314, 7.958528, -0.07776674, 6.1471615, -0.021457136, -0.03496456, 10.056348
273954847543376, 7.9908314, -0.07537391, 6.1435723, -0.020096362, -0.010252476, 10.079784
273954857182439, 7.9776707, -0.08853444, 6.1495543, -0.0072243214, -0.020612717, 10.073114
273954866821501, 7.9680996, -0.09451649, 6.151947, -0.0019404888, -0.02918911, 10.067033
273954876460564, 7.978867, -0.101694964, 6.195018, 0.001454711, -0.05397749, 10.10188
273954886099626, 7.962117, -0.083748795, 6.2237315, -0.020753205, -0.084261894, 10.105921
273954895738689, 7.9800634, -0.08135597, 6.2213387, -0.022143006, -0.069524765, 10.118685
273954905377751, 7.9860454, -0.086141616, 6.198607, -0.014442146, -0.04772234, 10.109629
273954915016814, 7.9657063, -0.07776674, 6.178268, -0.021977067, -0.043454647, 10.08103
273954924655876, 7.9704924, -0.07058827, 6.1124654, -0.019756496, 0.008951664, 10.044676
273954934294939, 7.9633136, -0.05742774, 6.0394845, -0.024633706, 0.06374502, 9.994417
273954943934001, 7.9764743, -0.07298109, 6.005985, -0.0018458366, 0.09081507, 9.984642
273954953573064, 7.9860454, -0.06460621, 5.9952173, -0.007844567, 0.106256485, 9.985609
273954963212126, 7.9764743, -0.08015956, 6.009574, 0.0057042837, 0.08489704, 9.986908
273954972851189, 7.948957, -0.10289137, 6.1196437, 0.015274584, -0.021686077, 10.032241
273954982490251, 7.972885, -0.1160519, 6.157929, 0.027363122, -0.03544569, 10.074644
273954992129314, 7.938189, -0.14356937, 6.1028943, 0.0582335, -0.016992569, 10.013845
273955001768376, 7.9968133, -0.11844472, 6.196214, 0.02851671, -0.047928333, 10.116967
273955011407439, 7.9980097, -0.104087785, 6.216553, 0.011625648, -0.059001446, 10.130199
273955021046501, 7.9764743, -0.09571291, 6.2141604, 0.0017875433, -0.06895828, 10.111595
273955030685564, 7.984849, -0.07178468, 6.174679, -0.017037094, -0.028943062, 10.093984
273955040324626, 7.9633136, -0.059820566, 6.157929, -0.029302716, -0.027392864, 10.066601
273955049963689, 7.960921, -0.058624156, 6.122037, -0.027263224, -0.004589081, 10.042824
273955059602751, 7.9980097, -0.043070808, 6.07418, -0.032786787, 0.057703972, 10.042973
273955069241814, 7.987242, -0.04546363, 6.0717874, -0.031892657, 0.048717022, 10.033012
273955078880876, 7.952546, -0.06819545, 6.058627, -0.010688245, 0.03254032, 9.99767
273955088519939, 7.952546, -0.078963146, 6.0550375, 3.7312508E-4, 0.032350063, 9.995582
273955098159001, 7.952546, -0.08255238, 6.0598235, 0.0036646128, 0.027338505, 9.998526
273955107798064, 7.9860454, -0.08853444, 6.0729837, 0.01077044, 0.036314964, 10.033168
273955117437126, 7.98126, -0.07776674, 6.0729837, 7.8737736E-5, 0.034939766, 10.029281
273955127076189, 7.9920278, -0.076570325, 6.099305, -0.0024347305, 0.02151823, 10.053828
273955136715251, 7.98126, -0.0741775, 6.1160545, -0.007483542, 0.0028862953, 10.0554495
273955146354314, 7.984849, -0.06460621, 6.1244297, -0.017641842, -2.07901E-4, 10.063315
273955155993376, 7.96451, -0.07058827, 6.166304, -0.019131541, -0.045348644, 10.0727005
273955165632439, 7.982456, -0.059820566, 6.1878395, -0.030847907, -0.04984951, 10.0999565
273955175271501, 7.9704924, -0.06699903, 6.1603217, -0.02121985, -0.03550768, 10.073783
273955184910564, 7.9776707, -0.08853444, 6.1627145, 2.1326542E-4, -0.03631878, 10.081111
273955194549626, 7.987242, -0.09451649, 6.1124654, 0.014281988, 0.0077228546, 10.058178
273955204188689, 7.9657063, -0.096909314, 6.0837517, 0.018259287, 0.01511097, 10.023639
273955213827751, 7.958528, -0.078963146, 6.0598235, 0.0028104186, 0.032218456, 10.003241
273955223466814, 7.9561353, -0.09332009, 6.053841, 0.017507374, 0.031347275, 9.997827
273955233105876, 7.954939, -0.08733802, 6.058627, 0.010668635, 0.02630663, 9.9997425
273955242745043, 7.9680996, -0.08973085, 6.0729837, 0.012331843, 0.021463871, 10.018942
273955252384105, 7.978867, -0.11964113, 6.087341, 0.040275574, 0.01254797, 10.036463
273955262023168, 7.9764743, -0.12801601, 6.113662, 0.043714702, -0.009885788, 10.05064
273955271662230, 7.9860454, -0.1052842, 6.1591253, 0.016721368, -0.03592682, 10.085695
273955281301293, 8.007581, -0.08853444, 6.189036, -0.004508376, -0.04179716, 10.12085
273955290940355, 7.978867, -0.050249275, 6.206982, -0.047472715, -0.06692982, 10.108646
273955300579418, 7.9740815, -0.0634098, 6.195018, -0.03268957, -0.061882496, 10.097691
273955310218480, 7.9680996, -0.08015956, 6.1794643, -0.0136598945, -0.055222988, 10.08363
273955319857543, 7.989635, -0.07298109, 6.1507506, -0.0153512955, -0.018794537, 10.083191
273955329496605, 7.9836526, -0.06699903, 6.0957155, -0.015078604, 0.016945839, 10.044921
273955339135668, 7.960921, -0.09451649, 6.0370917, 0.016930103, 0.045565605, 9.991461
273955348774730, 7.982456, -0.086141616, 6.0083776, 0.014204204, 0.07842398, 9.99106
273955358413793, 7.9860454, -0.069391854, 6.0083776, -0.0031235218, 0.07799959, 9.993811
273955368052855, 7.9836526, -0.07058827, 6.0119667, -0.0021284223, 0.0722723, 9.994108
273955377691918, 7.975278, -0.06819545, 6.0418773, -0.008202493, 0.04409027, 10.005598
273955387330980, 7.984849, -0.06460621, 6.0717874, -0.013431966, 0.027436733, 10.031334
273955396970043, 7.9716887, -0.08255238, 6.096912, 1.5991926E-4, -0.0028390884, 10.036283
273955406609105, 7.9657063, -0.10049855, 6.1040907, 0.016931534, -0.0139455795, 10.036036
273955416248272, 7.9836526, -0.09212367, 6.1124654, 0.008921683, -0.0078344345, 10.055312
273955425887335, 7.972885, -0.09092726, 6.125626, 0.0051627755, -0.02403593, 10.054743
