timestamp_acc,device_acc_x,device_acc_y,device_acc_z,earth_acc_x,earth_acc_y,earth_acc_z
771504569689696, 0.24885355, 6.472585, 7.500303, -0.004419893, -0.0545516, 9.9099865
771504579327925, 0.2835495, 6.413961, 7.393822, 0.031262696, -0.027452946, 9.792149
771504588966154, 0.3074777, 6.401997, 7.257431, 0.05032766, 0.05159855, 9.68221
771504598604279, 0.2955136, 6.390033, 7.1617184, 0.03536579, 0.09720659, 9.602051
771504608242508, 0.23569304, 6.413961, 7.1892357, -0.024736822, 0.0917182, 9.636936
771504617880738, 0.18664017, 6.4773707, 7.3256264, -0.072280616, 0.044736862, 9.780019
771504627518863, 0.21296121, 6.538388, 7.429714, -0.04578978, 0.02595377, 9.899178
771504637157092, 0.18903299, 6.5551376, 7.5290165, -0.066782385, -0.029051304, 9.984306
771504646795217, 0.19980069, 6.5838513, 7.5469627, -0.05746734, -0.016826153, 10.01699
771504656433446, 0.2440679, 6.558727, 7.5050883, -0.013021797, -0.0023608208, 9.970087
771504666071675, 0.30388847, 6.513263, 7.5182486, 0.05087337, -0.037766933, 9.951633
771504675709800, 0.34097722, 6.503692, 7.4739814, 0.084974855, -0.012200832, 9.912987
771504685348029, 0.29790643, 6.4498534, 7.466803, 0.04521078, -0.052502632, 9.871056
771504694986258, 0.2883351, 6.4235325, 7.4392858, 0.036942393, -0.05511427, 9.832776
771504704624383, 0.2656033, 6.454639, 7.4177504, 0.010322839, -0.020968437, 9.83643
771504714262613, 0.2428715, 6.472585, 7.335198, -0.017798632, 0.041182518, 9.785524
771504723900842, 0.23808585, 6.5084777, 7.314859, -0.028609097, 0.08036709, 9.793715
771504733538967, 0.25962126, 6.539584, 7.3435726, -0.00830245, 0.08602667, 9.83637
771504743177196, 0.2632105, 6.535995, 7.381858, -8.380711E-4, 0.05779791, 9.862911
771504752815425, 0.22253251, 6.502496, 7.483553, -0.03052622, -0.039723873, 9.916301
771504762453550, 0.23808585, 6.5108705, 7.5661054, -0.010395706, -0.08471012, 9.984327
771504772091779, 0.2727818, 6.472585, 7.5828547, 0.029360116, -0.11981869, 9.972625
771504781730008, 0.30867413, 6.454639, 7.5828547, 0.06681907, -0.12665606, 9.961769
771504791368133, 0.276371, 6.474978, 7.5864444, 0.031112045, -0.11827946, 9.977018
771504801006363, 0.2440679, 6.4797635, 7.5050883, -0.0052011013, -0.06574297, 9.91811
771504810644592, 0.26799613, 6.471389, 7.38784, 0.015209496, 0.005256653, 9.825
771504820282717, 0.26919255, 6.4797635, 7.3627152, 0.016655594, 0.025130749, 9.811648
771504829920946, 0.2727818, 6.518049, 7.3363943, 0.016723126, 0.06777239, 9.817188
771504839559071, 0.27876383, 6.5491557, 7.322037, 0.020976752, 0.09708643, 9.827081
771504849197300, 0.24047868, 6.5718875, 7.283752, -0.020237386, 0.13090372, 9.812391
771504858835529, 0.19621146, 6.5443697, 7.2705917, -0.059641838, 0.10610533, 9.783352
771504868473654, 0.13399807, 6.5682983, 7.186843, -0.1288701, 0.17194462, 9.734734
771504878111883, 0.040677983, 6.5288167, 7.227521, -0.21305019, 0.101130486, 9.736968
771504887750113, 0.14476576, 6.5072813, 7.239485, -0.10480064, 0.08574104, 9.734345
771504897388238, 0.23090738, 6.498906, 7.288538, -0.012598515, 0.061198235, 9.767702
771504907026467, 0.276371, 6.4965134, 7.359126, 0.03739372, 0.01850462, 9.8201885
771504916664696, 0.25603202, 6.483353, 7.4333034, 0.0231677, -0.03945875, 9.866676
771504926302821, 0.26919255, 6.5108705, 7.5266237, 0.03796211, -0.07541847, 9.955242
771504935941050, 0.2943172, 6.5144596, 7.5493555, 0.06292829, -0.08014965, 9.97533
771504945579279, 0.26919255, 6.5288167, 7.5086775, 0.031924844, -0.040983677, 9.953665
771504955217404, 0.26799613, 6.5252275, 7.463214, 0.023180157, -0.008209705, 9.917128
771504964855633, 0.26081768, 6.501299, 7.469196, 0.017405659, -0.029795647, 9.905685
771504974493863, 0.2835495, 6.5048885, 7.4392858, 0.037979156, -0.004928589, 9.886126
771504984131988, 0.25603202, 6.489335, 7.440482, 0.010884523, -0.018094063, 9.876101
771504993770217, 0.2739782, 6.4881387, 7.4333034, 0.028514832, -0.012108326, 9.870362
771505003408446, 0.2847459, 6.4881387, 7.4129643, 0.03756249, 0.0038747787, 9.855335
771505013046571, 0.276371, 6.48096, 7.4440713, 0.030247957, -0.019936085, 9.87381
771505022684800, 0.2620141, 6.4701924, 7.479964, 0.018355906, -0.05199051, 9.893375
771505032323029, 0.23688944, 6.492924, 7.5062847, -0.007875055, -0.054083347, 9.927513
771505041961154, 0.2536392, 6.498906, 7.509874, 0.008320153, -0.049951553, 9.934574
771505051599383, 0.2644069, 6.506085, 7.493124, 0.016785145, -0.031638622, 9.926968
771505061237613, 0.26799613, 6.4965134, 7.459625, 0.017454982, -0.016500473, 9.89555
771505070875738, 0.276371, 6.506085, 7.4476604, 0.02360496, -8.802414E-4, 9.893059
771505080513967, 0.27158538, 6.5228343, 7.4333034, 0.016254485, 0.020395279, 9.89315
771505090152196, 0.23449662, 6.5228343, 7.436893, -0.020673364, 0.013296604, 9.894906
771505099790321, 0.22253251, 6.501299, 7.405786, -0.031946182, 0.015483379, 9.857019
771505109428550, 0.22612174, 6.495317, 7.381858, -0.028294593, 0.026388168, 9.835173
771505119066779, 0.2321038, 6.4941206, 7.351948, -0.023242623, 0.04458618, 9.812038
771505128704904, 0.2620141, 6.4881387, 7.34118, 0.0060254633, 0.047636032, 9.800776
771505138343133, 0.2835495, 6.4845495, 7.3639116, 0.029022366, 0.03213644, 9.816065
771505147981363, 0.3074777, 6.471389, 7.3950186, 0.0533458, 0.005530834, 9.831421
771505157619488, 0.29192436, 6.5144596, 7.4356966, 0.034515887, 0.010778427, 9.889978
771505167257717, 0.29192436, 6.4941206, 7.4153576, 0.035477906, 0.008898258, 9.861289
771505176895946, 0.28115666, 6.4941206, 7.476374, 0.026576191, -0.03098154, 9.906923
771505186534175, 0.23808585, 6.541977, 7.4919276, -0.020925283, -0.006008148, 9.949003
771505196172300, 0.20817557, 6.5407805, 7.472785, -0.050185025, 0.0035476685, 9.933033
771505205810529, 0.20458634, 6.489335, 7.463214, -0.04922712, -0.029312134, 9.891897
771505215448758, 0.23090738, 6.5048885, 7.520642, -0.02038148, -0.052535534, 9.946043
771505225086883, 0.317049, 6.5108705, 7.5110703, 0.06437108, -0.031945705, 9.944996
771505234725113, 0.28235307, 6.4618177, 7.4476604, 0.031330675, -0.031281948, 9.8641
771505244363342, 0.25124636, 6.4606214, 7.440482, 3.1155348E-4, -0.0315485, 9.857105
771505254001467, 0.27158538, 6.471389, 7.409375, 0.017966658, -0.0010547638, 9.841297
771505263639696, 0.29072794, 6.4761744, 7.3579297, 0.034215212, 0.0361557, 9.806222
771505273277925, 0.23330021, 6.4666033, 7.347162, -0.02252683, 0.03036356, 9.7903385
771505282916050, 0.19980069, 6.4797635, 7.3986077, -0.053897023, 0.00157547, 9.836857
771505292554279, 0.19142582, 6.4977098, 7.3770723, -0.06335598, 0.029109001, 9.832254
771505302192508, 0.23090738, 6.503692, 7.381858, -0.024071276, 0.03418255, 9.840803
771505311830633, 0.24765715, 6.515656, 7.3830543, -0.0073032677, 0.043928623, 9.850007
771505321468863, 0.23808585, 6.5252275, 7.4943204, -0.01363194, -0.022428513, 9.939791
771505331107092, 0.2727818, 6.5108705, 7.524231, 0.022725701, -0.049227238, 9.953741
771505340745217, 0.30269206, 6.491728, 7.509874, 0.051690876, -0.049987793, 9.931124
771505350383446, 0.34456646, 6.506085, 7.463214, 0.0907042, -0.0046520233, 9.906525
771505360021675, 0.29790643, 6.4941206, 7.420143, 0.042080045, 0.011223793, 9.86504
771505369659800, 0.2548356, 6.48096, 7.4141607, -6.0382485E-4, 2.1028519E-4, 9.850763
771505379298029, 0.17467605, 6.5084777, 7.3986077, -0.08310333, 0.022227764, 9.855089
771505388936258, 0.18544376, 6.492924, 7.3663044, -0.07161367, 0.03183317, 9.820831
771505398574383, 0.25124636, 6.4941206, 7.3746796, -0.004348159, 0.03342533, 9.829622
771505408212613, 0.276371, 6.506085, 7.416554, 0.02164033, 0.017627716, 9.86965
771505417850842, 0.2656033, 6.501299, 7.4440713, 0.012541622, -0.0048570633, 9.886935
771505427489071, 0.30867413, 6.501299, 7.4656067, 0.05625847, -0.014033794, 9.904247
771505437127196, 0.30987054, 6.512067, 7.4859457, 0.05700493, -0.019086361, 9.926672
771505446765425, 0.27756742, 6.4845495, 7.4584284, 0.025270462, -0.024678707, 9.887028
771505456403654, 0.25722843, 6.454639, 7.4416785, 0.0064449906, -0.03776598, 9.85422
771505466041779, 0.23090738, 6.4666033, 7.470392, -0.019883186, -0.049360275, 9.883028
771505475680008, 0.22492532, 6.4737816, 7.457232, -0.02705282, -0.03497362, 9.877692
771505485318238, 0.2440679, 6.5108705, 7.4069824, -0.012341082, 0.027516365, 9.8647585
771505494956363, 0.21774685, 6.513263, 7.365108, -0.04013151, 0.053587914, 9.834142
771505504594592, 0.2213361, 6.501299, 7.3363943, -0.036067247, 0.06276417, 9.80476
771505514232821, 0.22971097, 6.489335, 7.373483, -0.022861183, 0.02976036, 9.825024
771505523870946, 0.24646074, 6.4845495, 7.411768, -0.004018694, 0.0026769638, 9.851111
771505533509175, 0.1902294, 6.463014, 7.436893, -0.056340635, -0.035420895, 9.854425
771505543147404, 0.22253251, 6.4677997, 7.4679995, -0.023952872, -0.04583597, 9.881817
771505552785633, 0.2644069, 6.4941206, 7.4943204, 0.016607732, -0.039013386, 9.92001
771505562423758, 0.27158538, 6.5108705, 7.5469627, 0.024804294, -0.056381702, 9.97086
771505572061988, 0.24885355, 6.5539412, 7.60798, 4.4742227E-4, -0.06668234, 10.044552
771505581700217, 0.22731815, 6.535995, 7.5517483, -0.021389365, -0.043968678, 9.989864
771505591338342, 0.26081768, 6.5252275, 7.487142, 0.010583758, -0.0062913895, 9.934977
771505600976571, 0.31465617, 6.5144596, 7.3830543, 0.060170054, 0.058068275, 9.850874
771505610614800, 0.28235307, 6.4737816, 7.3375907, 0.029972821, 0.051938057, 9.789086
771505620252925, 0.25962126, 6.4677997, 7.304091, 0.006469518, 0.06453419, 9.759375
771505629891154, 0.23449662, 6.5001025, 7.320841, -0.020849347, 0.07318163, 9.792611
771505639529383, 0.148355, 6.105287, 7.2861447, -0.067870975, -0.2104106, 9.504504
771505649167613, 0.31585258, 6.9858456, 7.4512496, 0.017689914, 0.36136436, 10.212347
771505658805738, 0.1160519, 5.8683977, 7.344769, -0.0680567, -0.42593193, 9.392079
771505668443967, 0.30269206, 7.1653075, 7.594819, -0.00517717, 0.40329075, 10.438002
771505678082196, 0.16630118, 5.9449677, 7.3770723, -0.024943233, -0.3804717, 9.468164
771505687720321, 0.31106696, 6.969096, 7.5637126, 0.02353695, 0.27868462, 10.285746
771505697358550, 0.29910284, 6.262017, 7.389036, 0.073483884, -0.13538313, 9.688986
771505706996779, 0.23090738, 6.5371914, 7.5050883, -0.018412054, -0.018921852, 9.955593
771505716634904, 0.36370903, 6.719046, 7.4620175, 0.09007135, 0.16314745, 10.046136
771505726273133, 0.16869399, 6.04427, 7.308877, -0.043097973, -0.26322603, 9.4821
771505735911363, 0.31226337, 7.0779696, 7.442875, -7.290542E-4, 0.43260145, 10.2666645
771505745549592, 0.11485548, 5.814559, 7.2658057, -0.07840821, -0.41217804, 9.297214
771505755187717, 0.34097722, 7.164111, 7.509874, 0.020020425, 0.45275927, 10.37466
771505764825946, 0.2105684, 5.8600225, 7.320841, 0.024690032, -0.408782, 9.370764
771505774464175, 0.3074777, 6.9906316, 7.5828547, 0.010737926, 0.2823186, 10.314231
771505784102300, 0.2117648, 6.2285175, 7.4620175, -0.0069664717, -0.22204113, 9.719651
771505793740529, 0.19501504, 6.5407805, 7.5613194, -0.05265665, -0.052719593, 9.999392
771505803378758, 0.32662028, 6.7166533, 7.4739814, 0.05133617, 0.15217543, 10.052597
771505813016883, 0.21296121, 6.0861444, 7.3627152, -0.0015509427, -0.26273966, 9.551285
771505822655113, 0.43429732, 7.112665, 7.487142, 0.1115931, 0.4528451, 10.325619
771505832293342, 0.12562318, 5.791827, 7.27777, -0.056162447, -0.43404388, 9.291687
771505841931571, 0.32183465, 7.204789, 7.5529447, -0.0018679202, 0.45550108, 10.43322
771505851569696, 0.15792629, 5.84088, 7.2658057, -0.037917465, -0.38542795, 9.315725
771505861207925, 0.28235307, 6.966703, 7.4919276, -0.013876319, 0.3200121, 10.229421
771505870846154, 0.21535404, 6.1639113, 7.350751, -0.006192237, -0.19431639, 9.593534
771505880484279, 0.2321038, 6.5850477, 7.493124, -0.025503367, 0.024395943, 9.978095
771505890122508, 0.37328035, 6.690332, 7.4333034, 0.10136002, 0.16120148, 10.005878
771505899760738, 0.1902294, 6.1100726, 7.3579297, -0.02840805, -0.24502373, 9.562819
771505909398967, 0.4223332, 7.1078796, 7.520642, 0.11222902, 0.422688, 10.34742
771505919037092, 0.15194423, 5.8420763, 7.335198, -0.04352051, -0.436316, 9.3683405
771505928675321, 0.3493521, 7.2358956, 7.5900335, 0.030106068, 0.4584136, 10.48226
771505938313550, 0.148355, 5.8265233, 7.3292155, -0.043895632, -0.43701696, 9.353869
771505947951675, 0.29072794, 7.0468626, 7.533802, -0.013259858, 0.3566265, 10.313759
771505957589904, 0.21535404, 6.135197, 7.361519, -0.0012776852, -0.21985435, 9.58283
771505967228133, 0.23330021, 6.6077795, 7.4620175, -0.030089855, 0.06683254, 9.969629
771505976866363, 0.31345975, 6.6221366, 7.4333034, 0.04762292, 0.103530884, 9.959517
771505986504488, 0.148355, 6.125626, 7.4069824, -0.06715694, -0.26822662, 9.608965
771505996142717, 0.38644084, 7.0672016, 7.5110703, 0.07703015, 0.39197016, 10.312675
771506005780946, 0.15074782, 5.814559, 7.3160553, -0.03908798, -0.4377265, 9.336132
771506015419175, 0.35294133, 7.2299137, 7.568498, 0.03710696, 0.46905756, 10.46217
771506025057300, 0.1363909, 5.788238, 7.3052874, -0.054773718, -0.45754862, 9.310059
771506034695529, 0.30149564, 7.082755, 7.564909, -0.0023705363, 0.35640478, 10.36133
771506044333758, 0.23449662, 6.1028943, 7.342376, 0.012349308, -0.22870779, 9.547688
771506053971883, 0.22253251, 6.623333, 7.515856, -0.037901014, 0.03975296, 10.020137
771506063610113, 0.30987054, 6.5886374, 7.470392, 0.051108092, 0.05606842, 9.9653
771506073248342, 0.18065812, 6.2009997, 7.448857, -0.044204056, -0.23202705, 9.690962
771506082886571, 0.3912265, 7.045666, 7.521838, 0.09646794, 0.37286377, 10.306512
771506092524696, 0.15194423, 5.8157554, 7.3064837, -0.049476773, -0.43472672, 9.32949
771506102162925, 0.3397808, 7.2502527, 7.5517483, 0.029427886, 0.50158834, 10.462221
771506111801154, 0.10767702, 5.7870417, 7.2789664, -0.08206761, -0.44500685, 9.288706
771506121439279, 0.24885355, 7.0731835, 7.521838, -0.052543312, 0.37103844, 10.321314
771506131077508, 0.1902294, 6.0358953, 7.301698, -0.021198452, -0.25814533, 9.471848
771506140715738, 0.24646074, 6.6759753, 7.4739814, -0.01695621, 0.10704374, 10.023874
771506150353967, 0.3469593, 6.515656, 7.409375, 0.09450078, 0.044412136, 9.87229
771506159992092, 0.22731815, 6.1842504, 7.3974113, 8.0382824E-4, -0.20815945, 9.642355
771506169630321, 0.3912265, 7.0265236, 7.570891, 0.098681, 0.3281498, 10.330832
771506179268550, 0.07058827, 5.8636117, 7.4392858, -0.13250127, -0.48404074, 9.459284
771506188906779, 0.3278167, 7.2586274, 7.68455, 0.018469661, 0.41594648, 10.567596
771506198544904, 0.13998012, 5.7834525, 7.34118, -0.057859123, -0.48075247, 9.33415
771506208183133, 0.37208393, 7.140183, 7.539784, 0.066227496, 0.42547798, 10.381887
771506217821363, 0.26799613, 6.04427, 7.2933235, 0.051575065, -0.23680258, 9.473061
771506227459592, 0.20458634, 6.728617, 7.4883385, -0.06646559, 0.13197994, 10.068245
771506237097717, 0.29671, 6.485746, 7.4010005, 0.045597732, 0.021794796, 9.845059
771506246735946, 0.15553348, 6.236892, 7.3579297, -0.06933668, -0.15553093, 9.645369
771506256374175, 0.33020952, 6.927222, 7.4584284, 0.032149196, 0.31676435, 10.179501
771506266012404, 0.11485548, 5.8265233, 7.288538, -0.07082453, -0.41884756, 9.3222275
771506275650529, 0.39840496, 7.222735, 7.5266237, 0.06448114, 0.49654722, 10.4271755
771506285288758, 0.17108682, 5.7523456, 7.2490563, -0.008486092, -0.43935013, 9.245241
771506294926988, 0.34576288, 7.152147, 7.466803, 0.023151547, 0.48374414, 10.33399
771506304565217, 0.17467605, 6.005985, 7.2502527, -0.038537323, -0.25532532, 9.412857
771506314203342, 0.21535404, 6.7812595, 7.5050883, -0.06398553, 0.16612768, 10.115656
771506323841571, 0.25603202, 6.4618177, 7.450053, 0.008720815, -0.030623436, 9.865236
771506333479800, 0.18544376, 6.2931237, 7.5326056, -0.04083723, -0.21893597, 9.8147
771506343118029, 0.3804588, 6.9320073, 7.631908, 0.09457141, 0.22106838, 10.314343
771506352756154, 0.14955142, 5.8636117, 7.475178, -0.047397524, -0.50236607, 9.488308
771506362394383, 0.37447673, 7.1808605, 7.690532, 0.06692594, 0.37240314, 10.521698
771506372032613, 0.13519448, 5.7451673, 7.3926253, -0.05613509, -0.5379429, 9.34792
771506381670842, 0.33499518, 7.1629148, 7.588837, 0.026831806, 0.42128372, 10.432249
771506391308967, 0.22013968, 5.9724855, 7.2933235, 0.009521782, -0.28765488, 9.424902
771506400947196, 0.25603202, 6.8518476, 7.446464, -0.027306288, 0.26965284, 10.118782
771506410585425, 0.25842485, 6.4199433, 7.304091, 0.007119298, 0.039975643, 9.727824
771506420223654, 0.12801601, 6.346962, 7.3543406, -0.111868024, -0.06704044, 9.714404
771506429861779, 0.30029923, 6.914061, 7.405786, 0.0073129535, 0.34148026, 10.130323
771506439500008, 0.104087785, 5.9234324, 7.2957163, -0.09068769, -0.35268736, 9.391101
771506449138238, 0.3912265, 7.1880393, 7.560123, 0.08492532, 0.44969273, 10.429141
771506458776467, 0.1698904, 5.7260246, 7.344769, 0.004384607, -0.5175891, 9.300212
771506468414592, 0.40797627, 7.194021, 7.587641, 0.09270796, 0.44017458, 10.454204
771506478052821, 0.23330021, 5.9294147, 7.3100734, 0.033689916, -0.33257294, 9.409454
771506487691050, 0.25842485, 6.829116, 7.550552, -0.020527601, 0.17804623, 10.182453
771506497329279, 0.28594232, 6.3625154, 7.4309106, 0.047841877, -0.082107544, 9.786356
771506506967508, 0.18185452, 6.3924255, 7.4715886, -0.056961983, -0.09884453, 9.834013
771506516605633, 0.36370903, 6.838687, 7.533802, 0.08119148, 0.21457672, 10.178678
771506526243863, 0.18544376, 5.9318075, 7.367501, -0.0054805875, -0.37607336, 9.453007
771506535882092, 0.4354937, 7.183254, 7.570891, 0.11857876, 0.4538746, 10.4349
771506545520321, 0.14955142, 5.7320065, 7.351948, -0.01917255, -0.52125406, 9.308991
771506555158446, 0.36251262, 7.1976104, 7.600801, 0.041069984, 0.44399977, 10.46472
771506564796675, 0.2009971, 5.8636117, 7.301698, 0.012897015, -0.38297176, 9.358969
771506574434904, 0.24526432, 6.8745794, 7.472785, -0.045928925, 0.271482, 10.153162
771506584073133, 0.2428715, 6.320641, 7.342376, 0.0018871725, -0.057281017, 9.691063
771506593711363, 0.14596218, 6.4091754, 7.4069824, -0.098778844, -0.047334194, 9.79542
771506603349488, 0.28713873, 6.795616, 7.428518, 0.0036053956, 0.24442244, 10.069059
771506612987717, 0.101694964, 5.9748783, 7.3842506, -0.099452645, -0.35879612, 9.492001
771506622625946, 0.39481574, 7.172486, 7.648658, 0.08349487, 0.39387274, 10.485242
771506632264175, 0.15672988, 5.7559347, 7.429714, -0.021427989, -0.5409074, 9.384187
771506641902404, 0.36729828, 7.213164, 7.688139, 0.057433635, 0.39648914, 10.540949
771506651540529, 0.19860429, 5.864808, 7.373483, 0.0011278689, -0.4150238, 9.414427
771506661178758, 0.27996024, 6.9344, 7.539784, -0.01793003, 0.2839346, 10.243616
771506670816988, 0.2416751, 6.259624, 7.365108, 0.007939249, -0.110426426, 9.668188
771506680455217, 0.19262223, 6.4737816, 7.4380894, -0.059085518, -0.009651184, 9.862483
771506690093446, 0.37806597, 6.7669024, 7.436893, 0.092354596, 0.23519373, 10.058701
771506699731571, 0.1698904, 5.9760747, 7.2957163, -0.034350306, -0.2928586, 9.427771
771506709369800, 0.40438703, 7.1162543, 7.487142, 0.07786766, 0.46276426, 10.326746
771506719008029, 0.14476576, 5.7379885, 7.283752, -0.034136176, -0.4604044, 9.26204
771506728646258, 0.36610186, 7.2358956, 7.584051, 0.032252133, 0.4825039, 10.477415
771506738284488, 0.15074782, 5.8480587, 7.3459654, -0.043327093, -0.41492176, 9.381454
771506747922613, 0.22492532, 6.9894347, 7.6127653, -0.07058385, 0.265759, 10.3335085
771506757560842, 0.20458634, 6.229714, 7.4620175, -0.022637933, -0.19788265, 9.720765
771506767199071, 0.20219351, 6.5048885, 7.5696945, -0.046174586, -0.06639671, 9.982395
771506776837300, 0.38404804, 6.704689, 7.4859457, 0.11097035, 0.1621046, 10.054907
771506786475529, 0.14476576, 5.986842, 7.4033933, -0.06341776, -0.34666777, 9.5157385
771506796113758, 0.3696911, 7.064809, 7.5613194, 0.05975297, 0.38424015, 10.347489
771506805751883, 0.09930214, 5.74756, 7.3292155, -0.088682175, -0.47977114, 9.301811
771506815390113, 0.36729828, 7.2023964, 7.60798, 0.048253804, 0.4583912, 10.472742
771506825028342, 0.16031912, 5.791827, 7.350751, -0.024244845, -0.4526534, 9.348743
771506834666571, 0.24526432, 7.001399, 7.5936227, -0.053150266, 0.304595, 10.327015
771506844304800, 0.22372891, 6.1806607, 7.4141607, 7.774532E-4, -0.19463682, 9.65311
771506853943029, 0.21535404, 6.5611196, 7.542177, -0.03922355, 6.227493E-4, 9.998877
771506863581154, 0.34097722, 6.687939, 7.4847493, 0.06980893, 0.15081501, 10.041845
771506873219383, 0.17587246, 6.0921264, 7.399804, -0.045882076, -0.25770998, 9.582981
771506882857613, 0.41874397, 7.094719, 7.5469627, 0.12160599, 0.42008638, 10.357403
771506892495842, 0.1471586, 5.74756, 7.3256264, -0.0430187, -0.47658443, 9.300102
771506902134071, 0.34097722, 7.1976104, 7.580462, 0.03411284, 0.4617877, 10.448486
771506911772300, 0.11724831, 5.7607207, 7.347162, -0.08035737, -0.47507095, 9.324608
771506921410425, 0.23808585, 6.991828, 7.5720873, -0.047199696, 0.3120346, 10.304331
771506931048654, 0.2847459, 6.1268225, 7.353144, 0.060933948, -0.19003916, 9.573294
771506940686883, 0.28115666, 6.6185474, 7.4859457, 0.021076024, 0.08969498, 9.995754
771506950325113, 0.30987054, 6.6329045, 7.4883385, 0.046729147, 0.10213184, 10.0077
771506959963342, 0.104087785, 6.1100726, 7.4584284, -0.109175, -0.29393578, 9.637099
771506969601571, 0.36729828, 7.076773, 7.570891, 0.064183384, 0.38903427, 10.362364
771506979239800, 0.14955142, 5.814559, 7.3304124, -0.04204458, -0.42233706, 9.348064
771506988878029, 0.39601216, 7.2179494, 7.5613194, 0.076294035, 0.4971223, 10.448744
771506998516154, 0.12801601, 5.753542, 7.331609, -0.048451066, -0.47171497, 9.308452
771507008154383, 0.24765715, 7.0600233, 7.59123, -0.052236587, 0.35034275, 10.363714
771507017792613, 0.2656033, 6.0801625, 7.353144, 0.05363685, -0.22491407, 9.542231
771507027430842, 0.30269206, 6.6245294, 7.489535, 0.040806085, 0.08965397, 10.002972
771507037069071, 0.39361933, 6.5647087, 7.422536, 0.1313242, 0.1024189, 9.915475
771507046707300, 0.18305093, 6.134001, 7.4392858, -0.036245167, -0.25429058, 9.640356
771507056345529, 0.34337005, 7.02772, 7.594819, 0.042363524, 0.33036757, 10.347807
771507065983758, 0.09212367, 5.8217373, 7.422536, -0.09066883, -0.48825598, 9.420643
771507075621883, 0.34097722, 7.223932, 7.6343007, 0.02246207, 0.45103455, 10.506191
771507085260113, 0.15074782, 5.759524, 7.314859, -0.030011326, -0.45037174, 9.300445
771507094898342, 0.3361916, 7.1066833, 7.5086775, 0.021444231, 0.45284367, 10.334054
771507104536571, 0.20578274, 6.0526447, 7.300502, -0.010228157, -0.22191238, 9.48287
771507114174800, 0.17347965, 6.6891356, 7.48116, -0.09731883, 0.13652134, 10.035652
771507123813029, 0.25842485, 6.5048885, 7.469196, 0.0054599345, 0.015030861, 9.908027
771507133451258, 0.1794617, 6.145965, 7.4823565, -0.030044734, -0.27041006, 9.68074
771507143089488, 0.424726, 6.9391856, 7.6127653, 0.134969, 0.272326, 10.305073
771507152727717, 0.13399807, 5.7954164, 7.5062847, -0.03957653, -0.5504899, 9.4680805
771507162365946, 0.3361916, 7.2215385, 7.7587276, 0.02578935, 0.3844576, 10.597784
771507172004071, 0.09930214, 5.76431, 7.405786, -0.0771721, -0.5042939, 9.371368
771507181642300, 0.3062813, 7.1449685, 7.536195, -0.015272796, 0.45984125, 10.379158
771507191280529, 0.2213361, 6.0394845, 7.239485, 0.005095631, -0.18604708, 9.428672
771507200918758, 0.26919255, 6.728617, 7.411768, -0.015938342, 0.22215891, 10.011565
771507210556988, 0.3469593, 6.489335, 7.3375907, 0.0871664, 0.10375118, 9.8007
771507220195217, 0.15074782, 6.2237315, 7.3866434, -0.0808503, -0.15137577, 9.658706
771507229833446, 0.34456646, 6.928418, 7.5110703, 0.048223197, 0.3157487, 10.219387
771507239471675, 0.12083755, 5.845666, 7.3842506, -0.078187704, -0.43189192, 9.408558
771507249109904, 0.36729828, 7.194021, 7.664211, 0.057897866, 0.4258957, 10.509245
771507258748133, 0.19740787, 5.7343993, 7.416554, 0.0073381364, -0.52993536, 9.361982
771507268386363, 0.33140594, 7.166504, 7.716853, 0.025383323, 0.36121464, 10.530304
771507278024592, 0.19381863, 5.979664, 7.503892, -0.013862431, -0.3937869, 9.588905
771507287662821, 0.22971097, 6.771688, 7.6833534, -0.041812837, 0.0798645, 10.243746
771507297301050, 0.3290131, 6.4343, 7.5230346, 0.08264288, -0.054406643, 9.904278
771507306939279, 0.23688944, 6.2979093, 7.446464, 0.0011998713, -0.11821556, 9.754776
771507316577404, 0.42592242, 6.920043, 7.4333034, 0.120604545, 0.378695, 10.156988
771507326215633, 0.13878371, 5.838487, 7.2849483, -0.052144885, -0.37545347, 9.3292
771507335853863, 0.29312077, 7.2119675, 7.5385876, -0.040270865, 0.50481415, 10.424597
771507345492092, 0.06580263, 5.692525, 7.314859, -0.11122084, -0.5068817, 9.254569
771507355130321, 0.28713873, 7.1186476, 7.585248, -0.029348016, 0.40047693, 10.39867
771507364768550, 0.16390835, 5.910272, 7.3375907, -0.04010907, -0.35325336, 9.416583
771507374406779, 0.22731815, 6.8135624, 7.5290165, -0.05472684, 0.21052885, 10.154559
771507384045008, 0.27876383, 6.3948183, 7.4045897, 0.033026844, -0.015730858, 9.787647
771507393683238, 0.15074782, 6.3254266, 7.5254273, -0.0781447, -0.1637721, 9.830201
771507403321467, 0.38404804, 6.8685975, 7.57448, 0.09466186, 0.24409342, 10.228849
771507412959696, 0.18664017, 5.9377894, 7.4512496, -0.003054887, -0.39657116, 9.521346
771507422597925, 0.35294133, 7.186843, 7.7204423, 0.03041333, 0.37993526, 10.546812
771507432236154, 0.101694964, 5.71765, 7.4356966, -0.04733908, -0.56038046, 9.3635025
771507441874383, 0.39361933, 7.1916285, 7.5936227, 0.04921776, 0.47991943, 10.454895
771507451512613, 0.2847459, 5.916254, 7.281359, 0.09374654, -0.29171228, 9.381228
771507461150842, 0.36131623, 6.875776, 7.479964, 0.053476572, 0.30349636, 10.1617775
771507470789071, 0.34337005, 6.363712, 7.288538, 0.087628484, 0.048666954, 9.681295
771507480427300, 0.13399807, 6.3565335, 7.416554, -0.10992849, -0.07712412, 9.767843
771507490065529, 0.28953153, 6.820741, 7.446464, -0.009845138, 0.27190638, 10.09862
771507499703758, 0.1268196, 5.901897, 7.3567333, -0.06819934, -0.37493753, 9.42469
771507509341988, 0.357727, 7.131808, 7.648658, 0.046895713, 0.38686228, 10.4566145
771507518980217, 0.09571291, 5.7284174, 7.4620175, -0.080402255, -0.5767875, 9.389702
771507528618446, 0.32662028, 7.1677003, 7.7144604, 0.016179204, 0.37270164, 10.528833
771507538256675, 0.20338993, 5.879165, 7.420143, 0.008864969, -0.42042542, 9.459789
771507547894904, 0.31106696, 6.957132, 7.578069, 0.0140092075, 0.29572248, 10.287758
771507557533133, 0.29671, 6.3290157, 7.3986077, 0.05367893, -0.05201292, 9.740548
771507567171363, 0.19621146, 6.439086, 7.446464, -0.05533907, -0.017929077, 9.846157
771507576809592, 0.31944183, 6.806384, 7.456035, 0.032518327, 0.26578426, 10.097013
771507586447821, 0.11006984, 5.918647, 7.367501, -0.09008688, -0.36491394, 9.443585
771507596086154, 0.36011982, 7.0983086, 7.5816584, 0.051514506, 0.409225, 10.383982
771507605724383, 0.13280165, 5.690132, 7.3902326, -0.040528864, -0.5524726, 9.311495
771507615362613, 0.38165522, 7.166504, 7.6666036, 0.06843752, 0.4103675, 10.493245
771507625000842, 0.21655045, 5.844469, 7.3806615, 0.028750896, -0.4182372, 9.40761
771507634639071, 0.29910284, 6.9475603, 7.635497, 0.0042306185, 0.25026703, 10.324544
771507644277300, 0.27038896, 6.2644095, 7.4847493, 0.03803721, -0.16316605, 9.762651
771507653915529, 0.2213361, 6.48096, 7.55773, -0.029811889, -0.0524621, 9.958286
771507663553758, 0.3696911, 6.7633133, 7.487142, 0.08445418, 0.22206926, 10.093558
771507673191988, 0.12083755, 6.0155563, 7.351948, -0.09379095, -0.28315258, 9.495455
771507682830217, 0.30508488, 7.103094, 7.5230346, -0.010128975, 0.44482088, 10.341427
771507692468446, 0.05623133, 5.7020965, 7.3172517, -0.12587747, -0.50492334, 9.262206
771507702106675, 0.3361916, 7.190432, 7.600801, 0.028758764, 0.46387768, 10.458084
771507711744904, 0.17706887, 5.8229337, 7.3375907, -0.018494815, -0.4061594, 9.360174
771507721383133, 0.317049, 6.9894347, 7.60439, 0.022006184, 0.30881596, 10.328777
771507731021467, 0.27158538, 6.2213387, 7.469196, 0.04302448, -0.1837492, 9.722761
771507740659696, 0.2105684, 6.5431733, 7.5553374, -0.044813126, -0.010873795, 9.996922
771507750297925, 0.34337005, 6.7011, 7.5086775, 0.06693649, 0.15548468, 10.068476
771507759936154, 0.13399807, 6.005985, 7.4237323, -0.062270224, -0.33611584, 9.543833
771507769574383, 0.3361916, 7.0839515, 7.587641, 0.0078495145, 0.38671207, 10.378733
771507779212613, 0.1160519, 5.7451673, 7.3782687, -0.040263176, -0.50947285, 9.337992
771507788850842, 0.38165522, 7.2059855, 7.615158, 0.031054974, 0.4650669, 10.480711
771507798489071, 0.22971097, 5.7834525, 7.300502, 0.064591825, -0.4040799, 9.307575
771507808127300, 0.34576288, 7.0205417, 7.520642, 0.017222464, 0.38148212, 10.286974
771507817765633, 0.29192436, 6.1770716, 7.3196445, 0.064778864, -0.11685896, 9.581273
771507827403863, 0.2536392, 6.5539412, 7.500303, -0.009556055, 0.033902645, 9.963522
771507837042092, 0.36011982, 6.6484575, 7.48116, 0.08382055, 0.13460588, 10.013705
771507846680321, 0.1591227, 6.0490556, 7.4715886, -0.0565691, -0.33178377, 9.608732
771507856318550, 0.33738798, 7.056434, 7.6833534, 0.03100872, 0.30396318, 10.433007
771507865956779, 0.111266255, 5.767899, 7.4787674, -0.07771698, -0.5459471, 9.429153
771507875595008, 0.3912265, 7.2466636, 7.6630144, 0.06926364, 0.46593523, 10.543581
771507885233238, 0.15672988, 5.8037915, 7.331609, -0.042940676, -0.4254856, 9.342279
771507894871571, 0.27996024, 7.045666, 7.524231, -0.034362048, 0.39177895, 10.304329
771507904509800, 0.17228323, 6.125626, 7.328019, -0.054002106, -0.18132114, 9.550763
771507914148029, 0.15314065, 6.6185474, 7.533802, -0.110813916, 0.052624702, 10.028547
771507923786258, 0.29312077, 6.6053867, 7.495517, 0.028006107, 0.08382034, 9.9946
771507933424488, 0.15553348, 6.0897336, 7.4452677, -0.055513263, -0.2875595, 9.615368
771507943062717, 0.41754755, 7.021738, 7.594819, 0.10897097, 0.34938812, 10.345361
771507952701050, 0.13998012, 5.7607207, 7.408179, -0.03563547, -0.50690746, 9.371681
771507962339279, 0.37567315, 7.18445, 7.611569, 0.046969503, 0.44873667, 10.463739
771507971977508, 0.1268196, 5.7487564, 7.251449, -0.056806564, -0.41346502, 9.245194
771507981615738, 0.2955136, 7.0432734, 7.429714, -0.015984118, 0.45186043, 10.231876
771507991253967, 0.22612174, 6.0598235, 7.172486, -4.364252E-4, -0.11760044, 9.391663
771508000892300, 0.25124636, 6.650851, 7.4213395, -0.025337249, 0.16524172, 9.96721
771508010530529, 0.30269206, 6.5515485, 7.4787674, 0.037803113, 0.05983448, 9.946927
771508020168758, 0.17347965, 6.1627145, 7.530213, -0.045282602, -0.27883482, 9.727974
771508029806988, 0.4223332, 7.0301127, 7.6953177, 0.10964212, 0.30597162, 10.426559
771508039445217, 0.18065812, 5.8241305, 7.5816584, -0.0016464889, -0.5573373, 9.545893
771508049083550, 0.4127619, 7.243074, 7.797013, 0.08480975, 0.39300203, 10.6425705
771508058721779, 0.18783657, 5.7631135, 7.487142, 0.01344496, -0.5312848, 9.435233
771508068360008, 0.36251262, 7.1138616, 7.708478, 0.04314232, 0.34988785, 10.489748
771508077998238, 0.2835495, 6.02752, 7.408179, 0.06464502, -0.27003002, 9.550676
771508087636467, 0.2847459, 6.6927247, 7.5625157, 0.0027848184, 0.12023258, 10.102022
771508097274800, 0.32183465, 6.474978, 7.4010005, 0.05195549, 0.07002354, 9.838503
771508106913029, 0.17347965, 6.1603217, 7.3340015, -0.0677686, -0.14203739, 9.578228
771508116551258, 0.33379877, 6.9212394, 7.4249287, 0.02585423, 0.38409233, 10.148714
771508126189488, 0.1052842, 5.7990055, 7.2849483, -0.09725171, -0.3951292, 9.302927
771508135827821, 0.34217364, 7.2215385, 7.5756764, 0.011619806, 0.51639175, 10.459052
771508145466050, 0.09451649, 5.773881, 7.381858, -0.1017527, -0.47052526, 9.359845
771508155104279, 0.29671, 7.133004, 7.664211, -0.017212152, 0.38882732, 10.466922
771508164742508, 0.23449662, 6.0083776, 7.4476604, 0.014156878, -0.32110023, 9.5666065
771508174380842, 0.2727818, 6.7585278, 7.643872, -0.009391844, 0.11775732, 10.206221
771508184019071, 0.3182454, 6.45105, 7.5326056, 0.060756594, -0.038004875, 9.922316
771508193657300, 0.14596218, 6.1902323, 7.4847493, -0.08791849, -0.22043514, 9.711099
771508203295529, 0.34217364, 6.9152575, 7.5230346, 0.043421745, 0.318861, 10.219118
771508212933863, 0.12562318, 5.8480587, 7.372287, -0.084320486, -0.40789557, 9.401739
771508222572092, 0.3481557, 7.21436, 7.648658, 0.022636354, 0.4662757, 10.5096245
771508232210321, 0.14117654, 5.743971, 7.405786, -0.03989619, -0.50228214, 9.359751
771508241848550, 0.3900301, 7.1976104, 7.6067834, 0.054893464, 0.48511076, 10.468168
771508251486883, 0.29072794, 5.985646, 7.332805, 0.07089132, -0.2578826, 9.466307
771508261125113, 0.3182454, 6.7609205, 7.5326056, 0.027601928, 0.18768072, 10.124994
771508270763342, 0.3469593, 6.385247, 7.399804, 0.090004385, -2.0599365E-4, 9.77961
771508280401675, 0.2009971, 6.263213, 7.483553, -0.037734985, -0.16694927, 9.759228
771508290039904, 0.3397808, 6.8374906, 7.5696945, 0.04139179, 0.22754908, 10.203603
771508299678133, 0.0849452, 5.812166, 7.456035, -0.10420659, -0.49741554, 9.440481
771508309316467, 0.3589234, 7.1688967, 7.7204423, 0.03504771, 0.37594652, 10.534922
771508318954696, 0.14356937, 5.751149, 7.4476604, -0.042707086, -0.5330906, 9.395636
771508328592925, 0.3589234, 7.204789, 7.611569, 0.014886618, 0.47444296, 10.476091
771508338231154, 0.18544376, 5.9760747, 7.298109, -0.030988127, -0.25555468, 9.431013
771508347869488, 0.16031912, 6.9188466, 7.4656067, -0.14815119, 0.33133173, 10.173479
771508357507717, 0.25004998, 6.381658, 7.2933235, -0.009429663, 0.047442436, 9.694242
771508367145946, 0.2117648, 6.3050876, 7.402197, -0.032660484, -0.084971905, 9.7253895
771508376784279, 0.33379877, 6.8422766, 7.4739814, 0.038196504, 0.28452778, 10.134405
771508386422508, 0.083748795, 5.8432727, 7.442875, -0.10661182, -0.46971846, 9.450674
771508396060842, 0.3493521, 7.1413794, 7.6893353, 0.03276524, 0.36927748, 10.49332
771508405699071, 0.19262223, 5.7116675, 7.4656067, -0.0027640164, -0.57169914, 9.384491
771508415337300, 0.4354937, 7.18445, 7.7144604, 0.121290684, 0.39454794, 10.542698
771508424975633, 0.2955136, 5.910272, 7.416554, 0.07965788, -0.37838268, 9.480211
771508434613863, 0.31465617, 6.896115, 7.623533, 0.019685388, 0.23428345, 10.281946
771508444252092, 0.27996024, 6.3050876, 7.4512496, 0.028971612, -0.100768566, 9.764357
771508453890425, 0.1794617, 6.343373, 7.5050883, -0.06992239, -0.122998714, 9.827354
771508463528654, 0.34217364, 6.775277, 7.456035, 0.052913234, 0.25039005, 10.077126
771508473166883, 0.13878371, 5.925825, 7.331609, -0.09064531, -0.32177114, 9.42207
771508482805217, 0.36490545, 7.1688967, 7.5661054, 0.052984178, 0.471951, 10.418571
771508492443446, 0.12083755, 5.7690954, 7.3639116, -0.08927399, -0.4705243, 9.343173
771508502081779, 0.36011982, 7.2263246, 7.655836, 0.032508343, 0.45484495, 10.523942
771508511720008, 0.24526432, 5.858826, 7.3782687, 0.031696737, -0.4007511, 9.416116
771508521358238, 0.3062813, 6.869794, 7.5936227, 0.010366142, 0.22328329, 10.242119
771508530996571, 0.2536392, 6.2285175, 7.4859457, 0.012404591, -0.1862402, 9.739779
771508540634800, 0.16031912, 6.390033, 7.548159, -0.0943118, -0.11556053, 9.889928
771508550273029, 0.33499518, 6.7585278, 7.476374, 0.040231615, 0.22525072, 10.081356
771508559911363, 0.106480606, 5.9880385, 7.4010005, -0.10294402, -0.33427143, 9.514224
771508569549592, 0.30867413, 7.1545396, 7.6271224, -0.024261326, 0.42260265, 10.453541
771508579187925, 0.11246266, 5.767899, 7.3902326, -0.07763308, -0.48484135, 9.362464
771508588826154, 0.4019942, 7.200003, 7.6199436, 0.068048745, 0.46461916, 10.480682
771508598464488, 0.26679972, 5.8277197, 7.3160553, 0.07341832, -0.37144947, 9.349588
771508608102717, 0.36370903, 6.6927247, 7.4787674, 0.070145845, 0.17424059, 10.040991
771508617740946, 0.22372891, 6.465407, 7.365108, -0.04903406, 0.06455803, 9.80254
771508627379279, 0.23569304, 6.570691, 7.34118, -0.054449677, 0.15699148, 9.853673
771508637017508, 0.38404804, 6.5347986, 7.3950186, 0.10159594, 0.11669588, 9.874889
771508646655842, 0.35533416, 6.5946193, 7.396215, 0.06630701, 0.15417147, 9.9141865
771508656294071, 0.19860429, 6.6221366, 7.4045897, -0.092199504, 0.1458478, 9.934299
771508665932404, 0.09571291, 6.613762, 7.399804, -0.19046944, 0.12294388, 9.922537
771508675570633, 0.050249275, 6.5431733, 7.409375, -0.22450703, 0.059259415, 9.882338
771508685208863, 0.043070808, 6.4402823, 7.4045897, -0.21457624, -0.015267372, 9.811257
771508694847196, 0.046660043, 6.3625154, 7.4859457, -0.19385442, -0.12474775, 9.821915
771508704485425, 0.1794617, 6.3338017, 7.649854, -0.043038875, -0.2311287, 9.930471
771508714123758, 0.31226337, 6.330212, 7.739585, 0.0923475, -0.26935196, 9.99946
771508723761988, 0.41994038, 6.3720865, 7.749156, 0.19015524, -0.22561169, 10.037041
771508733400321, 0.44147578, 6.3684974, 7.706085, 0.20366341, -0.19407415, 10.002865
771508743038550, 0.43669012, 6.3457656, 7.598408, 0.1893279, -0.13952208, 9.906561
771508752676883, 0.40438703, 6.3864436, 7.5290165, 0.14444348, -0.065508366, 9.879835
771508762315113, 0.37567315, 6.4354963, 7.4333034, 0.10500696, 0.030091286, 9.83864
771508771953446, 0.357727, 6.4666033, 7.3746796, 0.07490167, 0.09208536, 9.81411
771508781591675, 0.28713873, 6.4737816, 7.442875, 0.008560628, 0.043828964, 9.868469
771508791230008, 0.31226337, 6.503692, 7.4847493, 0.03186202, 0.042759895, 9.920391
771508800868238, 0.357727, 6.546763, 7.5326056, 0.07529718, 0.048991203, 9.985998
771508810506571, 0.38763726, 6.558727, 7.5661054, 0.10372743, 0.038776875, 10.020025
771508820144800, 0.3912265, 6.5551376, 7.5529447, 0.10675973, 0.04544449, 10.007818
771508829783133, 0.38883367, 6.532406, 7.533802, 0.10401395, 0.037255764, 9.978451
771508839421363, 0.357727, 6.503692, 7.4943204, 0.069924444, 0.03405571, 9.928986
771508849059696, 0.31345975, 6.483353, 7.4548388, 0.024758697, 0.038043022, 9.884568
771508858697925, 0.27876383, 6.4701924, 7.402197, -0.010736853, 0.05851555, 9.835146
771508868336258, 0.24646074, 6.4677997, 7.3375907, -0.04659611, 0.09363794, 9.783788
771508877974488, 0.17706887, 6.4905314, 7.298109, -0.119442254, 0.12750864, 9.766792
771508887612821, 0.17467605, 6.4773707, 7.30768, -0.11850625, 0.11081076, 9.765383
771508897251050, 0.22612174, 6.4534426, 7.351948, -0.061532617, 0.06857872, 9.7847185
771508906889383, 0.22492532, 6.437889, 7.3830543, -0.059058666, 0.03684616, 9.798043
771508916527613, 0.22013968, 6.4175506, 7.479964, -0.05807501, -0.03984785, 9.857907
771508926165946, 0.2416751, 6.445068, 7.568498, -0.03652972, -0.071128845, 9.943495
771508935804279, 0.25004998, 6.4438715, 7.63789, -0.025600404, -0.1117506, 9.99551
771508945442508, 0.25722843, 6.4642105, 7.708478, -0.017493337, -0.13698053, 10.062492
771508955080842, 0.2548356, 6.4845495, 7.7479596, -0.020650119, -0.14297342, 10.1056595
771508964719071, 0.22731815, 6.472585, 7.776674, -0.045811445, -0.16717958, 10.118925
771508974357404, 0.20578274, 6.489335, 7.752745, -0.06713587, -0.14111137, 10.111105
771508983995633, 0.19621146, 6.48096, 7.6462646, -0.07904753, -0.080807686, 10.024666
771508993633967, 0.22253251, 6.4438715, 7.5433736, -0.051805556, -0.04240179, 9.923254
771509003272300, 0.27756742, 6.442675, 7.470392, 0.0013184845, 0.0063972473, 9.868729
771509012910529, 0.30508488, 6.442675, 7.4141607, 0.02548638, 0.046209335, 9.82691
771509022548863, 0.276371, 6.431907, 7.3950186, -9.913743E-4, 0.038979053, 9.804621
771509032187092, 0.30149564, 6.4199433, 7.373483, 0.02423051, 0.04687786, 9.781209
771509041825425, 0.35533416, 6.410372, 7.3866434, 0.07957637, 0.033813477, 9.786427
771509051463654, 0.3469593, 6.393622, 7.4656067, 0.075125456, -0.034350872, 9.835001
771509061101988, 0.31944183, 6.4199433, 7.524231, 0.04660651, -0.056235313, 9.895779
771509070740321, 0.34097722, 6.468996, 7.568498, 0.065374285, -0.04498911, 9.961931
771509080378550, 0.34456646, 6.4905314, 7.585248, 0.06726134, -0.0403471, 9.988771
771509090016883, 0.32063824, 6.5204415, 7.530213, 0.03726253, 0.015129089, 9.966016
771509099655113, 0.29910284, 6.5347986, 7.500303, 0.01253432, 0.04108286, 9.952172
771509109293446, 0.2644069, 6.533602, 7.4943204, -0.021842271, 0.03729248, 9.945896
771509118931779, 0.23808585, 6.509674, 7.496713, -0.044891745, 0.011636734, 9.93132
771509128570008, 0.25603202, 6.485746, 7.457232, -0.025959909, 0.019116402, 9.886341
771509138208342, 0.26919255, 6.474978, 7.389036, -0.014419556, 0.052431583, 9.828159
771509147846675, 0.2847459, 6.4761744, 7.312466, -0.0026977956, 0.102633, 9.771569
771509157484904, 0.26799613, 6.4977098, 7.2550383, -0.025426239, 0.15418148, 9.741829
771509167123238, 0.2536392, 6.491728, 7.2418776, -0.040239185, 0.15356636, 9.727613
771509176761467, 0.20697916, 6.4845495, 7.320841, -0.07960257, 0.088727474, 9.781244
771509186399800, 0.20937198, 6.4941206, 7.393822, -0.07356289, 0.047529697, 9.842682
771509196038133, 0.19501504, 6.5204415, 7.4775705, -0.08498883, 0.013902664, 9.922744
771509205676363, 0.14596218, 6.512067, 7.5326056, -0.12909827, -0.035028458, 9.9574375
771509215314696, 0.12323037, 6.5108705, 7.570891, -0.1489948, -0.060030937, 9.984949
771509224953029, 0.1902294, 6.506085, 7.5828547, -0.07836604, -0.05925083, 9.992767
771509234591258, 0.2955136, 6.518049, 7.5637126, 0.022586942, -0.021915913, 9.989045
771509244229592, 0.40677986, 6.5072813, 7.5589266, 0.13369676, -0.014088631, 9.981457
771509253867925, 0.44147578, 6.483353, 7.5290165, 0.1668109, -0.007631302, 9.944193
771509263506154, 0.38165522, 6.4905314, 7.5613194, 0.108333945, -0.02991724, 9.97164
771509273144488, 0.35174492, 6.5001025, 7.57448, 0.07606423, -0.035051823, 9.987032
771509282782821, 0.28594232, 6.4606214, 7.550552, 0.011837393, -0.057291985, 9.941269
771509292421050, 0.2656033, 6.4594245, 7.5146594, -0.009225905, -0.03748846, 9.912786
771509302059383, 0.29910284, 6.445068, 7.475178, 0.023372352, -0.018669605, 9.8745
771509311697717, 0.3469593, 6.452246, 7.420143, 0.06717211, 0.02678585, 9.838963
771509321335946, 0.3924229, 6.4677997, 7.38784, 0.1083706, 0.06335497, 9.826029
771509330974279, 0.36251262, 6.474978, 7.405786, 0.07710078, 0.052506447, 9.84346
771509340612613, 0.2943172, 6.5072813, 7.469196, 0.009395033, 0.02575922, 9.910576
771509350250946, 0.22492532, 6.515656, 7.5326056, -0.0565798, -0.018130302, 9.961977
771509359889175, 0.20697916, 6.5001025, 7.5182486, -0.07374808, -0.021756649, 9.94044
771509369527508, 0.16151553, 6.48096, 7.52782, -0.11555904, -0.047087193, 9.933854
771509379165842, 0.14356937, 6.4570317, 7.4883385, -0.13104242, -0.04184103, 9.88788
771509388804071, 0.18424734, 6.4295144, 7.4656067, -0.086856484, -0.04275179, 9.853857
771509398442404, 0.2321038, 6.413961, 7.499106, -0.032972604, -0.07099724, 9.870319
771509408080738, 0.25603202, 6.439086, 7.4859457, -0.012408465, -0.040222645, 9.877499
771509417718967, 0.3481557, 6.4701924, 7.513463, 0.07705417, -0.026825905, 9.921192
771509427357300, 0.40079778, 6.5276203, 7.5086775, 0.1244092, 0.024535656, 9.956636
771509436995633, 0.33260235, 6.570691, 7.500303, 0.050809056, 0.056026936, 9.9766445
771509446633967, 0.25842485, 6.5635123, 7.5326056, -0.022646248, 0.02133274, 9.994281
771509456272196, 0.20219351, 6.526424, 7.470392, -0.07700363, 0.024366856, 9.921458
771509465910529, 0.20219351, 6.4821568, 7.416554, -0.075347126, 0.026199818, 9.85181
771509475548863, 0.2644069, 6.4402823, 7.350751, -0.011558831, 0.04244709, 9.776441
771509485187092, 0.29790643, 6.4343, 7.2993054, 0.020347267, 0.07383633, 9.734627
771509494825425, 0.3361916, 6.448657, 7.3028946, 0.056387454, 0.08590031, 9.747816
771509504463758, 0.34217364, 6.471389, 7.3495545, 0.06133446, 0.07290506, 9.798104
771509514102092, 0.30029923, 6.509674, 7.456035, 0.020462066, 0.02839899, 9.902387
771509523740425, 0.2656033, 6.5347986, 7.548159, -0.012516767, -0.014965534, 9.987417
771509533378654, 0.2428715, 6.5491557, 7.6019974, -0.034088224, -0.03994894, 10.036835
771509543016988, 0.25962126, 6.533602, 7.648658, -0.01413852, -0.07880592, 10.062351
771509552655321, 0.29072794, 6.503692, 7.62114, 0.018677592, -0.078885555, 10.0228615
771509562293550, 0.31226337, 6.465407, 7.570891, 0.041733682, -0.072246075, 9.960442
771509571931883, 0.3481557, 6.474978, 7.487142, 0.071632385, -0.0068302155, 9.904478
