timestamp_acc,device_acc_x,device_acc_y,device_acc_z,earth_acc_x,earth_acc_y,earth_acc_z
771667952985461, 6.7178497, 0.08255238, 7.554141, -0.056591272, -0.018839836, 10.109293
771667962624732, 6.7094746, 0.08853444, 7.4656067, -0.06878793, 0.03334093, 10.037645
771667972264003, 6.710671, 0.1052842, 7.396215, -0.08687079, 0.0791378, 9.98671
771667981903274, 6.6915283, 0.096909314, 7.4883385, -0.06807071, 0.0031385422, 10.042734
771667991542545, 6.707082, 0.051445685, 7.5637126, -0.018168688, -0.029743195, 10.10921
771668001181920, 6.7094746, 0.025124637, 7.5756764, 0.009055316, -0.03305149, 10.119653
771668010821191, 6.6963143, -0.03589234, 7.5314093, 0.0670231, -0.0054540634, 10.077675
771668020460461, 6.6388865, -0.050249275, 7.48116, 0.080669284, -0.012514591, 10.001922
771668030099732, 6.629315, -0.031106694, 7.489535, 0.06293556, -0.027498245, 10.00186
771668039739003, 6.6687965, -0.021535404, 7.4847493, 0.0486691, 0.0044779778, 10.02459
771668049378274, 6.6771717, 0.021535404, 7.489535, 0.004943013, 0.0039982796, 10.033853
771668059017545, 6.658029, 0.06580263, 7.5050883, -0.036201417, -0.025565147, 10.032849
771668068656816, 6.6831536, 0.09930214, 7.493124, -0.06922054, 1.8548965E-4, 10.040743
771668078296086, 6.695118, 0.0849452, 7.469196, -0.05757618, 0.026556492, 10.0307865
771668087935357, 6.695118, 0.047856454, 7.4644103, -0.016035914, 0.034335613, 10.027107
771668097574628, 6.7130637, 0.039481573, 7.4907312, -0.0060899258, 0.030822754, 10.05867
771668107213899, 6.7118673, 0.02751746, 7.521838, 0.008678496, 0.010754585, 10.08106
771668116853170, 6.7034926, 0.008374879, 7.5529447, 0.030604899, -0.0140247345, 10.09865
771668126492441, 6.708278, -0.0023928226, 7.5266237, 0.038946927, 0.010497093, 10.082134
771668136131711, 6.6855464, -0.014356935, 7.452446, 0.046512544, 0.044592857, 10.011571
771668145770982, 6.6532435, 0.02871387, 7.448857, 0.005121112, 0.01731348, 9.987574
771668155410253, 6.6628146, 0.032303106, 7.5086775, 0.005743563, -0.016201496, 10.0386305
771668165049628, 6.680761, 0.0526421, 7.519445, -0.015161216, -0.012632847, 10.05868
771668174688899, 6.687939, 0.06580263, 7.487142, -0.031320512, 0.012779236, 10.039374
771668184328170, 6.695118, 0.08973085, 7.450053, -0.05800253, 0.040085316, 10.016536
771668193967441, 6.6963143, 0.08015956, 7.496713, -0.04192525, 0.011088371, 10.052157
771668203606711, 6.686743, 0.07178468, 7.5409803, -0.027885795, -0.02385664, 10.078825
771668213245982, 6.6819572, 0.047856454, 7.5266237, -0.0042194724, -0.013739586, 10.064825
771668222885253, 6.6676, 0.019142581, 7.5230346, 0.025362194, -0.017419815, 10.052481
771668232524524, 6.6556363, 0.022731815, 7.5254273, 0.022436857, -0.027857304, 10.046331
771668242163795, 6.6676, 0.040677983, 7.5469627, 0.0054160953, -0.035268307, 10.070448
771668251803066, 6.6556363, 0.03708875, 7.5314093, 0.008428037, -0.03233862, 10.050863
771668261442336, 6.652047, 0.050249275, 7.4847493, -0.008476138, -0.0055627823, 10.013674
771668271081607, 6.6687965, 0.040677983, 7.513463, 0.0017012358, -0.011236191, 10.046217
771668280720878, 6.707082, 0.05623133, 7.5314093, -0.015601695, 0.0034251213, 10.085136
771668290360253, 6.71426, 0.04426722, 7.509874, -0.006760955, 0.024169922, 10.073769
771668299999524, 6.6963143, 0.029910283, 7.472785, 0.0063348413, 0.036502838, 10.034075
771668309638795, 6.686743, 0.038285162, 7.457232, -0.002135992, 0.0379982, 10.01613
771668319278066, 6.6963143, 0.051445685, 7.4416785, -0.017371595, 0.05323744, 10.010929
771668328917336, 6.6963143, 0.061016977, 7.4787674, -0.023663402, 0.026182652, 10.038679
771668338556607, 6.710671, 0.05623133, 7.4919276, -0.019098282, 0.028677464, 10.058035
771668348195878, 6.6759753, 0.062213387, 7.4739814, -0.022378266, 0.013734341, 10.021587
771668357835149, 6.6771717, 0.04546363, 7.4787674, -0.004677236, 0.013747215, 10.025888
771668367474420, 6.680761, 0.05623133, 7.4823565, -0.015038133, 0.012999058, 10.031001
771668377113691, 6.6771717, 0.046660043, 7.487142, -0.004819095, 0.008266449, 10.032148
771668386752961, 6.649654, 0.032303106, 7.5254273, 0.0143633485, -0.036324978, 10.042385
771668396392232, 6.6771717, 0.025124637, 7.568498, 0.02167356, -0.043322086, 10.092823
771668406031503, 6.7058854, 0.047856454, 7.548159, -0.005706489, -0.010717392, 10.096819
771668415670774, 6.678368, 0.061016977, 7.521838, -0.018866122, -0.015356541, 10.058916
771668425310045, 6.6556363, 0.02632105, 7.4416785, 0.0117741525, 0.0242486, 9.9837885
771668434949420, 6.6628146, 0.040677983, 7.4512496, -0.0022274554, 0.021766663, 9.9957695
771668444588691, 6.704689, 0.03708875, 7.4943204, 4.3475628E-4, 0.024095058, 10.055769
771668454227961, 6.687939, 0.050249275, 7.48116, -0.012629032, 0.018586636, 10.034855
771668463867232, 6.678368, 0.021535404, 7.4536424, 0.01461339, 0.032785892, 10.007826
771668473506503, 6.6771717, 0.033499517, 7.4823565, 0.005428374, 0.011669159, 10.028521
771668483145774, 6.719046, 0.05623133, 7.4859457, -0.02043736, 0.037748337, 10.059139
771668492785045, 6.7118673, 0.0526421, 7.507481, -0.014710009, 0.018889904, 10.070434
771668502424316, 6.643672, 0.043070808, 7.5110703, 0.0019789934, -0.033936024, 10.027726
771668512063586, 6.6221366, 0.03708875, 7.54457, 0.014019012, -0.07099676, 10.038395
771668521702857, 6.690332, 0.05503492, 7.5290165, -0.012391388, -0.010845184, 10.072208
771668531342128, 6.7034926, 0.058624156, 7.499106, -0.019921005, 0.018724918, 10.058631
771668540981399, 6.6759753, 0.041874398, 7.460821, -0.004479289, 0.025903225, 10.011671
771668550620670, 6.6556363, 0.043070808, 7.448857, -0.00402385, 0.018089294, 9.989219
771668560259941, 6.680761, 0.029910283, 7.489535, 0.01022768, 0.011028767, 10.036253
771668569899316, 6.7334027, 0.0526421, 7.4979095, -0.0172925, 0.041330338, 10.077604
771668579538586, 6.7022963, 0.03708875, 7.4919276, 5.454421E-4, 0.024346828, 10.05239
771668589177857, 6.6448684, 0.031106694, 7.459625, 0.009932518, 0.002158165, 9.990051
771668598817128, 6.640083, 0.04426722, 7.483553, -4.054308E-4, -0.019955158, 10.004789
771668608456399, 6.666404, 0.032303106, 7.537391, 0.013170302, -0.034564495, 10.0624485
771668618095670, 6.727421, 0.0634098, 7.5696945, -0.020786881, -0.01347065, 10.127283
771668627734941, 6.7573314, 0.10289137, 7.5553374, -0.064261794, 0.014725685, 10.136612
771668637374211, 6.6556363, 0.025124637, 7.4979095, 0.017217755, -0.01364851, 10.025782
771668647013482, 6.599405, -0.013160525, 7.450053, 0.056526244, -0.022056103, 9.952483
771668656652753, 6.641279, 0.010767702, 7.456035, 0.029602647, 0.0021500587, 9.984903
771668666292024, 6.6831536, 0.019142581, 7.5469627, 0.023040295, -0.028092861, 10.080687
771668675931295, 6.7166533, 0.02632105, 7.537391, 0.010274231, 0.0025372505, 10.095854
771668685570566, 6.7118673, 0.07178468, 7.489535, -0.039604723, 0.025790215, 10.057098
771668695209836, 6.652047, 0.051445685, 7.4069824, -0.019136608, 0.036955357, 9.955603
771668704849107, 6.623333, 0.0526421, 7.408179, -0.017508864, 0.014743805, 9.937398
771668714488378, 6.6676, 0.07058827, 7.48116, -0.032500446, -0.0049962997, 10.021406
771668724127649, 6.7381887, 0.08015956, 7.530213, -0.04462427, 0.013282776, 10.105025
771668733767024, 6.7525454, 0.0634098, 7.5409803, -0.028292298, 0.019984722, 10.122553
771668743406295, 6.73101, 0.049052864, 7.472785, -0.016095221, 0.052486897, 10.057257
771668753045566, 6.6891356, 0.047856454, 7.4344997, -0.014231324, 0.045032978, 10.00082
771668762684836, 6.6448684, -0.0011964113, 7.4679995, 0.04168719, -0.0037117004, 9.996177
771668772324107, 6.6592255, -0.020338992, 7.4919276, 0.06154704, -0.008928299, 10.023512
771668781963378, 6.669993, 0.025124637, 7.4859457, 0.012095094, -1.2874603E-4, 10.0264
771668791602649, 6.6915283, 0.021535404, 7.5110703, 0.015854478, -4.0626526E-4, 10.059469
771668801241920, 6.6963143, 0.061016977, 7.48116, -0.027122438, 0.019579887, 10.040467
771668810881191, 6.649654, 0.049052864, 7.5062847, -0.008168459, -0.031040192, 10.028139
771668820520461, 6.6221366, 0.04546363, 7.500303, -0.0025888681, -0.04704523, 10.005352
771668830159732, 6.6568327, 0.038285162, 7.5349984, 0.004085481, -0.04394579, 10.05431
771668839799003, 6.7034926, 0.03708875, 7.550552, 0.002444923, -0.019478798, 10.096962
771668849438274, 6.73101, 0.02871387, 7.509874, 0.004074037, 0.029172897, 10.084872
771668859077545, 6.678368, 0.04546363, 7.420143, -0.015734732, 0.046603203, 9.9829235
771668868716816, 6.629315, 0.041874398, 7.426125, -0.0069392323, 0.005013466, 9.954739
771668878356086, 6.661618, 0.039481573, 7.489535, -0.0023973584, -0.01296854, 10.023556
771668887995357, 6.6891356, 0.06819545, 7.533802, -0.029821932, -0.024959087, 10.075011
771668897634628, 6.6963143, 0.059820566, 7.496713, -0.02376628, 0.0064353943, 10.052078
771668907273899, 6.661618, 0.049052864, 7.4859457, -0.01018244, -0.011657715, 10.020913
771668916913170, 6.641279, 0.041874398, 7.5529447, 0.0037400126, -0.070197105, 10.057356
771668926552545, 6.6927247, 0.05503492, 7.5553374, -0.0131828785, -0.03560829, 10.093428
771668936191816, 6.71426, 0.06580263, 7.537391, -0.026187003, -0.008468628, 10.094412
771668945831086, 6.6592255, 0.02632105, 7.4512496, 0.010842025, 0.012060642, 9.99334
771668955470357, 6.6819572, 0.025124637, 7.389036, 0.006326735, 0.06939793, 9.962036
771668965109628, 6.704689, 0.009571291, 7.4177504, 0.021902025, 0.06777859, 9.998545
771668974748899, 6.7118673, 0.033499517, 7.4739814, 0.0010147691, 0.03002119, 10.045387
771668984388170, 6.7226353, 0.033499517, 7.483553, 8.920431E-4, 0.031676292, 10.059698
771668994027441, 6.6939216, -0.0741775, 7.4416785, 0.107589215, 0.050033092, 10.008926
771669003666711, 6.74776, 0.21655045, 7.500303, -0.18252891, 0.01652813, 10.089603
771669013305982, 6.6711893, -0.01794617, 7.4392858, 0.051902115, 0.027945995, 9.992227
771669022945253, 6.727421, -0.12562318, 7.4823565, 0.15943664, 0.05235672, 10.061386
771669032584524, 6.7585278, 0.4211368, 7.457232, -0.3912626, 0.0244236, 10.065371
771669042223795, 6.6652074, -0.48215377, 7.448857, 0.5124189, 0.07393551, 9.993743
771669051863066, 6.836294, 0.70947194, 7.5146594, -0.68133605, 0.0048236847, 10.160912
771669061502336, 6.556334, -0.66400826, 7.344769, 0.69213825, 0.084881306, 9.843059
771669071141607, 6.7812595, 0.6843473, 7.5613194, -0.6352566, -0.066250324, 10.159697
771669080780878, 6.5778694, -0.45942193, 7.420143, 0.49342924, 0.02052021, 9.914336
771669090420149, 6.7585278, 0.37806597, 7.587641, -0.33746892, -0.0567832, 10.162471
771669100059420, 6.6185474, -0.050249275, 7.428518, 0.086627066, -0.002216816, 9.949022
771669109698691, 6.6484575, -0.104087785, 7.4476604, 0.14451987, 0.015462875, 9.982954
771669119337961, 6.686743, 0.38404804, 7.466803, -0.34485203, -0.030914783, 10.024635
771669128977232, 6.6221366, -0.5192425, 7.487142, 0.55883145, 0.023156166, 9.993337
771669138616503, 6.823134, 0.66759753, 7.5792656, -0.62274885, -0.037662506, 10.200827
771669148255774, 6.600601, -0.6759724, 7.4356966, 0.71807146, 0.056766987, 9.939598
771669157895045, 6.792027, 0.6999006, 7.598408, -0.6636147, -0.078197, 10.193665
771669167534316, 6.576673, -0.4989035, 7.375876, 0.5367093, 0.05667448, 9.87997
771669177173586, 6.7645097, 0.43669012, 7.503892, -0.39754152, -0.004942417, 10.104435
771669186812857, 6.6149583, -0.059820566, 7.351948, 0.087017536, 0.044388294, 9.889532
771669196452128, 6.704689, -0.0047856453, 7.4452677, 0.036637247, 0.043121815, 10.019068
771669206091399, 6.719046, 0.36251262, 7.487142, -0.3250571, -0.022206783, 10.061221
771669215730670, 6.62094, -0.47258246, 7.4656067, 0.51646537, 0.025209427, 9.9763775
771669225369941, 6.7968125, 0.67477596, 7.576873, -0.6283333, -0.05902195, 10.181488
771669235009211, 6.6041903, -0.6771688, 7.4356966, 0.7100443, 0.060250282, 9.942619
771669244648482, 6.814759, 0.6843473, 7.5756764, -0.6361235, -0.04790449, 10.192802
771669254287753, 6.6101727, -0.53359944, 7.4189467, 0.57463914, 0.060034275, 9.934088
771669263927024, 6.7812595, 0.45224348, 7.576873, -0.41444236, -0.050210476, 10.169794
771669273566295, 6.580262, -0.13878371, 7.4033933, 0.17461115, -0.0033097267, 9.904486
771669283205566, 6.680761, 0.009571291, 7.4787674, 0.030531108, 0.0014357567, 10.028145
771669292844836, 6.6963143, 0.31585258, 7.4380894, -0.28116328, 1.7642975E-5, 10.009323
771669302484107, 6.6257257, -0.41515473, 7.393822, 0.4512742, 0.07025528, 9.926359
771669312123378, 6.775277, 0.6376872, 7.499106, -0.60539514, -0.010804653, 10.108461
771669321762649, 6.602994, -0.67836523, 7.4309106, 0.71155113, 0.046103954, 9.938295
771669331401920, 6.849455, 0.7070791, 7.59123, -0.6740282, -0.02173376, 10.226778
771669341041191, 6.600601, -0.5706882, 7.3866434, 0.6011826, 0.05977106, 9.904096
771669350680461, 6.789634, 0.47377887, 7.530213, -0.4299364, 3.8814545E-4, 10.141148
771669360319732, 6.640083, -0.20458634, 7.408179, 0.23734063, 0.042217255, 9.947641
771669369959003, 6.734599, 0.08135597, 7.519445, -0.03902793, 0.006570339, 10.094648
771669379598274, 6.7226353, 0.27756742, 7.472785, -0.2404812, 0.0046391487, 10.052638
771669389237545, 6.678368, -0.3696911, 7.4177504, 0.40096185, 0.08733177, 9.979574
771669398876816, 6.768099, 0.62093747, 7.5122666, -0.5849279, -0.03583336, 10.113528
771669408516086, 6.535995, -0.66759753, 7.446464, 0.70876795, -2.2411346E-5, 9.90517
771669418155357, 6.7968125, 0.7046863, 7.600801, -0.665507, -0.079791546, 10.198832
771669427794628, 6.582655, -0.61016977, 7.359126, 0.6487138, 0.088795185, 9.8707485
771669437433899, 6.74776, 0.5288138, 7.536195, -0.49086404, -0.050945282, 10.117441
771669447073170, 6.579066, -0.21296121, 7.4249287, 0.2506792, -0.010011196, 9.91948
771669456712441, 6.708278, 0.13280165, 7.5230346, -0.091028094, -0.017446041, 10.079985
771669466351711, 6.6711893, 0.25004998, 7.4356966, -0.20973146, -0.0015625954, 9.990641
771669475990982, 6.631708, -0.317049, 7.4010005, 0.35385004, 0.059798717, 9.936102
771669485630253, 6.7609205, 0.6687939, 7.5230346, -0.62144095, -0.042139053, 10.117579
771669495269524, 6.5982084, -0.59342, 7.4775705, 0.635702, 0.02114296, 9.969855
771669504908795, 6.8243303, 0.7393822, 7.6259255, -0.6946396, -0.06882572, 10.236486
771669514548066, 6.562316, -0.6161518, 7.402197, 0.65589553, 0.040299416, 9.889606
771669524187336, 6.769295, 0.5276174, 7.55773, -0.4838009, -0.03896475, 10.148174
771669533826607, 6.587441, -0.35533416, 7.4105716, 0.40377387, 0.030179977, 9.913288
771669543465878, 6.7011, 0.1363909, 7.5661054, -0.080874324, -0.050483704, 10.107433
771669553105149, 6.687939, 0.14476576, 7.489535, -0.10127902, -0.009237766, 10.041528
771669562744420, 6.6364937, -0.33379877, 7.496713, 0.38279644, -0.0014591217, 10.010426
771669572383586, 6.71426, 0.573081, 7.501499, -0.525031, -0.03591299, 10.070017
771669582022857, 6.587441, -0.587438, 7.3926253, 0.6339006, 0.055303097, 9.898762
771669591662128, 6.8111696, 0.7932207, 7.5720873, -0.74258095, -0.045716286, 10.188436
771669601301399, 6.599405, -0.5623133, 7.3830543, 0.5948582, 0.07752228, 9.900402
771669610940670, 6.8039913, 0.62452674, 7.5409803, -0.5758155, -0.01026392, 10.1596775
771669620579941, 6.5742803, -0.31465617, 7.4033933, 0.3651148, 0.012910843, 9.899341
771669630219211, 6.6963143, 0.2009971, 7.521838, -0.14727432, -0.036128044, 10.0715475
771669639858482, 6.680761, 0.1160519, 7.440482, -0.07411963, 0.016710281, 10.000053
771669649497753, 6.704689, -0.24526432, 7.52782, 0.2912612, 0.021325588, 10.0794735
771669659137024, 6.7704916, 0.5192425, 7.5613194, -0.46897078, -0.047094822, 10.151875
771669668776295, 6.580262, -0.6161518, 7.408179, 0.66475207, 0.05005026, 9.905363
771669678415566, 6.798009, 0.715454, 7.542177, -0.6768917, -0.03267479, 10.1562805
771669688054836, 6.587441, -0.63888365, 7.372287, 0.6830408, 0.07875681, 9.883341
771669697694107, 6.8015985, 0.634098, 7.588837, -0.5812997, -0.0565567, 10.193781
771669707333378, 6.5838513, -0.3684947, 7.3842506, 0.40459216, 0.031620502, 9.89168
771669716972649, 6.734599, 0.26081768, 7.4476604, -0.2250917, 0.03215313, 10.041853
771669726611920, 6.6364937, 0.061016977, 7.428518, -0.01700741, -0.007432461, 9.9613905
771669736251191, 6.6963143, -0.2009971, 7.5146594, 0.24506083, 0.011852741, 10.064341
771669745890461, 6.7848487, 0.5072784, 7.507481, -0.4697137, -0.0017838478, 10.120926
771669755529732, 6.6125655, -0.5910272, 7.4177504, 0.6367003, 0.0601964, 9.934252
771669765168899, 6.8243303, 0.73459655, 7.542177, -0.687169, -0.024662971, 10.174613
771669774808170, 6.5778694, -0.6580262, 7.3746796, 0.69270873, 0.06373453, 9.87944
771669784447441, 6.8279195, 0.64606214, 7.5469627, -0.5978846, -0.011289597, 10.180223
771669794086711, 6.623333, -0.4127619, 7.3782687, 0.44543108, 0.06987572, 9.913347
771669803725982, 6.7573314, 0.33379877, 7.503892, -0.294613, -0.003941536, 10.099236
771669813365253, 6.6388865, 0.021535404, 7.4213395, 0.023365438, 4.0960312E-4, 9.95746
771669823004524, 6.660422, -0.16869399, 7.4979095, 0.2169419, -0.013988018, 10.028015
771669832643795, 6.739385, 0.45224348, 7.521838, -0.40858656, -0.036154747, 10.101171
771669842283066, 6.613762, -0.5288138, 7.450053, 0.57128394, 0.019691944, 9.959822
771669851922336, 6.769295, 0.7692925, 7.631908, -0.7211622, -0.11453915, 10.204313
771669861561607, 6.562316, -0.63888365, 7.479964, 0.68454474, -0.021613598, 9.94751
771669871200878, 6.8051877, 0.7070791, 7.5936227, -0.6635426, -0.055750847, 10.199522
771669880840149, 6.599405, -0.40677986, 7.408179, 0.4464569, 0.02751875, 9.919609
771669890479420, 6.778867, 0.38524446, 7.537391, -0.34306413, -0.004992008, 10.138836
771669900118691, 6.6448684, -0.02751746, 7.4010005, 0.07152665, 0.027972221, 9.946052
771669909757961, 6.690332, -0.1268196, 7.4344997, 0.16952789, 0.04957056, 10.000862
771669919397128, 6.719046, 0.40917268, 7.4177504, -0.3684014, 0.018324375, 10.009994
771669929036399, 6.6245294, -0.54675996, 7.409375, 0.58443356, 0.06548262, 9.936617
771669938675670, 6.782456, 0.6664011, 7.580462, -0.61272687, -0.07557106, 10.174875
771669948314941, 6.5551376, -0.6867401, 7.411768, 0.7376535, 0.039855003, 9.890906
771669957954211, 6.7764735, 0.65682983, 7.5732837, -0.61185277, -0.07807541, 10.164949
771669967593482, 6.5898337, -0.5180461, 7.3806615, 0.5644783, 0.060233116, 9.891725
771669977232753, 6.8051877, 0.37328035, 7.5864444, -0.32168943, -0.023694992, 10.193136
771669986872024, 6.6592255, -0.086141616, 7.48116, 0.12909418, -0.0072193146, 10.015175
771669996511295, 6.6831536, -0.039481573, 7.5469627, 0.09100473, -0.040293694, 10.08032
771670006150566, 6.68435, 0.38165522, 7.4823565, -0.33920747, -0.047259808, 10.034669
771670015789836, 6.62094, -0.46061835, 7.483553, 0.5029991, -0.002110958, 9.989973
771670025429107, 6.8243303, 0.72741807, 7.5756764, -0.6822424, -0.043236732, 10.1992235
771670035068378, 6.558727, -0.6149554, 7.37109, 0.65866685, 0.04590988, 9.863675
771670044707545, 6.754938, 0.71306115, 7.4847493, -0.6786152, -0.038989067, 10.084497
771670054346816, 6.5515485, -0.51206404, 7.359126, 0.55600363, 0.03581524, 9.850448
771670063986086, 6.789634, 0.46899325, 7.564909, -0.43109214, -0.03965187, 10.166589
771670073625357, 6.6831536, -0.10289137, 7.4536424, 0.14330894, 0.023410797, 10.010536
771670083264628, 6.759724, -0.02751746, 7.5182486, 0.06720281, 0.028164387, 10.110064
771670092903899, 6.73101, 0.33140594, 7.426125, -0.29707062, 0.025819778, 10.023707
771670102543170, 6.5958157, -0.46301118, 7.4333034, 0.5037528, 0.015973568, 9.935749
771670112182441, 6.769295, 0.6269195, 7.52782, -0.58928776, -0.04992771, 10.125942
771670121821711, 6.6245294, -0.69152576, 7.4356966, 0.7258543, 0.045479774, 9.956067
771670131460982, 6.8542404, 0.67118675, 7.5086775, -0.63207066, 0.026007652, 10.169128
771670141100253, 6.579066, -0.6017949, 7.3136625, 0.63762826, 0.081976414, 9.834766
771670150739420, 6.838687, 0.48454657, 7.536195, -0.45680606, 0.015105724, 10.177807
771670160378691, 6.6556363, -0.18544376, 7.399804, 0.22049236, 0.036943913, 9.951835
771670170017961, 6.6999035, 0.08733802, 7.524231, -0.044498086, -0.042518616, 10.075049
771670179657232, 6.74776, 0.3505485, 7.4033933, -0.32233584, 0.04666233, 10.017951
771670189296503, 6.65444, -0.4103691, 7.396215, 0.4408618, 0.065161705, 9.94763
771670198935774, 6.7968125, 0.62931234, 7.5122666, -0.59673655, -0.03480482, 10.132599
771670208575045, 6.6281185, -0.66161543, 7.446464, 0.69339, 0.05089426, 9.966753
771670218214316, 6.853044, 0.72263247, 7.5996046, -0.6895278, -0.06424427, 10.235274
771670227853586, 6.6101727, -0.6017949, 7.385447, 0.63859373, 0.068228245, 9.909033
771670237492857, 6.780063, 0.47856453, 7.519445, -0.447918, -0.03255129, 10.126137
771670247132128, 6.6089764, -0.24885355, 7.399804, 0.27907133, 0.012049675, 9.920664
771670256771295, 6.728617, 0.09451649, 7.48116, -0.059361756, 0.00412941, 10.062179
771670266410566, 6.6795645, 0.23090738, 7.436893, -0.19820207, -0.020299911, 9.99688
771670276049836, 6.6125655, -0.37567315, 7.452446, 0.4152477, -0.0019993782, 9.961611
771670285689107, 6.769295, 0.6149554, 7.5182486, -0.58331084, -0.049915314, 10.118442
771670295328378, 6.600601, -0.6376872, 7.4380894, 0.66844916, 0.02809, 9.942444
771670304967649, 6.8219376, 0.73818576, 7.623533, -0.70216334, -0.09296608, 10.232317
771670314606920, 6.602994, -0.60777694, 7.3974113, 0.63465285, 0.056004524, 9.913864
771670324246191, 6.789634, 0.55393845, 7.496713, -0.5144284, -0.009259224, 10.116421
771670333885461, 6.6053867, -0.28594232, 7.408179, 0.3177663, 0.017287254, 9.924351
771670343524732, 6.7525454, 0.12921242, 7.6127653, -0.08240217, -0.06169939, 10.176304
771670353164003, 6.721439, 0.19860429, 7.513463, -0.1618188, -0.02481556, 10.081792
771670362803274, 6.6460648, -0.30867413, 7.4476604, 0.3489256, 0.014178753, 9.980539
771670372442441, 6.734599, 0.58983076, 7.483553, -0.54866827, -0.037456036, 10.069948
771670382081711, 6.5635123, -0.6221339, 7.4356966, 0.66968155, 0.005572796, 9.915029
771670391720982, 6.786045, 0.74416786, 7.6199436, -0.70251167, -0.11117697, 10.205972
771670401360253, 6.5431733, -0.6029913, 7.4380894, 0.64147013, -0.011642456, 9.904055
771670410999524, 6.7812595, 0.59581286, 7.6127653, -0.54322904, -0.090565205, 10.197617
771670420638795, 6.593423, -0.30388847, 7.495517, 0.34651694, -0.042123318, 9.981306
771670430278066, 6.721439, 0.20458634, 7.5553374, -0.16035646, -0.05427456, 10.113064
771670439917336, 6.669993, 0.13758731, 7.4189467, -0.09994286, 0.007027626, 9.976896
771670449556607, 6.6819572, -0.31465617, 7.389036, 0.34501973, 0.094408035, 9.960797
771670459195878, 6.8039913, 0.55034924, 7.470392, -0.5216445, 0.022752285, 10.106002
771670468835149, 6.6281185, -0.6053841, 7.409375, 0.64486194, 0.072161674, 9.938623
771670478474316, 6.8015985, 0.74177504, 7.5457664, -0.7067785, -0.049788475, 10.161129
771670488113586, 6.5850477, -0.6161518, 7.342376, 0.6440647, 0.08031082, 9.860614
771670497752857, 6.855437, 0.6376872, 7.537391, -0.6067182, 0.004046917, 10.190575
771670507392128, 6.6424756, -0.3290131, 7.420143, 0.37212753, 0.03560686, 9.957385
771670517031399, 6.789634, 0.2416751, 7.5409803, -0.19734216, 0.0017380714, 10.148151
771670526670670, 6.674779, 0.06819545, 7.429714, -0.03000784, 0.007894516, 9.9878435
771670536309941, 6.674779, -0.25962126, 7.4787674, 0.30257863, 0.009463787, 10.022993
771670545949211, 6.782456, 0.49651068, 7.542177, -0.45281386, -0.032734394, 10.145272
771670555588482, 6.647261, -0.58624154, 7.426125, 0.6272397, 0.056735516, 9.963957
771670565227753, 6.8039913, 0.7046863, 7.560123, -0.65875065, -0.048768997, 10.173986
771670574867024, 6.5611196, -0.6580262, 7.37109, 0.6900506, 0.028303146, 9.865967
771670584506295, 6.829116, 0.68075806, 7.5433736, -0.6392909, -0.0047273636, 10.178114
771670594145566, 6.619744, -0.35533416, 7.3974113, 0.39485192, 0.022496223, 9.92535
771670603784732, 6.741778, 0.32303107, 7.530213, -0.2799167, -0.03827429, 10.108423
771670613424003, 6.652047, 0.05742774, 7.3806615, -0.025465876, 0.021734238, 9.9361
771670623063274, 6.7022963, -0.20219351, 7.426125, 0.2365818, 0.056373596, 10.002493
771670632702545, 6.768099, 0.4438686, 7.499106, -0.40884912, -0.008295059, 10.103145
771670642341816, 6.643672, -0.59342, 7.4775705, 0.63075626, 0.015890121, 10.000324
771670651981086, 6.814759, 0.6939186, 7.5673018, -0.6486994, -0.041574955, 10.1864605
771670661620357, 6.5551376, -0.68075806, 7.4416785, 0.7184243, -1.859665E-5, 9.91442
771670671259628, 6.7836523, 0.6759724, 7.5864444, -0.6377825, -0.08228159, 10.179169
771670680898899, 6.5515485, -0.41515473, 7.393822, 0.45051768, -0.011769295, 9.877279
771670690538170, 6.734599, 0.35653058, 7.5661054, -0.3144809, -0.06796789, 10.13037
771670700177441, 6.658029, 0.008374879, 7.460821, 0.029452562, -0.015625, 9.999608
771670709816711, 6.7130637, -0.15194423, 7.5110703, 0.19268066, 0.011376858, 10.073094
771670719455878, 6.7669024, 0.4031906, 7.52782, -0.36182016, -0.024122238, 10.123741
771670729095149, 6.6687965, -0.5407779, 7.4392858, 0.5726225, 0.07572031, 9.988725
771670738734420, 6.802795, 0.6963114, 7.515856, -0.6539608, -0.023890018, 10.140154
771670748373691, 6.5479593, -0.6795616, 7.355537, 0.7221841, 0.053864956, 9.844647
771670758012961, 6.798009, 0.7046863, 7.611569, -0.6516808, -0.100394726, 10.2083645
771670767652232, 6.606583, -0.46779683, 7.4656067, 0.51419306, -0.0017881393, 9.966778
771670777291503, 6.782456, 0.38883367, 7.594819, -0.3488065, -0.055971146, 10.18378
771670786930774, 6.629315, -0.046660043, 7.4356966, 0.08395648, -0.013640404, 9.961544
771670796570045, 6.6628146, -0.07298109, 7.4440713, 0.11359638, 0.009747028, 9.989975
771670806209316, 6.6939216, 0.39720857, 7.4536424, -0.3584985, -0.0315547, 10.019663
771670815848586, 6.619744, -0.52163535, 7.4644103, 0.5672246, 0.0069417953, 9.974403
771670825487857, 6.8303123, 0.6831509, 7.6462646, -0.6331553, -0.08401728, 10.255598
771670835127128, 6.5814586, -0.6831509, 7.4584284, 0.7203773, 3.4093857E-4, 9.944422
771670844766399, 6.7633133, 0.6903293, 7.5409803, -0.6419274, -0.063530445, 10.132584
771670854405670, 6.5694947, -0.5180461, 7.335198, 0.54697305, 0.05777979, 9.845264
771670864044836, 6.8315086, 0.44147578, 7.513463, -0.4140361, 0.029402256, 10.155996
771670873684107, 6.7022963, -0.076570325, 7.4392858, 0.1049974, 0.040483475, 10.01284
771670883323378, 6.7609205, -0.0011964113, 7.5457664, 0.03936708, 0.0030770302, 10.131489
771670892962649, 6.7262244, 0.32542387, 7.4476604, -0.29174507, 0.004775524, 10.036459
771670902601920, 6.6053867, -0.45942193, 7.405786, 0.49817678, 0.039952755, 9.921597
771670912241191, 6.7669024, 0.64845496, 7.556534, -0.61163735, -0.081626415, 10.145536
771670921880461, 6.573084, -0.6975078, 7.4189467, 0.73009425, 0.027130604, 9.909538
771670931519732, 6.8015985, 0.71665037, 7.5625157, -0.6724362, -0.06027031, 10.174044
771670941159003, 6.611369, -0.552742, 7.373483, 0.5773, 0.06276989, 9.901855
771670950798274, 6.832705, 0.46779683, 7.5553374, -0.43837324, 0.00756979, 10.188013
771670960437545, 6.6652074, -0.16630118, 7.4237323, 0.20351487, 0.025989056, 9.976091
771670970076816, 6.725028, 0.022731815, 7.4823565, 0.015202761, 0.013189793, 10.060408
771670979716086, 6.73101, 0.28713873, 7.4452677, -0.25256863, 0.01943779, 10.037768
771670989355357, 6.6963143, -0.45822555, 7.48116, 0.49385914, 0.03967619, 10.0385685
771670998994628, 6.8315086, 0.6376872, 7.6067834, -0.5926337, -0.049804688, 10.226711
771671008633899, 6.599405, -0.6723832, 7.428518, 0.7164322, 0.026798725, 9.933435
771671018273170, 6.8135624, 0.7190432, 7.5589266, -0.67441076, -0.03606844, 10.179533
771671027912441, 6.539584, -0.6017949, 7.4010005, 0.64639187, -0.008400917, 9.873462
771671037551711, 6.759724, 0.4761717, 7.615158, -0.42668813, -0.09387207, 10.18432
771671047190878, 6.623333, -0.21894327, 7.4033933, 0.25614762, 0.01907587, 9.93281
771671056830149, 6.6963143, 0.046660043, 7.4512496, -0.010168254, 0.014113426, 10.018163
771671066469420, 6.7011, 0.2536392, 7.4356966, -0.22102052, 0.00562191, 10.010484
771671076108691, 6.6711893, -0.37088752, 7.4847493, 0.41044226, 0.020149231, 10.024715
771671085747961, 6.771688, 0.6472585, 7.5673018, -0.6103398, -0.067196846, 10.156857
771671095387232, 6.562316, -0.6305088, 7.4536424, 0.6794082, -0.009189606, 9.927569
771671105026503, 6.8195443, 0.7501499, 7.635497, -0.6987835, -0.09654188, 10.240708
771671114665774, 6.600601, -0.5982057, 7.4476604, 0.6328885, 0.02033043, 9.949496
771671124305045, 6.775277, 0.52163535, 7.59123, -0.4792289, -0.07000923, 10.17687
771671133944316, 6.5898337, -0.25244278, 7.4105716, 0.29907507, 0.0036110878, 9.915482
771671143583586, 6.7501526, 0.13040884, 7.560123, -0.08244991, -0.02124834, 10.13557
771671153222857, 6.7441707, 0.23449662, 7.507481, -0.19372648, -4.3916702E-4, 10.092749
771671162862128, 6.6556363, -0.3278167, 7.475178, 0.37065494, 0.018062115, 10.007276
771671172501399, 6.71426, 0.5922236, 7.521838, -0.53995806, -0.07869196, 10.085254
771671182140670, 6.5647087, -0.62093747, 7.442875, 0.6727477, 8.7451935E-4, 9.920926
771671191779941, 6.8075805, 0.75254273, 7.6163545, -0.710959, -0.076328754, 10.217978
771671201419211, 6.5539412, -0.58265233, 7.420143, 0.634002, 0.0023937225, 9.896978
771671211058482, 6.7836523, 0.57188463, 7.5553374, -0.5316843, -0.034985065, 10.155993
771671220697753, 6.5982084, -0.27756742, 7.4033933, 0.32495448, 0.008574009, 9.915543
771671230337024, 6.7381887, 0.19740787, 7.5661054, -0.15109187, -0.039628983, 10.132311
771671239976295, 6.7022963, 0.16869399, 7.4620175, -0.12717652, 0.0051903725, 10.03069
771671249615566, 6.695118, -0.30269206, 7.4536424, 0.34687692, 0.054757595, 10.017469
771671259254836, 6.789634, 0.567099, 7.5146594, -0.52667403, -0.014204025, 10.12982
771671268894107, 6.640083, -0.60777694, 7.442875, 0.6558368, 0.061481953, 9.971087
771671278533378, 6.8709903, 0.7393822, 7.611569, -0.6986363, -0.040003777, 10.256876
771671288172649, 6.6053867, -0.6257231, 7.3375907, 0.6580736, 0.0994277, 9.870155
771671297811920, 6.806384, 0.613759, 7.509874, -0.57568026, -0.013727665, 10.137564
771671307451191, 6.617351, -0.33140594, 7.3746796, 0.36745897, 0.054392815, 9.906921
771671317090461, 6.769295, 0.23928227, 7.517052, -0.1968463, -2.8133392E-5, 10.116716
771671326729732, 6.68435, 0.12083755, 7.459625, -0.07668054, -0.009316921, 10.016745
771671336369003, 6.698707, -0.25244278, 7.466803, 0.29615352, 0.04242277, 10.029959
771671346008274, 6.7740808, 0.5300102, 7.5146594, -0.48521048, -0.02606678, 10.119442
771671355647545, 6.6089764, -0.613759, 7.4333034, 0.6664535, 0.047040462, 9.942984
771671365286816, 6.8339014, 0.74416786, 7.623533, -0.69581306, -0.08411503, 10.241241
771671374926086, 6.5982084, -0.6113662, 7.4189467, 0.6531725, 0.038605213, 9.925864
771671384565357, 6.79442, 0.6269195, 7.556534, -0.5705405, -0.047299385, 10.165167
771671394204628, 6.5958157, -0.39601216, 7.373483, 0.44594198, 0.045263767, 9.890852
771671403843899, 6.7381887, 0.2883351, 7.5086775, -0.23484921, -0.014718533, 10.090153
771671413483170, 6.652047, 0.05742774, 7.405786, -0.009360671, 0.01434803, 9.954819
771671423122441, 6.71426, -0.18544376, 7.4452677, 0.23184586, 0.058171272, 10.024498
771671432761711, 6.7812595, 0.5084748, 7.5589266, -0.4555419, -0.036144733, 10.157391
771671442400982, 6.626922, -0.5706882, 7.4919276, 0.6292411, -0.0028567314, 9.998739
771671452040253, 6.815955, 0.7262217, 7.5720873, -0.6799511, -0.026917458, 10.19108
771671461679524, 6.5635123, -0.6221339, 7.393822, 0.67856526, 0.026609898, 9.883024
771671471318795, 6.836294, 0.6891329, 7.6426754, -0.640677, -0.06269646, 10.256993
771671480958066, 6.6101727, -0.36011982, 7.466803, 0.40753728, -0.014966488, 9.970502
771671490597336, 6.7130637, 0.3792624, 7.5625157, -0.31940824, -0.070911884, 10.114033
771671500236607, 6.552745, 0.02632105, 7.4141607, 0.03089565, -0.05775118, 9.894677
771671509875878, 6.6364937, -0.13758731, 7.5026956, 0.19429833, -0.03777647, 10.015652
771671519515149, 6.7669024, 0.46181476, 7.576873, -0.40707582, -0.049135208, 10.160959
771671529154420, 6.669993, -0.56111693, 7.4859457, 0.613242, 0.0496974, 10.023199
771671538793691, 6.8410797, 0.6652047, 7.5900335, -0.6110419, -0.025530338, 10.221421
771671548432961, 6.599405, -0.6975078, 7.3830543, 0.7459548, 0.080832005, 9.8987465
771671558072232, 6.814759, 0.6735796, 7.5673018, -0.63163185, -0.04333496, 10.186161
771671567711503, 6.59103, -0.45822555, 7.38784, 0.49671322, 0.042796135, 9.898651
771671577350774, 6.7585278, 0.3900301, 7.568498, -0.3422417, -0.059210777, 10.148466
771671586990045, 6.669993, 0.014356935, 7.428518, 0.030969918, 0.017816067, 9.983518
771671596629316, 6.698707, -0.083748795, 7.475178, 0.12976879, 0.020693779, 10.036967
771671606268586, 6.7166533, 0.43669012, 7.517052, -0.38351595, -0.06549597, 10.082601
771671615907857, 6.6424756, -0.5084748, 7.4620175, 0.5528803, 0.038783073, 9.98777
771671625547128, 6.8111696, 0.6795616, 7.5720873, -0.624586, -0.05517578, 10.188091
771671635186399, 6.611369, -0.6735796, 7.4141607, 0.7242256, 0.06256056, 9.930019
771671644825670, 6.835098, 0.6771688, 7.5613194, -0.635865, -0.029325485, 10.195366
771671654464941, 6.6149583, -0.5168497, 7.381858, 0.55476195, 0.058933258, 9.909864
771671664104211, 6.815955, 0.42831525, 7.5493555, -0.3774864, -0.004321575, 10.17305
771671673743482, 6.6735826, -0.05503492, 7.4644103, 0.10352486, -0.0016126633, 10.012315
771671683382857, 6.6999035, -0.050249275, 7.489535, 0.09864268, -2.5844574E-4, 10.048614
771671693022128, 6.698707, 0.37088752, 7.448857, -0.32722998, -0.016990662, 10.019399
771671702661399, 6.6388865, -0.44985065, 7.4129643, 0.49049696, 0.051561356, 9.94917
771671712300670, 6.802795, 0.7046863, 7.5433736, -0.65490836, -0.032192707, 10.16106
771671721939941, 6.606583, -0.64965135, 7.4177504, 0.68944395, 0.033771515, 9.930535
771671731579211, 6.8255267, 0.73459655, 7.5314093, -0.6944534, -0.0131464, 10.166964
771671741218482, 6.59103, -0.4953143, 7.3543406, 0.5342413, 0.050049305, 9.87347
771671750857753, 6.8075805, 0.4881358, 7.6163545, -0.43684983, -0.051672935, 10.217475
771671760497024, 6.6855464, -0.11485548, 7.4787674, 0.16232803, 0.0077233315, 10.030718
771671770136295, 6.710671, 0.014356935, 7.530213, 0.043855816, -0.018174171, 10.086386
771671779775566, 6.6927247, 0.31226337, 7.4775705, -0.25677127, -0.019172668, 10.036823
771671789414836, 6.6352973, -0.4438686, 7.487142, 0.5055052, 0.0054273605, 10.001296
771671799054107, 6.7740808, 0.64008003, 7.6426754, -0.58074605, -0.10182476, 10.21571
771671808693378, 6.570691, -0.69152576, 7.4476604, 0.74506, 0.0063962936, 9.927975
771671818332649, 6.8051877, 0.72023964, 7.5625157, -0.6692205, -0.039185524, 10.1770115
771671827972024, 6.559923, -0.5383851, 7.331609, 0.5945299, 0.07497835, 9.834421
771671837611295, 6.799206, 0.53240305, 7.5469627, -0.4712246, -0.013805866, 10.161055
771671847250566, 6.634101, -0.13878371, 7.446464, 0.1922116, 0.008015156, 9.97213
771671856889836, 6.7429743, 0.1160519, 7.564909, -0.05375427, -0.016021729, 10.13439
771671866529107, 6.7022963, 0.2955136, 7.5026956, -0.23376268, -0.025194168, 10.061972
771671876168378, 6.631708, -0.4127619, 7.4344997, 0.47653133, 0.049779892, 9.959527
771671885807649, 6.79442, 0.6436693, 7.611569, -0.5723364, -0.062045097, 10.207008
771671895446920, 6.5850477, -0.6197411, 7.489535, 0.69140476, 6.7949295E-4, 9.96805
771671905086191, 6.7764735, 0.7190432, 7.645068, -0.64302677, -0.0995965, 10.220631
771671914725461, 6.556334, -0.59700924, 7.446464, 0.6559392, -0.0034446716, 9.917736
771671924364732, 6.775277, 0.5288138, 7.6223364, -0.45790032, -0.061193466, 10.2015
771671934004003, 6.599405, -0.23928227, 7.436893, 0.29426375, 5.8603287E-4, 9.941338
771671943643378, 6.745367, 0.12801601, 7.5385876, -0.07645583, 0.001645565, 10.116364
771671953282649, 6.7381887, 0.25004998, 7.469196, -0.202147, 0.030768394, 10.060457
771671962921920, 6.727421, -0.3290131, 7.436893, 0.36938316, 0.10056496, 10.026328
771671972561191, 6.8374906, 0.52522457, 7.520642, -0.48859578, 0.03336525, 10.165989
771671982200461, 6.7094746, -0.09571291, 7.409375, 0.14030862, 0.07157993, 9.99501
771671991839732, 6.658029, 0.11006984, 7.3830543, -0.06513035, 0.03443432, 9.942108
771672001479003, 6.658029, 0.07178468, 7.429714, -0.02403742, 0.0067195892, 9.976699
771672011118274, 6.593423, 0.09930214, 7.4943204, -0.03837645, -0.08448887, 9.981949
771672020757545, 6.647261, 0.104087785, 7.5517483, -0.038875163, -0.07959747, 10.060715
771672030396920, 6.669993, 0.12083755, 7.5756764, -0.04701209, -0.07068062, 10.093911
771672040036191, 6.6795645, 0.11485548, 7.647461, -0.032531857, -0.10712147, 10.153861
771672049675461, 6.680761, 0.08733802, 7.628319, -0.0072390437, -0.09029293, 10.14018
771672059314732, 6.6771717, 0.07298109, 7.578069, 0.006772697, -0.055128098, 10.100199
771672068954003, 6.623333, 0.014356935, 7.5314093, 0.065586686, -0.055179596, 10.029134
771672078593274, 6.6161547, -0.022731815, 7.55773, 0.103407204, -0.075510025, 10.043751
771672088232545, 6.649654, -0.022731815, 7.5661054, 0.100691855, -0.056990623, 10.0722885
771672097871816, 6.6556363, -0.05623133, 7.5529447, 0.12802407, -0.041755676, 10.066256
771672107511191, 6.666404, -0.086141616, 7.463214, 0.1496107, 0.028909683, 10.006233
771672117150461, 6.727421, -0.076570325, 7.4644103, 0.12997818, 0.065645695, 10.047898
771672126789732, 6.7764735, -0.046660043, 7.487142, 0.093604505, 0.07970333, 10.097771
771672136429003, 6.799206, -0.021535404, 7.4775705, 0.06311375, 0.09363842, 10.105986
771672146068274, 6.8171515, 0.010767702, 7.408179, 0.024154961, 0.14926147, 10.066376
771672155707545, 6.8171515, 0.09212367, 7.3974113, -0.06290889, 0.13502216, 10.058904
771672165346816, 6.768099, 0.11964113, 7.351948, -0.09008354, 0.121730804, 9.992481
771672174986086, 6.7322063, 0.19381863, 7.32443, -0.16349381, 0.104397774, 9.948357
771672184625461, 6.6891356, 0.20817557, 7.3842506, -0.1662749, 0.028064728, 9.964266
771672194264732, 6.6460648, 0.17706887, 7.495517, -0.12200838, -0.07360315, 10.018183
771672203904003, 6.652047, 0.18185452, 7.5828547, -0.11322874, -0.12220526, 10.087355
771672213543274, 6.652047, 0.13519448, 7.594819, -0.06366831, -0.11795282, 10.096104
771672223182545, 6.661618, 0.101694964, 7.55773, -0.03041172, -0.0775404, 10.074715
771672232821816, 6.687939, 0.040677983, 7.5062847, 0.02674216, -0.014469147, 10.053535
771672242461086, 6.6999035, 0.016749758, 7.570891, 0.05481279, -0.045535564, 10.109515
771672252100461, 6.7178497, 0.020338992, 7.5589266, 0.049191356, -0.024055481, 10.112581
771672261739732, 6.7058854, 0.009571291, 7.5553374, 0.057295978, -0.028354645, 10.101883
771672271379003, 6.704689, 0.0023928226, 7.5517483, 0.061502576, -0.02747631, 10.098378
771672281018274, 6.708278, -0.009571291, 7.5266237, 0.067839205, -0.009071827, 10.081987
771672290657545, 6.6975107, -0.013160525, 7.5050883, 0.0705173, -0.0019898415, 10.058737
771672300296816, 6.687939, -0.015553347, 7.4620175, 0.06272918, 0.012421131, 10.0203
771672309936191, 6.7094746, 0.0071784677, 7.4189467, 0.034089148, 0.05373192, 10.002691
771672319575461, 6.7334027, 0.0634098, 7.4141607, -0.027285993, 0.06193161, 10.015385
771672329214732, 6.7322063, 0.1052842, 7.4536424, -0.068748236, 0.017756462, 10.044174
771672338854003, 6.73101, 0.11724831, 7.375876, -0.08694714, 0.0671463, 9.985575
771672348493274, 6.6975107, 0.13399807, 7.332805, -0.10357976, 0.066467285, 9.931238
771672358132545, 6.754938, 0.1591227, 7.452446, -0.121822834, 0.021735191, 10.058734
771672367771920, 6.7669024, 0.14237295, 7.5661054, -0.09526867, -0.043405533, 10.15117
771672377411191, 6.698707, 0.111266255, 7.5314093, -0.05995387, -0.064501286, 10.079654
771672387050461, 6.6795645, 0.1052842, 7.483553, -0.054101855, -0.04329586, 10.031274
771672396689732, 6.6735826, 0.069391854, 7.476374, -0.018446952, -0.039563656, 10.021767
771672406329003, 6.680761, 0.046660043, 7.446464, 0.0038937926, -0.010379314, 10.004221
771672415968274, 6.6927247, 0.033499517, 7.450053, 0.018390477, -9.0551376E-4, 10.01482
771672425607649, 6.727421, 0.015553347, 7.4644103, 0.039019197, 0.021005154, 10.048577
771672435246920, 6.745367, -0.014356935, 7.466803, 0.069777876, 0.03730011, 10.06216
771672444886191, 6.7561345, 0.009571291, 7.4919276, 0.046880543, 0.026405334, 10.088188
771672454525461, 6.74776, 0.029910283, 7.4715886, 0.027253449, 0.032902718, 10.067569
771672464164732, 6.7298136, 0.034695927, 7.459625, 0.026381493, 0.028883457, 10.046695
771672473804107, 6.7525454, 0.05742774, 7.4847493, 0.0044677258, 0.026891708, 10.080719
771672483443378, 6.762117, 0.08853444, 7.521838, -0.02400291, 0.0051665306, 10.114916
771672493082649, 6.721439, 0.086141616, 7.4787674, -0.020461202, 0.0044989586, 10.055678
771672502721920, 6.674779, 0.07537391, 7.4512496, -0.007935464, -0.010284424, 10.003964
771672512361191, 6.6628146, 0.08015956, 7.4787674, -0.009079218, -0.038700104, 10.016482
771672522000566, 6.687939, 0.07178468, 7.533802, 0.0020406246, -0.055461884, 10.074163
771672531639836, 6.7178497, 0.08015956, 7.570891, -0.0063672066, -0.059399605, 10.121796
771672541279107, 6.6831536, 0.069391854, 7.495517, 0.0012395382, -0.03183365, 10.042467
771672550918378, 6.7058854, 0.05742774, 7.457232, 0.007910609, 0.011768818, 10.029074
771672560557649, 6.7166533, 0.050249275, 7.4943204, 0.017318845, -0.0031576157, 10.063821
771672570197024, 6.7369924, 0.05383851, 7.501499, 0.012048781, 0.006219387, 10.082771
771672579836295, 6.7202425, 0.049052864, 7.469196, 0.015046179, 0.015806675, 10.04751
771672589475566, 6.7166533, 0.07298109, 7.470392, -0.008353651, 0.009700298, 10.046161
771672599114836, 6.741778, 0.06699903, 7.5086775, -0.0029090047, 0.0032320023, 10.091397
771672608754107, 6.754938, 0.08135597, 7.4847493, -0.020075917, 0.027261734, 10.082468
771672618393482, 6.728617, 0.13160525, 7.463214, -0.07015413, 0.01709938, 10.049177
771672628032753, 6.6975107, 0.1160519, 7.487142, -0.049239278, -0.021009922, 10.04612
771672637672024, 6.6759753, 0.08733802, 7.4859457, -0.019254744, -0.033323765, 10.030661
771672647311295, 6.6855464, 0.09332009, 7.4823565, -0.024931252, -0.023013115, 10.034428
771672656950566, 6.6831536, 0.0849452, 7.4943204, -0.014897466, -0.02998352, 10.041685
771672666589941, 6.6927247, 0.038285162, 7.499106, 0.031852454, -0.020090103, 10.051329
771672676229211, 6.695118, 0.029910283, 7.5110703, 0.041373253, -0.022974014, 10.061781
771672685868482, 6.7118673, 0.023928227, 7.4907312, 0.04466766, 0.0035414696, 10.057772
771672695507753, 6.7022963, 0.034695927, 7.4943204, 0.03438288, -0.006085396, 10.054134
771672705147128, 6.690332, 0.0526421, 7.52782, 0.019205749, -0.039175034, 10.07122
771672714786399, 6.710671, 0.069391854, 7.4823565, -0.0038779378, 0.00389719, 10.051047
771672724425670, 6.719046, 0.07058827, 7.472785, -0.0065631866, 0.0151968, 10.049518
771672734064941, 6.7118673, 0.08973085, 7.4907312, -0.02381736, -0.005025387, 10.058215
771672743704316, 6.7226353, 0.09092726, 7.4656067, -0.027857602, 0.019265652, 10.046703
771672753343586, 6.7226353, 0.0849452, 7.452446, -0.022544205, 0.028643608, 10.036866
771672762982857, 6.715457, 0.09451649, 7.456035, -0.030558169, 0.01914692, 10.034813
771672772622128, 6.708278, 0.10767702, 7.469196, -0.041998208, 0.003683567, 10.039905
771672782261399, 6.695118, 0.061016977, 7.4739814, 0.0064163804, -0.004137516, 10.034374
771672791900774, 6.687939, 0.058624156, 7.4859457, 0.011051357, -0.016567707, 10.038473
771672801540045, 6.7262244, 0.05383851, 7.496713, 0.01365453, 0.005619526, 10.072015
771672811179316, 6.707082, 0.046660043, 7.509874, 0.023157418, -0.016322136, 10.068989
771672820818586, 6.721439, 0.04546363, 7.476374, 0.020852149, 0.016639233, 10.05362
771672830457961, 6.7034926, 0.06699903, 7.469196, 5.2016973E-4, 0.0064549446, 10.036442
771672840097232, 6.6915283, 0.09332009, 7.495517, -0.02291131, -0.022342205, 10.048234
771672849736503, 6.7178497, 0.12323037, 7.479964, -0.05512601, 0.005112171, 10.054426
771672859375774, 6.7202425, 0.09332009, 7.517052, -0.022884607, -0.015044212, 10.083439
771672869015149, 6.7322063, 0.0849452, 7.503892, -0.015768528, 0.002937317, 10.081566
771672878654420, 6.7058854, 0.09571291, 7.472785, -0.026890695, 0.0027375221, 10.040908
771672888293691, 6.678368, 0.050249275, 7.4536424, 0.018872917, -3.2424927E-4, 10.007975
771672897932961, 6.690332, 0.040677983, 7.4584284, 0.028238356, 0.0056505203, 10.019458
771672907572336, 6.7130637, 0.076570325, 7.4440713, -0.010609686, 0.027548313, 10.024192
771672917211607, 6.7178497, 0.06580263, 7.4656067, 0.0018700957, 0.018974304, 10.043343
771672926850878, 6.73101, 0.046660043, 7.4452677, 0.0174824, 0.044788837, 10.03685
771672936490149, 6.7334027, 0.06699903, 7.475178, 6.351471E-4, 0.024351597, 10.06086
771672946129524, 6.745367, 0.05623133, 7.489535, 0.010977685, 0.024515152, 10.079461
