timestamp_acc,device_acc_x,device_acc_y,device_acc_z,earth_acc_x,earth_acc_y,earth_acc_z
268585982118810, 6.7501526, -0.14117654, 7.3232336, -0.032658577, 0.05189228, 9.960445
268585991758394, 6.74776, -0.09332009, 7.2969127, -0.0658021, 0.015193462, 9.938881
268586001397977, 6.765706, -0.07537391, 7.3136625, -0.07543373, 8.583069E-6, 9.963154
268586011037665, 6.775277, -0.041874398, 7.350751, -0.07240343, -0.038617134, 9.996647
268586020677248, 6.8303123, -0.023928227, 7.429714, -0.06976557, -0.060028076, 10.091875
268586030316831, 6.814759, -0.034695927, 7.5086775, -0.0063996315, -0.07759428, 10.139839
268586039956415, 6.814759, -0.05623133, 7.493124, -0.006541729, -0.05243492, 10.128584
268586049596102, 6.814759, -0.10767702, 7.452446, -0.008978367, 0.007502556, 10.099077
268586059235685, 6.780063, -0.13040884, 7.420143, 0.0065193176, 0.026721716, 10.052067
268586068875269, 6.7669024, -0.15672988, 7.3770723, 8.778572E-4, 0.05922246, 10.011654
268586078514956, 6.74776, -0.17108682, 7.3363943, -0.0051288605, 0.076784134, 9.968867
268586088154540, 6.7322063, -0.11246266, 7.3292155, -0.025674343, 0.020151138, 9.952467
268586097794123, 6.7465634, -0.08255238, 7.365108, -0.027006626, -0.013698101, 9.988336
268586107433706, 6.765706, -0.08015956, 7.3950186, -0.023077965, -0.018421888, 10.023304
268586117073290, 6.8135624, -0.046660043, 7.4153576, -0.057007313, -0.039957047, 10.070229
268586126712977, 6.806384, -0.09212367, 7.422536, -0.02791357, -0.002444744, 10.0711775
268586136352560, 6.7836523, -0.08733802, 7.4273214, -0.011753559, -0.015025377, 10.05934
268586145992144, 6.775277, -0.09930214, 7.4416785, 0.008215427, -0.011432886, 10.064424
268586155631831, 6.7573314, -0.09332009, 7.4620175, 0.029995441, -0.028758764, 10.067285
268586165271415, 6.762117, -0.08853444, 7.428518, 0.00219059, -0.020975351, 10.04572
268586174910998, 6.780063, -0.11006984, 7.4010005, -0.017233849, 0.012215853, 10.037716
268586184550581, 6.765706, -0.10049855, 7.3627152, -0.035316467, 0.011720896, 9.999653
268586194190269, 6.7381887, -0.08135597, 7.3770723, -0.01658678, -0.018460274, 9.991516
268586203829852, 6.719046, -0.076570325, 7.4069824, 0.01351738, -0.037755013, 10.000662
268586213469435, 6.721439, -0.08015956, 7.420143, 0.021430016, -0.037762642, 10.012033
268586223109019, 6.74776, -0.076570325, 7.459625, 0.025830746, -0.04431224, 10.058903
268586232748706, 6.771688, -0.051445685, 7.459625, -0.0010461807, -0.059060812, 10.074767
268586242388290, 6.778867, -0.08015956, 7.450053, 0.0012359619, -0.02788043, 10.072834
268586252027873, 6.8111696, -0.09810573, 7.3926253, -0.046334267, 0.016981363, 10.052369
268586261667456, 6.780063, -0.13280165, 7.344769, -0.039762974, 0.05244112, 9.996408
268586271307144, 6.7836523, -0.14117654, 7.365108, -0.02478075, 0.054770708, 10.013944
268586280946727, 6.802795, -0.12323037, 7.355537, -0.050026894, 0.046175957, 10.019606
268586290586310, 6.8015985, -0.15074782, 7.3340015, -0.049803257, 0.07650089, 10.003185
268586300225894, 6.778867, -0.12323037, 7.348358, -0.037186146, 0.03950119, 9.998182
268586309865581, 6.7704916, -0.069391854, 7.3770723, -0.034548283, -0.022182226, 10.0131855
268586319505165, 6.7633133, -0.0059820567, 7.4069824, -0.037632942, -0.09055591, 10.029766
268586329144748, 6.769295, -0.010767702, 7.428518, -0.026209831, -0.08882022, 10.049764
268586338784435, 6.7537417, -0.047856454, 7.4644103, 0.021257877, -0.070082664, 10.066149
268586348424019, 6.7441707, -0.09212367, 7.499106, 0.06601763, -0.041057825, 10.085776
268586358063602, 6.7932234, -0.14237295, 7.446464, 0.020867348, 0.034806967, 10.080493
268586367703185, 6.800402, -0.16390835, 7.3986077, -0.0030817986, 0.070999146, 10.050209
268586377342873, 6.7872415, -0.1698904, 7.347162, -0.02325201, 0.087575436, 10.003405
268586386982456, 6.7740808, -0.14237295, 7.3459654, -0.02647543, 0.056004286, 9.993388
268586396622040, 6.7669024, -0.15792629, 7.37109, 0.0010380745, 0.05803609, 10.007273
268586406261623, 6.741778, -0.09930214, 7.3663044, -0.012181759, -8.1157684E-4, 9.986177
268586415901310, 6.734599, -0.076570325, 7.379465, -0.01002121, -0.029181957, 9.99081
268586425540894, 6.727421, -0.046660043, 7.4213395, 0.0062270164, -0.07213569, 10.016556
268586435180477, 6.7178497, -0.038285162, 7.4656067, 0.035469532, -0.09686279, 10.042688
268586444820060, 6.7609205, -0.03589234, 7.4679995, 0.008161545, -0.08449507, 10.073488
268586454459748, 6.7908306, -0.058624156, 7.4416785, -0.018083096, -0.04464698, 10.074474
268586464099331, 6.836294, -0.076570325, 7.4189467, -0.05514574, -0.0064253807, 10.0885315
268586473738915, 6.8243303, -0.13040884, 7.408179, -0.029785156, 0.042463064, 10.073078
268586483378602, 6.8279195, -0.18185452, 7.3842506, -0.024365425, 0.096235275, 10.058373
268586493018185, 6.7728844, -0.2009971, 7.3746796, 0.014276981, 0.09971833, 10.014397
268586502657769, 6.7130637, -0.16031912, 7.3746796, 0.0389843, 0.04271269, 9.97364
268586512297352, 6.7262244, -0.09092726, 7.3375907, -0.022028446, -0.0069491863, 9.954399
268586521937040, 6.727421, -0.03708875, 7.3543406, -0.036172867, -0.060430765, 9.966993
268586531576623, 6.775277, -0.015553347, 7.368697, -0.06914997, -0.069197655, 10.009634
268586541216206, 6.7848487, -0.047856454, 7.3639116, -0.06437969, -0.033703804, 10.012911
268586550855790, 6.808777, -0.09212367, 7.402197, -0.035329342, 0.003870964, 10.057793
268586560495477, 6.812366, -0.12801601, 7.4775705, 0.023601055, 0.014550209, 10.116225
268586570135060, 6.8051877, -0.16749759, 7.4847493, 0.05067873, 0.044813633, 10.117092
268586579774644, 6.79442, -0.19262223, 7.472785, 0.06111288, 0.0668416, 10.101266
268586589414227, 6.79442, -0.16390835, 7.4392858, 0.028508663, 0.04962063, 10.076244
268586599053915, 6.7704916, -0.11246266, 7.365108, -0.023445606, 0.016914606, 10.004808
268586608693498, 6.7609205, -0.05742774, 7.283752, -0.08978462, -0.011765718, 9.937716
268586618333081, 6.7525454, -0.05503492, 7.2550383, -0.10131168, -0.0071656704, 9.910861
268586627972665, 6.7525454, -0.01794617, 7.2933235, -0.0936532, -0.05261278, 9.938723
268586637612352, 6.7585278, -0.013160525, 7.4010005, -0.03225279, -0.08599949, 10.022188
268586647251935, 6.7573314, -0.05383851, 7.4715886, 0.028325558, -0.06972194, 10.073897
268586656891519, 6.7669024, -0.09451649, 7.500303, 0.053460598, -0.035396338, 10.101997
268586666531206, 6.775277, -0.13160525, 7.501499, 0.06362343, 6.0367584E-4, 10.108915
268586676170790, 6.7704916, -0.14955142, 7.472785, 0.055403233, 0.02248025, 10.084684
268586685810373, 6.7740808, -0.1471586, 7.4045897, 0.011034012, 0.040884733, 10.036732
268586695449956, 6.7848487, -0.12323037, 7.32443, -0.05361986, 0.04486537, 9.984575
268586705089644, 6.771688, -0.09092726, 7.2825556, -0.08413267, 0.023879528, 9.944446
268586714729227, 6.778867, -0.09332009, 7.2849483, -0.08355236, 0.026458979, 9.951106
268586724368810, 6.814759, -0.096909314, 7.3232336, -0.08281994, 0.02953434, 10.003616
268586734008394, 6.806384, -0.1471586, 7.365108, -0.028849602, 0.05896902, 10.029408
268586743648081, 6.79442, -0.15672988, 7.420143, 0.017383099, 0.04692769, 10.062044
268586753287665, 6.734599, -0.13040884, 7.4715886, 0.07400036, -0.0149436, 10.059362
268586762927248, 6.7178497, -0.05383851, 7.469196, 0.048090935, -0.0876956, 10.045462
268586772566831, 6.751349, 0.021535404, 7.428518, -0.031875134, -0.13175273, 10.037214
268586782206519, 6.7369924, 0.0526421, 7.389036, -0.059065342, -0.15137267, 9.998066
268586791846102, 6.7429743, 0.033499517, 7.3663044, -0.0684185, -0.1204865, 9.985593
268586801485685, 6.8135624, -0.059820566, 7.3495545, -0.084459305, -0.007384777, 10.021826
268586811125269, 6.820741, -0.19980069, 7.391429, -0.0025191307, 0.10745859, 10.0590315
268586820764956, 6.7848487, -0.27756742, 7.411768, 0.067788124, 0.15910244, 10.050652
268586830404540, 6.754938, -0.2428715, 7.4105716, 0.07143116, 0.116243124, 10.029264
268586840044123, 6.727421, -0.1363909, 7.4105716, 0.04286623, 0.008839607, 10.009568
268586849683706, 6.7704916, -0.029910283, 7.3172517, -0.08899498, -0.046264887, 9.968578
268586859323394, 6.79442, 0.0526421, 7.27777, -0.16617632, -0.09761882, 9.954683
268586868962977, 6.795616, 0.069391854, 7.314859, -0.14852524, -0.12007022, 9.9827795
268586878602560, 6.771688, 0.03589234, 7.359126, -0.09006977, -0.11010146, 9.999678
268586888242144, 6.7501526, -0.041874398, 7.4333034, 0.0038228035, -0.06980038, 10.040689
268586897881831, 6.7429743, -0.13878371, 7.4823565, 0.080145836, -3.1757355E-4, 10.073043
268586907521415, 6.74776, -0.2428715, 7.4907312, 0.12858868, 0.09206724, 10.083515
268586917160998, 6.741778, -0.28713873, 7.479964, 0.14279127, 0.13068223, 10.072062
268586926800581, 6.768099, -0.2632105, 7.448857, 0.096729755, 0.12687635, 10.066601
268586936440269, 6.780063, -0.20458634, 7.365108, 0.008964539, 0.10081744, 10.012277
268586946079852, 6.7740808, -0.13160525, 7.3268228, -0.042229652, 0.04371214, 9.979185
268586955719435, 6.7525454, -0.05623133, 7.298109, -0.07834339, -0.022276402, 9.942627
268586965359019, 6.74776, -0.0047856453, 7.3112698, -0.08894348, -0.07432699, 9.948544
268586974998706, 6.768099, 0.040677983, 7.348358, -0.09857607, -0.1175642, 9.989177
268586984638290, 6.77767, 0.041874398, 7.37109, -0.09070587, -0.12084341, 10.012427
268586994277873, 6.8243303, -0.016749758, 7.422536, -0.065423965, -0.06861901, 10.0825
268587003917456, 6.8614187, -0.12562318, 7.4679995, -0.013864517, 0.028331041, 10.142231
268587013557040, 6.856633, -0.19142582, 7.4452677, 0.005249977, 0.09349632, 10.1229105
268587023196727, 6.7872415, -0.55034924, 7.322037, 0.12822866, 0.43292737, 9.98889
268587032836310, 6.799206, 0.20697916, 7.3663044, -0.16797829, -0.26643264, 10.02174
268587042475894, 6.5898337, -0.76689965, 7.227521, 0.28542233, 0.5997069, 9.788257
268587052115477, 6.829116, 0.6628119, 7.509874, -0.27087593, -0.7212682, 10.143015
268587061755165, 6.59103, -0.6113662, 7.21436, 0.20114326, 0.45586646, 9.77825
268587071394748, 6.8602223, 0.6759724, 7.587641, -0.23200941, -0.7476667, 10.2215
268587081034331, 6.6999035, -0.38285163, 7.353144, 0.1216073, 0.25901234, 9.950988
268587090673915, 6.8817577, 0.18664017, 7.60798, -0.051418304, -0.28803277, 10.256178
268587100313602, 6.795616, -0.124426775, 7.3866434, -0.019022465, 0.03427422, 10.037771
268587109953185, 6.769295, -0.4977071, 7.3435726, 0.10812569, 0.38615215, 9.991914
268587119592769, 6.8374906, 0.22612174, 7.4105716, -0.1576109, -0.29668784, 10.079987
268587129232352, 6.661618, -0.8255238, 7.2215385, 0.21722364, 0.6886257, 9.832999
268587138871935, 6.890133, 0.53240305, 7.4333034, -0.28827143, -0.5817524, 10.128664
268587148511623, 6.640083, -0.849452, 7.076773, 0.16081238, 0.7436811, 9.711543
268587158151206, 6.882954, 0.5563313, 7.450053, -0.29402304, -0.59171426, 10.136631
268587167790790, 6.6831536, -0.4869394, 7.2729845, 0.12435675, 0.36499608, 9.881764
268587177430373, 6.832705, 0.27996024, 7.5732837, -0.080126286, -0.3897823, 10.196104
268587187069956, 6.7238317, -0.009571291, 7.4237323, 0.01270628, -0.11177313, 10.015446
268587196709644, 6.721439, -0.19381863, 7.483553, 0.12029314, 0.051883936, 10.059906
268587206349227, 6.832705, 0.4139583, 7.537391, -0.1501131, -0.4972967, 10.168562
268587215988810, 6.6831536, -0.69152576, 7.350751, 0.24668217, 0.5348394, 9.941297
268587225628394, 6.9044895, 0.5371887, 7.539784, -0.23722696, -0.5886978, 10.217928
268587235268081, 6.658029, -0.92602235, 7.1377897, 0.21612406, 0.7991829, 9.769827
268587244907665, 6.9116683, 0.44865423, 7.4249287, -0.28304005, -0.4743712, 10.13888
268587254547248, 6.643672, -0.6867401, 7.1342006, 0.13504362, 0.57088816, 9.755136
268587264186831, 6.820741, 0.17826529, 7.4440713, -0.10740566, -0.25769782, 10.094084
268587273826415, 6.7465634, -0.148355, 7.301698, -0.025428772, 0.058535337, 9.942276
268587283466102, 6.786045, -0.22013968, 7.399804, 0.035156727, 0.10986149, 10.042046
268587293105685, 6.863812, 0.4031906, 7.4907312, -0.19726324, -0.469846, 10.15509
268587302745269, 6.6999035, -0.56350976, 7.393822, 0.22389174, 0.4117216, 9.982746
268587312384852, 6.9044895, 0.6759724, 7.588837, -0.25755978, -0.7329191, 10.252603
268587322024435, 6.6568327, -0.7932207, 7.240681, 0.22732735, 0.65084195, 9.843515
268587331664123, 6.8721867, 0.58265233, 7.521838, -0.22967577, -0.6506251, 10.181768
268587341303706, 6.629315, -0.68075806, 7.1581287, 0.1533413, 0.56017053, 9.762825
268587350943290, 6.8051877, 0.2105684, 7.4584284, -0.08937025, -0.29354703, 10.094006
268587360582873, 6.686743, -0.3278167, 7.304091, 0.078119755, 0.20956707, 9.90554
268587370222456, 6.7740808, -0.33020952, 7.4153576, 0.09030533, 0.21014225, 10.046513
268587379862040, 6.8781686, 0.1591227, 7.4440713, -0.1393013, -0.23077238, 10.132919
268587389501727, 6.7441707, -0.68195444, 7.348358, 0.19959974, 0.5369109, 9.98094
268587399141310, 6.95115, 0.6041877, 7.5529447, -0.2903509, -0.64939237, 10.257898
268587408780894, 6.6735826, -0.7393822, 7.23111, 0.20186138, 0.5958921, 9.847666
268587418420477, 6.920043, 0.72741807, 7.487142, -0.36723423, -0.744833, 10.187433
268587428060060, 6.6484575, -0.51445687, 7.112665, 0.08912516, 0.42144513, 9.74018
268587437699748, 6.7908306, 0.4331009, 7.4656067, -0.18199396, -0.49984443, 10.087381
268587447339331, 6.690332, -0.23090738, 7.2825556, 0.04528618, 0.12065911, 9.89105
268587456978915, 6.7704916, -0.20697916, 7.436893, 0.07302666, 0.08633089, 10.058677
268587466618498, 6.8219376, 0.08973085, 7.4392858, -0.083069324, -0.16953647, 10.092285
268587476258081, 6.751349, -0.76570326, 7.391429, 0.29191446, 0.6007788, 10.017688
268587485897769, 6.927222, 0.42831525, 7.629515, -0.18281364, -0.51113594, 10.299742
268587495537352, 6.6687965, -0.90089774, 7.314859, 0.35172462, 0.7213242, 9.906948
268587505176935, 6.9248285, 0.56829536, 7.5026956, -0.31550932, -0.6074083, 10.20285
268587514816519, 6.6305118, -0.6771688, 7.1210403, 0.16298866, 0.559973, 9.736084
268587524456102, 6.814759, 0.47736812, 7.446464, -0.22547102, -0.5344894, 10.088713
268587534095685, 6.661618, -0.18544376, 7.2358956, 0.011500835, 0.07786083, 9.836845
268587543735373, 6.782456, 0.0071784677, 7.379465, -0.056234837, -0.095140934, 10.02228
268587553374956, 6.832705, 0.22731815, 7.373483, -0.17539024, -0.28579617, 10.049545
268587563014540, 6.7573314, -0.55513483, 7.379465, 0.17923069, 0.41494477, 10.011089
268587572654123, 6.910472, 0.45224348, 7.588837, -0.17501211, -0.5251758, 10.258808
268587582293706, 6.661618, -0.95473623, 7.332805, 0.3668623, 0.7673776, 9.916414
268587591933290, 6.8650084, 0.4953143, 7.605587, -0.15094805, -0.58108234, 10.240028
268587601572977, 6.623333, -0.8063812, 7.213164, 0.27252913, 0.65195, 9.80047
268587611212560, 6.8650084, 0.38524446, 7.499106, -0.18023062, -0.4544195, 10.162399
268587620852144, 6.719046, -0.30149564, 7.203593, -0.0047478676, 0.21530366, 9.853012
268587630491727, 6.7872415, 0.046660043, 7.3495545, -0.091146946, -0.12604892, 10.003029
268587640131310, 6.8075805, 0.19262223, 7.26102, -0.21538544, -0.23414958, 9.949947
268587649770894, 6.7429743, -0.47976094, 7.2562346, 0.0832634, 0.37246633, 9.909851
268587659410477, 6.8949184, 0.51206404, 7.5110703, -0.23210096, -0.5674677, 10.190308
268587669050165, 6.6759753, -0.82313097, 7.3268228, 0.28872395, 0.6578859, 9.9203
268587678689748, 6.928418, 0.567099, 7.6402826, -0.18529987, -0.64306426, 10.307795
268587688329331, 6.680761, -0.8362915, 7.2897344, 0.2697792, 0.67639005, 9.89656
268587697968915, 6.9020967, 0.38763726, 7.5637126, -0.15855694, -0.46289206, 10.23521
268587707608498, 6.686743, -0.44147578, 7.2323065, 0.091720104, 0.3293259, 9.853771
268587717248081, 6.7812595, 0.009571291, 7.3639116, -0.060510635, -0.103351235, 10.009916
268587726887769, 6.77767, 0.08973085, 7.233503, -0.17064285, -0.14352965, 9.910535
268587736527352, 6.7238317, -0.41515473, 7.24786, 0.06725311, 0.30585682, 9.890182
268587746166935, 6.9009004, 0.55034924, 7.519445, -0.26948547, -0.60592294, 10.199392
268587755806519, 6.715457, -0.715454, 7.301698, 0.22656012, 0.5618421, 9.927591
268587765446102, 6.9248285, 0.63888365, 7.556534, -0.28576088, -0.69548607, 10.241937
268587775085685, 6.658029, -0.8255238, 7.2705917, 0.29027557, 0.65546453, 9.867039
268587784725269, 6.879365, 0.424726, 7.600801, -0.14219761, -0.52369106, 10.246159
268587794364956, 6.6711893, -0.55752766, 7.2646093, 0.17124224, 0.4233936, 9.86821
268587804004540, 6.7836523, 0.0, 7.4476604, -0.0051879883, -0.116720915, 10.073328
268587813644123, 6.7848487, -0.03708875, 7.27777, -0.09873104, -0.038784027, 9.949385
268587823283706, 6.762117, -0.46660042, 7.298109, 0.07572937, 0.35352266, 9.953674
268587832923290, 6.8853474, 0.44865423, 7.3926253, -0.25608063, -0.5076945, 10.09638
268587842562873, 6.7118673, -0.7369894, 7.1916285, 0.13569403, 0.6252614, 9.843905
268587852202456, 6.942775, 0.70229346, 7.536195, -0.29154634, -0.76755023, 10.23794
268587861842144, 6.6652074, -0.7393822, 7.274181, 0.21988297, 0.5852753, 9.873928
268587871481727, 6.8925257, 0.5180461, 7.5924263, -0.1593318, -0.6048218, 10.248367
268587881121310, 6.669993, -0.52283174, 7.3172517, 0.18102837, 0.37021315, 9.906285
268587890760894, 6.8051877, 0.096909314, 7.54457, 0.0028734207, -0.225461, 10.15823
268587900400477, 6.710671, -0.08733802, 7.3603225, 0.018351078, -0.03224063, 9.960608
268587910040060, 6.6676, -0.45224348, 7.3375907, 0.17098999, 0.302796, 9.918706
268587919679644, 6.7848487, 0.3278167, 7.411768, -0.15398169, -0.40805256, 10.0441885
268587929319227, 6.623333, -0.7609176, 7.292127, 0.28453016, 0.58435214, 9.859018
268587938958915, 6.867401, 0.6269195, 7.5673018, -0.22898197, -0.71275437, 10.210672
268587948598498, 6.6795645, -0.8063812, 7.198807, 0.20792055, 0.6754141, 9.828033
268587958238081, 6.9822564, 0.59581286, 7.5314093, -0.3172965, -0.6296654, 10.263132
268587967877665, 6.7968125, -0.5072784, 7.271788, 0.05456114, 0.40126944, 9.958359
268587977517248, 6.926025, 0.19860429, 7.499106, -0.14518166, -0.26774955, 10.2055435
268587987156831, 6.8075805, -0.09810573, 7.245467, -0.1146884, 0.03695941, 9.941583
268587996796415, 6.7381887, -0.3481557, 7.2502527, 0.030366898, 0.25516856, 9.900734
268588006435998, 6.8039913, 0.29910284, 7.367501, -0.17982674, -0.35785162, 10.025141
268588016075685, 6.6077795, -0.7920243, 7.300502, 0.32258606, 0.61273754, 9.854333
268588025715269, 6.8339014, 0.52522457, 7.59123, -0.14773798, -0.6140814, 10.20813
268588035354852, 6.5958157, -0.86979103, 7.3256264, 0.36374378, 0.6865492, 9.865215
268588044994435, 6.8817577, 0.552742, 7.6462646, -0.1651349, -0.63981724, 10.280703
268588054634019, 6.7094746, -0.56590253, 7.3160553, 0.16696787, 0.43528605, 9.931999
268588064273602, 6.893722, 0.29072794, 7.564909, -0.1271925, -0.373196, 10.23134
268588073913185, 6.8051877, -0.059820566, 7.2825556, -0.11043215, -0.00609529, 9.966822
268588083552769, 6.8039913, -0.19860429, 7.2849483, -0.049992085, 0.12615466, 9.969242
268588093192456, 6.8111696, 0.317049, 7.3363943, -0.21193409, -0.36780214, 10.00675
268588102832040, 6.641279, -0.7501499, 7.2753773, 0.26125622, 0.6015127, 9.857503
268588112471623, 6.8279195, 0.4977071, 7.5792656, -0.14508057, -0.5852032, 10.195585
268588122111206, 6.62094, -0.92482597, 7.24786, 0.31777143, 0.76494527, 9.82535
268588131750790, 6.903293, 0.51206404, 7.5349984, -0.23041582, -0.567647, 10.213646
268588141390373, 6.7034926, -0.6687939, 7.281359, 0.18898821, 0.5356147, 9.903519
268588151029956, 6.8817577, 0.2955136, 7.5493555, -0.12684488, -0.38033307, 10.2116585
268588160669540, 6.7561345, -0.15194423, 7.32443, -0.011001587, 0.049187303, 9.965599
268588170309227, 6.7645097, -0.15194423, 7.3902326, 0.029346943, 0.038174152, 10.019725
268588179948810, 6.829116, 0.31106696, 7.361519, -0.21723557, -0.3596785, 10.037379
268588189588394, 6.6711893, -0.6448657, 7.27777, 0.21576929, 0.5024338, 9.878641
268588199227977, 6.8781686, 0.5455636, 7.533802, -0.23837471, -0.6124351, 10.194759
268588208867560, 6.634101, -0.8925229, 7.2299137, 0.31088924, 0.73300827, 9.820673
268588218507144, 6.884151, 0.5395815, 7.556534, -0.23217297, -0.6119175, 10.215456
268588228146727, 6.6532435, -0.6963114, 7.24786, 0.22279215, 0.5425725, 9.845708
268588237786310, 6.8650084, 0.31585258, 7.536195, -0.13678885, -0.4071164, 10.190088
268588247425894, 6.727421, -0.22851457, 7.304091, 0.028292656, 0.124593854, 9.931961
268588257065581, 6.818348, -0.10049855, 7.4189467, -0.00901413, -0.0011787415, 10.076738
268588266705165, 6.8709903, 0.27158538, 7.365108, -0.21433735, -0.32087767, 10.068772
268588276344748, 6.778867, -0.5886344, 7.2753773, 0.11575365, 0.48272693, 9.949081
268588285984331, 6.9355965, 0.54317075, 7.5314093, -0.2598567, -0.58915365, 10.232548
268588295623915, 6.695118, -0.8745767, 7.2502527, 0.26752186, 0.72086275, 9.877472
268588305263498, 6.9188466, 0.5180461, 7.542177, -0.23109865, -0.5725359, 10.229469
268588314903081, 6.652047, -0.78723866, 7.200003, 0.23469496, 0.63759243, 9.810603
268588324542665, 6.8398833, 0.31585258, 7.5026956, -0.122238636, -0.41348243, 10.148314
268588334182248, 6.6975107, -0.29910284, 7.263413, 0.050697327, 0.182531, 9.882681
268588343821935, 6.775277, -0.041874398, 7.4129643, -0.0028262138, -0.07078707, 10.042568
268588353461519, 6.818348, 0.22971097, 7.3902326, -0.14655447, -0.3055302, 10.052032
268588363101102, 6.7202425, -0.47976094, 7.350751, 0.15576077, 0.3454033, 9.964026
268588372740685, 6.8913293, 0.59700924, 7.5720873, -0.20558357, -0.67978835, 10.231274
268588382380269, 6.6628146, -0.7968099, 7.3363943, 0.28826618, 0.6276524, 9.918349
268588392019852, 6.8949184, 0.5766702, 7.5924263, -0.19101143, -0.6646129, 10.248863
268588401659435, 6.626922, -0.81954175, 7.1952176, 0.25382757, 0.676978, 9.789595
268588411299019, 6.8422766, 0.29192436, 7.4859457, -0.13180208, -0.36995888, 10.138397
268588420938602, 6.68435, -0.44027936, 7.220342, 0.090221405, 0.32780147, 9.84338
268588430578290, 6.814759, -0.046660043, 7.368697, -0.05711794, -0.038884282, 10.036734
268588440217873, 6.806384, 0.16151553, 7.281359, -0.18905354, -0.21343863, 9.96443
268588449857456, 6.727421, -0.47736812, 7.304091, 0.13488483, 0.34409666, 9.934749
268588459497040, 6.9009004, 0.55752766, 7.5696945, -0.2352767, -0.62937284, 10.236312
268588469136623, 6.649654, -0.80518484, 7.393822, 0.37436152, 0.5940106, 9.951976
268588478776206, 6.88774, 0.58983076, 7.6941214, -0.15074205, -0.68810534, 10.319504
268588488415790, 6.6305118, -0.83389866, 7.301698, 0.3281517, 0.64626324, 9.871601
268588498055373, 6.8781686, 0.38524446, 7.5756764, -0.14919996, -0.4806739, 10.22718
268588507695060, 6.71426, -0.41994038, 7.220342, 0.05537319, 0.3191148, 9.863372
268588517334644, 6.8374906, 0.041874398, 7.34118, -0.1268568, -0.11162317, 10.030823
268588526974227, 6.8015985, 0.09451649, 7.2179494, -0.19669962, -0.13670146, 9.915246
268588536613810, 6.7501526, -0.424726, 7.183254, 0.01678276, 0.34278488, 9.86034
268588546253394, 6.8865438, 0.50488555, 7.4213395, -0.28258753, -0.5422307, 10.118389
268588555892977, 6.652047, -0.7800602, 7.3292155, 0.31090975, 0.6099615, 9.904894
268588565532560, 6.899704, 0.5802595, 7.68455, -0.1572547, -0.6863165, 10.319842
268588575172144, 6.6448684, -0.84347, 7.3292155, 0.33545542, 0.65539396, 9.901567
268588584811727, 6.8913293, 0.41515473, 7.6307116, -0.12861681, -0.5207157, 10.276325
268588594451415, 6.698707, -0.4977071, 7.320841, 0.15821743, 0.36211824, 9.927685
268588604090998, 6.829116, 0.040677983, 7.448857, -0.05402565, -0.14096129, 10.104513
268588613730581, 6.782456, 0.021535404, 7.2263246, -0.15354204, -0.07915568, 9.909193
268588623370165, 6.7011, -0.38763726, 7.239485, 0.06468439, 0.2808472, 9.868237
268588633009748, 6.8051877, 0.45583272, 7.432107, -0.19268656, -0.5265746, 10.071751
268588642649331, 6.6388865, -0.73818576, 7.2909307, 0.27110434, 0.5805429, 9.867465
268588652288915, 6.9212394, 0.634098, 7.60798, -0.22923708, -0.70165396, 10.278235
268588661928602, 6.664011, -0.81954175, 7.3304124, 0.30691004, 0.65467143, 9.914274
268588671568185, 6.923632, 0.49052864, 7.6630144, -0.15750217, -0.5888027, 10.32122
268588681207769, 6.7381887, -0.5240282, 7.322037, 0.15285587, 0.39566326, 9.955406
268588690847352, 6.849455, 0.13040884, 7.4883385, -0.08147335, -0.22518694, 10.146424
268588700486935, 6.7585278, -0.047856454, 7.27777, -0.07630253, -0.02729702, 9.931735
268588710126519, 6.7130637, -0.36729828, 7.2418776, 0.056515217, 0.2639321, 9.877857
268588719766102, 6.808777, 0.41156548, 7.367501, -0.23190641, -0.45926654, 10.027173
268588729405685, 6.643672, -0.7190432, 7.2658057, 0.25176716, 0.56090903, 9.852377
268588739045373, 6.893722, 0.6149554, 7.60798, -0.2201829, -0.694783, 10.259228
268588748684956, 6.7262244, -0.8422736, 7.2957163, 0.26127672, 0.6997287, 9.930817
268588758324540, 6.9475603, 0.51206404, 7.6163545, -0.19399405, -0.58063674, 10.303635
268588767964123, 6.6939216, -0.56470615, 7.292127, 0.16127586, 0.4272169, 9.904243
268588777603706, 6.820741, 0.17826529, 7.520642, -0.050201416, -0.28832078, 10.150305
268588787243290, 6.7369924, -0.08135597, 7.271788, -0.05240202, -0.0013986826, 9.913115
268588796882873, 6.7740808, -0.30508488, 7.300502, 0.021844864, 0.20928407, 9.961641
268588806522456, 6.8709903, 0.32422748, 7.359126, -0.24154091, -0.36770344, 10.063738
268588816162144, 6.7322063, -0.76570326, 7.26102, 0.20112038, 0.6386126, 9.908735
268588825801727, 6.9320073, 0.58504516, 7.564909, -0.2445054, -0.65457606, 10.253517
268588835441310, 6.6460648, -0.83988076, 7.2490563, 0.27790213, 0.6759838, 9.843283
268588845080894, 6.8805614, 0.5563313, 7.5673018, -0.21557522, -0.63566995, 10.2208185
268588854720477, 6.6711893, -0.57547385, 7.26102, 0.17576265, 0.43189418, 9.86615
268588864360060, 6.849455, 0.25962126, 7.55773, -0.08142376, -0.3574965, 10.196436
268588873999644, 6.748956, -0.09810573, 7.3627152, 0.0014104843, -0.004677534, 9.988373
268588883639331, 6.7537417, -0.26679972, 7.4177504, 0.10061741, 0.13531852, 10.033883
268588893278915, 6.849455, 0.28953153, 7.457232, -0.16582727, -0.35580575, 10.12201
268588902918498, 6.6855464, -0.7178468, 7.3292155, 0.27356434, 0.5494089, 9.927364
268588912558081, 6.897311, 0.5479564, 7.536195, -0.26017714, -0.6060293, 10.209429
268588922197665, 6.6687965, -0.86141616, 7.2083783, 0.26277542, 0.7083144, 9.828777
268588931837248, 6.9128647, 0.5587241, 7.483553, -0.29808712, -0.58836114, 10.181768
268588941476831, 6.6831536, -0.63888365, 7.1808605, 0.15152788, 0.5248141, 9.815248
268588951116519, 6.862615, 0.317049, 7.501499, -0.15432692, -0.38866448, 10.163347
268588960756102, 6.7094746, -0.15672988, 7.355537, 0.04659891, 0.04019761, 9.956995
268588970395685, 6.7573314, -0.15672988, 7.495517, 0.100922585, 0.01583457, 10.092493
268588980035269, 6.849455, 0.2943172, 7.470392, -0.15364742, -0.3676995, 10.131617
268588989674852, 6.734599, -0.6376872, 7.3627152, 0.22299719, 0.48462772, 9.984312
268588999314435, 6.9212394, 0.56350976, 7.5696945, -0.26167202, -0.6099639, 10.250896
268589008954123, 6.6711893, -0.8650054, 7.2095747, 0.28355503, 0.718385, 9.830284
268589018593706, 6.9009004, 0.54675996, 7.4847493, -0.2996955, -0.5853119, 10.174007
268589028233290, 6.6568327, -0.6987042, 7.1342006, 0.17774725, 0.582885, 9.763559
268589037872873, 6.832705, 0.3062813, 7.493124, -0.14665127, -0.38924706, 10.1367445
268589047512456, 6.708278, -0.25603202, 7.3100734, 0.06070757, 0.14356542, 9.92368
268589057152040, 6.7740808, -0.17108682, 7.436893, 0.0593853, 0.04933238, 10.060759
268589066791727, 6.836294, 0.19860429, 7.4189467, -0.15188646, -0.26627922, 10.08569
268589076431310, 6.7334027, -0.6364908, 7.361519, 0.22601414, 0.48053336, 9.982676
268589086070894, 6.9020967, 0.5491528, 7.585248, -0.23125839, -0.62080383, 10.248787
268589095710477, 6.6352973, -0.78843504, 7.298109, 0.3043065, 0.60957646, 9.871525
268589105350060, 6.890133, 0.6664011, 7.554141, -0.28792477, -0.7231935, 10.216515
268589114989644, 6.669993, -0.6580262, 7.213164, 0.18145895, 0.52188754, 9.830884
268589124629331, 6.8542404, 0.37567315, 7.5517483, -0.14053202, -0.45513535, 10.1943
268589134268915, 6.6676, -0.34097722, 7.344769, 0.13745737, 0.19773841, 9.922741
268589143908498, 6.7381887, -0.18424734, 7.4333034, 0.08125496, 0.054122925, 10.034023
268589153548081, 6.748956, 0.07058827, 7.3435726, -0.08305693, -0.15171814, 9.97254
268589163187665, 6.7130637, -0.63170516, 7.331609, 0.20604992, 0.4861976, 9.946754
268589172827248, 6.9224358, 0.49651068, 7.570891, -0.22984362, -0.56439924, 10.252493
268589182466935, 6.7130637, -0.8063812, 7.298109, 0.25296545, 0.65005517, 9.924278
268589192106519, 6.9678993, 0.68075806, 7.5230346, -0.3587904, -0.6974337, 10.246756
268589201746102, 6.698707, -0.64247286, 7.1748786, 0.13276672, 0.5255265, 9.821943
268589211385685, 6.8805614, 0.49172506, 7.520642, -0.23229933, -0.5432683, 10.187977
268589221025269, 6.674779, -0.30388847, 7.301698, 0.094634056, 0.18545318, 9.895275
268589230664956, 6.768099, -0.022731815, 7.4644103, 0.017683983, -0.09328532, 10.07552
268589240304540, 6.778867, 0.043070808, 7.399804, -0.05856085, -0.13184392, 10.034499
268589249944123, 6.7381887, -0.6305088, 7.4069824, 0.24233341, 0.47214222, 10.019105
268589259583706, 6.867401, 0.38524446, 7.6103725, -0.12479973, -0.47684348, 10.246191
268589269223290, 6.619744, -0.8853444, 7.3292155, 0.3688097, 0.6878481, 9.884993
268589278862977, 6.9044895, 0.58265233, 7.5553374, -0.26821184, -0.64559436, 10.227701
268589288502560, 6.647261, -0.74536425, 7.172486, 0.18953085, 0.60793126, 9.786762
268589298142144, 6.8925257, 0.5371887, 7.493124, -0.27661705, -0.58958435, 10.174392
268589307781727, 6.725028, -0.29312077, 7.2023964, -0.015416622, 0.2052201, 9.856171
268589317421310, 6.8446693, 0.11844472, 7.4177504, -0.11688948, -0.19403362, 10.091344
268589327060998, 6.800402, 0.1268196, 7.372287, -0.1210289, -0.20009625, 10.027836
268589336700581, 6.7322063, -0.4881358, 7.368697, 0.16269112, 0.35072184, 9.985444
268589346340165, 6.8602223, 0.39720857, 7.5756764, -0.14340305, -0.48828435, 10.215298
268589355979748, 6.6388865, -0.9128618, 7.38784, 0.39963484, 0.7078526, 9.941204
268589365619435, 6.910472, 0.4977071, 7.623533, -0.18951082, -0.5698364, 10.283966
268589375259019, 6.6652074, -0.89013004, 7.2215385, 0.27277088, 0.74228644, 9.835779
268589384898602, 6.8685975, 0.4354937, 7.5409803, -0.19840908, -0.5164343, 10.194487
268589394538185, 6.669993, -0.44865423, 7.239485, 0.10267925, 0.32105136, 9.848177
268589404177769, 6.799206, 0.15672988, 7.4105716, -0.11241102, -0.23830116, 10.054895
268589413817456, 6.782456, 0.13040884, 7.2897344, -0.16669798, -0.19133377, 9.954624
268589423457040, 6.7573314, -0.33379877, 7.3543406, 0.075641155, 0.21789336, 9.990298
268589433096623, 6.893722, 0.4761717, 7.5290165, -0.23025703, -0.5403619, 10.202511
268589442736206, 6.6855464, -0.7848458, 7.348358, 0.30692482, 0.60390854, 9.942432
268589452375790, 6.890133, 0.57547385, 7.652247, -0.19934607, -0.6664612, 10.289705
268589462015477, 6.643672, -0.8997013, 7.2705917, 0.32308912, 0.7333716, 9.857338
268589471655060, 6.875776, 0.4139583, 7.5613194, -0.18454504, -0.49701464, 10.214702
268589481294644, 6.6831536, -0.5838487, 7.2550383, 0.1556716, 0.44736278, 9.8699875
268589490934227, 6.8482585, 0.09092726, 7.4584284, -0.09445763, -0.17238235, 10.124053
268589500573915, 6.7848487, -0.02871387, 7.2825556, -0.11225414, -0.04042542, 9.952707
268589510213498, 6.759724, -0.31944183, 7.2933235, 0.027287006, 0.21998835, 9.946826
268589519853081, 6.847062, 0.4761717, 7.4237323, -0.24994183, -0.52652776, 10.093617
268589529492665, 6.643672, -0.68195444, 7.3363943, 0.27115107, 0.5205064, 9.903619
268589539132352, 6.8614187, 0.66161543, 7.6737823, -0.17918205, -0.7628951, 10.285408
268589548771935, 6.631708, -0.84347, 7.338787, 0.33458996, 0.6581105, 9.899684
268589558411519, 6.9332037, 0.4881358, 7.605587, -0.21076202, -0.5621939, 10.285526
268589568051102, 6.7334027, -0.6041877, 7.2753773, 0.14087439, 0.48900962, 9.918462
268589577690790, 6.8781686, 0.12083755, 7.5062847, -0.09597635, -0.20024586, 10.179332
268589587330373, 6.768099, -0.15792629, 7.2849483, -0.0453887, 0.0782572, 9.944566
268589596969956, 6.745367, -0.35653058, 7.3232336, 0.07349682, 0.2434845, 9.959525
268589606609540, 6.8243303, 0.37686956, 7.3974113, -0.22557497, -0.42833948, 10.059864
268589616249227, 6.6352973, -0.6652047, 7.2849483, 0.24632406, 0.49948812, 9.860526
268589625888810, 6.88774, 0.6867401, 7.57448, -0.28307962, -0.739764, 10.2302475
268589635528394, 6.698707, -0.7369894, 7.2765737, 0.23213911, 0.5967376, 9.89719
268589645167977, 6.969096, 0.62452674, 7.594819, -0.30936432, -0.6566169, 10.3011055
268589654807665, 6.721439, -0.5814559, 7.2729845, 0.15036488, 0.45142078, 9.908872
268589664447248, 6.863812, 0.18664017, 7.548159, -0.07998133, -0.2766856, 10.199927
268589674086831, 6.7561345, -0.21415763, 7.3196445, 0.011199474, 0.118057966, 9.962647
268589683726519, 6.751349, -0.38883367, 7.373483, 0.12085247, 0.26023197, 10.000892
268589693366102, 6.8135624, 0.19142582, 7.3830543, -0.15796041, -0.25935578, 10.043831
268589703005685, 6.6568327, -0.73579293, 7.3064837, 0.2870822, 0.5585544, 9.891669
268589712645269, 6.9020967, 0.5982057, 7.54457, -0.28908777, -0.6539154, 10.217932
268589722284956, 6.664011, -0.7908279, 7.2358956, 0.24796486, 0.63199663, 9.845391
268589731924540, 6.926025, 0.6556334, 7.556534, -0.29788208, -0.69930995, 10.243199
268589741564123, 6.687939, -0.59700924, 7.3160553, 0.2029748, 0.44016385, 9.9184
268589751203706, 6.847062, 0.28953153, 7.648658, -0.040510178, -0.40891755, 10.2615385
268589760843394, 6.7238317, -0.21655045, 7.3663044, 0.05929327, 0.09251821, 9.9753275
268589770482977, 6.7118673, -0.23449662, 7.416554, 0.10581303, 0.099889755, 10.004412
268589780122560, 6.7932234, 0.2117648, 7.3579297, -0.15186214, -0.28205788, 10.0114565
268589789762248, 6.6891356, -0.6867401, 7.2765737, 0.19311953, 0.55551445, 9.890337
268589799401831, 6.8662047, 0.54317075, 7.517052, -0.21762371, -0.6178194, 10.174322
268589809041415, 6.661618, -0.8566305, 7.251449, 0.2691846, 0.71075475, 9.854789
268589818680998, 6.9332037, 0.57188463, 7.57448, -0.24166107, -0.6411998, 10.261558
268589828320685, 6.6963143, -0.6652047, 7.29452, 0.1928997, 0.53350055, 9.908144
268589837960269, 6.8721867, 0.36370903, 7.641479, -0.08102989, -0.46786308, 10.272583
268589847599852, 6.7238317, -0.22492532, 7.344769, 0.0458045, 0.10857427, 9.95953
268589857239540, 6.778867, -0.11724831, 7.405786, 0.008714199, 0.014861107, 10.040525
268589866879123, 6.826723, 0.23808585, 7.368697, -0.17592716, -0.29626608, 10.041903
268589876518706, 6.7322063, -0.6041877, 7.300502, 0.14798403, 0.48786163, 9.9360485
268589886158394, 6.9355965, 0.57906306, 7.5230346, -0.2655325, -0.6338743, 10.225534
268589895797977, 6.6999035, -0.7848458, 7.220342, 0.17567968, 0.6612282, 9.857483
268589905437560, 6.9619174, 0.6329016, 7.5230346, -0.30170012, -0.6654134, 10.243589
268589915077248, 6.7011, -0.6939186, 7.219146, 0.15059042, 0.5741565, 9.85647
268589924716831, 6.890133, 0.3804588, 7.5457664, -0.16690731, -0.45753753, 10.213719
268589934356415, 6.735796, -0.30029923, 7.3375907, 0.06253004, 0.18673158, 9.96306
268589943995998, 6.8099732, -0.12323037, 7.4787674, 0.035357952, 0.00846982, 10.115413
268589953635685, 6.8279195, 0.11006984, 7.393822, -0.11928272, -0.17911375, 10.0625515
268589963275269, 6.7011, -0.6233303, 7.3375907, 0.22091293, 0.47626185, 9.942732
268589972914852, 6.8650084, 0.48215377, 7.536195, -0.20297146, -0.54735017, 10.188929
268589982554540, 6.63769, -0.8817552, 7.2825556, 0.33823538, 0.7062526, 9.86199
268589992194123, 6.8709903, 0.59581286, 7.578069, -0.24358034, -0.6717093, 10.221651
268590001833706, 6.62094, -0.6855437, 7.239485, 0.23945045, 0.53300095, 9.817103
268590011473394, 6.792027, 0.15672988, 7.466803, -0.07571411, -0.2517923, 10.091591
268590021112977, 6.7585278, -0.06580263, 7.4237323, 0.008173466, -0.054926872, 10.039459
268590030752560, 6.782456, -0.013160525, 7.4476604, -0.0135240555, -0.098564625, 10.072718
268590040392248, 6.8075805, -0.08015956, 7.429714, -0.014698982, -0.0237813, 10.077175
268590050031831, 6.771688, -0.10049855, 7.3866434, -0.009993553, -9.5152855E-4, 10.02139
268590059671415, 6.7573314, -0.12921242, 7.355537, -0.0069389343, 0.029739618, 9.989055
268590069311102, 6.7537417, -0.11964113, 7.391429, 0.012519836, 0.009595394, 10.013006
268590078950685, 6.7669024, -0.15194423, 7.4177504, 0.0346303, 0.03484583, 10.041647
268590088590269, 6.775277, -0.12562318, 7.408179, 0.010884285, 0.017506361, 10.039963
268590098229956, 6.8279195, -0.09212367, 7.3902326, -0.050309658, 0.01096344, 10.061901
268590107869540, 6.8135624, -0.101694964, 7.3950186, -0.03279543, 0.013756037, 10.055845
268590117509227, 6.778867, -0.09092726, 7.4344997, 0.00987196, -0.019243956, 10.061443
268590127148810, 6.7585278, -0.10289137, 7.3986077, 0.007033825, -0.004070282, 10.0213585
268590136788394, 6.771688, -0.09092726, 7.3986077, -0.0074677467, -0.010720968, 10.030117
268590146428081, 6.74776, -0.096909314, 7.4380894, 0.034906864, -0.024747372, 10.043158
268590156067665, 6.769295, -0.104087785, 7.429714, 0.017969131, -0.009231567, 10.051589
268590165707248, 6.7968125, -0.09092726, 7.4584284, 0.011487961, -0.020897627, 10.09121
268590175346935, 6.802795, -0.06580263, 7.4512496, -0.008326054, -0.039839268, 10.089688
268590184986519, 6.818348, -0.03708875, 7.440482, -0.03890705, -0.056669712, 10.091942
268590194626102, 6.8135624, -0.038285162, 7.38784, -0.067162514, -0.04149103, 10.049879
268590204265790, 6.780063, -0.09092726, 7.3639116, -0.036217213, 0.0036849976, 10.010164
268590213905373, 6.775277, -0.111266255, 7.34118, -0.036317825, 0.027882338, 9.990374
268590223545060, 6.782456, -0.13399807, 7.300502, -0.05581045, 0.061202526, 9.965446
268590233184644, 6.786045, -0.1363909, 7.331609, -0.038400173, 0.055346727, 9.990844
268590242824227, 6.7932234, -0.12203395, 7.4033933, -0.006559372, 0.021767378, 10.048506
268590252463915, 6.800402, -0.09332009, 7.463214, 0.01183939, -0.019580126, 10.097189
268590262103498, 6.79442, -0.078963146, 7.503892, 0.032663822, -0.046029568, 10.123023
268590271743081, 6.798009, -0.0634098, 7.499106, 0.018951893, -0.056749105, 10.121756
268590281382769, 6.7848487, -0.076570325, 7.448857, 0.0016040802, -0.032982588, 10.075932
268590291022352, 6.7465634, -0.09332009, 7.4069824, 0.009257317, -0.017276049, 10.019373
268590300662040, 6.719046, -0.10887343, 7.405786, 0.03277874, -0.011115074, 10.000095
268590310301623, 6.735796, -0.11485548, 7.3866434, 0.010890484, 0.0050725937, 9.997326
268590319941206, 6.74776, -0.10289137, 7.4069824, 0.009938717, -0.008104086, 10.020283
268590329580894, 6.7633133, -0.083748795, 7.4309106, 0.004981041, -0.028044462, 10.048235
268590339220477, 6.7848487, -0.086141616, 7.4344997, -0.006529331, -0.020463943, 10.065432
268590348860165, 6.8135624, -0.08015956, 7.4069824, -0.045338154, -0.008474112, 10.064409
268590358499748, 6.795616, -0.083748795, 7.393822, -0.038873196, -0.007101774, 10.042632
268590368139331, 6.778867, -0.09212367, 7.4153576, -0.00978899, -0.011539698, 10.047329
268590377779019, 6.7537417, -0.08853444, 7.4536424, 0.028680325, -0.033937216, 10.058613
268590387418602, 6.754938, -0.101694964, 7.3902326, -0.004963398, -0.0023674965, 10.012743
268590397058290, 6.739385, -0.11724831, 7.396215, 0.015434265, 0.0045342445, 10.006837
268590406697873, 6.7429743, -0.08973085, 7.422536, 0.015773773, -0.027373552, 10.028399
268590416337456, 6.7728844, -0.078963146, 7.4033933, -0.020261765, -0.02182436, 10.034318
268590425977144, 6.7968125, -0.05623133, 7.3950186, -0.05227232, -0.031221151, 10.044024
268590435616727, 6.7908306, -0.06699903, 7.367501, -0.060391426, -0.013762236, 10.019785
268590445256415, 6.7968125, -0.069391854, 7.3770723, -0.057606697, -0.010746241, 10.030915
268590454895998, 6.8075805, -0.11006984, 7.4380894, -0.009212494, 0.010227919, 10.083662
268590464535685, 6.77767, -0.14237295, 7.4476604, 0.03145027, 0.026219606, 10.070902
268590474175269, 6.7645097, -0.14596218, 7.450053, 0.042543888, 0.023632765, 10.063837
268590483814852, 6.754938, -0.1363909, 7.4141607, 0.022622108, 0.023429155, 10.030779
268590493454540, 6.759724, -0.11724831, 7.409375, 0.007602215, 0.008491993, 10.03027
268590503094123, 6.7633133, -0.05623133, 7.38784, -0.035212517, -0.039679527, 10.016133
268590512733810, 6.754938, -0.013160525, 7.3842506, -0.050008774, -0.08018994, 10.007378
268590522373394, 6.7764735, -0.0047856453, 7.405786, -0.053727627, -0.08739996, 10.037718
268590532013081, 6.792027, -0.034695927, 7.4045897, -0.051740646, -0.05352497, 10.047649
268590541652665, 6.7812595, -0.12562318, 7.385447, -0.019587994, 0.032483816, 10.027197
268590551292352, 6.778867, -0.19381863, 7.4129643, 0.026938915, 0.08606362, 10.0466175
268590560931935, 6.771688, -0.24765715, 7.457232, 0.082019806, 0.118005514, 10.075057
268590570571519, 6.769295, -0.22851457, 7.450053, 0.0716095, 0.09901261, 10.067966
268590580211206, 6.735796, -0.13399807, 7.4129643, 0.029093266, 0.012251854, 10.016983
268590589850790, 6.7381887, -0.051445685, 7.428518, 6.532669E-4, -0.067450285, 10.029165
268590599490477, 6.745367, 0.020338992, 7.452446, -0.020583153, -0.13551569, 10.050898
268590609130060, 6.7645097, 0.049052864, 7.4177504, -0.06808138, -0.14474821, 10.03785
268590618769748, 6.788438, 0.043070808, 7.420143, -0.07935381, -0.13068938, 10.05584
268590628409331, 6.782456, -0.02632105, 7.440482, -0.033786297, -0.073269606, 10.067604
268590638048915, 6.7812595, -0.1363909, 7.4356966, 0.011883259, 0.029909372, 10.064423
268590647688602, 6.754938, -0.19740787, 7.426125, 0.04963541, 0.07916331, 10.0402565
268590657328185, 6.7429743, -0.22372891, 7.411768, 0.058951378, 0.10237932, 10.021881
268590666967873, 6.7465634, -0.20817557, 7.391429, 0.036610126, 0.09332585, 10.009127
268590676607456, 6.7585278, -0.16630118, 7.3782687, 0.0035943985, 0.060631514, 10.007023
268590686247144, 6.7573314, -0.11006984, 7.3950186, -0.008566856, 0.0034942627, 10.017977
268590695886727, 6.7669024, -0.022731815, 7.426125, -0.033755302, -0.08120775, 10.046446
268590705526415, 6.762117, 0.0071784677, 7.4440713, -0.032801628, -0.11503816, 10.0561495
268590715165998, 6.780063, 0.021535404, 7.4333034, -0.05714369, -0.11721301, 10.060154
268590724805685, 6.771688, -0.015553347, 7.4380894, -0.03267336, -0.08556628, 10.05847
268590734445269, 6.778867, -0.0526421, 7.4512496, -0.012149811, -0.052279472, 10.073433
268590744084956, 6.769295, -0.11844472, 7.416554, 0.0036144257, 0.015082836, 10.042033
268590753724540, 6.765706, -0.19262223, 7.393822, 0.027293682, 0.087378025, 10.023577
268590763364227, 6.759724, -0.23928227, 7.338787, 0.018048763, 0.14318967, 9.979383
268590773003810, 6.7932234, -0.22013968, 7.3304124, -0.020243168, 0.13960099, 9.995569
268590782643394, 6.8374906, -0.1698904, 7.348358, -0.06188631, 0.100666285, 10.038155
268590792283081, 6.823134, -0.09212367, 7.381858, -0.06551695, 0.014366388, 10.052411
268590801922665, 6.8039913, -0.011964113, 7.4213395, -0.062397957, -0.07762289, 10.067811
268590811562352, 6.792027, 0.031106694, 7.457232, -0.0505805, -0.13017535, 10.085803
268590821201935, 6.7812595, 0.02632105, 7.4392858, -0.052060127, -0.12384796, 10.065342
268590830841623, 6.769295, -0.008374879, 7.4380894, -0.028535843, -0.094281435, 10.056784
268590840481206, 6.7585278, -0.076570325, 7.4356966, 0.0079779625, -0.034174442, 10.048478
268590850120894, 6.768099, -0.148355, 7.429714, 0.030424595, 0.035431147, 10.05125
268590859760477, 6.7585278, -0.18783657, 7.3902326, 0.030626774, 0.079586744, 10.016049
268590869400165, 6.7561345, -0.1902294, 7.379465, 0.024289608, 0.0814507, 10.006539
268590879039748, 6.7573314, -0.19980069, 7.4153576, 0.047593117, 0.078024864, 10.033973
268590888679435, 6.739385, -0.1268196, 7.4392858, 0.040913105, -0.0020551682, 10.038759
268590898319019, 6.7465634, -0.06699903, 7.428518, 0.0022816658, -0.050337553, 10.0349865
268590907958706, 6.780063, -0.015553347, 7.385447, -0.06937027, -0.07235074, 10.025182
268590917598290, 6.77767, 0.016749758, 7.428518, -0.055752277, -0.115106106, 10.055029
268590927237977, 6.7645097, -0.009571291, 7.4536424, -0.020678043, -0.10163045, 10.065023
268590936877560, 6.8039913, -0.032303106, 7.409375, -0.061275482, -0.05138135, 10.059214
268590946517248, 6.79442, -0.11006984, 7.3543406, -0.053110123, 0.032247543, 10.012929
268590956156831, 6.7561345, -0.18424734, 7.381858, 0.02424097, 0.07775712, 10.008222
268590965796519, 6.7322063, -0.21296121, 7.416554, 0.0755043, 0.081020355, 10.018032
268590975436102, 6.721439, -0.2213361, 7.4153576, 0.084219456, 0.084116936, 10.009999
