timestamp_acc,device_acc_x,device_acc_y,device_acc_z,earth_acc_x,earth_acc_y,earth_acc_z
1126738550582444, 4.5391846, 0.87218386, 8.853444, 0.012923241, -0.016583443, 9.98739
1126738560221715, 4.5631127, 0.8925229, 8.847462, 0.007977486, -0.046482563, 9.994698
1126738569860985, 4.5882373, 0.8985049, 8.88455, 0.005797386, -0.05164075, 10.039511
1126738579500256, 4.6025944, 0.9164511, 8.920443, 0.020681143, -0.05915904, 10.079391
1126738589139631, 4.618148, 0.9164511, 8.957532, 0.020805836, -0.054506302, 10.119345
1126738598778902, 4.619344, 0.92602235, 8.94796, 0.024153233, -0.065644264, 10.112217
1126738608418173, 4.5762734, 0.9068798, 8.9348, 0.035269976, -0.031972647, 10.07934
1126738618057444, 4.5762734, 0.8673982, 8.906086, -7.483959E-4, -0.013126612, 10.050514
1126738627696715, 4.566702, 0.85184485, 8.921639, -8.773804E-5, 0.009444475, 10.058627
1126738637336090, 4.5882373, 0.8458628, 8.921639, -0.01925683, 0.0026798248, 10.067903
1126738646975360, 4.558327, 0.8255238, 8.9108715, -0.015005112, 0.03246665, 10.043016
1126738656614631, 4.536792, 0.79441714, 8.914461, -0.017798662, 0.069390774, 10.033747
1126738666253902, 4.5475593, 0.80877405, 8.907282, -0.019239187, 0.04959774, 10.033507
1126738675893277, 4.570291, 0.81834537, 8.895318, -0.033462048, 0.024479628, 10.034053
1126738685532548, 4.578666, 0.8362915, 8.922835, -0.01956129, 0.014629841, 10.063795
1126738695171819, 4.5966125, 0.8602197, 8.941978, -0.009858608, -0.0077438354, 10.090968
1126738704811090, 4.6025944, 0.86859465, 8.955139, -0.0048820972, -0.012808323, 10.106071
1126738714450360, 4.587041, 0.87218386, 8.943174, 0.0048513412, -0.0114917755, 10.088699
1126738724089735, 4.5798626, 0.86261255, 8.920443, -0.0029389858, -0.00810504, 10.0644655
1126738733729006, 4.549952, 0.8709874, 8.903693, 0.018125296, -0.0037989616, 10.036737
1126738743368277, 4.5272202, 0.86141616, 8.894122, 0.024368286, 0.015299082, 10.017103
1126738753007548, 4.546363, 0.8650054, 8.878569, 0.006901264, -0.0021574497, 10.012321
1126738762646819, 4.575077, 0.8673982, 8.878569, -0.0132761, -0.018774033, 10.025576
1126738772286194, 4.6289153, 0.8877372, 8.859426, -0.045645952, -0.06903982, 10.034815
1126738781925465, 4.6229334, 0.89371926, 8.864211, -0.036144733, -0.06884718, 10.036854
1126738791564735, 4.5894337, 0.8554341, 8.880961, -0.029604435, -0.012139559, 10.0332
1126738801204006, 4.549952, 0.83389866, 8.924032, -0.0016312599, 0.041157722, 10.051571
1126738810843381, 4.5415773, 0.83748794, 8.945567, 0.013118029, 0.050440073, 10.067162
1126738820482652, 4.5523453, 0.8327023, 8.950353, 0.0025539398, 0.048724413, 10.075897
1126738830121923, 4.5738807, 0.8315059, 8.955139, -0.011993408, 0.03973937, 10.089828
1126738839761194, 4.56072, 0.8530413, 8.974281, 0.016583681, 0.036384344, 10.102673
1126738849400465, 4.5738807, 0.8602197, 8.958728, 0.00863719, 0.017783165, 10.095482
1126738859039840, 4.5762734, 0.8745767, 8.945567, 0.012145758, 9.338856E-4, 10.086139
1126738868679110, 4.597809, 0.8853444, 8.944371, 0.0051493645, -0.018825054, 10.095795
1126738878318381, 4.5918264, 0.8889336, 8.903693, -5.953312E-4, -0.032644987, 10.0573225
1126738887957652, 4.5966125, 0.91884387, 8.892925, 0.012107849, -0.060483932, 10.052536
1126738897596923, 4.581059, 0.91525465, 8.868998, 0.013476372, -0.05778241, 10.023942
1126738907236298, 4.54397, 0.9296116, 8.855837, 0.04426956, -0.053035975, 9.996644
1126738916875569, 4.523631, 0.9236295, 8.836694, 0.04844904, -0.04443264, 9.9699135
1126738926514840, 4.5451665, 0.8985049, 8.855837, 0.023142815, -0.029278755, 9.994514
1126738936154110, 4.578666, 0.8781659, 8.87139, -0.0076010227, -0.02541542, 10.021788
1126738945793381, 4.5942197, 0.86859465, 8.903693, -0.014758348, -0.015133381, 10.056671
1126738955432756, 4.618148, 0.8745767, 8.925228, -0.020464897, -0.02476573, 10.087162
1126738965072027, 4.6169515, 0.87338024, 8.935996, -0.017437458, -0.019182444, 10.096058
1126738974711298, 4.601398, 0.8566305, 8.932407, -0.018095016, 8.263588E-4, 10.084356
1126738984350569, 4.5678983, 0.8530413, 8.91805, -0.0020229816, 0.01682353, 10.056078
1126738993989840, 4.5595236, 0.80877405, 8.913264, -0.027356625, 0.05437708, 10.044199
1126739003629215, 4.5619164, 0.77647096, 8.906086, -0.051793337, 0.07531905, 10.036135
1126739013268485, 4.554738, 0.7752745, 8.9108715, -0.04531598, 0.08149862, 10.037014
1126739022907756, 4.546363, 0.76331043, 8.959925, -0.030613184, 0.11121535, 10.0756645
1126739032547027, 4.554738, 0.802792, 8.971889, -0.007966757, 0.08052659, 10.093481
1126739042186298, 4.5714874, 0.84347, 8.953942, 4.8589706E-4, 0.03093028, 10.08871
1126739051825673, 4.601398, 0.8865408, 8.943174, 0.004730463, -0.026864052, 10.096457
1126739061464944, 4.5918264, 0.9236295, 8.928818, 0.030669212, -0.055271626, 10.082546
1126739071104215, 4.584648, 0.95473623, 8.921639, 0.05477023, -0.07800341, 10.075569
1126739080743485, 4.5523453, 0.9798609, 8.895318, 0.08745575, -0.08777261, 10.039686
1126739090382756, 4.5523453, 0.96909314, 8.857033, 0.069470644, -0.09118748, 10.004842
1126739100022131, 4.566702, 0.91405827, 8.82473, 0.013304472, -0.0664475, 9.978052
1126739109661402, 4.5858445, 0.86979103, 8.796016, -0.039546728, -0.049920797, 9.957528
1126739119300673, 4.618148, 0.8350951, 8.809176, -0.080726385, -0.034301758, 9.980911
1126739128939944, 4.5930233, 0.8350951, 8.843872, -0.0518713, -0.007849932, 10.000229
1126739138579215, 4.549952, 0.8039884, 8.85823, -0.036005497, 0.044215202, 9.990668
1126739148218485, 4.5248275, 0.7908279, 8.878569, -0.02102065, 0.072752476, 9.996137
1126739157857860, 4.517649, 0.802792, 8.913264, 0.002400875, 0.07699013, 10.024668
1126739167497131, 4.5092745, 0.81236327, 8.95155, 0.026542664, 0.084747076, 10.055637
1126739177136402, 4.5451665, 0.8362915, 8.96471, 0.020194054, 0.04922414, 10.08569
1126739186775673, 4.587041, 0.8602197, 8.989835, 0.013391495, 0.015245199, 10.12905
1126739196414944, 4.599005, 0.8913264, 8.986245, 0.023878336, -0.017676353, 10.133955
1126739206054319, 4.662415, 0.91525465, 9.005388, 8.151531E-4, -0.06329656, 10.181788
1126739215693590, 4.6779685, 0.9056834, 9.012567, -0.013985872, -0.061810493, 10.19441
1126739225332860, 4.648058, 0.8853444, 9.001799, -0.0076417923, -0.032608986, 10.169539
1126739234972131, 4.6289153, 0.85184485, 8.991031, -0.017928123, 0.0015904903, 10.148438
1126739244611402, 4.575077, 0.8255238, 8.928818, -0.016367435, 0.03272605, 10.066543
1126739254250673, 4.53081, 0.8171489, 8.868998, -0.008673191, 0.04196334, 9.9926605
1126739263890048, 4.4985065, 0.8171489, 8.847462, 0.006208658, 0.05307603, 9.958866
1126739273529319, 4.473382, 0.8111669, 8.816355, 0.008184195, 0.06106639, 9.919348
1126739283168590, 4.49731, 0.84107715, 8.769695, -0.0034396648, 0.008836985, 9.891443
1126739292807860, 4.526024, 0.8757731, 8.779266, 0.0024168491, -0.031093836, 9.915968
1126739302447131, 4.554738, 0.92602235, 8.816355, 0.025251865, -0.0720675, 9.966214
1126739312086402, 4.5882373, 0.9523434, 8.852247, 0.031146765, -0.09821844, 10.015517
1126739321725777, 4.625326, 0.95473623, 8.900104, 0.022636414, -0.10342193, 10.07501
1126739331365048, 4.638487, 0.91166544, 8.946764, 7.674694E-4, -0.061006546, 10.118673
1126739341004319, 4.644469, 0.8961121, 8.979067, -0.003984213, -0.04058385, 10.148699
1126739350643590, 4.6564326, 0.8422736, 9.000603, -0.04309368, 0.0033781528, 10.168617
1126739360282860, 4.621737, 0.8135597, 8.991031, -0.040744543, 0.042421818, 10.141868
1126739369922131, 4.566702, 0.7645068, 8.971889, -0.039556265, 0.10432148, 10.095622
1126739379561506, 4.5355954, 0.77647096, 8.943174, -0.019967556, 0.10194278, 10.057043
1126739389200777, 4.5116673, 0.8111669, 8.919247, 0.011402369, 0.07932329, 10.027945
1126739398840048, 4.5128636, 0.82672024, 8.886943, 0.01016593, 0.054837704, 10.001202
1126739408479319, 4.5272202, 0.849452, 8.857033, 0.0049419403, 0.019267082, 9.983182
1126739418118590, 4.5212383, 0.8757731, 8.8701935, 0.032604694, 0.0045936108, 9.9943905
1126739427757860, 4.5451665, 0.91884387, 8.877372, 0.046639442, -0.039998293, 10.015328
1126739437397131, 4.5918264, 0.93320084, 8.868998, 0.020400763, -0.079030275, 10.030365
1126739447036506, 4.6265225, 0.91525465, 8.874979, -0.012401581, -0.08262253, 10.04991
1126739456675777, 4.6432724, 0.8925229, 8.898908, -0.03167057, -0.06586385, 10.076796
1126739466315048, 4.621737, 0.8805587, 8.897711, -0.02414751, -0.04431653, 10.064915
1126739475954319, 4.6061835, 0.849452, 8.895318, -0.034264565, -0.011047125, 10.053053
1126739485593590, 4.581059, 0.8530413, 8.889337, -0.017256498, 1.1920929E-4, 10.036621
1126739495232860, 4.5834517, 0.8566305, 8.880961, -0.022017956, -0.0028760433, 10.030594
1126739504872131, 4.5427737, 0.86979103, 8.873783, 0.012244701, 0.0076668262, 10.006854
1126739514511506, 4.5248275, 0.85064846, 8.886943, 0.016667604, 0.03670597, 10.008686
1126739524150777, 4.5415773, 0.8602197, 8.898908, 0.0141096115, 0.023721695, 10.027746
1126739533790048, 4.5296135, 0.863809, 8.907282, 0.027386665, 0.030402899, 10.030033
1126739543429319, 4.5678983, 0.8650054, 8.920443, 0.0058407784, 0.011980295, 10.059226
1126739553068590, 4.5690947, 0.863809, 8.9013, -4.6634674E-4, 0.0036330223, 10.042706
1126739562707860, 4.57747, 0.8578269, 8.912068, -0.0038723946, 0.004380703, 10.055546
1126739572347131, 4.5834517, 0.8542377, 8.941978, -0.0014061928, 0.014407396, 10.084471
1126739581986506, 4.5631127, 0.6903293, 8.925228, -0.09992075, 0.14026785, 10.046322
1126739591625777, 4.638487, 1.3339987, 8.993423, 0.29261947, -0.36364388, 10.196025
1126739601265048, 4.4841495, 0.18783657, 8.800801, -0.4063437, 0.51462173, 9.857334
1126739610904319, 4.6959143, 1.6019948, 8.992228, 0.42272115, -0.60247946, 10.243852
1126739620543590, 4.486542, 0.17228323, 8.801998, -0.41825247, 0.5233588, 9.858251
1126739630182860, 4.752146, 1.4404793, 8.937193, 0.25783873, -0.51722646, 10.207708
1126739639822131, 4.5487556, 0.5491528, 8.855837, -0.20231843, 0.2267816, 9.966255
1126739649461402, 4.6492543, 1.0145568, 8.904889, 0.050473213, -0.15142179, 10.095369
1126739659100673, 4.557131, 1.032503, 8.953942, 0.13914299, -0.09633112, 10.098414
1126739668740048, 4.505685, 0.46660042, 8.867801, -0.21837926, 0.33091807, 9.949854
1126739678379319, 4.5738807, 1.4380864, 8.988638, 0.40191746, -0.39094567, 10.172007
1126739688018590, 4.4255257, 0.13399807, 8.785249, -0.42464137, 0.5875869, 9.81113
1126739697657860, 4.6492543, 1.6007984, 8.973084, 0.45724988, -0.57100725, 10.205844
1126739707297131, 4.476971, 0.13280165, 8.797213, -0.45375514, 0.5638685, 9.8452015
1126739716936402, 4.743771, 1.457229, 8.961121, 0.2888813, -0.51052403, 10.226655
1126739726575673, 4.5272202, 0.4426722, 8.857033, -0.25750566, 0.31727362, 9.948455
1126739736214944, 4.6504507, 0.9810573, 8.920443, 0.036041737, -0.12290311, 10.106782
1126739745854215, 4.564309, 0.9523434, 8.9108715, 0.073945045, -0.055695057, 10.056587
1126739755493485, 4.5475593, 0.46301118, 8.787642, -0.27691436, 0.27393913, 9.897757
1126739765132860, 4.6289153, 1.3686945, 8.986245, 0.3236673, -0.3711257, 10.188734
1126739774772131, 4.4614177, 0.12801601, 8.864211, -0.42168427, 0.60211396, 9.897198
1126739784411402, 4.679165, 1.6283158, 9.06162, 0.4785893, -0.5659206, 10.300953
1126739794050673, 4.4458647, 0.18664017, 8.825927, -0.37398815, 0.5449364, 9.862084
1126739803689944, 4.6779685, 1.5684953, 8.939586, 0.39911413, -0.5681083, 10.187135
1126739813329215, 4.4745784, 0.53599226, 8.79482, -0.17461419, 0.25716734, 9.877316
1126739822968485, 4.648058, 1.1736795, 8.855837, 0.13859558, -0.2895124, 10.065027
1126739832607756, 4.5738807, 1.026521, 8.848659, 0.09378886, -0.13932586, 10.012226
1126739842247027, 4.5930233, 0.57906306, 8.737391, -0.24762726, 0.14933324, 9.883803
1126739851886298, 4.7102714, 1.3782659, 8.9108715, 0.24230361, -0.45115972, 10.160101
1126739861525569, 4.5415773, 0.1363909, 8.797213, -0.48481393, 0.5283096, 9.875289
1126739871164840, 4.6803613, 1.5134603, 9.048459, 0.40103912, -0.47468448, 10.280311
1126739880804110, 4.4051867, -0.011964113, 8.837891, -0.4922824, 0.72974515, 9.835612
1126739890443485, 4.625326, 1.3914263, 8.9826565, 0.33935547, -0.3945899, 10.185625
1126739900082756, 4.409972, 0.28713873, 8.880961, -0.27718854, 0.50965166, 9.902787
1126739909722027, 4.610969, 1.0648061, 8.94796, 0.12500048, -0.15453863, 10.120342
1126739919361298, 4.5284166, 0.8662018, 8.912068, 0.038131237, 0.027644873, 10.033922
1126739929000569, 4.5738807, 0.66759753, 8.840283, -0.14685845, 0.12263012, 9.97397
1126739938639840, 4.6767716, 1.4273187, 8.976674, 0.32667518, -0.4513693, 10.206844
1126739948279110, 4.5726843, 0.28953153, 8.830712, -0.3956473, 0.39465928, 9.9328985
1126739957918381, 4.7629137, 1.6773686, 9.049655, 0.46679258, -0.66343975, 10.331366
1126739967557652, 4.508078, 0.16749759, 8.857033, -0.4287238, 0.5386789, 9.915841
1126739977196923, 4.7162533, 1.5481563, 9.0029955, 0.4004042, -0.55545354, 10.257919
1126739986836194, 4.4578285, 0.33020952, 8.859426, -0.2811098, 0.45151567, 9.9089775
1126739996475465, 4.6301117, 1.1760724, 8.926425, 0.18573165, -0.24626803, 10.119634
1126740006114735, 4.490132, 0.81834537, 8.860622, 0.020064592, 0.06968069, 9.9667635
1126740015754006, 4.5296135, 0.6412765, 8.792427, -0.1461029, 0.15249658, 9.909128
1126740025393277, 4.6002016, 1.2921243, 8.898908, 0.27066517, -0.33180642, 10.091515
1126740035032548, 4.4841495, 0.23688944, 8.760123, -0.3894856, 0.46788383, 9.825115
1126740044671819, 4.694718, 1.5960127, 9.012567, 0.43556285, -0.5626693, 10.261953
1126740054311090, 4.4925246, 0.09571291, 8.823533, -0.46756554, 0.5906532, 9.873156
1126740063950360, 4.7246284, 1.544567, 9.01137, 0.38668203, -0.535146, 10.270184
1126740073589631, 4.5224347, 0.2955136, 8.859426, -0.34884524, 0.43409967, 9.935744
1126740083228902, 4.7078786, 1.2167503, 8.955139, 0.16931581, -0.31342196, 10.18392
1126740092868173, 4.5415773, 0.71665037, 8.920443, -0.06518388, 0.13558817, 10.034499
1126740102507444, 4.570291, 0.6664011, 8.865408, -0.13864756, 0.13916206, 9.994425
1126740112146819, 4.6025944, 1.2287145, 8.924032, 0.24011683, -0.26974177, 10.109478
1126740121786090, 4.490132, 0.24047868, 8.784052, -0.39710402, 0.47080112, 9.848825
1126740131425360, 4.6612186, 1.5493526, 8.971889, 0.43292928, -0.5232196, 10.205933
1126740141064631, 4.45065, 0.09571291, 8.784052, -0.46215534, 0.591161, 9.819061
1126740150703902, 4.7198424, 1.5888343, 8.993423, 0.41271877, -0.5735247, 10.255912
1126740160343173, 4.499703, 0.30867413, 8.842676, -0.32724404, 0.43138218, 9.911729
1126740169982444, 4.7007003, 1.3160524, 8.969496, 0.23819494, -0.3720436, 10.202219
1126740179621715, 4.5487556, 0.7692925, 8.926425, -0.031841278, 0.10166001, 10.047522
1126740189260985, 4.6037908, 0.85064846, 8.878569, -0.028135538, -0.006482601, 10.037263
1126740198900256, 4.595416, 1.2442678, 8.915657, 0.25150776, -0.28051662, 10.10015
1126740208539527, 4.4781675, 0.33499518, 8.754142, -0.32425165, 0.40730906, 9.824976
1126740218178798, 4.642076, 1.558924, 8.987442, 0.4474206, -0.5160582, 10.212089
1126740227818069, 4.465007, 0.1160519, 8.801998, -0.45056486, 0.59797454, 9.841969
1126740237457340, 4.694718, 1.5613167, 8.985049, 0.40876794, -0.5483315, 10.234325
1126740247096610, 4.4745784, 0.19740787, 8.79482, -0.39671803, 0.5225558, 9.847801
1126740256735881, 4.658826, 1.282553, 8.9108715, 0.21596742, -0.35106182, 10.128344
1126740266375152, 4.4985065, 0.6364908, 8.873783, -0.10469508, 0.21079159, 9.966459
1126740276014423, 4.59063, 0.80757767, 8.847462, -0.06767583, 0.028481245, 9.999913
1126740285653694, 4.5942197, 1.14018, 8.91805, 0.17203712, -0.19833398, 10.093044
1126740295292965, 4.5152564, 0.3361916, 8.805588, -0.33718848, 0.40309, 9.887506
1126740304932235, 4.671986, 1.5302101, 9.031709, 0.4083624, -0.4876814, 10.263342
1126740314571506, 4.5020957, 0.11246266, 8.863015, -0.4674337, 0.59774184, 9.912557
1126740324210777, 4.7341995, 1.6199409, 9.050852, 0.44155264, -0.59102416, 10.315545
1126740333850048, 4.4817567, 0.21655045, 8.857033, -0.37732387, 0.5198777, 9.907947
1126740343489319, 4.6875396, 1.3603196, 8.988638, 0.27494407, -0.38527703, 10.217391
1126740353128485, 4.5188456, 0.61016977, 8.891729, -0.13219428, 0.2211554, 9.989431
1126740362767756, 4.615755, 0.9020941, 8.877372, -0.011883736, -0.05006337, 10.046098
1126740372407027, 4.5834517, 1.1521441, 8.907282, 0.18622327, -0.20390701, 10.079627
1126740382046298, 4.5224347, 0.4211368, 8.755338, -0.30146456, 0.3179164, 9.853616
1126740391685569, 4.6432724, 1.524228, 8.950353, 0.39582348, -0.49807668, 10.177785
1126740401324840, 4.430311, 0.1268196, 8.787642, -0.4273398, 0.59475803, 9.814787
1126740410964110, 4.666004, 1.6043876, 9.0029955, 0.4549265, -0.54352045, 10.241935
1126740420603381, 4.4482574, 0.16869399, 8.809176, -0.39777255, 0.5620606, 9.845959
1126740430242652, 4.7174497, 1.3926228, 8.959925, 0.265702, -0.4363315, 10.208477
1126740439881923, 4.546363, 0.5599205, 8.909675, -0.17215443, 0.25255942, 10.013581
1126740449521194, 4.644469, 0.92602235, 8.91805, 0.001386404, -0.07039237, 10.097289
1126740459160465, 4.5918264, 1.0360922, 8.933603, 0.11374283, -0.11648178, 10.09659
1126740468799735, 4.537988, 0.40079778, 8.800801, -0.30977964, 0.34344554, 9.8991995
1126740478439006, 4.618148, 1.4261223, 8.928818, 0.34640694, -0.42213082, 10.138378
1126740488078277, 4.4554358, 0.09810573, 8.749356, -0.4602046, 0.6045556, 9.789509
1126740497717548, 4.6767716, 1.591227, 8.941978, 0.4193232, -0.57049465, 10.191265
1126740507356819, 4.418347, 0.15194423, 8.796016, -0.38750863, 0.58237123, 9.819644
1126740516996090, 4.7018967, 1.4919249, 8.985049, 0.3594494, -0.49481535, 10.23185
1126740526635360, 4.53081, 0.56470615, 8.946764, -0.14398599, 0.27122712, 10.039791
1126740536274631, 4.685147, 1.0588241, 8.993423, 0.09238315, -0.17120743, 10.193897
1126740545913902, 4.6372905, 1.0743774, 8.99462, 0.13227463, -0.15248275, 10.174538
1126740555553173, 4.5918264, 0.53599226, 8.848659, -0.23924685, 0.21712685, 9.978304
1126740565192444, 4.6612186, 1.457229, 8.956335, 0.35552645, -0.46243644, 10.184605
1126740574831715, 4.45065, 0.148355, 8.7577305, -0.42955756, 0.55370164, 9.799849
1126740584470985, 4.6899323, 1.6283158, 8.950353, 0.42769957, -0.6060145, 10.208109
1126740594110152, 4.465007, 0.13758731, 8.758927, -0.44354343, 0.5598502, 9.806316
1126740603749423, 4.6911287, 1.4608182, 8.930014, 0.31362987, -0.48271036, 10.17617
1126740613388694, 4.465007, 0.42711884, 8.863015, -0.22175217, 0.3824594, 9.923523
1126740623027965, 4.59063, 1.0456635, 8.909675, 0.10615516, -0.12659836, 10.075829
1126740632667235, 4.5116673, 0.9499506, 8.94796, 0.11330891, -0.004496336, 10.065321
1126740642306506, 4.5092745, 0.50368917, 8.863015, -0.20371866, 0.30132365, 9.950277
1126740651945777, 4.633701, 1.3519448, 9.0341015, 0.31941795, -0.33923292, 10.232147
1126740661585048, 4.490132, 0.12921242, 8.868998, -0.4386921, 0.5822861, 9.914918
1126740671224319, 4.7138605, 1.5900307, 9.047262, 0.43941975, -0.56254435, 10.300102
1126740680863590, 4.4745784, 0.1052842, 8.817552, -0.46609282, 0.5938575, 9.859627
1126740690502860, 4.692325, 1.5122639, 8.968299, 0.36851883, -0.513953, 10.214465
1126740700142131, 4.469793, 0.4331009, 8.867801, -0.22360516, 0.36286283, 9.930903
1126740709781402, 4.6325045, 1.1234303, 8.921639, 0.13717914, -0.20915341, 10.112134
1126740719420673, 4.558327, 0.94755775, 8.874979, 0.057743788, -0.05540538, 10.02173
1126740729059944, 4.57747, 0.66161543, 8.79123, -0.17026877, 0.11501455, 9.931491
1126740738699110, 4.625326, 1.43689, 8.932407, 0.35371232, -0.4367187, 10.145461
1126740748338381, 4.506881, 0.23928227, 8.772088, -0.40789557, 0.459898, 9.845856
1126740757977652, 4.6911287, 1.6606189, 8.980264, 0.46770072, -0.62546086, 10.237165
1126740767616923, 4.442275, 0.12921242, 8.751749, -0.44958234, 0.5808945, 9.787956
1126740777256194, 4.6564326, 1.5206388, 8.943174, 0.39011168, -0.5127053, 10.176446
1126740786895465, 4.4446683, 0.33379877, 8.891729, -0.27115083, 0.46703076, 9.931654
1126740796534735, 4.6289153, 1.1282159, 9.004191, 0.16470838, -0.18201661, 10.1840515
1126740806174006, 4.5332026, 0.82313097, 8.986245, 0.017852783, 0.09436321, 10.0980625
1126740815813277, 4.5690947, 0.5922236, 8.891729, -0.1882019, 0.20954227, 10.010539
1126740825452548, 4.642076, 1.2921243, 8.995817, 0.25667405, -0.31333375, 10.197016
1126740835091819, 4.5248275, 0.19621146, 8.846265, -0.43607092, 0.5042014, 9.915875
1126740844731090, 4.709075, 1.5816557, 9.042477, 0.4145112, -0.5461395, 10.294335
1126740854370360, 4.476971, 0.09332009, 8.812766, -0.48247814, 0.60605264, 9.854783
1126740864009527, 4.715057, 1.5565311, 8.961121, 0.37554812, -0.57164264, 10.221959
1126740873648798, 4.473382, 0.33738798, 8.817552, -0.31526542, 0.4253068, 9.878964
1126740883288069, 4.6612186, 1.2370893, 8.914461, 0.18083811, -0.31270218, 10.128893
1126740892927340, 4.4949174, 0.8207382, 8.88814, 0.02210784, 0.07410121, 9.993544
1126740902566610, 4.540381, 0.71306115, 8.87139, -0.086655855, 0.1247375, 9.990095
1126740912205881, 4.5882373, 1.302892, 8.9826565, 0.30459166, -0.30532122, 10.16128
1126740921845152, 4.51406, 0.28115666, 8.82473, -0.36680698, 0.449358, 9.899252
1126740931484423, 4.666004, 1.5924234, 9.004191, 0.4446652, -0.5503211, 10.241204
1126740941123694, 4.436293, 0.1052842, 8.796016, -0.4367149, 0.6026561, 9.823837
1126740950762965, 4.662415, 1.5828521, 8.957532, 0.41904616, -0.5590327, 10.197685
1126740960402235, 4.4434714, 0.27996024, 8.792427, -0.32669616, 0.47058725, 9.838772
1126740970041506, 4.6576295, 1.2454642, 8.930014, 0.19354963, -0.31004953, 10.141808
1126740979680673, 4.5487556, 0.74177504, 8.897711, -0.07191372, 0.105969906, 10.019693
1126740989319944, 4.6169515, 0.762114, 8.851051, -0.12400937, 0.0397954, 10.011055
1126740998959215, 4.6289153, 1.2382857, 8.940782, 0.2123692, -0.28790975, 10.137543
1126741008598485, 4.5224347, 0.27756742, 8.82114, -0.39429808, 0.44032097, 9.899122
1126741018237756, 4.6755753, 1.5553347, 9.048459, 0.42134643, -0.5062089, 10.282066
1126741027877027, 4.4458647, 0.101694964, 8.867801, -0.4401412, 0.62225413, 9.891058
1126741037516298, 4.674379, 1.5864414, 9.046066, 0.45468187, -0.53451157, 10.281317
1126741047155569, 4.4207397, 0.25244278, 8.859426, -0.32570887, 0.5201998, 9.885311
1126741056794840, 4.60738, 1.3004991, 8.963513, 0.27580214, -0.30697775, 10.1535
1126741066434110, 4.4805603, 0.6975078, 8.919247, -0.054778814, 0.18119502, 10.003953
1126741076073277, 4.57747, 0.83030945, 8.880961, -0.04767418, 0.019730806, 10.025541
1126741085712548, 4.627719, 1.2000005, 8.955139, 0.18693495, -0.25715637, 10.146389
1126741095351819, 4.54397, 0.35653058, 8.842676, -0.3553052, 0.37640405, 9.934776
1126741104991090, 4.6731825, 1.5421742, 9.046066, 0.41738605, -0.50072646, 10.277319
1126741114630360, 4.4482574, 0.11964113, 8.834301, -0.45866132, 0.60044265, 9.8628235
1126741124269631, 4.7138605, 1.6354942, 9.01137, 0.42906785, -0.60049987, 10.274016
1126741133908902, 4.473382, 0.2428715, 8.830712, -0.38235068, 0.5030949, 9.881919
1126741143548173, 4.662415, 1.3591232, 8.977871, 0.26701665, -0.38161254, 10.196596
1126741153187444, 4.4817567, 0.64606214, 8.915657, -0.09250355, 0.21945786, 9.996786
1126741162826715, 4.5690947, 0.8781659, 8.897711, -0.0073432922, -0.0023088455, 10.040766
1126741172465881, 4.53081, 1.1449656, 8.95155, 0.21247339, -0.16388655, 10.094425
1126741182105152, 4.4638104, 0.3684947, 8.797213, -0.29813814, 0.3970127, 9.859301
1126741191744423, 4.595416, 1.5278172, 8.970692, 0.4220631, -0.4758761, 10.174515
1126741201383694, 4.3932223, 0.11485548, 8.784052, -0.41476583, 0.6213019, 9.793627
1126741211022965, 4.6432724, 1.6295122, 8.995817, 0.47106075, -0.5757723, 10.22676
1126741220662235, 4.4339004, 0.2105684, 8.833105, -0.37070608, 0.5393839, 9.864037
1126741230301506, 4.688736, 1.4344971, 8.995817, 0.29851198, -0.44990635, 10.231091
1126741239940777, 4.5619164, 0.64606214, 8.950353, -0.13999915, 0.18334341, 10.063999
1126741249580048, 4.715057, 0.99900347, 8.96471, -0.0107495785, -0.1549778, 10.177015
1126741259219319, 4.6911287, 1.1377872, 8.988638, 0.10645151, -0.23577023, 10.199507
1126741268858485, 4.615755, 0.45583272, 8.861818, -0.3282616, 0.2742076, 9.993092
1126741278497756, 4.6959143, 1.4943178, 9.007781, 0.3421352, -0.49265838, 10.25012
1126741288137027, 4.4315076, 0.10049855, 8.793623, -0.45878077, 0.6163709, 9.817626
1126741297776298, 4.566702, 1.6031911, 8.940782, 0.47641253, -0.51498675, 10.142504
1126741307415569, 4.302295, 0.14237295, 8.734999, -0.36272478, 0.6361835, 9.710506
1126741317054840, 4.5415773, 1.4237294, 8.8701935, 0.35045648, -0.3939681, 10.052625
1126741326694110, 4.3800616, 0.5312066, 8.825927, -0.13874531, 0.3410995, 9.860451
1126741336333381, 4.5427737, 0.9882358, 8.9013, 0.07358694, -0.062693596, 10.041774
1126741345972652, 4.56072, 1.0408778, 8.957532, 0.11538005, -0.09872079, 10.104351
1126741355611923, 4.5822554, 0.4941179, 8.867801, -0.28962636, 0.26007748, 9.98637
1126741365251090, 4.7377887, 1.4668003, 9.110672, 0.31665063, -0.46121716, 10.358065
1126741374890360, 4.56072, 0.14476576, 8.974281, -0.46994972, 0.56779075, 10.040698
1126741384529631, 4.753342, 1.6342978, 9.165708, 0.42571092, -0.5761483, 10.428914
1126741394168902, 4.503292, 0.16390835, 8.926425, -0.4375906, 0.5800345, 9.972944
1126741403808173, 4.6911287, 1.4440684, 9.05803, 0.31288266, -0.43413615, 10.288517
1126741413447444, 4.447061, 0.4833502, 8.919247, -0.18581986, 0.37237334, 9.96944
1126741423086715, 4.5451665, 1.0564312, 8.892925, 0.11087251, -0.12313056, 10.041476
1126741432725985, 4.45065, 1.0277174, 8.864211, 0.1521976, -0.06271505, 9.970539
1126741442365256, 4.4745784, 0.5838487, 8.737391, -0.19280195, 0.2120285, 9.8296795
1126741452004527, 4.6121655, 1.4991034, 8.892925, 0.35849166, -0.50059557, 10.110608
1126741461643694, 4.4889355, 0.22971097, 8.774481, -0.41172814, 0.48586345, 9.838152
1126741471282965, 4.6815577, 1.6570296, 9.010174, 0.4460225, -0.60595703, 10.260596
1126741480922235, 4.449454, 0.12801601, 8.796016, -0.4471035, 0.5852101, 9.830643
1126741490561506, 4.6899323, 1.4835501, 8.943174, 0.32037115, -0.5103855, 10.188898
1126741500200777, 4.5008993, 0.43788654, 8.851051, -0.26279044, 0.34437704, 9.929918
1126741509840048, 4.65404, 1.0779666, 8.933603, 0.07518053, -0.18712378, 10.128707
1126741519479319, 4.5355954, 0.91166544, 8.952746, 0.049335003, 0.013132095, 10.077292
1126741529118590, 4.5451665, 0.5886344, 8.889337, -0.1899736, 0.22435498, 9.996944
1126741538757860, 4.631308, 1.3998013, 9.048459, 0.3407991, -0.36848402, 10.24847
1126741548397131, 4.475775, 0.18305093, 8.891729, -0.41826415, 0.5660343, 9.931445
1126741558036402, 4.666004, 1.6235301, 9.092726, 0.48595023, -0.5355921, 10.322893
1126741567675569, 4.421936, 0.104087785, 8.849854, -0.44411635, 0.62642765, 9.863805
1126741577314840, 4.6552362, 1.5134603, 8.99462, 0.38580012, -0.4738567, 10.222115
1126741586954110, 4.421936, 0.3505485, 8.853444, -0.28196383, 0.441787, 9.888639
1126741596593381, 4.595416, 1.1114662, 8.921639, 0.13664603, -0.18746829, 10.094307
1126741606232652, 4.499703, 0.85184485, 8.904889, 0.018001795, 0.052821398, 10.013338
1126741615871923, 4.5487556, 0.6053841, 8.852247, -0.20008993, 0.1814065, 9.967298
1126741625511194, 4.619344, 1.3710874, 9.016156, 0.32581234, -0.35039926, 10.211775
1126741635150465, 4.486542, 0.25244278, 8.895318, -0.37897635, 0.48881936, 9.946703
1126741644789735, 4.7174497, 1.6761723, 9.15494, 0.502929, -0.5770385, 10.40629
1126741654429006, 4.4913282, 0.16031912, 8.953942, -0.4274063, 0.57212806, 9.993038
1126741664068173, 4.7748775, 1.6151553, 9.098708, 0.39632773, -0.5906484, 10.377318
1126741673707444, 4.5296135, 0.42592242, 8.906086, -0.2799034, 0.3471675, 9.99091
1126741683346715, 4.692325, 1.2586247, 8.932407, 0.16490674, -0.33834815, 10.161116
1126741692985985, 4.5523453, 0.863809, 8.815159, -0.030710697, -0.011642456, 9.958714
1126741702625256, 4.517649, 0.6999006, 8.652447, -0.16505694, 0.079638004, 9.784185
1126741712264527, 4.503292, 1.2777673, 8.69791, 0.23931003, -0.32699633, 9.869233
1126741721903798, 4.3872404, 0.2213361, 8.532805, -0.42366242, 0.46757984, 9.576405
1126741731543069, 4.5738807, 1.5732809, 8.769695, 0.4152851, -0.56071234, 9.990809
1126741741182340, 4.3501515, 0.08015956, 8.628518, -0.46754265, 0.6188791, 9.632235
1126741750821610, 4.581059, 1.5469599, 8.872586, 0.41299748, -0.50247955, 10.083597
1126741760460881, 4.3561335, 0.2835495, 8.822337, -0.28816128, 0.533118, 9.824596
1126741770100152, 4.599005, 1.2598212, 8.980264, 0.2402947, -0.26922297, 10.161343
1126741779739319, 4.490132, 0.7680961, 9.104691, 0.023569345, 0.18777776, 10.178941
1126741789378590, 4.6205406, 0.8039884, 9.160921, -0.031312227, 0.10962796, 10.291029
1126741799017860, 4.7401814, 1.3244274, 9.328419, 0.27952576, -0.28606486, 10.539585
1126741808657131, 4.59063, 0.3361916, 9.242277, -0.3054583, 0.49604177, 10.3086
1126741818296402, 4.7832522, 1.6893328, 9.499506, 0.5315223, -0.51354, 10.74373
1126741827935673, 4.627719, 0.24526432, 9.219545, -0.39975905, 0.53671503, 10.296994
1126741837574944, 4.8454657, 1.7144574, 9.305687, 0.4443493, -0.6293423, 10.602839
1126741847214215, 4.5619164, 0.3505485, 9.025727, -0.3401606, 0.43477345, 10.104108
1126741856853485, 4.6959143, 1.3184453, 8.986245, 0.19348717, -0.35706377, 10.216535
1126741866492756, 4.4889355, 0.70229346, 8.883354, -0.089280844, 0.18974066, 9.975659
1126741876132027, 4.4662037, 0.7968099, 8.717052, -0.058844328, 0.07169938, 9.8265085
1126741885771298, 4.432704, 1.1772687, 8.62134, 0.18996263, -0.22990227, 9.760808
1126741895410465, 4.375276, 0.2416751, 8.384451, -0.4475131, 0.4171908, 9.440666
1126741905049735, 4.5595236, 1.4261223, 8.630911, 0.2652948, -0.48634267, 9.849304
1126741914689006, 4.351348, -0.034695927, 8.5112705, -0.55465174, 0.6890335, 9.518128
1126741924328277, 4.5894337, 1.4931214, 8.781659, 0.35470414, -0.5174277, 10.000814
1126741933967548, 4.3561335, 0.17587246, 8.642876, -0.37604833, 0.5694492, 9.656109
1126741943606819, 4.6396832, 1.3399807, 8.79123, 0.22567368, -0.4241867, 10.018837
1126741953246090, 4.5332026, 0.71665037, 8.769695, -0.116619825, 0.093446255, 9.896906
1126741962885360, 4.65404, 0.971486, 8.835498, -0.027006388, -0.13428092, 10.032503
1126741972524631, 4.6636114, 1.3100704, 8.979067, 0.231668, -0.33998275, 10.194113
1126741982163902, 4.599005, 0.49651068, 8.94796, -0.28718615, 0.29969525, 10.064346
1126741991803173, 4.741378, 1.6761723, 9.24826, 0.48684788, -0.5438447, 10.501797
1126742001442444, 4.523631, 0.2440679, 9.128618, -0.34966063, 0.5906966, 10.167758
1126742011081715, 4.7569313, 1.7120646, 9.359526, 0.5254338, -0.5501938, 10.610441
1126742020720881, 4.5044885, 0.27876383, 9.1872425, -0.2930553, 0.5990608, 10.214146
1126742030360152, 4.694718, 1.3974084, 9.2997055, 0.33921075, -0.29165053, 10.50131
1126742039999423, 4.485346, 0.60658056, 9.186047, -0.0632987, 0.3614874, 10.2340145
1126742049638694, 4.59063, 0.8530413, 9.113065, 0.0050520897, 0.09640741, 10.239149
1126742059277965, 4.5690947, 1.0289137, 9.046066, 0.12057209, -0.05453205, 10.18573
1126742068917235, 4.5332026, 0.3361916, 8.852247, -0.35640383, 0.41651106, 9.936031
1126742078556506, 4.674379, 1.422533, 8.957532, 0.28780532, -0.43927383, 10.189947
1126742088195777, 4.493721, 0.07178468, 8.721839, -0.53051543, 0.59349155, 9.779339
1126742097835048, 4.706682, 1.564906, 8.845069, 0.35156322, -0.607007, 10.11657
1126742107474319, 4.4111686, 0.148355, 8.5423765, -0.47301435, 0.516556, 9.589684
1126742117113590, 4.601398, 1.430908, 8.641679, 0.2759409, -0.51938605, 9.876896
1126742126752860, 4.408776, 0.59940207, 8.508878, -0.17752528, 0.16051221, 9.598974
1126742136392131, 4.5128636, 1.0336994, 8.518449, 0.036920786, -0.20901132, 9.692957
1126742146031402, 4.503292, 1.1389836, 8.645268, 0.15229726, -0.23718119, 9.810106
1126742155670673, 4.5320063, 0.5455636, 8.640483, -0.26494455, 0.18992949, 9.766699
1126742165309944, 4.6576295, 1.5254245, 8.957532, 0.39074087, -0.49443293, 10.191206
1126742174949215, 4.482953, 0.18065812, 8.921639, -0.39138865, 0.58991504, 9.9611225
1126742184588485, 4.7078786, 1.678565, 9.224331, 0.5259752, -0.54615426, 10.463989
1126742194227652, 4.5008993, 0.21535404, 9.085547, -0.3301506, 0.5973885, 10.118587
1126742203866923, 4.7748775, 1.4859428, 9.303294, 0.37416315, -0.41834617, 10.5472145
1126742213506194, 4.5942197, 0.5515456, 9.239884, -0.1357317, 0.34959412, 10.326948
1126742223145465, 4.7509494, 1.0468599, 9.213564, 0.07563758, -0.116880655, 10.418147
1126742232784735, 4.65404, 0.997807, 9.180064, 0.10280728, -0.0436728, 10.340059
1126742242424006, 4.5858445, 0.46061835, 8.999406, -0.2596717, 0.33791304, 10.101974
1126742252063277, 4.6492543, 1.3543376, 9.068798, 0.31143546, -0.33478475, 10.270533
1126742261702548, 4.456632, 0.069391854, 8.830712, -0.482121, 0.63166976, 9.859839
1126742271341819, 4.6492543, 1.5278172, 8.928818, 0.3827784, -0.5110576, 10.161983
1126742280981090, 4.4111686, 0.06460621, 8.671589, -0.49427462, 0.603487, 9.697966
1126742290620360, 4.6468616, 1.451247, 8.813962, 0.30568123, -0.49450898, 10.052233
1126742300259631, 4.442275, 0.45942193, 8.719446, -0.23095393, 0.31038904, 9.788971
1126742309898902, 4.6037908, 1.0959128, 8.807981, 0.117177725, -0.2165873, 9.995789
1126742319538173, 4.5487556, 1.0133604, 8.842676, 0.10951185, -0.11170578, 9.994326
1126742329177444, 4.6025944, 0.6257231, 8.800801, -0.19757152, 0.13125587, 9.948528
1126742338816715, 4.6899323, 1.4727824, 8.974281, 0.36258674, -0.4810946, 10.214664
1126742348455985, 4.499703, 0.22971097, 8.840283, -0.3854587, 0.5041945, 9.901915
1126742358095256, 4.682754, 1.672583, 9.035298, 0.5064955, -0.5969684, 10.283454
1126742367734527, 4.4315076, 0.16869399, 8.796016, -0.40220857, 0.57353854, 9.825779
1126742377373798, 4.644469, 1.5481563, 8.949157, 0.42307997, -0.5061114, 10.1793995
1126742387013069, 4.456632, 0.44147578, 8.833105, -0.22127199, 0.36443114, 9.894364
1126742396652340, 4.6803613, 1.1473584, 8.927621, 0.11797023, -0.23807812, 10.141699
1126742406291610, 4.601398, 0.8889336, 8.952746, 0.0072033405, 6.518364E-4, 10.105181
1126742415930881, 4.648058, 0.5886344, 8.902496, -0.2432158, 0.18067384, 10.055524
1126742425570152, 4.7282176, 1.3220345, 9.035298, 0.23396158, -0.36178088, 10.273988
1126742435209423, 4.5427737, 0.16151553, 8.908479, -0.45745087, 0.5489576, 9.975634
1126742444848590, 4.6959143, 1.550549, 9.110672, 0.43619943, -0.487607, 10.345633
1126742454487860, 4.432704, 0.05503492, 8.880961, -0.45037055, 0.6942446, 9.891337
1126742464127131, 4.6432724, 1.4811572, 8.997013, 0.3906548, -0.45365262, 10.214776
1126742473766402, 4.421936, 0.33260235, 8.851051, -0.26447988, 0.48082423, 9.88454
1126742483405673, 4.619344, 1.1676974, 8.916854, 0.17390037, -0.23525524, 10.105768
1126742493044944, 4.5212383, 0.82672024, 8.880961, 0.001994133, 0.06394386, 9.999621
1126742502684215, 4.5966125, 0.7070791, 8.831908, -0.14437747, 0.09224653, 9.9800825
1126742512323485, 4.6731825, 1.3950156, 8.939586, 0.29528642, -0.42280126, 10.170296
1126742521962756, 4.56072, 0.32542387, 8.815159, -0.37627292, 0.3992803, 9.915244
1126742531602027, 4.755735, 1.672583, 9.050852, 0.44287634, -0.6323621, 10.331332
1126742541241298, 4.5008993, 0.15314065, 8.840283, -0.43276048, 0.5647006, 9.895757
1126742550880569, 4.7318068, 1.6103697, 9.031709, 0.40880942, -0.5778556, 10.298252
1126742560519840, 4.4674, 0.33379877, 8.882157, -0.2772045, 0.46537828, 9.933196
1126742570159110, 4.638487, 1.3351951, 8.999406, 0.28165293, -0.33224583, 10.202838
1126742579798381, 4.506881, 0.7178468, 8.885747, -0.061464548, 0.16697001, 9.987598
1126742589437652, 4.5714874, 0.85902333, 8.9013, -0.010102987, 0.028938532, 10.043338
1126742599076923, 4.554738, 0.8135597, 8.88814, -0.031479836, 0.06793189, 10.020027
1126742608716194, 4.57747, 0.8554341, 8.908479, -0.013696194, 0.030354261, 10.052109
1126742618355465, 4.60738, 0.86859465, 8.930014, -0.020326138, 0.011709452, 10.085981
1126742627994735, 4.615755, 0.8781659, 8.991031, 6.6804886E-4, 0.019052505, 10.144686
1126742637634006, 4.6265225, 0.8865408, 9.008977, 0.003684044, 0.01315856, 10.166225
1126742647273277, 4.658826, 0.88295156, 8.986245, -0.028227568, -0.009255886, 10.160511
1126742656912548, 4.6600223, 0.89491564, 8.925228, -0.040467024, -0.04034686, 10.108072
1126742666551819, 4.625326, 0.90329057, 8.886943, -0.021846533, -0.04068899, 10.059086
1126742676191090, 4.581059, 0.90089774, 8.852247, -0.0020706654, -0.02368164, 10.00797
1126742685830360, 4.5224347, 0.9020941, 8.830712, 0.033887863, 2.8848648E-5, 9.962255
1126742695469631, 4.4985065, 0.8925229, 8.822337, 0.041816473, 0.016824722, 9.943075
1126742705108902, 4.508078, 0.89371926, 8.833105, 0.038973093, 0.014738321, 9.957084
1126742714748173, 4.5128636, 0.87338024, 8.860622, 0.030439615, 0.03655839, 9.981839
1126742724387444, 4.549952, 0.8709874, 8.880961, 0.008457422, 0.022144318, 10.016567
1126742734026715, 4.57747, 0.8865408, 8.891729, 0.0023918152, -0.0032317638, 10.040019
1126742743665985, 4.584648, 0.9020941, 8.880961, 0.0042717457, -0.024687767, 10.03512
1126742753305256, 4.619344, 0.9128618, 8.943174, 0.0053663254, -0.029640198, 10.106986
1126742762944527, 4.648058, 0.90448695, 8.961121, -0.014838219, -0.034226418, 10.135227
1126742772583798, 4.662415, 0.8745767, 8.987442, -0.036529303, -0.011718988, 10.162463
1126742782223069, 4.6707897, 0.8781659, 8.992228, -0.0382123, -0.01756978, 10.170834
1126742791862340, 4.6528435, 0.8817552, 8.99821, -0.021586657, -0.0081624985, 10.168269
1126742801501610, 4.564309, 0.86979103, 8.999406, 0.033869267, 0.050338984, 10.127936
1126742811140881, 4.540381, 0.8662018, 8.980264, 0.043298006, 0.06008768, 10.099753
1126742820780152, 4.5332026, 0.85902333, 8.930014, 0.026871204, 0.051449537, 10.05135
1126742830419423, 4.523631, 0.8673982, 8.902496, 0.030888557, 0.040430307, 10.023346
1126742840058694, 4.5535417, 0.88414794, 8.8905325, 0.016738653, 0.006774187, 10.027845
1126742849697965, 4.59063, 0.91405827, 8.865408, 0.0022525787, -0.04572463, 10.025107
1126742859337235, 4.610969, 0.9403793, 8.866604, 0.005901575, -0.077213526, 10.037729
1126742868976610, 4.6121655, 0.9451649, 8.876176, 0.011769295, -0.07825422, 10.047173
1126742878615881, 4.5690947, 0.9499506, 8.907282, 0.056129932, -0.046621084, 10.055514
1126742888255152, 4.5738807, 0.9068798, 8.902496, 0.023989916, -0.017758846, 10.049695
1126742897894423, 4.5726843, 0.8853444, 8.925228, 0.017093182, 0.008039951, 10.067403
1126742907533694, 4.578666, 0.8446664, 8.937193, -0.012401104, 0.04184413, 10.077161
1126742917172965, 4.6002016, 0.83389866, 8.959925, -0.03046012, 0.04673624, 10.106155
1126742926812235, 4.62413, 0.8327023, 8.930014, -0.0602355, 0.024160147, 10.090437
1126742936451506, 4.59063, 0.8350951, 8.914461, -0.039518595, 0.034807444, 10.061618
1126742946090777, 4.5690947, 0.82911307, 8.900104, -0.033937693, 0.046227455, 10.038557
1126742955730048, 4.5451665, 0.86261255, 8.914461, 0.010254145, 0.038830757, 10.043339
1126742965369319, 4.549952, 0.88295156, 8.9013, 0.017357111, 0.015580893, 10.035652
1126742975008590, 4.5726843, 0.92482597, 8.880961, 0.023256302, -0.037213326, 10.031664
1126742984647860, 4.5619164, 0.910469, 8.861818, 0.016173363, -0.027055264, 10.008541
1126742994287131, 4.5882373, 0.910469, 8.873783, 0.003538847, -0.040294886, 10.031116
1126743003926402, 4.6085763, 0.9092726, 8.904889, -0.0026848316, -0.039345026, 10.067833
1126743013565673, 4.618148, 0.8961121, 8.949157, -0.0013840199, -0.020988464, 10.110256
1126743023204944, 4.6396832, 0.8542377, 8.977871, -0.03442359, 0.010005951, 10.141858
1126743032844215, 4.618148, 0.8602197, 8.974281, -0.015484095, 0.016221523, 10.129387
1126743042483485, 4.56072, 0.8578269, 8.969496, 0.022524834, 0.04695511, 10.09877
1126743052122756, 4.5451665, 0.83748794, 8.920443, 0.0026757717, 0.056076765, 10.046446
1126743061762027, 4.5152564, 0.8769695, 8.87139, 0.033919334, 0.024333715, 9.99282
1126743071401298, 4.5415773, 0.8805587, 8.82473, 0.0011715889, -0.008217335, 9.963791
1126743081040569, 4.5678983, 0.9164511, 8.833105, 0.0056266785, -0.046556473, 9.986347
1126743090679840, 4.5894337, 0.92602235, 8.85464, 0.0032215118, -0.057624817, 10.016074
1126743100319110, 4.6169515, 0.9200403, 8.879765, -0.01159358, -0.059359074, 10.050339
1126743109958381, 4.6145587, 0.9320044, 8.922835, 0.011273146, -0.052088022, 10.088455
1126743119597756, 4.597809, 0.91884387, 8.952746, 0.025207758, -0.023275614, 10.106166
1126743129237027, 4.587041, 0.8997013, 8.96471, 0.025304317, 3.4832954E-4, 10.110183
1126743138876298, 4.578666, 0.85064846, 8.965906, 1.0204315E-4, 0.041071177, 10.1031475
1126743148515569, 4.564309, 0.8111669, 8.988638, -0.008113146, 0.08514023, 10.113319
1126743158154840, 4.56072, 0.8039884, 9.007781, -0.0037517548, 0.09676337, 10.128045
1126743167794110, 4.5834517, 0.80997044, 9.001799, -0.017484426, 0.07801771, 10.13361
1126743177433381, 4.5858445, 0.8315059, 9.001799, -0.005648613, 0.059312582, 10.136579
1126743187072652, 4.597809, 0.8566305, 8.989835, -0.0018625259, 0.02939272, 10.133605
1126743196711923, 4.6061835, 0.8853444, 8.932407, -0.009138346, -0.017668009, 10.089016
1126743206351194, 4.599005, 0.9343972, 8.895318, 0.016008854, -0.06379247, 10.057152
1126743215990465, 4.631308, 0.971486, 8.886943, 0.013946295, -0.11098719, 10.067673
1126743225629735, 4.6145587, 0.9762716, 8.88814, 0.029806137, -0.10532212, 10.061526
1126743235269006, 4.6037908, 0.96550393, 8.872586, 0.02790904, -0.09445214, 10.041922
1126743244908277, 4.5714874, 0.93320084, 8.853444, 0.025336266, -0.05778265, 10.00744
1126743254547548, 4.5523453, 0.89491564, 8.852247, 0.014512777, -0.018421173, 9.994322
1126743264186819, 4.5523453, 0.85064846, 8.868998, -0.00849247, 0.021473885, 10.005301
1126743273826090, 4.537988, 0.82313097, 8.842676, -0.0253129, 0.040857315, 9.973038
1126743283465465, 4.526024, 0.8171489, 8.848659, -0.018027782, 0.054228306, 9.972367
1126743293104735, 4.537988, 0.81954175, 8.817552, -0.037259102, 0.03547716, 9.950456
1126743302744006, 4.575077, 0.8243274, 8.829515, -0.057332516, 0.016156197, 9.978359
1126743312383277, 4.633701, 0.84347, 8.852247, -0.08198714, -0.022206068, 10.02685
1126743322022548, 4.664808, 0.8578269, 8.902496, -0.07964826, -0.032938957, 10.08679
1126743331661819, 4.6169515, 0.86859465, 8.988638, -0.010394096, 0.014310598, 10.142288
1126743341301090, 4.5942197, 0.8662018, 9.078369, 0.031255245, 0.05997634, 10.211239
1126743350940360, 4.5762734, 0.8650054, 9.075976, 0.03993225, 0.06718755, 10.2008705
1126743360579631, 4.5690947, 0.87338024, 9.0233345, 0.030977964, 0.045049906, 10.151699
1126743370218902, 4.5487556, 0.87218386, 8.950353, 0.022845268, 0.031146288, 10.077659
1126743379858173, 4.54397, 0.89371926, 8.908479, 0.025112629, 0.0024683475, 10.0402565
1126743389497444, 4.554738, 0.8997013, 8.88814, 0.014151812, -0.013480902, 10.027651
1126743399136715, 4.554738, 0.93679005, 8.865408, 0.03153205, -0.0492177, 10.010758
1126743408775985, 4.599005, 0.9595219, 8.85823, 0.012758255, -0.093373775, 10.02651
1126743418415360, 4.634897, 0.94396853, 8.85464, -0.023278713, -0.10259247, 10.038275
1126743428054631, 4.621737, 0.93559366, 8.874979, -0.013929844, -0.08214831, 10.049582
1126743437693902, 4.5858445, 0.8745767, 8.909675, -0.017876863, -0.0039966106, 10.058669
1126743447333173, 4.54397, 0.8530413, 8.9348, 0.0047802925, 0.044371605, 10.06002
1126743456972444, 4.5284166, 0.8171489, 8.962317, -6.351471E-4, 0.08812666, 10.074207
1126743466611715, 4.499703, 0.802792, 8.974281, 0.013453245, 0.11906171, 10.07051
1126743476250985, 4.496114, 0.8207382, 8.962317, 0.020656586, 0.10044074, 10.059883
1126743485890256, 4.516453, 0.8578269, 8.953942, 0.028364182, 0.05827737, 10.064945
1126743495529527, 4.5284166, 0.8925229, 8.975478, 0.045148373, 0.029605865, 10.092545
1126743505168798, 4.5798626, 0.93559366, 8.979067, 0.03819537, -0.02989626, 10.122834
1126743514808069, 4.610969, 0.9810573, 8.968299, 0.039580345, -0.08661842, 10.131378
1126743524447340, 4.6325045, 1.0097711, 8.969496, 0.041559935, -0.116716385, 10.144765
1126743534086610, 4.638487, 0.9870393, 8.946764, 0.015806198, -0.11062217, 10.125311
1126743543725985, 4.6325045, 0.94755775, 8.91805, -0.014469147, -0.08302641, 10.093686
