timestamp_acc,device_acc_x,device_acc_y,device_acc_z,earth_acc_x,earth_acc_y,earth_acc_z
1126333149905677, -1.0277174, 5.365905, 8.250452, -0.019888878, -0.08936453, 9.894983
1126333159545365, -1.0193424, 5.3204412, 8.340183, 0.01602614, -0.005367756, 9.945075
1126333169185052, -1.0025927, 5.3108697, 8.368897, 0.0123102665, 0.024363995, 9.962341
1126333178824740, -0.997807, 5.3144593, 8.385647, 0.012247324, 0.031170368, 9.977827
1126333188464427, -1.0001999, 5.3240304, 8.366505, 0.005779028, 0.013629913, 9.96714
1126333198104011, -0.96550393, 5.2833524, 8.292327, -0.018533349, 0.022768974, 9.879667
1126333207743698, -0.9559326, 5.2869415, 8.222935, -0.041763306, -0.0081830025, 9.822443
1126333217383386, -0.95712906, 5.285745, 8.202596, -0.04306054, -0.016825676, 9.80488
1126333227023073, -0.94396853, 5.2809596, 8.249256, -0.040852666, 0.01761818, 9.840115
1126333236662761, -0.98584294, 5.2905307, 8.311469, 0.0044959784, 0.020477772, 9.901599
1126333246302448, -1.0205388, 5.3383875, 8.368897, 0.023988605, -0.003022194, 9.978867
1126333255942136, -1.0504491, 5.3850474, 8.336594, 0.019684076, -0.066681385, 9.979788
1126333265581823, -1.0648061, 5.373083, 8.230113, 0.016023755, -0.11652899, 9.885584
1126333275221511, -1.0169497, 5.3587265, 8.147561, -0.03562069, -0.12027216, 9.803936
1126333284861198, -0.9810573, 5.332405, 8.114061, -0.060286045, -0.10026932, 9.758141
1126333294500886, -0.94277215, 5.2953167, 8.157132, -0.0617975, -0.035019398, 9.7705145
1126333304140573, -0.9379865, 5.229514, 8.246863, -0.017144084, 0.058959484, 9.809925
1126333313780157, -0.9200403, 5.215157, 8.343773, -0.007422924, 0.12280846, 9.881688
1126333323419844, -0.8877372, 5.237889, 8.432307, -0.029574633, 0.15584707, 9.965049
1126333333059532, -0.9236295, 5.272585, 8.453842, -0.010968685, 0.12182331, 10.005286
1126333342699219, -0.9702896, 5.300102, 8.377272, 0.00225842, 0.04101658, 9.960398
1126333352338907, -1.0001999, 5.322834, 8.299505, 7.208586E-4, -0.02605486, 9.910302
1126333361978594, -1.0468599, 5.389833, 8.221739, -0.00656569, -0.13144588, 9.885641
1126333371618282, -1.0887343, 5.373083, 8.209774, 0.030125976, -0.14114189, 9.8709135
1126333381257969, -1.105484, 5.369494, 8.254042, 0.055726647, -0.12381792, 9.907792
1126333390897657, -1.0935199, 5.3443694, 8.365308, 0.07234776, -0.040137768, 9.98647
1126333400537344, -1.018146, 5.346762, 8.488539, 0.030101418, 0.05719185, 10.083431
1126333410177032, -0.9870393, 5.3300123, 8.543573, 0.021754146, 0.11031771, 10.117474
1126333419816719, -0.9607183, 5.2953167, 8.543573, 0.015248537, 0.14470291, 10.096279
1126333429456302, -0.9343972, 5.3096733, 8.482556, -0.02688396, 0.1142025, 10.050161
1126333439095990, -0.94277215, 5.3240304, 8.415557, -0.039093018, 0.06391668, 10.002504
1126333448735677, -0.95832545, 5.3359947, 8.367701, -0.039491653, 0.023163795, 9.970334
1126333458375365, -0.99661064, 5.3515477, 8.330612, -0.020323396, -0.024965763, 9.9514
1126333468015052, -1.0348958, 5.332405, 8.311469, 0.019359589, -0.03987503, 9.928954
1126333477654740, -1.0229317, 5.304888, 8.275578, 0.017659187, -0.031589508, 9.88292
1126333487294427, -0.9738788, 5.306084, 8.22772, -0.029228568, -0.032050133, 9.838519
1126333496934115, -0.97507524, 5.288138, 8.172686, -0.027272582, -0.048351288, 9.782888
1126333506573802, -0.97507524, 5.279763, 8.147561, -0.0283854, -0.055163383, 9.757336
1126333516213490, -0.9702896, 5.285745, 8.179864, -0.026896954, -0.041368008, 9.78715
1126333525853177, -0.98584294, 5.279763, 8.237292, 4.553795E-4, -0.016489506, 9.833641
1126333535492865, -1.0157533, 5.2809596, 8.256434, 0.029671311, -0.022082806, 9.853307
1126333545132448, -1.0145568, 5.2905307, 8.242078, 0.019643545, -0.035351753, 9.846281
1126333554772136, -1.0049855, 5.332405, 8.233703, -0.012009978, -0.062811375, 9.860746
1126333564411823, -1.0301101, 5.3647084, 8.2348995, -0.007877946, -0.09505701, 9.881585
1126333574051511, -1.0564312, 5.343173, 8.255239, 0.023437262, -0.07795763, 9.889788
1126333583691198, -1.0683953, 5.3359947, 8.29113, 0.041719437, -0.060213566, 9.917248
1126333593330886, -1.0456635, 5.3216376, 8.376076, 0.04644823, 0.0043025017, 9.978462
1126333602970573, -1.0420742, 5.306084, 8.445468, 0.06155002, 0.04921913, 10.02797
1126333612610261, -0.9954142, 5.332405, 8.487342, 0.017576933, 0.07588339, 10.072454
1126333622249948, -0.9738788, 5.3503513, 8.516056, -0.0052803755, 0.083230495, 10.104007
1126333631889636, -0.96789676, 5.35753, 8.510074, -0.012913823, 0.076770306, 10.10224
1126333641529323, -0.96909314, 5.3539405, 8.446664, -0.02317667, 0.04667139, 10.047251
1126333651168907, -0.9619147, 5.3216376, 8.3784685, -0.026693225, 0.037953854, 9.972046
1126333660808594, -0.9619147, 5.312066, 8.306684, -0.035083413, 0.009507656, 9.906715
1126333670448282, -0.9762716, 5.285745, 8.240881, -0.020720482, -0.010441303, 9.838892
1126333680087969, -1.0133604, 5.296513, 8.206185, -0.0010739565, -0.053459644, 9.819298
1126333689727657, -1.0193424, 5.2941203, 8.236095, 0.011134386, -0.03993225, 9.843696
1126333699367344, -1.0097711, 5.265406, 8.273184, 0.025373578, 0.004324436, 9.858451
1126333709007032, -0.98584294, 5.2749777, 8.238488, -0.006564617, -0.0067868233, 9.832085
1126333718646719, -0.9607183, 5.2749777, 8.218149, -0.030599833, -0.004590988, 9.812511
1126333728286407, -0.95473623, 5.3132625, 8.1942215, -0.058130026, -0.040149212, 9.8123665
1126333737926094, -0.951147, 5.3156557, 8.181061, -0.064698696, -0.047106266, 9.802258
1126333747565677, -1.0013963, 5.3300123, 8.233703, -0.01647675, -0.056473255, 9.859119
1126333757205365, -1.0193424, 5.316852, 8.286345, 0.014107943, -0.029380798, 9.898002
1126333766845052, -1.0169497, 5.337191, 8.318648, 0.0092356205, -0.025904179, 9.935741
1126333776484740, -1.0073783, 5.3479586, 8.340183, -0.0022307634, -0.01771164, 9.958605
1126333786124427, -1.0193424, 5.345566, 8.342576, 0.0055758953, -0.019599915, 9.960538
1126333795764115, -1.0504491, 5.2941203, 8.333005, 0.05453813, -0.0038833618, 9.9281
1126333805403802, -1.0636097, 5.308477, 8.368897, 0.06120348, -0.0011482239, 9.96724
1126333815043490, -1.0456635, 5.3144593, 8.441878, 0.055001974, 0.04032278, 10.029833
1126333824683177, -1.0564312, 5.282156, 8.496913, 0.08925474, 0.085310936, 10.059797
1126333834322865, -1.0193424, 5.326423, 8.512466, 0.03908372, 0.081707954, 10.092756
1126333843962448, -0.9667004, 5.3706903, 8.49811, -0.031226754, 0.07037783, 10.099048
1126333853602136, -0.99302137, 5.3742795, 8.4705925, -0.014138579, 0.04066944, 10.080578
1126333863241823, -1.0277174, 5.3826547, 8.451449, 0.008213162, 0.008316517, 10.072538
1126333872881511, -1.0839486, 5.3706903, 8.423932, 0.0565058, -0.023129463, 10.048789
1126333882521198, -1.1246266, 5.3443694, 8.416754, 0.10076022, -0.02643013, 10.0328455
1126333892160886, -1.0983056, 5.3503513, 8.356933, 0.064148426, -0.046607018, 9.983214
1126333901800573, -1.0432707, 5.3132625, 8.286345, 0.019464016, -0.021018028, 9.898579
1126333911440261, -1.0396814, 5.300102, 8.160722, -0.002348423, -0.07418203, 9.785904
1126333921079948, -0.9882358, 5.298906, 8.07458, -0.05700445, -0.085249424, 9.707901
1126333930719532, -0.94396853, 5.2953167, 8.015956, -0.10422778, -0.09089756, 9.652351
1126333940359219, -0.8781659, 5.2749777, 8.013563, -0.14737272, -0.040916443, 9.632775
1126333949998907, -0.8542377, 5.3072805, 8.073383, -0.16622436, -0.019773483, 9.697857
1126333959638594, -0.89491564, 5.2689953, 8.200203, -0.0824728, 0.047109604, 9.787621
1126333969278282, -0.9176475, 5.2606206, 8.270791, -0.04215789, 0.074296474, 9.844537
1126333978917969, -0.92602235, 5.2977095, 8.329415, -0.04139161, 0.0720644, 9.91441
1126333988557657, -0.96550393, 5.3180485, 8.334201, -0.019007325, 0.039758682, 9.933317
1126333998197344, -1.0049855, 5.2977095, 8.299505, 0.013242364, 0.01767826, 9.897325
1126334007836927, -1.0468599, 5.3036914, 8.226524, 0.027174711, -0.040875435, 9.843697
1126334017476615, -1.0468599, 5.3204412, 8.184649, 0.0064469576, -0.06981611, 9.817667
1126334027116302, -1.0863415, 5.322834, 8.139186, 0.027231216, -0.11131334, 9.784985
1126334036755990, -1.154537, 5.285745, 8.135597, 0.101609826, -0.120619774, 9.769091
1126334046395677, -1.1066805, 5.3515477, 8.142776, 0.033061504, -0.13997889, 9.805505
1126334056035365, -1.0935199, 5.3766723, 8.236095, 0.028245568, -0.10698509, 9.895728
1126334065675052, -1.0755738, 5.386244, 8.298309, 0.022346735, -0.07678318, 9.951082
1126334075314636, -1.0695918, 5.393422, 8.344969, 0.022360682, -0.058859825, 9.993376
1126334084954323, -1.0851451, 5.3419766, 8.389236, 0.06672537, -0.010732174, 10.004448
1126334094594011, -1.038485, 5.298906, 8.349754, 0.036214948, 0.023946762, 9.943509
1126334104233698, -1.0169497, 5.3096733, 8.322237, 0.007145047, 0.013216019, 9.924023
1126334113873386, -1.0037891, 5.3144593, 8.29472, -0.016053319, 0.0022950172, 9.90218
1126334123513073, -1.0564312, 5.334798, 8.299505, 0.02043736, -0.035871506, 9.92251
1126334133152761, -1.0863415, 5.3108697, 8.340183, 0.064475894, -0.014792919, 9.946847
1126334142792344, -1.038485, 5.328816, 8.330612, 0.010870695, -0.010808945, 9.943521
1126334152432032, -1.0145568, 5.3336015, 8.328219, -0.012188792, -0.004532814, 9.941615
1126334162071719, -0.997807, 5.306084, 8.321041, -0.015152454, 0.01937151, 9.919137
1126334171711407, -0.9379865, 5.325227, 8.3377905, -0.07191336, 0.04165554, 9.937289
1126334181351094, -0.9212367, 5.3312087, 8.402397, -0.07495046, 0.08038759, 9.992931
1126334190990782, -0.94277215, 5.322834, 8.488539, -0.037216425, 0.11573315, 10.062897
1126334200630365, -1.0205388, 5.2773705, 8.462217, 0.045766592, 0.091397285, 10.02451
1126334210270052, -0.8470592, 5.5334024, 8.581859, -0.20007944, 0.055222034, 10.244084
1126334219909740, -1.0336994, 4.892126, 8.34138, 0.21531332, 0.29405546, 9.718396
1126334229549427, -0.79800636, 5.831309, 8.506484, -0.39019287, -0.17808819, 10.335244
1126334239189115, -1.0169497, 4.5726843, 8.147561, 0.31826723, 0.4268577, 9.383117
1126334248828802, -0.6580262, 5.99761, 8.391629, -0.597188, -0.30219746, 10.313865
1126334258468386, -0.87936234, 4.6205406, 8.124829, 0.17039895, 0.43719554, 9.376319
1126334268108073, -0.74895346, 5.7631135, 8.342576, -0.40223527, -0.21083403, 10.157104
1126334277747761, -0.87218386, 4.9459643, 8.249256, 0.06324291, 0.26032257, 9.654104
1126334287387448, -0.8997013, 5.3336015, 8.257631, -0.08869493, -0.02425623, 9.871006
1126334297027136, -0.8817552, 5.375476, 8.353344, -0.10857546, -0.002398014, 9.971951
1126334306666823, -1.134198, 4.8263235, 8.1738825, 0.3270192, 0.17552137, 9.552717
1126334316306407, -0.96430755, 5.828916, 8.420342, -0.23739862, -0.3256321, 10.278421
1126334325946094, -1.3998013, 4.625326, 8.209774, 0.6448542, 0.21021533, 9.502287
1126334335585782, -1.1988041, 6.0861444, 8.4909315, -0.15412748, -0.5835347, 10.498093
1126334345225469, -1.4500505, 4.7748775, 8.220542, 0.6108279, 0.08555746, 9.596822
1126334354865157, -1.268196, 6.0227346, 8.488539, -0.07457316, -0.5627742, 10.469702
1126334364504844, -1.3674982, 5.0979085, 8.476574, 0.42864513, 0.04112482, 9.976252
1126334374144427, -1.2490535, 5.6075797, 8.530413, 0.09638405, -0.22661161, 10.2816515
1126334383784115, -1.099502, 5.501099, 8.554341, 0.019626498, -0.066364765, 10.229513
1126334393423802, -1.1042876, 4.9674997, 8.273184, 0.21748102, 0.17219925, 9.708972
1126334403063490, -0.701097, 5.8133626, 8.453842, -0.47989893, -0.14552164, 10.27145
1126334412703177, -0.8662018, 4.5535417, 8.146365, 0.17980552, 0.5121348, 9.357013
1126334422342761, -0.5455636, 5.936593, 8.441878, -0.64591503, -0.20129395, 10.312534
1126334431982448, -0.83748794, 4.4913282, 8.147561, 0.18964922, 0.5615051, 9.322281
1126334441622136, -0.73340017, 5.7403817, 8.338987, -0.39914465, -0.20445871, 10.140387
1126334451261823, -0.9379865, 4.7545385, 8.163115, 0.1880598, 0.32981896, 9.485661
1126334460901511, -0.9607183, 5.3994045, 8.109276, -0.07978666, -0.17623663, 9.787722
1126334470541094, -0.94636136, 5.3276196, 8.072187, -0.0734992, -0.13052273, 9.716836
1126334480180782, -1.1832508, 4.9902315, 7.895118, 0.2481128, -0.08149099, 9.411015
1126334489820469, -1.0145568, 5.8468623, 8.183454, -0.23077798, -0.4706478, 10.095013
1126334499460157, -1.2717853, 4.727021, 8.032705, 0.46427155, 0.14279056, 9.394177
1126334509099844, -0.94636136, 6.0370917, 8.411968, -0.34823537, -0.45291376, 10.381564
1126334518739427, -1.1246266, 4.597809, 8.19781, 0.42332244, 0.37438464, 9.449305
1126334528379115, -0.8207382, 5.9270215, 8.475378, -0.39508295, -0.2889471, 10.363188
1126334538018802, -0.9128618, 4.8263235, 8.377272, 0.17719412, 0.4007411, 9.701207
1126334547658490, -0.8554341, 5.4927244, 8.437093, -0.16700745, -0.012738705, 10.10239
1126334557298073, -0.88414794, 5.206782, 8.414361, -0.022379518, 0.15706491, 9.933206
1126334566937761, -1.026521, 4.9579287, 8.226524, 0.1750344, 0.17871523, 9.656497
1126334576577448, -0.81834537, 5.642276, 8.416754, -0.2783172, -0.1197238, 10.161442
1126334586217136, -1.0600204, 4.581059, 8.143971, 0.3498392, 0.39575386, 9.3890915
1126334595856823, -0.82672024, 5.938986, 8.480164, -0.3949374, -0.3020773, 10.374054
1126334605496407, -1.1282159, 4.627719, 8.221739, 0.3994745, 0.37135625, 9.486209
1126334615136094, -0.9272188, 6.0981083, 8.507681, -0.38081193, -0.44403887, 10.492146
1126334624775782, -1.1425728, 5.0548377, 8.419147, 0.2582407, 0.15836716, 9.881655
1126334634415469, -1.0731809, 5.8600225, 8.566305, -0.14319324, -0.31471825, 10.428499
1126334644055052, -0.99900347, 5.528617, 8.529217, -0.06476581, -0.06072569, 10.212896
1126334653694740, -1.0875379, 5.2869415, 8.347362, 0.092102885, -0.014498234, 9.940032
1126334663334427, -0.86979103, 5.697311, 8.492127, -0.25794506, -0.12342882, 10.25916
1126334672974115, -1.052842, 4.575077, 8.224132, 0.37446964, 0.44533277, 9.451858
1126334682613698, -0.75972116, 5.834898, 8.575876, -0.39493883, -0.12000847, 10.392234
1126334692253386, -1.0695918, 4.4039903, 8.309076, 0.47370148, 0.5984845, 9.433841
1126334701893073, -0.8446664, 5.8504515, 8.489735, -0.34240425, -0.23800325, 10.336487
1126334711532761, -1.0396814, 4.7545385, 8.219346, 0.28471553, 0.29937315, 9.543245
1126334721172344, -1.0049855, 5.6997037, 8.226524, -0.17384279, -0.34634733, 10.050978
1126334730812032, -1.0683953, 5.2630134, 8.10449, 0.058831573, -0.12921476, 9.721286
1126334740451719, -1.1688938, 5.235496, 7.9130645, 0.1259582, -0.24546146, 9.556005
1126334750091407, -0.98943216, 5.7463636, 8.079366, -0.25001526, -0.415802, 9.951905
1126334759730990, -1.2466606, 4.8011985, 7.9704924, 0.39803898, 0.070076466, 9.37929
1126334769370677, -0.96909314, 5.9964137, 8.4502535, -0.30532372, -0.3869319, 10.395189
1126334779010365, -1.1964114, 4.613362, 8.283952, 0.49881876, 0.3815465, 9.536454
1126334788650052, -0.83389866, 6.09093, 8.58784, -0.44587362, -0.32824087, 10.547003
1126334798289636, -0.99900347, 4.7605205, 8.389236, 0.27552688, 0.4285686, 9.684022
1126334807929323, -0.84347, 5.6590257, 8.504091, -0.24401581, -0.06717682, 10.246536
1126334817569011, -0.74536425, 5.1254263, 8.451449, -0.094872, 0.32294917, 9.906527
1126334827208698, -0.7298109, 5.204389, 8.303095, -0.16512382, 0.19187593, 9.823218
1126334836848282, -0.5587241, 5.556134, 8.420342, -0.45231545, 0.08108616, 10.093256
1126334846487969, -0.82672024, 4.651647, 8.184649, 0.15210903, 0.47452188, 9.437239
1126334856127657, -0.6017949, 5.832505, 8.505288, -0.5098696, -0.09786224, 10.3174925
1126334865767344, -0.9236295, 4.4721856, 8.203793, 0.3220204, 0.5594411, 9.366913
1126334875406927, -0.6975078, 5.9497533, 8.407183, -0.48568308, -0.29156733, 10.307566
1126334885046615, -1.0145568, 4.6695933, 8.142776, 0.31918907, 0.33645725, 9.42996
1126334894686302, -0.96789676, 5.6997037, 8.271988, -0.16657746, -0.30698538, 10.085993
1126334904325886, -1.0911272, 5.123033, 8.242078, 0.19189072, 0.026097775, 9.763727
1126334913965573, -1.1916257, 5.369494, 8.230113, 0.15823078, -0.2009139, 9.8954935
1126334923605261, -1.134198, 5.71765, 8.427522, -0.019842148, -0.31201172, 10.242231
1126334933244948, -1.402194, 5.0452666, 8.221739, 0.4815396, -0.05503273, 9.735653
1126334942884532, -1.18684, 6.1196437, 8.46102, -0.1639657, -0.5912714, 10.491471
1126334952524219, -1.3998013, 4.6935215, 8.085348, 0.6139771, 0.12325764, 9.432352
1126334962163907, -0.95353985, 6.07418, 8.301898, -0.3638792, -0.5285411, 10.3109
1126334971803594, -1.0037891, 4.692325, 8.087741, 0.2788874, 0.32104158, 9.394478
1126334981443177, -0.7262217, 5.704489, 8.398808, -0.3675574, -0.09884071, 10.171711
1126334991082865, -0.74177504, 4.9136615, 8.462217, 0.026864886, 0.46403885, 9.802417
1126335000722552, -0.7704889, 5.211568, 8.530413, -0.067971826, 0.26100588, 10.022439
1126335010362136, -0.6903293, 5.4412785, 8.599805, -0.22687972, 0.16903353, 10.19611
1126335020001823, -1.0157533, 4.814359, 8.267202, 0.27362633, 0.29894018, 9.612086
1126335029641511, -0.91884387, 5.85763, 8.389236, -0.25921845, -0.33818245, 10.264201
1126335039281094, -1.3316058, 4.613362, 7.938189, 0.56978333, 0.13784742, 9.258913
1126335048920782, -1.1377872, 6.064609, 8.1679, -0.22131145, -0.6806054, 10.211585
1126335058560469, -1.3686945, 4.7509494, 7.9657063, 0.5356871, 0.053425312, 9.359889
1126335068200157, -1.1724831, 5.9557357, 8.322237, -0.10806036, -0.52768373, 10.286641
1126335077839740, -1.2418749, 5.1613183, 8.484949, 0.33359718, 0.08985758, 10.002822
1126335087479427, -1.2107682, 5.6004014, 8.616554, 0.12973642, -0.13850784, 10.345987
1126335097119115, -1.0815558, 5.704489, 8.768498, -0.0074295998, -0.07259512, 10.516283
1126335106758698, -1.2969099, 5.1003013, 8.512466, 0.41079175, 0.12365389, 9.998655
1126335116398386, -1.0169497, 6.0155563, 8.653643, -0.23328006, -0.30400658, 10.581106
1126335126038073, -1.2789637, 4.712664, 8.236095, 0.5185121, 0.2695737, 9.557022
1126335135677657, -0.9607183, 6.088537, 8.360522, -0.36718392, -0.4617095, 10.370324
1126335145317344, -1.1772687, 4.648058, 7.989635, 0.4264561, 0.26403427, 9.304466
1126335154957032, -0.91405827, 5.8265233, 8.129615, -0.31018913, -0.37242794, 10.031928
1126335164596719, -0.9236295, 4.90409, 7.96451, 0.09565067, 0.1953268, 9.396239
1126335174236302, -0.8650054, 5.3970113, 7.9776707, -0.17728043, -0.11748314, 9.668192
1126335183875990, -0.77766734, 5.345566, 8.060223, -0.21227264, 0.0049090385, 9.700615
1126335193515677, -0.91525465, 4.918447, 7.9094753, 0.07905173, 0.16154146, 9.357151
1126335203155261, -0.6999006, 5.7990055, 8.169097, -0.4554305, -0.21939659, 10.029802
1126335212794948, -0.9774681, 4.6169515, 7.921439, 0.2848388, 0.34603477, 9.209778
1126335222434636, -0.74416786, 6.0622163, 8.257631, -0.5204898, -0.3629799, 10.251345
1126335232074219, -1.0336994, 4.662415, 7.9944205, 0.3255726, 0.32872558, 9.300716
1126335241713907, -0.82672024, 5.959325, 8.263613, -0.3932773, -0.33145237, 10.208811
1126335251353594, -0.96430755, 5.0009995, 8.2049885, 0.15031004, 0.23646355, 9.653145
1126335260993177, -0.8925229, 5.5501523, 8.336594, -0.1395818, -0.045776367, 10.053757
1126335270632865, -0.78723866, 5.406583, 8.40479, -0.15070164, 0.13789654, 10.022457
1126335280272552, -0.9212367, 5.048856, 8.303095, 0.10386562, 0.27601624, 9.756743
1126335289912136, -0.71425754, 5.845666, 8.572288, -0.38140178, -0.0670619, 10.393081
1126335299551823, -1.0193424, 4.682754, 8.349754, 0.3637594, 0.50362134, 9.607273
1126335309191511, -0.762114, 6.067002, 8.603394, -0.43131363, -0.2193842, 10.543886
1126335318831094, -1.0432707, 4.6229334, 8.219346, 0.4005041, 0.44951487, 9.468638
1126335328470782, -0.79800636, 5.960521, 8.328219, -0.40775132, -0.31300354, 10.259611
1126335338110469, -0.91405827, 4.889733, 8.115258, 0.1397332, 0.27728224, 9.513464
1126335347750052, -0.83389866, 5.584848, 8.181061, -0.22299612, -0.13814163, 9.937146
1126335357389740, -0.77407813, 5.3359947, 8.183454, -0.15484393, 0.05866337, 9.798649
1126335367029427, -0.91405827, 5.0548377, 8.09133, 0.07990754, 0.13889408, 9.582841
1126335376669011, -0.7477571, 5.7559347, 8.340183, -0.331401, -0.15966845, 10.1544695
1126335386308698, -1.0540384, 4.6552362, 8.127222, 0.38932085, 0.37326765, 9.409732
1126335395948386, -0.76331043, 6.017949, 8.360522, -0.42729986, -0.3567562, 10.3144
1126335405587969, -1.0648061, 4.6097727, 7.9884386, 0.38945532, 0.3185382, 9.270697
1126335415227657, -0.8255238, 5.9653068, 8.140383, -0.39639294, -0.44321585, 10.108345
1126335424867344, -1.0133604, 4.7892346, 7.9429746, 0.25459385, 0.19996929, 9.324682
1126335434506927, -0.9020941, 5.599205, 8.114061, -0.18280399, -0.23899841, 9.895065
1126335444146615, -0.87218386, 5.2941203, 8.260024, -0.042398214, 0.0689168, 9.84936
1126335453786302, -0.9834501, 5.150551, 8.305488, 0.13065052, 0.13444376, 9.820455
1126335463425886, -0.79800636, 5.773881, 8.620144, -0.26354873, -0.063443184, 10.402304
1126335473065573, -1.0971092, 4.766503, 8.426325, 0.42441952, 0.39564657, 9.725713
1126335482705261, -0.8350951, 6.068198, 8.706285, -0.36118853, -0.25181866, 10.636068
1126335492344844, -1.1641082, 4.6504507, 8.342576, 0.5155481, 0.38802385, 9.600212
1126335501984532, -0.93679005, 6.0514483, 8.504091, -0.32602394, -0.38236856, 10.467314
1126335511624219, -1.1413764, 4.901697, 8.311469, 0.3583448, 0.2142868, 9.7075
1126335521263802, -1.0707881, 5.7427745, 8.446664, -0.07112503, -0.25852537, 10.266462
1126335530903490, -1.0731809, 5.2749777, 8.449057, 0.14473712, 0.06531048, 10.016909
1126335540543177, -1.1150553, 5.215157, 8.318648, 0.1863054, 0.017835617, 9.879579
1126335550182761, -0.8805587, 5.7343993, 8.4502535, -0.23606265, -0.15790844, 10.246212
1126335559822448, -1.1222339, 4.7808595, 8.221739, 0.37905765, 0.26117396, 9.565622
1126335569462136, -0.8650054, 6.01436, 8.52802, -0.36459744, -0.31630993, 10.460158
1126335579101719, -1.1772687, 4.638487, 8.250452, 0.5002874, 0.3417828, 9.518634
1126335588741407, -0.8853444, 6.0526447, 8.482556, -0.3708346, -0.36796713, 10.445057
1126335598381094, -1.0695918, 4.755735, 8.224132, 0.35080016, 0.31212616, 9.548659
1126335608020677, -0.9415757, 5.6853466, 8.27797, -0.1822679, -0.24792242, 10.081658
1126335617660365, -0.9499506, 5.1696935, 8.183454, 0.038414955, 0.061593056, 9.72583
1126335627300052, -1.0073783, 5.2606206, 8.0817585, 0.03018105, -0.076322556, 9.695208
1126335636939636, -0.9164511, 5.6327047, 8.29113, -0.17986107, -0.18874025, 10.061916
1126335646579323, -1.1641082, 4.7892346, 8.182257, 0.3972391, 0.23556733, 9.540857
1126335656219011, -0.88295156, 6.005985, 8.590233, -0.3221308, -0.28007364, 10.51006
1126335665858594, -1.146162, 4.615755, 8.323434, 0.48234773, 0.44671297, 9.563797
1126335675498282, -0.88414794, 6.0430737, 8.537591, -0.35739028, -0.32531834, 10.486054
1126335685137865, -1.1150553, 4.7545385, 8.220542, 0.3777573, 0.30575013, 9.549351
1126335694777552, -0.9870393, 5.8504515, 8.364112, -0.21868515, -0.32961702, 10.247144
1126335704417240, -1.0827522, 5.235496, 8.340183, 0.13987005, 0.047293186, 9.905536
1126335714056823, -1.1617154, 5.4125648, 8.311469, 0.12546682, -0.12537813, 9.984713
1126335723696511, -0.99302137, 5.7248282, 8.455039, -0.13510406, -0.19308567, 10.2563095
1126335733336198, -1.154537, 4.9375896, 8.1942215, 0.31802595, 0.16073465, 9.629696
1126335742975782, -0.7956135, 5.966503, 8.362915, -0.42620885, -0.31899214, 10.290147
1126335752615469, -1.0289137, 4.5595236, 7.9597244, 0.35079324, 0.36190677, 9.216892
1126335762255157, -0.7070791, 5.968896, 8.13799, -0.53330016, -0.39190578, 10.095374
1126335771894740, -1.0145568, 4.5475593, 7.914261, 0.3459941, 0.34637237, 9.170902
1126335781534427, -0.9320044, 5.6937213, 8.149954, -0.20204079, -0.30407763, 9.978755
1126335791174115, -1.0492527, 4.979464, 8.188239, 0.22212386, 0.16186476, 9.636789
1126335800813698, -1.1114662, 5.306084, 8.165507, 0.12860525, -0.10735464, 9.799865
1126335810453386, -0.95712906, 5.517849, 8.195417, -0.1128273, -0.16177559, 9.9241495
1126335820093073, -1.0947163, 4.8562336, 7.945368, 0.25723827, 0.1161263, 9.371799
1126335829732657, -0.721436, 5.9246287, 8.260024, -0.48706853, -0.3083663, 10.174348
1126335839372344, -0.8458628, 4.666004, 8.10449, 0.13564074, 0.4599614, 9.377625
1126335849012032, -0.43908295, 6.122037, 8.578269, -0.76915264, -0.15521908, 10.518705
1126335858651615, -0.7190432, 4.6528435, 8.514859, 0.108457565, 0.72612715, 9.70205
1126335868291302, -0.5491528, 5.782256, 8.796016, -0.47103143, 0.112342834, 10.5295515
1126335877930990, -0.6520442, 4.974678, 8.7469635, -0.020189762, 0.61714315, 10.064826
1126335887570573, -0.69152576, 5.3850474, 8.663215, -0.17822218, 0.2541852, 10.219191
1126335897210261, -0.70947194, 5.456832, 8.615358, -0.20369506, 0.1549735, 10.219553
1126335906849948, -0.99302137, 4.880162, 8.327023, 0.25771546, 0.27380943, 9.695359
1126335916489532, -0.89371926, 5.877969, 8.551949, -0.24887931, -0.27239037, 10.4090805
1126335926129219, -1.2993027, 4.638487, 8.236095, 0.6089369, 0.2618003, 9.518281
1126335935768802, -1.1102697, 6.068198, 8.439486, -0.17381644, -0.56580687, 10.436967
1126335945408490, -1.4787644, 4.666004, 8.094919, 0.71596014, 0.10105801, 9.432034
1126335955048177, -1.3818551, 5.925825, 8.310273, 0.11067557, -0.6465559, 10.278875
1126335964687761, -1.5266209, 5.0955157, 8.219346, 0.57958436, -0.15486622, 9.772033
1126335974327448, -1.5337993, 5.7009, 8.244471, 0.3147372, -0.5757494, 10.118971
1126335983967136, -1.4656038, 5.7343993, 8.309076, 0.24124217, -0.5100708, 10.185957
1126335993606719, -1.5672989, 5.2666025, 8.120044, 0.50321496, -0.31864357, 9.786413
1126336003246407, -1.247857, 6.0227346, 8.329415, -0.07873154, -0.5910797, 10.337024
1126336012886094, -1.3208381, 4.7102714, 8.025527, 0.5116317, 0.15745878, 9.3837
1126336022525677, -0.76689965, 6.0729837, 8.3174515, -0.5267205, -0.3906598, 10.3062725
1126336032165365, -0.81595254, 4.6085763, 8.10808, 0.13273036, 0.5240698, 9.346308
1126336041805052, -0.50129634, 5.784649, 8.484949, -0.5869943, 0.03559208, 10.2646
1126336051444636, -0.62811595, 4.7318068, 8.480164, -0.003527522, 0.70819736, 9.705471
1126336061084323, -0.62931234, 5.349155, 8.555537, -0.2602774, 0.30349493, 10.101826
1126336070724011, -0.66041905, 5.2630134, 8.471788, -0.20431435, 0.3058672, 9.988563
1126336080363594, -0.8781659, 4.932804, 8.133204, 0.07077384, 0.26076245, 9.548809
1126336090003282, -0.65682983, 5.8265233, 8.143971, -0.52842534, -0.24969292, 10.018109
1126336099642969, -0.910469, 4.6600223, 7.7994056, 0.17482781, 0.27380967, 9.1252365
1126336109282552, -0.5563313, 6.0418773, 8.070991, -0.715389, -0.38493252, 10.0645275
1126336118922240, -0.73579293, 4.5894337, 7.881958, 0.085211396, 0.4392538, 9.13944
1126336128561927, -0.45942193, 5.8863435, 8.328219, -0.6472417, -0.14142704, 10.187267
1126336138201511, -0.63529444, 4.746164, 8.377272, 0.04171729, 0.6007414, 9.630459
1126336147841198, -0.6197411, 5.4113684, 8.630911, -0.222489, 0.263309, 10.200039
1126336157480886, -0.6364908, 5.2498527, 8.673982, -0.13962746, 0.36922264, 10.151267
1126336167120469, -0.90807617, 5.0476594, 8.456235, 0.14125049, 0.27873278, 9.885027
1126336176760157, -0.9068798, 5.7200427, 8.508878, -0.16166699, -0.16866398, 10.290176
1126336186399844, -1.3603196, 4.6037908, 8.120044, 0.6641568, 0.20763302, 9.407246
1126336196039427, -1.1330016, 6.02752, 8.338987, -0.16741204, -0.5623369, 10.334851
1126336205679115, -1.4213367, 4.7114677, 8.025527, 0.6262882, 0.063364506, 9.393134
1126336215318802, -1.1880364, 6.172286, 8.38804, -0.1847918, -0.6512027, 10.459902
1126336224958386, -1.3567305, 5.052445, 8.4347, 0.4837575, 0.06650448, 9.913306
1126336234598073, -1.1952149, 5.8767724, 8.702696, 0.0030577183, -0.3013358, 10.564617
1126336244237761, -1.1162517, 5.5130634, 8.816355, 0.13371706, 0.04620123, 10.45696
1126336253877344, -1.1413764, 5.3012986, 8.6141615, 0.22050321, 0.0822773, 10.176193
1126336263517032, -0.8889336, 5.858826, 8.6548395, -0.25441873, -0.15288687, 10.484951
1126336273156719, -1.1533405, 4.81077, 8.226524, 0.3966534, 0.22552824, 9.588597
1126336282796302, -0.8961121, 6.0490556, 8.331808, -0.40635324, -0.43655825, 10.3178215
1126336292435990, -1.2251252, 4.5487556, 7.928618, 0.5202478, 0.21571779, 9.20532
1126336302075677, -0.94755775, 5.9318075, 8.0817585, -0.3410176, -0.5055132, 10.0512295
1126336311715261, -1.1078769, 4.746164, 7.895118, 0.33775806, 0.12965083, 9.271217
1126336321354948, -1.0360922, 5.6386867, 8.029117, -0.11425853, -0.38377666, 9.857719
1126336330994636, -1.0671989, 5.2127643, 8.023134, 0.11137223, -0.10523939, 9.625956
1126336340634219, -1.180858, 5.206782, 7.8580294, 0.18254244, -0.23967361, 9.495413
1126336350273907, -1.0205388, 5.753542, 8.009974, -0.17779076, -0.46866417, 9.90218
1126336359913594, -1.2406785, 4.8442693, 7.752745, 0.37847316, -0.058745384, 9.217625
1126336369553177, -0.9092726, 6.0957155, 8.118847, -0.40546346, -0.59546137, 10.167656
1126336379192865, -1.1688938, 4.6612186, 7.96451, 0.43778026, 0.22674489, 9.2888975
1126336388832552, -0.8709874, 6.04427, 8.416754, -0.36252618, -0.37483597, 10.385646
1126336398472136, -1.0336994, 4.738985, 8.419147, 0.35541224, 0.4684813, 9.698596
1126336408111823, -0.8889336, 5.7009, 8.705089, -0.15211928, -0.010280132, 10.4425
1126336417751511, -0.84825563, 5.1732826, 8.690732, 0.054181576, 0.37302017, 10.142441
1126336427391094, -0.8997013, 5.2546387, 8.56152, 0.035577774, 0.22440338, 10.08309
1126336437030782, -0.7046863, 5.6578293, 8.611769, -0.31079614, 0.05793047, 10.323286
1126336446670469, -0.8865408, 4.8191447, 8.301898, 0.18665528, 0.3959384, 9.630161
1126336456310052, -0.6161518, 6.0083776, 8.596215, -0.5487782, -0.16169977, 10.49037
1126336465949740, -0.88295156, 4.6085763, 8.293523, 0.2775072, 0.5354221, 9.509859
1126336475589427, -0.55393845, 6.02752, 8.577073, -0.60759366, -0.15439224, 10.479077
1126336485229011, -0.73340017, 4.7784667, 8.382058, 0.092639446, 0.5275936, 9.6614485
1126336494868698, -0.6197411, 5.814559, 8.581859, -0.43519974, -0.042894363, 10.3754635
1126336504508386, -0.7477571, 5.1003013, 8.57468, 0.008291364, 0.38170624, 9.99758
1126336514148073, -0.90807617, 5.168497, 8.500503, 0.1062181, 0.21294594, 9.986985
1126336523787657, -0.8470592, 5.367101, 8.505288, -0.040233493, 0.106043816, 10.092094
1126336533427344, -1.0468599, 4.5738807, 8.111669, 0.42420828, 0.36827803, 9.354137
1126336543067032, -0.67836523, 5.759524, 8.177471, -0.42571914, -0.26281977, 10.012643
1126336552706615, -0.8925229, 4.549952, 7.735996, 0.22555602, 0.26544714, 9.012379
1126336562346302, -0.58265233, 6.1710896, 8.006385, -0.71897674, -0.59011936, 10.0826025
1126336571985990, -0.86141616, 4.9316072, 7.9106717, 0.09110689, 0.0902915, 9.360826
1126336581625573, -0.81954175, 6.09093, 8.27797, -0.41077626, -0.51632786, 10.288855
1126336591265261, -0.9882358, 5.304888, 8.419147, 0.12947738, 0.014523506, 9.999176
1126336600904948, -1.1018949, 5.505885, 8.462217, 0.1422311, -0.1507883, 10.153577
1126336610544532, -1.0719845, 5.5872407, 8.49811, 0.059325695, -0.15191126, 10.225347
1126336620184219, -1.3447664, 4.8047876, 8.182257, 0.5862156, 0.10851622, 9.564951
1126336629823907, -1.0624132, 5.844469, 8.4813595, -0.08305025, -0.3220358, 10.349365
1126336639463594, -1.3387842, 4.564309, 8.17149, 0.67788875, 0.28574586, 9.426416
1126336649103177, -1.0313065, 6.009574, 8.537591, -0.1847539, -0.3866887, 10.482623
1126336658742865, -1.18684, 4.6695933, 8.400003, 0.5322658, 0.40119267, 9.660719
1126336668382552, -0.9020941, 5.8875403, 8.658429, -0.21362829, -0.20405865, 10.505142
1126336678022136, -0.9092726, 5.0679984, 8.589037, 0.15051937, 0.3411355, 10.007193
1126336687661823, -0.8865408, 5.4963136, 8.525627, -0.06745827, 0.015578747, 10.182189
1126336697301511, -0.80997044, 5.582455, 8.471788, -0.1842196, -0.033560276, 10.176247
1126336706941198, -1.1138589, 5.0129633, 8.185846, 0.2890097, 0.085148335, 9.65856
1126336716580782, -0.9607183, 5.9760747, 8.334201, -0.26390767, -0.4365816, 10.287619
1126336726220469, -1.2203395, 4.749753, 8.106883, 0.48672235, 0.19395709, 9.460255
1126336735860157, -0.8757731, 6.151947, 8.303095, -0.4380064, -0.49928284, 10.349574
1126336745499740, -1.0911272, 4.688736, 7.9884386, 0.38215804, 0.25588083, 9.315495
1126336755139427, -0.8745767, 5.899504, 8.139186, -0.35373354, -0.38637257, 10.076755
1126336764779115, -0.9284152, 4.968696, 8.032705, 0.10808325, 0.17701674, 9.488479
1126336774418698, -0.8961121, 5.447261, 8.124829, -0.12578714, -0.0783329, 9.821739
1126336784058386, -0.8530413, 5.407779, 8.177471, -0.13224828, -0.0011296272, 9.839985
1126336793698073, -1.0456635, 4.985446, 8.009974, 0.19869077, 0.10465765, 9.489854
1126336803337761, -0.8530413, 5.898308, 8.267202, -0.34904552, -0.29779196, 10.181053
1126336812977344, -1.134198, 4.6767716, 8.018349, 0.42248642, 0.28609586, 9.337674
1126336822617032, -0.8219346, 6.1100726, 8.295917, -0.4577489, -0.43160772, 10.316732
1126336832256719, -1.0456635, 4.674379, 8.029117, 0.3459462, 0.3401165, 9.336734
1126336841896407, -0.802792, 5.946164, 8.260024, -0.40871835, -0.32456398, 10.195929
1126336851535990, -0.8997013, 4.9375896, 8.17149, 0.12182689, 0.29639125, 9.5843525
1126336861175677, -0.8566305, 5.538188, 8.29113, -0.16167867, -0.048193455, 10.005984
1126336870815365, -0.8063812, 5.393422, 8.359326, -0.1328007, 0.107559204, 9.979398
1126336880454948, -1.0049855, 5.022535, 8.228917, 0.18274736, 0.2080245, 9.688873
1126336890094636, -0.83748794, 5.844469, 8.488539, -0.28952312, -0.16992235, 10.334497
1126336899734323, -1.1772687, 4.7174497, 8.19781, 0.46013165, 0.31657887, 9.514854
1126336909374011, -0.8769695, 6.1100726, 8.474181, -0.3944615, -0.37800694, 10.469735
1126336919013594, -1.1557333, 4.705486, 8.157132, 0.4440112, 0.30690885, 9.472316
1126336928653282, -0.9272188, 6.0251274, 8.372486, -0.3346579, -0.3990693, 10.343557
1126336938292969, -1.0540384, 4.9256253, 8.2253275, 0.26050067, 0.23038459, 9.638871
1126336947932657, -0.951147, 5.6482577, 8.309076, -0.14593267, -0.17582178, 10.089403
1126336957572240, -0.89730847, 5.3910294, 8.350951, -0.06322658, 0.043234825, 9.980024
1126336967211927, -1.0408778, 5.1266227, 8.2456665, 0.164289, 0.095181465, 9.763231
1126336976851615, -0.88295156, 5.788238, 8.541181, -0.22377169, -0.13413525, 10.352151
1126336986491302, -1.1976078, 4.7138605, 8.342576, 0.50525653, 0.35535216, 9.636999
1126336996130886, -0.9523434, 6.068198, 8.640483, -0.2730441, -0.32036352, 10.592957
1126337005770573, -1.2574283, 4.6612186, 8.29472, 0.55636847, 0.3603425, 9.574501
1126337015410261, -1.0169497, 6.0514483, 8.455039, -0.26004648, -0.42727327, 10.435119
1126337025049844, -1.1712867, 4.8849473, 8.251649, 0.3730191, 0.19917297, 9.651192
1126337034689532, -1.0097711, 5.7343993, 8.328219, -0.14201868, -0.27653313, 10.157046
1126337044329219, -0.9092726, 5.3718867, 8.356933, -0.049737334, 0.042245388, 9.97587
1126337053968907, -0.9499506, 5.209175, 8.26481, 0.04618454, 0.08516359, 9.81507
1126337063608594, -0.69272214, 5.7667027, 8.487342, -0.38775027, -0.07298279, 10.276867
1126337073248177, -0.951147, 4.735396, 8.189436, 0.25382984, 0.37567186, 9.49684
1126337082887865, -0.721436, 6.013163, 8.411968, -0.48599803, -0.28943682, 10.349871
1126337092527552, -1.0516455, 4.5559344, 8.019546, 0.40098822, 0.35658813, 9.267561
1126337102167240, -0.85064846, 5.946164, 8.184649, -0.39313006, -0.42425585, 10.135799
1126337111806823, -1.0683953, 4.7425747, 8.026724, 0.32424784, 0.23132849, 9.375668
1126337121446511, -0.94277215, 5.6745787, 8.22772, -0.16867638, -0.25413942, 10.034541
1126337131086198, -0.95353985, 5.188836, 8.346166, 0.082175136, 0.13695955, 9.872499
1126337140725886, -1.0025927, 5.204389, 8.288737, 0.10575402, 0.068882465, 9.837587
1126337150365469, -0.7800602, 5.706882, 8.462217, -0.2888801, -0.07496452, 10.232159
1126337160005157, -0.96909314, 4.7569313, 8.176275, 0.26276028, 0.3404646, 9.49916
1126337169644844, -0.65324056, 5.885147, 8.405986, -0.49078906, -0.16659403, 10.269063
1126337179284532, -0.85902333, 5.1050873, 8.199007, 0.015132785, 0.16542006, 9.69515
1126337188924115, -0.79800636, 5.3994045, 8.274381, -0.16283274, 0.02863121, 9.911024
1126337198563802, -0.8315059, 5.326423, 8.321041, -0.09208405, 0.08257103, 9.91396
1126337208203490, -0.8650054, 5.334798, 8.379665, -0.056318283, 0.08774853, 9.97077
1126337217843177, -0.8925229, 5.3479586, 8.425129, -0.03104341, 0.08653641, 10.018563
1126337227482761, -0.9296116, 5.346762, 8.427522, -0.0023435354, 0.068892, 10.023494
1126337237122448, -0.97866446, 5.3419766, 8.370093, 0.030556202, 0.01797247, 9.977561
1126337246762136, -1.0073783, 5.328816, 8.348558, 0.053432584, 0.0017476082, 9.955232
1126337256401823, -1.0456635, 5.3611193, 8.322237, 0.05684614, -0.050689697, 9.954338
1126337266041511, -1.0743774, 5.3647084, 8.367701, 0.08858907, -0.046176434, 9.997141
1126337275681094, -1.0875379, 5.3886366, 8.355737, 0.08095038, -0.0746541, 10.001318
1126337285320782, -1.1186446, 5.3766723, 8.34138, 0.104231, -0.08538532, 9.986012
1126337294960469, -1.1365907, 5.42094, 8.350951, 0.10086703, -0.119102955, 10.019603
1126337304600157, -1.1533405, 5.460421, 8.396415, 0.101566315, -0.1295433, 10.080629
1126337314239844, -1.1952149, 5.456832, 8.438289, 0.14449477, -0.123749256, 10.11801
1126337323879427, -1.2203395, 5.4843497, 8.500503, 0.15676081, -0.11287546, 10.187667
1126337333519115, -1.174876, 5.5250273, 8.472985, 0.09263706, -0.13115644, 10.181943
1126337343158802, -1.2634103, 5.4412785, 8.474181, 0.19749391, -0.10384226, 10.147201
1126337352798490, -1.262214, 5.383851, 8.514859, 0.22799385, -0.035888195, 10.150299
1126337362438073, -1.1844472, 5.395815, 8.400003, 0.13404405, -0.058368206, 10.052683
1126337372077761, -1.1365907, 5.3539405, 8.292327, 0.089056015, -0.05086565, 9.935225
1126337381717448, -1.0552348, 5.3312087, 8.203793, 0.012367249, -0.039760113, 9.840517
1126337391357136, -0.95473623, 5.3515477, 8.184649, -0.0837425, -0.01020813, 9.8250675
1126337400996823, -0.8602197, 5.3539405, 8.230113, -0.15158057, 0.057202816, 9.854602
1126337410636511, -0.8757731, 5.3623157, 8.209774, -0.1324166, 0.030305862, 9.84395
1126337420276094, -0.83748794, 5.322834, 8.26481, -0.13600385, 0.10521746, 9.864657
1126337429915782, -0.8542377, 5.326423, 8.206185, -0.12620258, 0.06414032, 9.8194685
1126337439555469, -0.8673982, 5.339584, 8.221739, -0.11557889, 0.058208942, 9.840924
1126337449195157, -0.9379865, 5.3180485, 8.206185, -0.047435045, 0.030760288, 9.823429
1126337458834740, -0.9559326, 5.296513, 8.169097, -0.028119445, 0.020980835, 9.782626
1126337468474427, -0.9451649, 5.3204412, 8.070991, -0.067112565, -0.04009676, 9.712631
1126337478114115, -0.91525465, 5.3240304, 8.02792, -0.10078716, -0.050185204, 9.675629
1126337487753802, -0.8913264, 5.302495, 8.021938, -0.113223195, -0.024044514, 9.656553
1126337497393490, -0.87338024, 5.3180485, 8.070991, -0.12349856, -0.0013918877, 9.704126
1126337507033073, -0.8997013, 5.3515477, 8.199007, -0.08865702, 0.023874283, 9.831776
1126337516672761, -0.96909314, 5.3503513, 8.328219, -0.0011236668, 0.05205965, 9.94595
1126337526312448, -0.9822537, 5.380262, 8.402397, 0.009693861, 0.05986929, 10.0254
1126337535952136, -1.0013963, 5.3850474, 8.445468, 0.029123783, 0.06761742, 10.065884
1126337545591823, -0.9954142, 5.42094, 8.439486, 0.001737237, 0.042700768, 10.079709
1126337555231511, -1.0157533, 5.4173503, 8.400003, 0.009077668, 0.01599884, 10.046848
1126337564871094, -1.0480564, 5.3922257, 8.4012, 0.0460279, 0.019806862, 10.037539
1126337574510782, -1.0612168, 5.4029937, 8.408379, 0.05192399, 0.01053381, 10.050698
1126337584150469, -1.079163, 5.413761, 8.410771, 0.06004715, -0.0053067207, 10.06036
1126337593790157, -1.0767702, 5.4388857, 8.413164, 0.046696186, -0.021016598, 10.075694
1126337603429844, -1.105484, 5.424529, 8.440681, 0.08255315, -0.011013508, 10.093848
1126337613069427, -1.1030912, 5.4125648, 8.447861, 0.0857383, 0.0026807785, 10.093149
1126337622709115, -1.1030912, 5.400601, 8.402397, 0.082117796, -0.013445854, 10.048716
1126337632348802, -1.14018, 5.380262, 8.318648, 0.10617137, -0.05944252, 9.971577
1126337641988490, -1.1282159, 5.389833, 8.202596, 0.068244696, -0.11667204, 9.878639
1126337651628177, -1.1174482, 5.406583, 8.127222, 0.037430644, -0.15732813, 9.823717
1126337661267865, -1.0719845, 5.3682976, 8.0817585, 0.008820653, -0.12726307, 9.760445
1126337670907448, -1.0289137, 5.3563333, 8.078169, -0.020888329, -0.095890045, 9.746597
1126337680547136, -0.99661064, 5.352744, 8.145168, -0.031393766, -0.04147625, 9.797253
1126337690186823, -0.96789676, 5.3336015, 8.208578, -0.03237176, 0.018553257, 9.836844
1126337699826511, -0.96550393, 5.337191, 8.289934, -0.018313646, 0.05814457, 9.906416
1126337709466198, -0.96550393, 5.373083, 8.311469, -0.03204131, 0.043116093, 9.943835
1126337719105886, -0.991825, 5.3814583, 8.310273, -0.013403058, 0.023564816, 9.950062
1126337728745469, -1.0145568, 5.38744, 8.257631, -0.010823846, -0.013998508, 9.911711
1126337738385157, -1.0205388, 5.410172, 8.199007, -0.029052615, -0.062572, 9.87575
1126337748024844, -1.0468599, 5.375476, 8.195417, 0.006793618, -0.04833603, 9.85668
1126337757664532, -1.0420742, 5.373083, 8.230113, 0.009760141, -0.026741505, 9.88382
1126337767304219, -1.0145568, 5.3994045, 8.313862, -0.008788943, 0.012168407, 9.965087
1126337776943907, -0.9523434, 5.375476, 8.400003, -0.033214092, 0.10196352, 10.017548
1126337786583490, -0.9236295, 5.3647084, 8.486146, -0.03553784, 0.1638956, 10.080662
1126337796223177, -0.89013004, 5.3742795, 8.476574, -0.06853616, 0.16419744, 10.074516
1126337805862865, -0.89013004, 5.3982077, 8.4012, -0.09288323, 0.10490608, 10.024646
1126337815502552, -0.9284152, 5.40419, 8.318648, -0.07724273, 0.03677845, 9.962922
1126337825142240, -0.9774681, 5.3790655, 8.228917, -0.038029194, -0.013438225, 9.879436
1126337834781927, -1.0229317, 5.3718867, 8.175078, -0.0063232183, -0.058974266, 9.835239
1126337844421615, -1.0588241, 5.373083, 8.195417, 0.027350545, -0.06576967, 9.856517
1126337854061198, -1.0755738, 5.383851, 8.243274, 0.04437208, -0.055205822, 9.904003
1126337863700886, -1.0971092, 5.3850474, 8.27797, 0.06739175, -0.05002451, 9.9358015
1126337873340573, -1.1234303, 5.377869, 8.29113, 0.096654415, -0.050881863, 9.945575
1126337882980261, -1.1365907, 5.369494, 8.298309, 0.11030781, -0.047732353, 9.948407
1126337892619948, -1.1413764, 5.393422, 8.280363, 0.09963274, -0.075377464, 9.946886
1126337902259636, -1.1318051, 5.410172, 8.257631, 0.08001399, -0.09157419, 9.9360285
1126337911899219, -1.125823, 5.4185467, 8.251649, 0.07060242, -0.09751892, 9.934956
1126337921538907, -1.0947163, 5.4496536, 8.2660055, 0.032571793, -0.096823215, 9.960601
1126337931178594, -1.1006985, 5.465207, 8.323434, 0.041764855, -0.08133602, 10.017546
1126337940818282, -1.0803595, 5.4424753, 8.366505, 0.044301152, -0.032576084, 10.039079
1126337950457969, -1.0552348, 5.4460645, 8.389236, 0.025434256, -0.010249138, 10.057419
1126337960097657, -1.0133604, 5.4233327, 8.367701, -0.004061818, 0.016514301, 10.022852
1126337969737344, -0.9942178, 5.3718867, 8.295917, -0.010477304, 0.02507019, 9.933133
1126337979376927, -0.9320044, 5.3443694, 8.220542, -0.061364293, 0.037839413, 9.849011
1126337989016615, -0.8877372, 5.3419766, 8.208578, -0.095865965, 0.054339886, 9.833281
1126337998656302, -0.88295156, 5.3072805, 8.232507, -0.07846284, 0.09341955, 9.833926
1126338008295990, -0.87338024, 5.343173, 8.297112, -0.08562386, 0.10278559, 9.906385
1126338017935677, -0.89491564, 5.3742795, 8.321041, -0.07326472, 0.07775068, 9.945456
1126338027575365, -0.94636136, 5.375476, 8.298309, -0.030729413, 0.036681652, 9.932322
1126338037215052, -0.9846465, 5.3886366, 8.238488, -0.013504863, -0.02261877, 9.893379
1126338046854636, -1.0085747, 5.3970113, 8.182257, -0.0073161125, -0.06769943, 9.853408
1126338056494323, -1.0480564, 5.3850474, 8.152347, 0.025585532, -0.0914135, 9.825931
1126338066134011, -1.0660025, 5.3970113, 8.151151, 0.035621524, -0.10371113, 9.833277
1126338075773698, -1.038485, 5.410172, 8.145168, 0.0059399605, -0.10081053, 9.832699
1126338085413386, -1.0301101, 5.3970113, 8.145168, 0.0025798082, -0.087557316, 9.824711
1126338095053073, -1.0205388, 5.377869, 8.12124, 9.9778175E-5, -0.0809226, 9.793416
1126338104692761, -1.0025927, 5.367101, 8.153543, -0.002391696, -0.04766321, 9.812695
1126338114332344, -0.96550393, 5.3814583, 8.2049885, -0.03199613, -0.013469696, 9.859661
1126338123972032, -0.9056834, 5.3479586, 8.267202, -0.05646348, 0.07189274, 9.887326
1126338133611719, -0.8997013, 5.345566, 8.334201, -0.046706676, 0.11093807, 9.941276
1126338143251407, -0.90807617, 5.3359947, 8.3581295, -0.03170705, 0.124391556, 9.956871
