timestamp_acc,device_acc_x,device_acc_y,device_acc_z,earth_acc_x,earth_acc_y,earth_acc_z
269813003583457, 0.3505485, 6.5718875, 7.405786, 0.036159515, 0.012518525, 9.907411
269813013223666, 0.34337005, 6.626922, 7.426125, 0.008188248, 0.007370889, 9.958977
269813022863978, 0.27996024, 6.62094, 7.4105716, -0.0075306892, -0.05179912, 9.941281
269813032504187, 0.26919255, 6.6352973, 7.3663044, -0.048300266, -0.053995013, 9.9175005
269813042144395, 0.2835495, 6.640083, 7.4033933, -0.025470257, -0.0439927, 9.948808
269813051784707, 0.30029923, 6.5898337, 7.4380894, 0.038829327, -0.03633505, 9.9417515
269813061424916, 0.37208393, 6.6161547, 7.372287, -0.012708664, 0.045158148, 9.912636
269813071065228, 0.39481574, 6.6101727, 7.338787, -0.026222229, 0.07148796, 9.884444
269813080705437, 0.36251262, 6.59103, 7.3028946, -0.039961815, 0.041051626, 9.843885
269813090345749, 0.3290131, 6.576673, 7.3196445, -0.022533417, 0.003278315, 9.845688
269813099985957, 0.31226337, 6.613762, 7.365108, -0.022012234, -0.01644057, 9.9037075
269813109626270, 0.32542387, 6.6089764, 7.3902326, -1.9788742E-4, -0.0057389736, 9.919676
269813119266478, 0.2883351, 6.611369, 7.361519, -0.026253223, -0.0386703, 9.898643
269813128906687, 0.32303107, 6.5922265, 7.3698936, -0.0014762878, -0.0066862702, 9.893284
269813138546999, 0.3481557, 6.59103, 7.3782687, 0.008470058, 0.01707244, 9.899565
269813148187207, 0.34576288, 6.600601, 7.361519, -0.010587215, 0.017151356, 9.893385
269813157827520, 0.34337005, 6.593423, 7.396215, 0.01548624, 0.008519113, 9.914373
269813167467728, 0.31226337, 6.629315, 7.4452677, 0.015156746, -0.025739908, 9.973785
269813177108041, 0.29910284, 6.641279, 7.470392, 0.020058632, -0.04049921, 10.00004
269813186748249, 0.3469593, 6.647261, 7.442875, 0.004526615, 0.010718703, 9.985125
269813196388457, 0.36251262, 6.617351, 7.4069824, 0.0063352585, 0.028794289, 9.938976
269813206028770, 0.39601216, 6.6161547, 7.332805, -0.03579712, 0.07075703, 9.884031
269813215668978, 0.3684947, 6.59103, 7.304091, -0.03838396, 0.044579566, 9.844986
269813225309291, 0.29312077, 6.5647087, 7.338787, -0.006599903, -0.036424935, 9.850773
269813234949499, 0.2644069, 6.5718875, 7.372287, 0.0057296753, -0.06827223, 9.879552
269813244589812, 0.30149564, 6.5982084, 7.4333034, 0.029922962, -0.036204696, 9.943794
269813254230020, 0.29671, 6.62094, 7.4919276, 0.049413204, -0.04550457, 10.002467
269813263870332, 0.30269206, 6.664011, 7.5026956, 0.025076866, -0.037540317, 10.039377
269813273510541, 0.33020952, 6.6652074, 7.466803, 0.0038051605, -0.00456506, 10.014347
269813283150853, 0.32303107, 6.6257257, 7.359126, -0.037831783, 5.209446E-5, 9.907568
269813292791062, 0.29790643, 6.5838513, 7.2969127, -0.04916954, -0.019841135, 9.832495
269813302431270, 0.29671, 6.5778694, 7.3160553, -0.027745247, -0.022264719, 9.842756
269813312071582, 0.317049, 6.586244, 7.237092, -0.08192968, 0.006994307, 9.790194
269813321711791, 0.3481557, 6.5718875, 7.196414, -0.09451628, 0.040986717, 9.751343
269813331352103, 0.3792624, 6.593423, 7.176075, -0.116993904, 0.07349032, 9.751617
269813340992312, 0.4223332, 6.6149583, 7.2586274, -0.073610306, 0.10887349, 9.828858
269813350632624, 0.41874397, 6.6484575, 7.409375, -0.001522541, 0.08646983, 9.963369
269813360272832, 0.40677986, 6.6819572, 7.4679995, 0.008799076, 0.06798339, 10.028975
269813369913041, 0.357727, 6.6221366, 7.519445, 0.08151674, 0.00989002, 10.025766
269813379553353, 0.2955136, 6.5982084, 7.5110703, 0.08239174, -0.05510664, 10.001502
269813389193562, 0.22013968, 6.5754766, 7.533802, 0.10386419, -0.13404602, 10.000738
269813398833874, 0.20219351, 6.5659056, 7.469196, 0.06468439, -0.14254057, 9.945673
269813408474082, 0.21774685, 6.5814586, 7.375876, -0.0061860085, -0.1079852, 9.887106
269813418114395, 0.2620141, 6.587441, 7.3100734, -0.046411037, -0.054846883, 9.843528
269813427754603, 0.3493521, 6.6041903, 7.34118, -0.024591446, 0.02847594, 9.8807335
269813437394916, 0.38644084, 6.6161547, 7.3902326, 0.0040955544, 0.060263097, 9.926466
269813447035124, 0.37208393, 6.6221366, 7.411768, 0.011792183, 0.04260868, 9.94603
269813456675437, 0.37447673, 6.650851, 7.416554, -0.005953312, 0.04500246, 9.968817
269813466315645, 0.37806597, 6.6221366, 7.318448, -0.0470047, 0.057356715, 9.876731
269813475955853, 0.3290131, 6.613762, 7.298109, -0.061296463, 0.01060456, 9.854371
269813485596166, 0.33738798, 6.634101, 7.2993054, -0.072156906, 0.019377053, 9.869114
269813495236374, 0.36011982, 6.5958157, 7.3340015, -0.01609993, 0.032548606, 9.870194
269813504876687, 0.3361916, 6.597012, 7.379465, 0.00887537, 0.003020525, 9.904039
269813514516895, 0.29192436, 6.6017976, 7.422536, 0.02547741, -0.043916106, 9.937828
269813524157207, 0.30508488, 6.611369, 7.344769, -0.03157282, -0.017241418, 9.886741
269813533797416, 0.30867413, 6.6149583, 7.2993054, -0.06352043, -0.007386446, 9.855392
269813543437728, 0.3505485, 6.6257257, 7.3603225, -0.02469492, 0.028421521, 9.909393
269813553077937, 0.38404804, 6.6364937, 7.4213395, 0.01269865, 0.052114844, 9.963129
269813562718145, 0.37208393, 6.623333, 7.4775705, 0.05641222, 0.029983342, 9.995847
269813572358457, 0.32303107, 6.59103, 7.4416785, 0.0492754, -0.016801178, 9.9459505
269813581998666, 0.30388847, 6.623333, 7.396215, -0.00788784, -0.028144062, 9.932977
269813591638978, 0.3290131, 6.6592255, 7.30768, -0.088074684, 0.010609031, 9.891808
269813601279187, 0.36490545, 6.6185474, 7.274181, -0.07258415, 0.046954036, 9.840963
269813610919499, 0.38524446, 6.5838513, 7.3112698, -0.016504288, 0.059611082, 9.846132
269813620559707, 0.40917268, 6.6101727, 7.381858, 0.014538765, 0.078826666, 9.917017
269813630199916, 0.37806597, 6.6077795, 7.432107, 0.04391098, 0.04227662, 9.951794
269813639840228, 0.3481557, 6.62094, 7.3986077, 0.008136749, 0.01851654, 9.934641
269813649480437, 0.29671, 6.5838513, 7.3363943, -0.010780811, -0.027731359, 9.861895
269813659120749, 0.23928227, 6.597012, 7.237092, -0.09170914, -0.07164383, 9.794886
269813668760957, 0.18185452, 6.5694947, 7.2466636, -0.07023764, -0.13078588, 9.78179
269813678401270, 0.16271193, 6.570691, 7.332805, -0.012775898, -0.15746981, 9.846092
269813688041478, 0.17706887, 6.582655, 7.4213395, 0.036148548, -0.14613509, 9.9205
269813697681687, 0.27158538, 6.587441, 7.436893, 0.052017212, -0.05197066, 9.938316
269813707321999, 0.37328035, 6.634101, 7.469196, 0.048087597, 0.04649663, 9.996753
269813716962207, 0.42592242, 6.6460648, 7.4775705, 0.04963398, 0.096369445, 10.012688
269813726602520, 0.45224348, 6.664011, 7.5122666, 0.06145811, 0.12055868, 10.051339
269813736242728, 0.4546363, 6.647261, 7.4775705, 0.04888439, 0.12260115, 10.01446
269813745883041, 0.4139583, 6.6532435, 7.375876, -0.025568485, 0.09095949, 9.94141
269813755523249, 0.36251262, 6.6221366, 7.335198, -0.034534454, 0.041870117, 9.888695
269813765163457, 0.30029923, 6.6125655, 7.274181, -0.07171154, -0.015289962, 9.834864
269813774803770, 0.24047868, 6.597012, 7.2646093, -0.068033695, -0.07555503, 9.815428
269813784443978, 0.23449662, 6.5850477, 7.2215385, -0.0882473, -0.07817763, 9.775202
269813794084291, 0.27876383, 6.599405, 7.257431, -0.06897402, -0.036396325, 9.812955
269813803724499, 0.3278167, 6.6041903, 7.3052874, -0.035244465, 0.0090638995, 9.853359
269813813364812, 0.33738798, 6.582655, 7.4045897, 0.04634285, 0.006393194, 9.913172
269813823005020, 0.36131623, 6.6221366, 7.4644103, 0.059361935, 0.026571274, 9.98481
269813832645228, 0.35533416, 6.599405, 7.493124, 0.091598034, 0.015955687, 9.990829
269813842285541, 0.32303107, 6.626922, 7.476374, 0.05565977, -0.012514234, 9.995668
269813851925749, 0.317049, 6.631708, 7.3926253, -0.0039043427, -0.00905925, 9.936342
269813861566062, 0.31106696, 6.6388865, 7.351948, -0.035407066, -0.00885278, 9.91067
269813871206270, 0.33738798, 6.6257257, 7.314859, -0.046987057, 0.020020664, 9.875153
269813880846478, 0.3493521, 6.6568327, 7.300502, -0.07671261, 0.035392165, 9.88563
269813890486791, 0.3469593, 6.6388865, 7.355537, -0.026592731, 0.024174213, 9.914526
269813900126999, 0.3074777, 6.5898337, 7.3926253, 0.030332565, -0.02459091, 9.90807
269813909767312, 0.30269206, 6.6245294, 7.381858, -0.0023713112, -0.027148962, 9.9230585
269813919407520, 0.29790643, 6.606583, 7.2897344, -0.05046463, -0.023108542, 9.8424
269813929047728, 0.2955136, 6.5898337, 7.2502527, -0.06302023, -0.022231817, 9.801782
269813938688041, 0.27996024, 6.5838513, 7.2969127, -0.02777338, -0.041624963, 9.831984
269813948328249, 0.31345975, 6.6161547, 7.375876, 0.004467964, -0.014667034, 9.913378
269813957968562, 0.36370903, 6.6281185, 7.4416785, 0.045376778, 0.029268086, 9.971957
269813967608770, 0.34337005, 6.62094, 7.420143, 0.032915592, 0.01306206, 9.950479
269813977248978, 0.35294133, 6.606583, 7.391429, 0.025646687, 0.026996434, 9.919847
269813986889291, 0.3804588, 6.631708, 7.3639116, -0.0063295364, 0.06069827, 9.917044
269813996529499, 0.38763726, 6.6257257, 7.2849483, -0.052430153, 0.07675761, 9.854559
269814006169812, 0.31226337, 6.6149583, 7.207182, -0.102595806, 0.009171724, 9.787136
269814015810020, 0.2632105, 6.6041903, 7.18445, -0.11496687, -0.038342893, 9.761469
269814025450228, 0.22492532, 6.613762, 7.204789, -0.11311817, -0.07885486, 9.781738
269814035090541, 0.20817557, 6.458228, 7.2263246, 0.0147070885, -0.110789835, 9.693262
269814044730749, 0.36251262, 6.927222, 7.4105716, -0.19058704, 0.057439268, 10.148634
269814054371062, 0.23928227, 6.0861444, 7.2263246, 0.29089737, -0.10884774, 9.445725
269814064011270, 0.47018966, 7.2849483, 7.4787674, -0.39908314, 0.18186766, 10.441799
269814073651478, 0.36610186, 5.9042897, 7.338787, 0.5109477, -0.001885891, 9.4123
269814083291791, 0.47258246, 7.2909307, 7.4715886, -0.41580248, 0.1689778, 10.440508
269814092931999, 0.4319045, 6.0933228, 7.5050883, 0.4881158, 0.06447059, 9.66432
269814102572312, 0.28594232, 7.0301127, 7.4344997, -0.2769556, -0.032953024, 10.232216
269814112212520, 0.32662028, 6.491728, 7.652247, 0.2760954, -0.028529525, 10.0363865
269814121852728, 0.07058827, 6.552745, 7.304091, -0.02529478, -0.25138208, 9.809656
269814131493041, 0.27038896, 6.9391856, 7.623533, -0.082116604, -0.059827387, 10.311806
269814141133249, 0.0849452, 6.1196437, 7.3627152, 0.33858204, -0.2551274, 9.564889
269814150773457, 0.37447673, 7.2897344, 7.652247, -0.31708574, 0.056756854, 10.570412
269814160413770, 0.28953153, 5.892326, 7.3435726, 0.51869583, -0.061036408, 9.405246
269814170053978, 0.47856453, 7.3435726, 7.30768, -0.5723462, 0.19528276, 10.353432
269814179694187, 0.4749753, 6.0083776, 7.27777, 0.40057468, 0.1288892, 9.440078
269814189334499, 0.46899325, 7.036095, 7.179664, -0.418108, 0.17680979, 10.053262
269814198974707, 0.52283174, 6.3888364, 7.359126, 0.18064451, 0.18579912, 9.756033
269814208615020, 0.30388847, 6.5647087, 7.058827, -0.15955877, -0.0026274323, 9.643097
269814218255228, 0.45822555, 6.8853474, 7.3663044, -0.18395758, 0.13505661, 10.091003
269814227895437, 0.1698904, 6.105287, 7.07438, 0.18294811, -0.15416771, 9.343073
269814237535749, 0.30029923, 7.245467, 7.3866434, -0.44879198, -0.0075856447, 10.341567
269814247175957, 0.09451649, 5.919843, 7.1581287, 0.37747812, -0.23017995, 9.278837
269814256816166, 0.24646074, 7.3543406, 7.298109, -0.59310246, -0.05636823, 10.346714
269814266456478, 0.25722843, 6.029913, 7.344769, 0.43225765, -0.068531305, 9.496321
269814276096687, 0.2620141, 7.109076, 7.3579297, -0.36978388, -0.053540617, 10.227764
269814285736895, 0.36610186, 6.3744793, 7.5613194, 0.32262087, 0.028022587, 9.891245
269814295377207, 0.25603202, 6.6364937, 7.283752, -0.061917305, -0.063874036, 9.856659
269814305017416, 0.526421, 6.8506513, 7.5433736, -0.041226864, 0.19428572, 10.201548
269814314657728, 0.31465617, 6.1698933, 7.1784678, 0.21286869, -0.007907271, 9.468454
269814324297937, 0.50368917, 7.2287173, 7.457232, -0.3798685, 0.18882406, 10.389341
269814333938145, 0.27038896, 5.895915, 7.2287173, 0.45024157, -0.058925718, 9.32111
269814343578457, 0.35294133, 7.2993054, 7.3698936, -0.5028887, 0.051175684, 10.366496
269814353218666, 0.24526432, 5.9473605, 7.3268228, 0.4666295, -0.09151769, 9.428015
269814362858874, 0.2105684, 7.1306114, 7.332805, -0.41483545, -0.08408058, 10.221585
269814372499187, 0.29671, 6.3182483, 7.5062847, 0.31734562, -0.04217583, 9.810715
269814382139395, 0.20458634, 6.6939216, 7.2897344, -0.11120319, -0.10596129, 9.897833
269814391779603, 0.46779683, 6.8578296, 7.515856, -0.07127619, 0.14682329, 10.183817
269814401419916, 0.2620141, 6.265606, 7.1856465, 0.13789177, -0.049532115, 9.536169
269814411060124, 0.44745782, 7.204789, 7.5086775, -0.33215952, 0.13941264, 10.4095955
269814420700332, 0.27517462, 5.916254, 7.2358956, 0.4301362, -0.048575133, 9.340694
269814430340645, 0.37088752, 7.300502, 7.409375, -0.48079443, 0.0763883, 10.396956
269814439980853, 0.29312077, 5.905486, 7.381858, 0.54070044, -0.033542722, 9.442406
269814449621062, 0.2883351, 7.1270223, 7.4189467, -0.3437214, -0.011079431, 10.285917
269814459261270, 0.34097722, 6.236892, 7.5122666, 0.38007784, 0.00252676, 9.762417
269814468901582, 0.20697916, 6.7178497, 7.2346992, -0.17306805, -0.08603293, 9.872988
269814478541791, 0.40558344, 6.728617, 7.4356966, -0.03186035, 0.09754449, 10.035828
269814488181999, 0.18783657, 6.283552, 7.0636125, 0.03330612, -0.108679384, 9.455158
269814497822312, 0.44506502, 7.159325, 7.3950186, -0.37502193, 0.1574462, 10.294411
269814507462520, 0.26919255, 5.9581285, 7.1688967, 0.3513689, -0.055418134, 9.3187065
269814517102728, 0.42831525, 7.361519, 7.416554, -0.5156746, 0.144952, 10.444797
269814526743041, 0.3182454, 5.9353967, 7.373483, 0.51251507, -0.027049422, 9.457011
269814536383249, 0.29072794, 7.225128, 7.4010005, -0.4298172, -0.0035867095, 10.338136
269814546023457, 0.30987054, 6.189036, 7.4883385, 0.39805937, -0.03069979, 9.711645
269814555663770, 0.19142582, 6.7740808, 7.2526455, -0.20948505, -0.10621825, 9.923231
269814565303978, 0.37088752, 6.619744, 7.4584284, 0.059654236, 0.053068638, 9.978996
269814574944187, 0.18544376, 6.2787666, 7.1222367, 0.07168198, -0.11788744, 9.495501
269814584584499, 0.43908295, 7.0875406, 7.4620175, -0.28546572, 0.14394695, 10.295897
269814594224707, 0.21894327, 5.9844494, 7.207182, 0.34751368, -0.1011557, 9.3634405
269814603864916, 0.424726, 7.3543406, 7.448857, -0.48917437, 0.14442158, 10.463844
269814613505124, 0.32303107, 5.940182, 7.3567333, 0.48373175, -0.014214158, 9.448674
269814623145437, 0.36011982, 7.2849483, 7.48116, -0.4231038, 0.074700415, 10.439507
269814632785645, 0.37447673, 6.202196, 7.62114, 0.46468496, 0.019342482, 9.822065
269814642425853, 0.2620141, 6.8949184, 7.4069824, -0.20376205, -0.040859222, 10.120708
269814652066166, 0.38883367, 6.600601, 7.5254273, 0.10595274, 0.05831647, 10.016813
269814661706374, 0.14237295, 6.337391, 7.045666, -0.034225464, -0.15588021, 9.47622
269814671346582, 0.36251262, 7.0085773, 7.344769, -0.31334257, 0.06862056, 10.153536
269814680986791, 0.15074782, 5.9246287, 7.140183, 0.33852053, -0.1729607, 9.271551
269814690627103, 0.32063824, 7.2622166, 7.432107, -0.4506564, 0.038392365, 10.386253
269814700267312, 0.24765715, 5.8683977, 7.3495545, 0.52979136, -0.093247086, 9.39287
269814709907520, 0.33379877, 7.2861447, 7.479964, -0.44333982, 0.043407023, 10.437947
269814719547832, 0.32542387, 6.166304, 7.5673018, 0.44770193, -0.01386863, 9.756672
269814729188041, 0.23330021, 6.957132, 7.4189467, -0.24051952, -0.070314735, 10.170256
269814738828249, 0.40917268, 6.599405, 7.57448, 0.13263702, 0.08551949, 10.053228
269814748468457, 0.24765715, 6.424729, 7.1509504, -0.023926258, -0.051346302, 9.616203
269814758108770, 0.48454657, 6.9822564, 7.4045897, -0.25917673, 0.17645276, 10.184122
269814767748978, 0.24047868, 5.98086, 7.0612197, 0.2506013, -0.06281182, 9.253248
269814777389187, 0.44985065, 7.27777, 7.308877, -0.53684187, 0.14259264, 10.309193
269814787029499, 0.29790643, 5.8480587, 7.152147, 0.41362286, -0.018584311, 9.234192
269814796669707, 0.36131623, 7.2526455, 7.251449, -0.5650749, 0.06740165, 10.246515
269814806309916, 0.33379877, 6.0227346, 7.3746796, 0.43705082, -0.0013584495, 9.517333
269814815950124, 0.27876383, 6.943971, 7.368697, -0.2562561, -0.034651965, 10.125575
269814825590437, 0.4103691, 6.4701924, 7.6630144, 0.28993893, 0.06428099, 10.033215
269814835230645, 0.19381863, 6.4905314, 7.38784, 0.08036804, -0.13197428, 9.834677
269814844870853, 0.42831525, 6.995417, 7.7156568, -0.07026148, 0.09185213, 10.42292
269814854511062, 0.1902294, 6.111269, 7.3986077, 0.36148596, -0.14656794, 9.590154
269814864151374, 0.3469593, 7.34118, 7.5433736, -0.4521532, 0.041477144, 10.521864
269814873791582, 0.17467605, 5.8947186, 7.2969127, 0.45698118, -0.16614747, 9.369457
269814883431791, 0.31345975, 7.281359, 7.4010005, -0.49579668, 0.010799527, 10.375227
269814893071999, 0.27996024, 5.973682, 7.515856, 0.5539284, -0.07180935, 9.588501
269814902712312, 0.2536392, 6.9786673, 7.4177504, -0.2691269, -0.05890718, 10.183971
269814912352520, 0.47736812, 6.4031935, 7.5385876, 0.26308584, 0.13568449, 9.898054
269814921992728, 0.3062813, 6.533602, 7.1892357, -0.08193636, -0.0032249093, 9.719061
269814931632937, 0.50368917, 6.916454, 7.355537, -0.23597765, 0.19658136, 10.104486
269814941273249, 0.2536392, 6.134001, 6.99781, 0.091302395, -0.06109202, 9.308468
269814950913457, 0.465404, 7.304091, 7.322037, -0.54396296, 0.17925966, 10.336853
269814960553666, 0.25722843, 5.8875403, 7.143772, 0.36892366, -0.08674562, 9.253061
269814970193874, 0.3589234, 7.2861447, 7.2873416, -0.5573039, 0.073465645, 10.295927
269814979834187, 0.26919255, 5.948557, 7.332805, 0.44893122, -0.09461671, 9.434901
269814989474395, 0.22013968, 6.987042, 7.2993054, -0.3503294, -0.07869393, 10.100403
269814999114603, 0.3481557, 6.323034, 7.560123, 0.32835102, -0.0073317885, 9.856447
269815008754812, 0.19980069, 6.573084, 7.2873416, -0.04835844, -0.11819869, 9.815008
269815018395124, 0.40079778, 6.823134, 7.6139617, -0.008491516, 0.06660849, 10.231504
269815028035332, 0.24526432, 6.1567326, 7.3112698, 0.27341938, -0.09173536, 9.557039
269815037675541, 0.5096712, 7.274181, 7.6331043, -0.32961655, 0.19037372, 10.549544
269815047315749, 0.317049, 5.95095, 7.381858, 0.47944307, -0.044412434, 9.474932
269815056956062, 0.3912265, 7.3830543, 7.4548388, -0.53897905, 0.094076216, 10.485124
269815066596270, 0.3074777, 5.9521465, 7.353144, 0.45160866, -0.05202532, 9.454347
269815076236478, 0.29072794, 7.064809, 7.2586274, -0.43906212, -0.0031568408, 10.123781
269815085876687, 0.37567315, 6.2344995, 7.483553, 0.335773, 0.025947928, 9.741676
269815095516999, 0.18305093, 6.5850477, 7.21436, -0.11358404, -0.12764955, 9.768018
269815105157207, 0.3900301, 6.734599, 7.4620175, -0.04936123, 0.065051615, 10.058928
269815114797416, 0.14955142, 6.168697, 7.1653075, 0.15813065, -0.17452079, 9.453113
269815124437624, 0.424726, 7.2323065, 7.5385876, -0.37006617, 0.11039281, 10.44834
269815134077937, 0.2321038, 5.940182, 7.372287, 0.46932888, -0.111347646, 9.458201
269815143718145, 0.39481574, 7.367501, 7.5529447, -0.46026897, 0.07137141, 10.548269
269815153358353, 0.33379877, 5.9294147, 7.442875, 0.52727747, -0.0040968955, 9.507246
269815162998562, 0.34576288, 7.119844, 7.3782687, -0.39579487, 0.029126525, 10.25149
269815172638770, 0.4235296, 6.2033925, 7.4548388, 0.33485794, 0.086682856, 9.701362
269815182279082, 0.3062813, 6.6592255, 7.1820574, -0.18483448, -0.006246716, 9.797287
269815191919291, 0.46301118, 6.704689, 7.4584284, -0.031164646, 0.13326055, 10.038758
269815201559499, 0.1794617, 6.2237315, 7.203593, 0.14405966, -0.1471188, 9.519264
269815211199707, 0.36490545, 7.176075, 7.57448, -0.3072858, 0.04383892, 10.435785
269815220840020, 0.14237295, 5.9234324, 7.3399835, 0.45440865, -0.20611626, 9.419859
269815230480228, 0.2847459, 7.318448, 7.5062847, -0.46314144, -0.018200696, 10.477131
269815240120437, 0.24765715, 5.8947186, 7.409375, 0.53206825, -0.10129124, 9.455926
269815249760645, 0.33738798, 7.170093, 7.3842506, -0.42814016, 0.03588575, 10.289151
269815259400957, 0.46779683, 6.1878395, 7.501499, 0.3917675, 0.1279226, 9.72681
269815269041166, 0.36370903, 6.6891356, 7.2825556, -0.1340189, 0.050290436, 9.894035
269815278681374, 0.44985065, 6.674779, 7.554141, 0.061079025, 0.119087785, 10.089706
269815288321582, 0.1471586, 6.1914287, 7.09113, 0.10568714, -0.16007036, 9.412906
269815297961791, 0.38165522, 7.097112, 7.3746796, -0.37655926, 0.06798881, 10.234947
269815307602103, 0.16031912, 5.9521465, 7.1581287, 0.33032608, -0.14577092, 9.303881
269815317242312, 0.33738798, 7.335198, 7.4452677, -0.51227045, 0.026248187, 10.444513
269815326882520, 0.23808585, 5.936593, 7.34118, 0.45900154, -0.073629856, 9.432743
269815336522728, 0.31106696, 7.251449, 7.4452677, -0.45404243, 0.006607294, 10.387787
269815346163041, 0.3900301, 6.1998034, 7.5960155, 0.44098568, 0.059957415, 9.802606
269815355803249, 0.27996024, 6.8243303, 7.375876, -0.17566442, -0.033225685, 10.050943
269815365443457, 0.46660042, 6.6257257, 7.550552, 0.089869976, 0.14249593, 10.054871
269815375083666, 0.23688944, 6.3122663, 7.1473613, 0.047986507, -0.066128224, 9.538288
269815384723874, 0.48454657, 7.0576305, 7.409375, -0.32126284, 0.17945766, 10.2375965
269815394364187, 0.26679972, 5.985646, 7.190432, 0.3213935, -0.04407373, 9.353942
269815404004395, 0.38524446, 7.328019, 7.5589266, -0.4316373, 0.07252395, 10.525877
269815413644603, 0.1794617, 5.8743796, 7.517052, 0.6143174, -0.15690428, 9.520747
269815423284812, 0.21894327, 7.240681, 7.576873, -0.35554886, -0.10102081, 10.476059
269815432925020, 0.2548356, 6.09093, 7.63789, 0.5390458, -0.081726104, 9.757278
269815442565332, 0.24047868, 6.9128647, 7.344769, -0.26848602, -0.063525885, 10.085388
269815452205541, 0.48933223, 6.5958157, 7.5050883, 0.080304146, 0.17404431, 10.001692
269815461845749, 0.276371, 6.38764, 7.149754, -0.004483223, -0.025270164, 9.591488
269815471485957, 0.485743, 7.0576305, 7.4739814, -0.28071737, 0.16779745, 10.285891
269815481126270, 0.18903299, 6.0251274, 7.129415, 0.25853014, -0.1165683, 9.331989
269815490766478, 0.33499518, 7.3136625, 7.2897344, -0.59361076, 0.025494069, 10.3145075
269815500406687, 0.1794617, 5.8468623, 7.1186476, 0.3815608, -0.123328626, 9.205019
269815510046895, 0.33020952, 7.245467, 7.190432, -0.5988159, 0.025745273, 10.195533
269815519687103, 0.37567315, 6.0717874, 7.3746796, 0.39320183, 0.058985084, 9.55173
269815529327416, 0.3589234, 6.91765, 7.3399835, -0.26231575, 0.050984025, 10.088938
269815538967624, 0.49292147, 6.4941206, 7.643872, 0.26571798, 0.15635014, 10.037445
269815548607832, 0.23449662, 6.4031935, 7.381858, 0.13563919, -0.089957416, 9.773496
269815558248041, 0.39840496, 6.95115, 7.739585, -0.022031307, 0.06801188, 10.410248
269815567888353, 0.124426775, 5.989235, 7.4189467, 0.45218086, -0.22508729, 9.522187
269815577528562, 0.34337005, 7.2969127, 7.678568, -0.32700205, 0.040942192, 10.593142
269815587168770, 0.19740787, 5.8971114, 7.4416785, 0.5376816, -0.14989218, 9.480606
269815596808978, 0.32422748, 7.3196445, 7.48116, -0.48407364, 0.048154473, 10.460087
269815606449187, 0.29910284, 6.0693946, 7.4907312, 0.4614272, -0.045458376, 9.634474
269815616089499, 0.19501504, 6.98106, 7.312466, -0.34968853, -0.08105916, 10.105274
269815625729707, 0.32063824, 6.4534426, 7.405786, 0.12648344, 0.0089251995, 9.827477
269815635369916, 0.19142582, 6.506085, 6.9726853, -0.21060228, -0.08175689, 9.535884
269815645010124, 0.47138608, 6.916454, 7.32443, -0.26039076, 0.18226987, 10.079969
269815654650332, 0.29790643, 6.084948, 7.085148, 0.19605207, -0.010982633, 9.342168
269815664290645, 0.53359944, 7.263413, 7.428518, -0.4387312, 0.24138916, 10.391058
269815673930853, 0.3062813, 5.866005, 7.300502, 0.50558853, -0.02840954, 9.356531
269815683571062, 0.3469593, 7.2705917, 7.4237323, -0.45400763, 0.056574702, 10.38674
269815693211270, 0.24047868, 5.9653068, 7.422536, 0.4984274, -0.098344445, 9.512027
269815702851582, 0.15792629, 6.991828, 7.3256264, -0.32960653, -0.13395071, 10.1217
269815712491791, 0.27038896, 6.3804617, 7.4907312, 0.23454809, -0.05398017, 9.840555
269815722131999, 0.17826529, 6.5407805, 7.213164, -0.07546377, -0.11430699, 9.73779
269815731772207, 0.42951167, 6.9152575, 7.57448, -0.09481764, 0.12315732, 10.264203
269815741412520, 0.23569304, 6.1447687, 7.318448, 0.29436255, -0.07837221, 9.55409
269815751052728, 0.45583272, 7.2646093, 7.60798, -0.33168364, 0.16005898, 10.522739
269815760692937, 0.28713873, 5.9030933, 7.3543406, 0.4994259, -0.04068011, 9.421477
269815770333145, 0.42951167, 7.3579297, 7.459625, -0.49764395, 0.1385597, 10.473909
269815779973353, 0.35294133, 5.9964137, 7.391429, 0.45733786, 0.025321811, 9.51341
269815789613666, 0.26799613, 7.0731835, 7.29452, -0.40560818, -0.02506265, 10.156114
269815799253874, 0.36610186, 6.3326054, 7.470392, 0.26194477, 0.04411605, 9.796536
269815808894082, 0.19142582, 6.6245294, 7.198807, -0.13867664, -0.106678754, 9.783315
269815818534291, 0.36610186, 6.7932234, 7.4787674, -0.07091427, 0.056084543, 10.109684
269815828174499, 0.10767702, 6.117251, 7.210771, 0.24577093, -0.19442688, 9.451422
269815837814812, 0.3361916, 7.1808605, 7.588837, -0.29108238, 0.027125299, 10.449057
269815847455020, 0.15314065, 5.864808, 7.332805, 0.51754665, -0.15476571, 9.375375
269815857095228, 0.31944183, 7.318448, 7.4739814, -0.4736228, 0.020648718, 10.454538
269815866735437, 0.29312077, 5.9712887, 7.405786, 0.48442888, -0.017821997, 9.505413
269815876375749, 0.34576288, 7.152147, 7.331609, -0.44072247, 0.053929478, 10.23856
269815886015957, 0.44985065, 6.3696938, 7.452446, 0.23603964, 0.13924679, 9.810158
269815895656166, 0.29671, 6.719046, 7.1712894, -0.22116375, 0.0062566996, 9.829144
269815905296374, 0.44147578, 6.7836523, 7.4440713, -0.08034468, 0.1362218, 10.0797825
269815914936687, 0.1902294, 6.2177496, 7.198807, 0.16603279, -0.11439291, 9.512033
269815924576895, 0.3792624, 7.166504, 7.629515, -0.24333286, 0.08026922, 10.47122
269815934217103, 0.16630118, 5.861219, 7.426125, 0.57477856, -0.17229709, 9.4429245
269815943857312, 0.3505485, 7.308877, 7.564909, -0.3912959, 0.06248796, 10.517291
269815953497624, 0.31226337, 5.925825, 7.367501, 0.5027404, -0.016055524, 9.4466915
269815963137832, 0.33738798, 7.173682, 7.268199, -0.49465513, 0.07626587, 10.205478
269815972778041, 0.3912265, 6.2727847, 7.3902326, 0.27019882, 0.06674212, 9.697371
269815982418249, 0.2416751, 6.780063, 7.155736, -0.27733517, -0.028719783, 9.856697
269815992058457, 0.38285163, 6.7298136, 7.459625, -0.027832985, 0.07707888, 10.053669
269816001698770, 0.1268196, 6.270392, 7.1365933, 0.07528639, -0.17151058, 9.498936
269816011338978, 0.3278167, 7.117451, 7.5146594, -0.28208923, 0.04000002, 10.351546
269816020979187, 0.101694964, 5.9174504, 7.318448, 0.4521594, -0.23409003, 9.398245
269816030619395, 0.29910284, 7.3435726, 7.536195, -0.44452333, 0.032625794, 10.517275
269816040259707, 0.23090738, 5.8947186, 7.368697, 0.51504326, -0.10151553, 9.424604
269816049899916, 0.32422748, 7.1653075, 7.351948, -0.4247117, 0.05327946, 10.262295
269816059540124, 0.4103691, 6.181857, 7.4739814, 0.39123726, 0.09544471, 9.699587
269816069180332, 0.31226337, 6.778867, 7.190432, -0.24793339, 0.034726202, 9.883834
269816078820645, 0.52283174, 6.634101, 7.3782687, -0.007593155, 0.22673738, 9.93338
269816088460853, 0.2955136, 6.32423, 7.0408807, -0.012959003, 0.013094366, 9.468731
269816098101062, 0.465404, 7.133004, 7.4129643, -0.35909128, 0.17967704, 10.290148
269816107741270, 0.21415763, 6.0346985, 7.2155566, 0.30951357, -0.092663616, 9.40337
269816117381582, 0.30987054, 7.347162, 7.560123, -0.43281746, 0.019259095, 10.537771
269816127021791, 0.096909314, 5.8875403, 7.5828547, 0.6467309, -0.2316089, 9.576028
269816136661999, 0.09332009, 7.200003, 7.7108707, -0.24695396, -0.20409718, 10.545314
269816146302207, 0.13040884, 6.0981083, 7.7754774, 0.6092324, -0.20360735, 9.86151
269816155942520, 0.08135597, 6.8219376, 7.5266237, -0.10371065, -0.19833228, 10.156054
269816165582728, 0.3278167, 6.587441, 7.487142, 0.07098627, 0.042541683, 9.977589
269816175222937, 0.2536392, 6.385247, 6.9678993, -0.12476921, -0.004428804, 9.453663
269816184863145, 0.57547385, 7.068398, 7.2933235, -0.39050722, 0.31356138, 10.160472
269816194503457, 0.3900301, 6.0107703, 7.0863442, 0.2537923, 0.094568014, 9.296473
269816204143666, 0.56350976, 7.318448, 7.4644103, -0.45409727, 0.29561073, 10.454716
269816213783874, 0.36370903, 5.881558, 7.3639116, 0.5310173, 0.03212726, 9.416431
269816223424082, 0.33738798, 7.257431, 7.4584284, -0.43286514, 0.058366895, 10.402958
269816233064395, 0.26799613, 6.117251, 7.550552, 0.4662795, -0.07231742, 9.709828
269816242704603, 0.13519448, 6.943971, 7.396215, -0.2700405, -0.14557165, 10.141346
269816252344812, 0.27158538, 6.5479593, 7.580462, 0.15868235, -0.045106947, 10.019268
269816261985020, 0.13758731, 6.418747, 7.220342, 0.009917736, -0.15084556, 9.660732
269816271625332, 0.38763726, 6.9930243, 7.5613194, -0.16746664, 0.099823475, 10.304767
269816281265541, 0.1363909, 5.962914, 7.304091, 0.40423632, -0.18306756, 9.419542
269816290905749, 0.32303107, 7.2358956, 7.585248, -0.3350253, 0.044754684, 10.482572
269816300545957, 0.16510476, 5.812166, 7.38784, 0.57883644, -0.16328248, 9.382271
269816310186270, 0.27996024, 7.251449, 7.4213395, -0.45939732, 0.011645138, 10.369521
269816319826478, 0.317049, 6.070591, 7.4273214, 0.418725, 0.0016248226, 9.588659
269816329466687, 0.34456646, 7.0301127, 7.298109, -0.3705697, 0.07805538, 10.132135
269816339106999, 0.5371887, 6.518049, 7.466803, 0.14221907, 0.23150837, 9.92234
269816348747207, 0.33260235, 6.518049, 7.0983086, -0.12059116, 0.054666787, 9.641787
269816358387416, 0.49292147, 6.966703, 7.422536, -0.2281127, 0.20397747, 10.187164
269816368027624, 0.18065812, 6.0287166, 7.1617184, 0.2822423, -0.11939561, 9.358117
269816377667937, 0.32063824, 7.26102, 7.495517, -0.41121483, 0.03543821, 10.4325285
269816387308145, 0.086141616, 5.831309, 7.344769, 0.5403948, -0.23326477, 9.360064
269816396948353, 0.20578274, 7.2957163, 7.466803, -0.4582801, -0.068047225, 10.431122
269816406588562, 0.20458634, 6.000003, 7.391429, 0.4532156, -0.10314298, 9.510997
269816416228874, 0.23808585, 7.004988, 7.2969127, -0.3628378, -0.021494985, 10.111351
269816425869082, 0.44147578, 6.4354963, 7.5469627, 0.24894953, 0.1397525, 9.923994
269816435509291, 0.29192436, 6.5288167, 7.2705917, -0.016618729, 0.016417563, 9.776073
269816445149603, 0.5096712, 6.903293, 7.5828547, -0.07301998, 0.2224375, 10.264507
269816454789812, 0.2213361, 6.141179, 7.251449, 0.2515149, -0.07785219, 9.501435
269816464430020, 0.37447673, 7.332805, 7.52782, -0.44046116, 0.101317525, 10.505906
269816474070228, 0.13758731, 5.983253, 7.322037, 0.40487146, -0.17464632, 9.446483
269816483710541, 0.20937198, 7.375876, 7.4452677, -0.54312515, -0.04853046, 10.468145
269816493350749, 0.13758731, 5.968896, 7.426125, 0.48718214, -0.17997563, 9.514423
269816502990957, 0.20578274, 7.024131, 7.3399835, -0.34845352, -0.054790795, 10.155378
269816512631270, 0.3900301, 6.302695, 7.5110703, 0.3212886, 0.09363675, 9.807154
269816522271478, 0.26799613, 6.489335, 7.2263246, -0.019622803, -0.0042286515, 9.716103
269816531911687, 0.5383851, 6.8015985, 7.476374, -0.065627575, 0.25943786, 10.118111
269816541551999, 0.29790643, 6.1639113, 7.203593, 0.2101326, 0.01454258, 9.483139
269816551192207, 0.41994038, 7.239485, 7.6019974, -0.31802464, 0.14778817, 10.500185
269816560832416, 0.1363909, 5.930611, 7.338787, 0.45969486, -0.16697586, 9.423873
269816570472624, 0.21535404, 7.379465, 7.446464, -0.5448141, -0.039712965, 10.471596
269816580112937, 0.106480606, 5.9653068, 7.351948, 0.44911003, -0.18819565, 9.4557
269816589753145, 0.16869399, 7.0959153, 7.3052874, -0.4300766, -0.07729018, 10.176285
269816599393353, 0.33140594, 6.337391, 7.507481, 0.28215647, 0.037011623, 9.826172
269816609033666, 0.25722843, 6.680761, 7.2789664, -0.12393427, -0.009129137, 9.882643
269816618673874, 0.50488555, 6.7908306, 7.578069, 0.006652832, 0.22038656, 10.185717
269816628314082, 0.2632105, 6.1794643, 7.2023964, 0.19729137, -0.0144023, 9.491598
269816637954395, 0.47856453, 7.1688967, 7.4620175, -0.35459948, 0.2130242, 10.3504925
269816647594603, 0.21296121, 5.8827543, 7.176075, 0.40145683, -0.07782835, 9.272593
269816657234812, 0.29312077, 7.3028946, 7.350751, -0.5402403, 0.046511054, 10.351702
269816666875124, 0.18783657, 5.9042897, 7.320841, 0.48074389, -0.1158762, 9.393939
269816676515332, 0.19142582, 7.1748786, 7.361519, -0.43739748, -0.06795034, 10.271881
269816686155541, 0.21535404, 6.2727847, 7.6402826, 0.414536, -0.10407716, 9.878534
269816695795853, 0.09930214, 6.748956, 7.411768, -0.11095762, -0.1661501, 10.022608
269816705436062, 0.3684947, 6.7441707, 7.623533, 0.06371117, 0.08517718, 10.184624
269816715076270, 0.22851457, 6.2751775, 7.2753773, 0.16816854, -0.049797237, 9.608873
269816724716478, 0.5192425, 7.1916285, 7.5900335, -0.2777238, 0.2614879, 10.461944
269816734356791, 0.31585258, 5.940182, 7.3136625, 0.44971895, 0.015939891, 9.416618
269816743996999, 0.4546363, 7.350751, 7.4919276, -0.47113752, 0.20486945, 10.493106
269816753637207, 0.31465617, 5.9449677, 7.355537, 0.4725337, 0.0066954494, 9.451044
269816763277520, 0.22492532, 7.1856465, 7.328019, -0.47519398, -0.029149413, 10.254625
269816772917728, 0.20697916, 6.189036, 7.4141607, 0.32251692, -0.089069635, 9.654265
269816782557937, 0.078963146, 6.7669024, 7.153343, -0.27901745, -0.17950186, 9.8416195
269816792198249, 0.2644069, 6.6532435, 7.4069824, -0.01931715, -0.011690974, 9.959843
269816801838457, 0.0741775, 6.2548385, 7.1449685, 0.096078396, -0.1966863, 9.493744
269816811478666, 0.3469593, 7.1007013, 7.585248, -0.22538614, 0.067753404, 10.3933115
269816821118978, 0.20697916, 5.948557, 7.4141607, 0.5089741, -0.086310476, 9.493759
269816830759187, 0.4139583, 7.3543406, 7.641479, -0.37218952, 0.1406745, 10.606204
269816840399395, 0.2955136, 5.940182, 7.3830543, 0.49457407, 0.0024231374, 9.467733
269816850039707, 0.32422748, 7.2299137, 7.348358, -0.48714876, 0.07698169, 10.302032
269816859679916, 0.30029923, 6.172286, 7.446464, 0.36456823, 0.01695928, 9.669743
269816869320228, 0.13519448, 6.853044, 7.2263246, -0.29509878, -0.112867594, 9.955021
269816878960437, 0.31465617, 6.600601, 7.4141607, 0.02898693, 0.047593325, 9.931446
269816888600645, 0.1160519, 6.3397837, 7.056434, -0.02549076, -0.1344901, 9.485823
269816898240957, 0.38763726, 7.0935225, 7.4943204, -0.2728448, 0.13291508, 10.321874
269816907881166, 0.19980069, 5.9916277, 7.2825556, 0.3936019, -0.09429681, 9.423975
269816917521374, 0.41754755, 7.308877, 7.475178, -0.4459381, 0.17095882, 10.451996
269816927161687, 0.3290131, 5.858826, 7.3160553, 0.51950264, 0.028087556, 9.364192
269816936801895, 0.40677986, 7.245467, 7.4033933, -0.44964552, 0.16238904, 10.3558655
269816946442103, 0.36131623, 6.1435723, 7.4189467, 0.37596607, 0.059294224, 9.631716
269816956082416, 0.17228323, 6.923632, 7.2382884, -0.34286928, -0.06981093, 10.011831
269816965722624, 0.26081768, 6.5814586, 7.456035, 0.06940651, -0.020619333, 9.948408
269816975362832, 0.051445685, 6.4558353, 7.2083783, -0.020350933, -0.2151131, 9.674423
269816985003145, 0.32662028, 7.056434, 7.585248, -0.1950512, 0.057105005, 10.363138
269816994643353, 0.1471586, 6.0191455, 7.37109, 0.4183302, -0.15121627, 9.5072
269817004283562, 0.38763726, 7.322037, 7.661818, -0.33656645, 0.11759597, 10.599003
269817013923874, 0.25603202, 5.8301125, 7.495517, 0.6533408, -0.05776882, 9.476727
269817023564082, 0.31345975, 6.971489, 7.5517483, -0.16403198, 0.0404585, 10.281065
269817033204395, 0.22971097, 6.4127645, 7.368697, 0.12332916, -0.05489558, 9.770147
269817042844603, 0.22372891, 6.5814586, 7.322037, -0.03073883, -0.044745386, 9.847586
269817052484812, 0.20578274, 6.5814586, 7.301698, -0.046412945, -0.060531437, 9.831934
269817062125124, 0.2536392, 6.68435, 7.3375907, -0.09397793, -0.008757174, 9.928555
269817071765332, 0.31345975, 6.725028, 7.396215, -0.07834625, 0.049077094, 10.000985
269817081405645, 0.33738798, 6.7525454, 7.411768, -0.08368397, 0.071421444, 10.031595
269817091045853, 0.36490545, 6.7202425, 7.3830543, -0.06931257, 0.09691411, 9.989501
269817100686062, 0.35653058, 6.6568327, 7.335198, -0.053892612, 0.08799821, 9.911358
269817110326374, 0.3397808, 6.5922265, 7.3579297, 0.0073862076, 0.06394631, 9.884729
269817119966582, 0.27756742, 6.5371914, 7.373483, 0.050346375, -0.0032388568, 9.857872
269817129606791, 0.21894327, 6.5252275, 7.4656067, 0.11049175, -0.07130617, 9.916882
269817139247103, 0.17347965, 6.501299, 7.4380894, 0.103003025, -0.11240888, 9.879217
269817148887312, 0.14237295, 6.5252275, 7.3902326, 0.049390316, -0.1342768, 9.858698
269817158527624, 0.15194423, 6.5611196, 7.3435726, -0.0067253113, -0.11743981, 9.848126
269817168167832, 0.2428715, 6.617351, 7.342376, -0.03963089, -0.025544882, 9.887194
269817177808041, 0.31226337, 6.674779, 7.3136625, -0.09406376, 0.050284803, 9.905981
269817187448353, 0.35294133, 6.7022963, 7.312466, -0.11068773, 0.09049499, 9.924568
269817197088562, 0.36131623, 6.6771717, 7.3363943, -0.073525906, 0.09325355, 9.925913
269817206728874, 0.35294133, 6.6305118, 7.411768, 0.010345936, 0.07162017, 9.950746
269817216369082, 0.30029923, 6.5850477, 7.457232, 0.06906748, 0.008980453, 9.952814
269817226009291, 0.2428715, 6.5659056, 7.3950186, 0.034297466, -0.04284531, 9.892088
269817235649603, 0.23330021, 6.567102, 7.3639116, 0.010313034, -0.047103226, 9.869453
269817245289812, 0.2416751, 6.593423, 7.3770723, -0.001885891, -0.033600748, 9.897057
269817254930124, 0.22971097, 6.586244, 7.3902326, 0.010799885, -0.047576964, 9.901745
269817264570332, 0.25004998, 6.6017976, 7.4440713, 0.036311626, -0.031223238, 9.952797
269817274210541, 0.2548356, 6.619744, 7.493124, 0.054359436, -0.029441476, 10.0014515
269817283850853, 0.25722843, 6.6185474, 7.489535, 0.04980421, -0.0266487, 9.998062
269817293491062, 0.2955136, 6.62094, 7.463214, 0.03631735, 0.014097929, 9.981092
269817303131374, 0.31944183, 6.5946193, 7.426125, 0.033670902, 0.04016626, 9.936581
269817312771582, 0.34217364, 6.6185474, 7.4033933, 0.0037446022, 0.06677407, 9.936197
269817322411791, 0.3397808, 6.6149583, 7.456035, 0.040769577, 0.053376615, 9.973017
269817332052103, 0.31944183, 6.6352973, 7.4883385, 0.04362631, 0.0301373, 10.0100765
269817341692312, 0.2727818, 6.634101, 7.448857, 0.011868477, -0.011651039, 9.978521
269817351332624, 0.22851457, 6.5682983, 7.3782687, 0.010571003, -0.052149057, 9.880829
269817360972832, 0.17706887, 6.5778694, 7.2825556, -0.0645504, -0.08921111, 9.81444
269817370613145, 0.18185452, 6.5611196, 7.23111, -0.084237576, -0.0811308, 9.765074
269817380253353, 0.20937198, 6.576673, 7.26102, -0.06943941, -0.053774714, 9.798529
269817389893562, 0.25004998, 6.634101, 7.2729845, -0.099668026, -0.01045531, 9.846831
269817399533874, 0.29072794, 6.623333, 7.2969127, -0.071192265, 0.026717722, 9.858612
269817409174082, 0.36251262, 6.641279, 7.3806615, -0.021115303, 0.090681255, 9.934965
269817418814395, 0.36370903, 6.6305118, 7.479964, 0.05107689, 0.0802595, 10.001839
269817428454603, 0.35413775, 6.619744, 7.493124, 0.06479645, 0.06690973, 10.004231
269817438094916, 0.3385844, 6.597012, 7.4907312, 0.074858665, 0.049552202, 9.986902
269817447735124, 0.25244278, 6.5742803, 7.4859457, 0.078350544, -0.037060022, 9.96578
269817457375332, 0.18305093, 6.5982084, 7.466803, 0.036875725, -0.09914482, 9.965531
269817467015645, 0.17706887, 6.5982084, 7.428518, 0.011650562, -0.09835076, 9.936841
269817476655853, 0.23688944, 6.6125655, 7.422536, 0.004661083, -0.03609681, 9.9435835
269817486296166, 0.27756742, 6.5814586, 7.442875, 0.046286106, -2.1231174E-4, 9.939159
269817495936374, 0.32422748, 6.6149583, 7.389036, -0.010178566, 0.051692188, 9.922595
269817505576687, 0.33499518, 6.641279, 7.3603225, -0.048439503, 0.06370792, 9.91901
269817515216895, 0.2656033, 6.6245294, 7.3627152, -0.038167477, -0.0066540837, 9.907724
269817524857207, 0.24765715, 6.6221366, 7.4045897, -0.010002136, -0.0263955, 9.936859
269817534497416, 0.22731815, 6.600601, 7.426125, 0.018665314, -0.049156487, 9.938017
269817544137624, 0.24047868, 6.6185474, 7.4392858, 0.014557362, -0.03178215, 9.960158
269817553777937, 0.23688944, 6.6149583, 7.4033933, -0.0070848465, -0.03272015, 9.930906
269817563418145, 0.24047868, 6.5898337, 7.375876, -0.0057229996, -0.025692761, 9.893766
269817573058457, 0.2428715, 6.573084, 7.335198, -0.017362118, -0.016884327, 9.852359
269817582698666, 0.24526432, 6.5491557, 7.2969127, -0.02447033, -0.012684286, 9.807945
269817592338978, 0.30269206, 6.5682983, 7.2789664, -0.04275322, 0.047857285, 9.808842
269817601979187, 0.34097722, 6.573084, 7.2526455, -0.058743, 0.087120175, 9.793443
269817611619499, 0.3804588, 6.593423, 7.2466636, -0.07486439, 0.12753081, 9.803584
269817621259707, 0.39361933, 6.6329045, 7.342376, -0.03954506, 0.13316464, 9.901594
269817630899916, 0.32422748, 6.652047, 7.393822, -0.027486801, 0.0577451, 9.95085
269817640540228, 0.21894327, 6.6364937, 7.4512496, 0.010553837, -0.055303097, 9.980427
269817650180437, 0.15672988, 6.6484575, 7.475178, 0.010027885, -0.120123625, 10.004515
269817659820749, 0.12562318, 6.6041903, 7.5086775, 0.05763769, -0.15718669, 9.999166
269817669460957, 0.08973085, 6.579066, 7.57448, 0.11279249, -0.20061916, 10.030551
269817679101270, 0.1471586, 6.5814586, 7.594819, 0.1292305, -0.14430988, 10.048931
269817688741478, 0.25244278, 6.599405, 7.539784, 0.091508865, -0.0265764, 10.022732
269817698381791, 0.37447673, 6.5814586, 7.4045897, 0.03205681, 0.10771304, 9.913179
269817708021999, 0.424726, 6.556334, 7.344769, 0.02086544, 0.16281426, 9.853152
269817717662312, 0.45822555, 6.6041903, 7.328019, -0.018053055, 0.19638073, 9.873514
269817727302520, 0.37806597, 6.6041903, 7.34118, -0.021107197, 0.11132717, 9.881212
269817736942832, 0.27756742, 6.617351, 7.3579297, -0.033521652, 0.009057224, 9.899711
269817746583041, 0.22851457, 6.6352973, 7.353144, -0.05617428, -0.03746116, 9.906743
269817756223353, 0.14955142, 6.6364937, 7.3842506, -0.04608965, -0.11776781, 9.928574
269817765863562, 0.096909314, 6.6245294, 7.405786, -0.031801224, -0.1729728, 9.935217
269817775503874, 0.14596218, 6.6245294, 7.3663044, -0.048665047, -0.11393261, 9.907209
269817785144082, 0.25244278, 6.6125655, 7.37109, -0.021229744, -0.010484576, 9.9056635
269817794784291, 0.30867413, 6.59103, 7.416554, 0.03263235, 0.040558934, 9.926708
269817804424603, 0.35413775, 6.5922265, 7.422536, 0.04177332, 0.084721506, 9.933176
269817814064812, 0.3505485, 6.576673, 7.4129643, 0.04557419, 0.08031368, 9.915594
269817823705124, 0.33020952, 6.586244, 7.385447, 0.016602993, 0.06427914, 9.900913
269817833345332, 0.31944183, 6.6149583, 7.342376, -0.03431797, 0.060525656, 9.887638
269817842985645, 0.25962126, 6.6161547, 7.27777, -0.08601713, 0.007880926, 9.838667
269817852625853, 0.2009971, 6.586244, 7.283752, -0.06675482, -0.054507673, 9.821641
269817862266166, 0.20219351, 6.629315, 7.367501, -0.04294443, -0.059929967, 9.9127865
269817871906374, 0.20338993, 6.5958157, 7.411768, 0.010969162, -0.06669748, 9.923502
269817881546687, 0.23090738, 6.5886374, 7.4045897, 0.014364243, -0.040593147, 9.914108
269817891186895, 0.27996024, 6.59103, 7.389036, 0.0076494217, 0.009209037, 9.905441
269817900827207, 0.33140594, 6.580262, 7.3950186, 0.025384903, 0.058547556, 9.904137
269817910467416, 0.3469593, 6.602994, 7.3770723, -0.0018291473, 0.07707125, 9.906321
269817920107728, 0.34337005, 6.6125655, 7.3627152, -0.018576145, 0.07521582, 9.901894
269817929747937, 0.31226337, 6.6149583, 7.34118, -0.038366795, 0.047147512, 9.886578
269817939388249, 0.26081768, 6.593423, 7.373483, -0.008729935, -0.010242164, 9.894914
269817949028457, 0.19740787, 6.5814586, 7.379465, -0.006084442, -0.07558048, 9.889658
269817958668770, 0.18544376, 6.602994, 7.3866434, -0.020614147, -0.085793674, 9.9090185
269817968308978, 0.19262223, 6.5778694, 7.4273214, 0.025270462, -0.0857591, 9.922831
269817977949291, 0.27158538, 6.5718875, 7.4644103, 0.06410265, -0.012799203, 9.948699
269817987589499, 0.36370903, 6.6077795, 7.4859457, 0.061558247, 0.08088344, 9.9912
269817997229812, 0.35653058, 6.6448684, 7.4309106, -0.0047688484, 0.084214866, 9.974604