timestamp_acc,device_acc_x,device_acc_y,device_acc_z,earth_acc_x,earth_acc_y,earth_acc_z
269481486372425, -0.023928227, 5.13739, 8.439486, -0.031790733, 0.004934728, 9.880144
269481496012425, -0.02751746, 5.1673007, 8.49452, -0.027480125, 0.0023237467, 9.94273
269481505652321, -0.02871387, 5.2008, 8.543573, -0.03016901, 6.557107E-4, 10.002045
269481515292321, -0.05742774, 5.21755, 8.567501, -0.026854515, -0.028925657, 10.031281
269481524932216, -0.13160525, 5.1960144, 8.560323, 0.0011439323, -0.099840045, 10.014243
269481534572112, -0.12562318, 5.18405, 8.496913, -0.021537304, -0.096399665, 9.953792
269481544212112, -0.07776674, 5.157729, 8.475378, -0.018565178, -0.04734063, 9.921577
269481553852008, 0.051445685, 5.1553364, 8.443074, -0.05296898, 0.07445037, 9.892285
269481563492008, 0.10887343, 5.1158547, 8.4705925, -0.01720047, 0.13413501, 9.895275
269481573131904, 0.09212367, 5.078766, 8.514859, 0.037101746, 0.12328291, 9.914062
269481582771904, 0.041874398, 5.1062837, 8.586644, 0.058758736, 0.07257885, 9.989876
269481592411800, 0.019142581, 5.1086764, 8.586644, 0.06106901, 0.04978788, 9.991157
269481602051800, -0.046660043, 5.127819, 8.567501, 0.045200825, -0.020320356, 9.984805
269481611691696, -0.058624156, 5.1732826, 8.526823, -0.011378288, -0.043343544, 9.9735155
269481621331696, -0.046660043, 5.178068, 8.519645, -0.018708229, -0.026839793, 9.969847
269481630971591, -0.08853444, 5.188836, 8.532805, -0.01039505, -0.06537992, 9.986805
269481640611591, -0.07537391, 5.1996036, 8.500503, -0.036208153, -0.0550521, 9.964727
269481650251487, -0.049052864, 5.194818, 8.493324, -0.037045956, -0.02887553, 9.956047
269481659891487, -0.038285162, 5.1828537, 8.488539, -0.031683445, -0.016312778, 9.945725
269481669531383, -0.034695927, 5.1732826, 8.502895, -0.014045715, -0.011172414, 9.953038
269481679171383, -0.03708875, 5.17089, 8.478967, -0.021780014, -0.01706928, 9.931343
269481688811279, -0.029910283, 5.1720862, 8.437093, -0.045391083, -0.0139398575, 9.896143
269481698451279, -0.025124637, 5.1529436, 8.423932, -0.03594446, -0.00784272, 9.874954
269481708091175, -0.019142581, 5.1206403, 8.444271, 2.6512146E-4, 0.005276799, 9.875577
269481717731175, -0.020338992, 5.1026945, 8.4813595, 0.03419113, 0.008840203, 9.897986
269481727371071, 0.0023928226, 5.1409793, 8.529217, 0.022790909, 0.027967215, 9.958712
269481737011071, 0.015553347, 5.1828537, 8.492127, -0.033720016, 0.032222092, 9.948682
269481746650966, 0.032303106, 5.1828537, 8.499306, -0.03081894, 0.043095767, 9.954818
269481756290966, 0.02751746, 5.221139, 8.52443, -0.04958248, 0.035286605, 9.9961605
269481765930862, 0.0047856453, 5.231907, 8.547162, -0.042789936, 0.010830522, 10.021223
269481775570862, -0.0023928226, 5.204389, 8.580662, -4.5967102E-4, 0.009693742, 10.035604
269481785210758, -0.01794617, 5.1828537, 8.56152, 0.011571884, -0.0031277537, 10.008086
269481794850758, -0.033499517, 5.1553364, 8.510074, 0.012708664, -0.016564488, 9.949851
269481804490654, -0.016749758, 5.1218367, 8.456235, 0.013814926, 0.003347516, 9.8864155
269481814130654, -0.0059820567, 5.111069, 8.4347, 0.010798931, 0.012650669, 9.862402
269481823770550, -0.0011964113, 5.093123, 8.463413, 0.03975916, 0.022738695, 9.87761
269481833410550, -0.008374879, 5.113462, 8.477771, 0.03155756, 0.01139617, 9.900457
269481843050446, -0.0023928226, 5.1290154, 8.493324, 0.024540901, 0.0084068775, 9.921828
269481852690446, 0.013160525, 5.1457653, 8.495717, 0.0088682175, 0.021572292, 9.932559
269481862330341, 0.02751746, 5.194818, 8.5016985, -0.032670975, 0.025522172, 9.963135
269481871970341, 0.02871387, 5.191229, 8.477771, -0.04202032, 0.02346307, 9.940824
269481881610237, 0.049052864, 5.178068, 8.483752, -0.031220436, 0.044905305, 9.939109
269481891250237, 0.05503492, 5.206782, 8.467003, -0.063047886, 0.046307504, 9.939701
269481900890133, 0.014356935, 5.2079782, 8.453842, -0.062339306, 0.0055643916, 9.929089
269481910530133, -0.058624156, 5.18405, 8.516056, 0.005047798, -0.053120494, 9.969864
269481920170029, -0.09451649, 5.2079782, 8.516056, -0.0070147514, -0.08931649, 9.982344
269481929810029, -0.13160525, 5.18405, 8.555537, 0.041380405, -0.11731547, 10.003672
269481939449925, -0.1160519, 5.1816573, 8.514859, 0.020693779, -0.10117555, 9.967709
269481949089925, -0.07776674, 5.194818, 8.4813595, -0.0114040375, -0.06924415, 9.945889
269481958729821, -0.0047856453, 5.1852465, 8.423932, -0.045253754, -0.0037201643, 9.891783
269481968369821, 0.047856454, 5.1756754, 8.397611, -0.060927868, 0.0466547, 9.864273
269481978009716, 0.039481573, 5.1625147, 8.41795, -0.037217617, 0.039536178, 9.874819
269481987649716, 0.043070808, 5.148158, 8.4682, -0.0029621124, 0.042423785, 9.910296
269481997289612, 0.031106694, 5.157729, 8.492127, 0.0036096573, 0.03144276, 9.935713
269482006929612, 0.05383851, 5.1493545, 8.5220375, 0.018463612, 0.054171443, 9.956939
269482016569508, 0.043070808, 5.1493545, 8.517252, 0.017090797, 0.043949425, 9.952842
269482026209508, -0.0011964113, 5.143372, 8.504091, 0.023553848, 0.002757728, 9.938476
269482035849404, -0.05503492, 5.157729, 8.512466, 0.025458336, -0.051778972, 9.953089
269482045489404, -0.062213387, 5.1960144, 8.449057, -0.034483433, -0.06428844, 9.918855
269482055129300, -0.019142581, 5.2199426, 8.414361, -0.080058575, -0.029076159, 9.901635
269482064769300, -0.0071784677, 5.218746, 8.408379, -0.08184719, -0.014797866, 9.895922
269482074409196, 0.0047856453, 5.221139, 8.4502535, -0.06530666, 1.7607212E-4, 9.932919
269482084049196, 0.039481573, 5.191229, 8.4682, -0.03905201, 0.038073123, 9.932667
269482093689091, 0.02632105, 5.150551, 8.496913, 0.012720585, 0.033733785, 9.936049
269482103329091, 0.03708875, 5.1218367, 8.486146, 0.026956081, 0.043893576, 9.911943
269482112968987, 0.076570325, 5.10748, 8.519645, 0.04682207, 0.08443284, 9.933138
269482122608987, 0.05623133, 5.09073, 8.547162, 0.075577736, 0.06604749, 9.947996
269482132248883, 0.058624156, 5.0823555, 8.529217, 0.06870985, 0.06706995, 9.928349
269482141888883, 0.022731815, 5.1254263, 8.500503, 0.023348808, 0.023426116, 9.926125
269482151528779, 0.0, 5.160122, 8.476574, -0.015078068, -0.0041467547, 9.9236555
269482161168779, -0.023928227, 5.197211, 8.4347, -0.0629673, -0.034011602, 9.907101
269482170808675, -0.05623133, 5.2223353, 8.397611, -0.09485197, -0.06805259, 9.888488
269482180448675, -0.043070808, 5.2510495, 8.421539, -0.108777046, -0.054807067, 9.923853
269482190088571, -0.05383851, 5.2283173, 8.487342, -0.05443859, -0.05558294, 9.9683075
269482199728571, -0.09332009, 5.211568, 8.5423765, -0.0059227943, -0.08423334, 10.006709
269482209368466, -0.10049855, 5.194818, 8.551949, 0.012037754, -0.08636469, 10.00622
269482219008466, -0.101694964, 5.1696935, 8.559127, 0.0370512, -0.08305514, 9.999323
269482228648362, -0.05742774, 5.1589255, 8.577073, 0.045936108, -0.03524095, 10.009029
269482238288362, -0.05742774, 5.1469617, 8.569894, 0.049451828, -0.036559165, 9.99669
269482247928258, -0.038285162, 5.1900325, 8.599805, 0.023894787, -0.023210645, 10.044573
269482257568258, -0.031106694, 5.198407, 8.60459, 0.01800108, -0.016976595, 10.052999
269482267208154, -0.010767702, 5.180461, 8.595019, 0.024468899, 0.0034840107, 10.03549
269482276848154, 0.022731815, 5.1828537, 8.566305, 0.002606392, 0.032486737, 10.012144
269482286488050, 0.0035892338, 5.176872, 8.535198, -0.0031552315, 0.011373818, 9.982458
269482296128050, -0.0035892338, 5.1661043, 8.482556, -0.0145998, 0.0018401742, 9.931878
269482305767946, -0.023928227, 5.1218367, 8.445468, 0.0075592995, -0.01459378, 9.877218
269482315407946, -0.010767702, 5.157729, 8.408379, -0.040807247, -0.010982692, 9.864144
269482325047841, 0.046660043, 5.144569, 8.407183, -0.038627625, 0.04612297, 9.85626
269482334687841, 0.062213387, 5.1409793, 8.403593, -0.036120415, 0.057155192, 9.851362
269482344327737, 0.058624156, 5.1457653, 8.432307, -0.024142265, 0.055995286, 9.878381
269482353967737, 0.04546363, 5.13739, 8.492127, 0.016104221, 0.047902048, 9.925146
269482363607633, 0.016749758, 5.1649075, 8.488539, -0.003276825, 0.013480723, 9.936379
269482373247633, 0.0047856453, 5.17089, 8.480164, -0.011033535, -8.4614754E-4, 9.93233
269482382887529, 0.0035892338, 5.2139606, 8.476574, -0.048989296, -0.008320332, 9.951644
269482392527529, -0.011964113, 5.2103715, 8.480164, -0.041385174, -0.021343052, 9.952845
269482402167425, -0.0741775, 5.2055855, 8.4682, -0.032791615, -0.083126366, 9.9401245
269482411807425, -0.11724831, 5.215157, 8.445468, -0.043711662, -0.12817758, 9.925684
269482421447321, -0.12203395, 5.2307105, 8.429914, -0.061532497, -0.13590288, 9.920506
269482431087321, -0.083748795, 5.221139, 8.443074, -0.053707123, -0.093508065, 9.926791
269482440727216, -0.025124637, 5.1996036, 8.463413, -0.03293228, -0.028309762, 9.932975
269482450367216, 0.0047856453, 5.176872, 8.482556, -0.008465767, 0.0071074963, 9.937488
269482460007112, 0.011964113, 5.1493545, 8.457432, 2.4700165E-4, 0.016246676, 9.9017105
269482469647008, 0.046660043, 5.1469617, 8.462217, -0.0016770363, 0.05204779, 9.904534
269482479287008, 0.049052864, 5.150551, 8.46102, -0.005554199, 0.054054856, 9.905377
269482488926904, 0.046660043, 5.1457653, 8.483752, 0.011297703, 0.054745436, 9.922299
269482498566904, 0.06699903, 5.13739, 8.504091, 0.025151253, 0.07608521, 9.93531
269482508206800, 0.07178468, 5.148158, 8.559127, 0.039983273, 0.07767862, 9.987978
269482517846800, 0.046660043, 5.1326046, 8.606983, 0.08139706, 0.06017089, 10.020763
269482527486696, 0.051445685, 5.0476594, 8.647661, 0.16993427, 0.0803175, 10.011405
269482537126696, 0.016749758, 5.2737813, 8.601001, -0.038336754, 0.0023459792, 10.089044
269482546766591, 0.08733802, 5.2163534, 8.560323, -0.022445202, 0.075707674, 10.024513
269482556406591, -0.047856454, 4.894519, 8.353344, 0.16704512, -0.02581811, 9.68031
269482566046487, 0.13280165, 5.663811, 8.456235, -0.4587965, 0.035815537, 10.168212
269482575686487, -0.14596218, 4.5248275, 8.244471, 0.44277954, -0.061359823, 9.395044
269482585326383, 0.106480606, 5.912665, 8.451449, -0.65478516, -0.04335606, 10.2940445
269482594966279, -0.12562318, 4.421936, 8.3174515, 0.5628209, -0.012942731, 9.403849
269482604606279, 0.04546363, 5.8133626, 8.53161, -0.527802, -0.07528931, 10.310258
269482614246175, -0.02871387, 4.7042894, 8.487342, 0.39175606, 0.045382917, 9.695908
269482623886175, 0.034695927, 5.4580283, 8.568698, -0.20845222, -0.025902987, 10.157251
269482633526071, 0.111266255, 5.178068, 8.560323, 0.003739357, 0.101267934, 10.004681
269482643166071, -0.029910283, 4.941179, 8.413164, 0.16100264, -0.008634806, 9.755588
269482652805966, 0.14237295, 5.6171513, 8.519645, -0.38515472, 0.051342487, 10.198335
269482662445966, -0.12083755, 4.4925246, 8.35454, 0.52301884, -0.019242048, 9.47216
269482672085862, 0.148355, 5.869594, 8.595019, -0.5541949, 0.014623702, 10.394285
269482681725758, -0.11006984, 4.388437, 8.410771, 0.6343236, 0.007147312, 9.466211
269482691365758, 0.05742774, 5.825327, 8.5938225, -0.49898052, -0.06038761, 10.370096
269482701005654, -0.06580263, 4.6492543, 8.469396, 0.4350779, 0.007207155, 9.652005
269482710645654, 0.023928227, 5.511867, 8.554341, -0.2591343, -0.042775035, 10.172956
269482720285550, 0.086141616, 5.1553364, 8.505288, 0.008483887, 0.07388139, 9.94582
269482729925550, -0.02751746, 5.029713, 8.429914, 0.09795666, -0.021540761, 9.815914
269482739565446, 0.15314065, 5.6075797, 8.538788, -0.36655664, 0.065069556, 10.209835
269482749205446, -0.111266255, 4.554738, 8.376076, 0.48405123, -0.021348834, 9.522704
269482758845341, 0.09212367, 5.864808, 8.584251, -0.545547, -0.03161496, 10.382448
269482768485237, -0.17826529, 4.3944187, 8.3581295, 0.6335435, -0.046518624, 9.423242
269482778125237, -0.01794617, 5.8480587, 8.5220375, -0.5293226, -0.13781542, 10.321146
269482787765133, -0.13758731, 4.648058, 8.37129, 0.4111135, -0.04960364, 9.567152
269482797405133, -0.02751746, 5.623133, 8.462217, -0.36833763, -0.11339557, 10.152881
269482807045029, 0.01794617, 5.1421757, 8.423932, -0.0036201477, 0.015592039, 9.869381
269482816685029, -0.06699903, 5.119444, 8.330612, -0.009109974, -0.07911414, 9.77783
269482826324925, 0.13040884, 5.564509, 8.452646, -0.35848904, 0.05189717, 10.114187
269482835964821, -0.05383851, 4.5882373, 8.37129, 0.4513545, 0.021023214, 9.535677
269482845604821, 0.19501504, 5.8169518, 8.662018, -0.47321558, 0.090690434, 10.424652
269482855244716, -0.07058827, 4.347759, 8.427522, 0.67957425, 0.0345546, 9.458758
269482864884716, 0.18783657, 5.8277197, 8.568698, -0.5304837, 0.07603103, 10.350509
269482874524612, 0.034695927, 4.5559344, 8.402397, 0.4691546, 0.1063534, 9.546027
269482884164612, 0.111266255, 5.5776696, 8.52802, -0.3375559, 0.03939104, 10.185008
269482893804508, 0.041874398, 4.9663033, 8.512466, 0.17962933, 0.06530535, 9.8535
269482903444404, -0.07537391, 5.113462, 8.458628, 0.057596207, -0.07720232, 9.883942
269482913084404, 0.086141616, 5.517849, 8.505288, -0.2927308, 0.017283857, 10.134497
269482922724300, -0.1698904, 4.6576295, 8.350951, 0.39898324, -0.096310556, 9.554701
269482932364300, 0.083748795, 5.8564334, 8.560323, -0.5526562, -0.041709185, 10.3574505
269482942004196, -0.1591227, 4.421936, 8.427522, 0.6286557, -0.022000015, 9.497698
269482951644091, 0.08015956, 5.898308, 8.6345005, -0.5412812, -0.04906237, 10.442972
269482961284091, -0.069391854, 4.5332026, 8.502895, 0.5484531, 0.057337582, 9.620285
269482970923987, 0.043070808, 5.633901, 8.640483, -0.3138733, -0.0348444, 10.310233
269482980563987, 0.015553347, 4.9519463, 8.592627, 0.23374796, 0.06383097, 9.914461
269482990203883, -0.078963146, 5.1900325, 8.543573, 0.030944347, -0.08236134, 9.996378
269482999843883, 0.021535404, 5.474778, 8.545966, -0.22718763, -0.03821379, 10.146632
269483009483779, -0.18424734, 4.7102714, 8.347362, 0.3633194, -0.11451036, 9.578828
269483019123675, 0.031106694, 5.8432727, 8.507681, -0.54903316, -0.09382123, 10.306077
269483028763675, -0.17587246, 4.449454, 8.228917, 0.5249615, -0.073997796, 9.341444
269483038403571, 0.104087785, 5.9150577, 8.355737, -0.691555, -0.032862723, 10.214584
269483048043466, -0.043070808, 4.5332026, 8.195417, 0.41207266, 0.031867683, 9.356592
269483057683466, 0.08973085, 5.7116675, 8.43111, -0.49056625, -0.007910073, 10.172221
269483067323362, -0.0011964113, 4.8969116, 8.5112705, 0.25062513, 0.04051894, 9.81616
269483076963362, -0.07178468, 5.245067, 8.573483, 0.008312225, -0.08163178, 10.050562
269483086603258, 0.058624156, 5.4017973, 8.65125, -0.11439705, 0.02756077, 10.198683
269483096243154, -0.15194423, 4.7509494, 8.478967, 0.38196635, -0.09256679, 9.712519
269483105883154, 0.1268196, 5.8301125, 8.606983, -0.5111337, 0.022871077, 10.383865
269483115523050, -0.12921242, 4.4374895, 8.37129, 0.5950682, -0.0110679865, 9.456863
269483125163050, 0.14955142, 5.9342003, 8.488539, -0.66065884, 0.009340286, 10.33711
269483134802946, 0.009571291, 4.4542394, 8.250452, 0.493124, 0.109529614, 9.3624325
269483144442841, 0.19381863, 5.6410794, 8.438289, -0.43934774, 0.0980044, 10.142063
269483154082841, 0.16151553, 4.7605205, 8.492127, 0.319973, 0.2243815, 9.728932
269483163722737, 0.09571291, 5.2331033, 8.640483, 0.01790142, 0.087258875, 10.10171
269483173362633, 0.15553348, 5.2941203, 8.732606, -0.0066537857, 0.13900512, 10.212294
269483183002633, -0.06819545, 4.7377887, 8.610572, 0.4413693, 0.009509683, 9.818267
269483192642529, 0.10049855, 5.784649, 8.781659, -0.3808241, 0.0029381514, 10.509272
269483202282529, -0.19262223, 4.496114, 8.504091, 0.62103987, -0.08082533, 9.601015
269483211922425, 0.02632105, 5.9581285, 8.58784, -0.6024127, -0.11072904, 10.434359
269483221562321, -0.2321038, 4.510471, 8.238488, 0.47935843, -0.13617653, 9.382034
269483231202321, -0.029910283, 5.8337016, 8.258827, -0.64442444, -0.18033266, 10.089272
269483240842216, -0.08135597, 4.8526444, 8.151151, 0.12780237, -0.058200955, 9.485584
269483250482112, -0.059820566, 5.406583, 8.22772, -0.2863288, -0.13345295, 9.84024
269483260122112, 0.034695927, 5.312066, 8.356933, -0.16688347, -0.015108049, 9.900986
269483269762008, -0.08973085, 4.8789654, 8.333005, 0.20505905, -0.06497353, 9.654276
269483279402008, 0.16151553, 5.7451673, 8.611769, -0.43675756, 0.051890254, 10.344186
269483289041904, -0.11844472, 4.456632, 8.545966, 0.6635659, -5.8573484E-4, 9.616072
269483298681800, 0.15433706, 5.8971114, 8.813962, -0.4547267, 0.04470408, 10.596079
269483308321800, -0.021535404, 4.401597, 8.519645, 0.67877436, 0.09524125, 9.564991
269483317961696, 0.16151553, 5.749953, 8.603394, -0.44998646, 0.06374323, 10.33924
269483327601591, 0.022731815, 4.6875396, 8.407183, 0.37780118, 0.08507252, 9.617916
269483337241591, 0.03708875, 5.386244, 8.428718, -0.19856215, -0.015117586, 10.000832
269483346881487, 0.13399807, 5.215157, 8.423932, -0.080873966, 0.10880607, 9.907577
269483356521383, -0.047856454, 4.880162, 8.333005, 0.19511414, -0.01653868, 9.654995
269483366161383, 0.15433706, 5.6733823, 8.487342, -0.4333129, 0.050588667, 10.200771
269483375801279, -0.0849452, 4.5224347, 8.316256, 0.4945259, 0.014960647, 9.453834
269483385441279, 0.15792629, 5.910272, 8.608179, -0.56447506, 0.017874122, 10.427755
269483395081175, -0.069391854, 4.4339004, 8.420342, 0.6076231, 0.04932314, 9.497095
269483404721071, 0.101694964, 5.849255, 8.626125, -0.5083227, -0.031822085, 10.41032
269483414361071, -0.06460621, 4.715057, 8.496913, 0.4071269, -0.0057480335, 9.709156
269483424000966, -0.09212367, 5.487939, 8.569894, -0.18983889, -0.15612835, 10.17392
269483433640862, -0.07298109, 5.1792645, 8.487342, 0.017469406, -0.0915789, 9.942654
269483443280862, -0.15672988, 4.965107, 8.315059, 0.13140774, -0.14730686, 9.683909
269483452920758, 0.07776674, 5.636294, 8.403593, -0.43024254, -0.017843664, 10.109837
269483462560654, -0.09930214, 4.5655055, 8.248059, 0.4265144, -0.020534933, 9.418166
269483472200654, 0.18664017, 5.933004, 8.508878, -0.64100504, 0.032360256, 10.354924
269483481840550, -0.032303106, 4.447061, 8.3377905, 0.5538044, 0.079334795, 9.433087
269483491480446, 0.1698904, 5.8683977, 8.586644, -0.54668236, 0.024992943, 10.387391
269483501120446, 0.033499517, 4.6289153, 8.526823, 0.4742806, 0.13100034, 9.689819
269483510760341, 0.07178468, 5.483153, 8.6548395, -0.18909502, 0.011803389, 10.244047
269483520400237, 0.078963146, 5.066802, 8.617751, 0.13927317, 0.09426677, 9.995802
269483530040237, -0.05742774, 4.9639106, 8.462217, 0.17400837, -0.033620715, 9.809252
269483539680133, 0.11246266, 5.5537415, 8.472985, -0.35322094, 0.022288263, 10.12536
269483549320029, -0.1052842, 4.5523453, 8.330612, 0.46030116, -0.024591446, 9.482698
269483558960029, 0.1160519, 5.8672013, 8.581859, -0.5670409, -0.01587373, 10.380945
269483568599925, -0.13998012, 4.429115, 8.4012, 0.6015601, -0.021608055, 9.479159
269483578239821, -0.0035892338, 5.899504, 8.53161, -0.5872526, -0.15080738, 10.354945
269483587879821, -0.11246266, 4.604987, 8.334201, 0.40156698, -0.037005186, 9.513929
269483597519716, -0.033499517, 5.5980086, 8.463413, -0.3730359, -0.13237363, 10.139601
269483607159612, -0.0059820567, 5.056034, 8.592627, 0.12938547, -0.0022025108, 9.968952
269483616799612, -0.0526421, 4.999803, 8.646464, 0.21327448, -0.0335989, 9.985766
269483626439508, 0.17228323, 5.4819565, 8.774481, -0.17693281, 0.10956812, 10.345518
269483636079404, -0.046660043, 4.5320063, 8.605786, 0.581321, 0.037890315, 9.708833
269483645719404, 0.22013968, 5.779863, 8.700303, -0.46926737, 0.09464836, 10.43654
269483655359300, -0.05623133, 4.321438, 8.305488, 0.60332227, 0.02442038, 9.343153
269483664999196, 0.14117654, 5.8468623, 8.338987, -0.6855178, -0.02728951, 10.162371
269483674639196, -0.009571291, 4.54397, 8.118847, 0.32688546, 0.003968239, 9.2982025
269483684279091, 0.101694964, 5.593223, 8.305488, -0.48027515, -0.029999614, 10.002202
269483693918987, 0.09212367, 4.9698925, 8.382058, 0.07439232, 0.043011487, 9.744734
269483703558987, -0.0047856453, 5.09073, 8.441878, 0.020825863, -0.065511584, 9.857798
269483713198883, 0.15792629, 5.428118, 8.60459, -0.22067499, 0.044539154, 10.172399
269483722838779, -0.016749758, 4.6002016, 8.518449, 0.45290208, -0.018219769, 9.670608
269483732478779, 0.22971097, 5.7990055, 8.804391, -0.46877432, 0.05291754, 10.534514
269483742118675, -0.029910283, 4.362116, 8.55793, 0.6645675, 0.010103524, 9.582555
269483751758571, 0.2117648, 5.8887367, 8.724232, -0.5754719, 0.008371115, 10.512044
269483761398571, 0.02871387, 4.4913282, 8.46102, 0.4905796, 0.0403589, 9.566578
269483771038466, 0.05623133, 5.5944195, 8.541181, -0.39664936, -0.10508841, 10.20216
269483780678362, 0.02632105, 4.875376, 8.445468, 0.17399502, -0.01532644, 9.75015
269483790318362, -0.010767702, 5.12423, 8.360522, -0.069998264, -0.10052544, 9.805162
269483799958258, 0.15433706, 5.35753, 8.390432, -0.2830658, 0.033612132, 9.952137
269483809598154, 0.021535404, 4.6145587, 8.26481, 0.30665755, 0.023676574, 9.460817
269483819238154, 0.2835495, 5.7200427, 8.579466, -0.5224414, 0.115151584, 10.301472
269483828878050, -0.0011964113, 4.345366, 8.489735, 0.6469834, 0.074314356, 9.514918
269483838517946, 0.16271193, 5.812166, 8.760123, -0.4789734, -0.008911252, 10.503237
269483848157946, -0.040677983, 4.398008, 8.630911, 0.6679468, 0.03208977, 9.663828
269483857797841, 0.1268196, 5.6506505, 8.822337, -0.3161888, -0.016375184, 10.472789
269483867437737, 0.12323037, 4.807181, 8.782856, 0.36147833, 0.1279906, 10.005781
269483877077737, 0.08135597, 5.17089, 8.769695, 0.05907011, 0.017841458, 10.180788
269483886717633, 0.21894327, 5.319245, 8.737391, -0.11402655, 0.11984992, 10.230199
269483896357529, -0.025124637, 4.6695933, 8.492127, 0.3594718, -0.02119279, 9.684643
269483905997529, 0.15672988, 5.6961145, 8.605786, -0.47546387, -0.026038885, 10.31034
269483915637425, -0.16151553, 4.3645086, 8.328219, 0.5812626, -0.09351581, 9.385502
269483925277321, 0.06460621, 5.875576, 8.438289, -0.67481375, -0.16425622, 10.2590885
269483934917321, -0.12203395, 4.4638104, 8.143971, 0.39255953, -0.08722192, 9.279173
269483944557216, 0.058624156, 5.7284174, 8.323434, -0.60472107, -0.14401782, 10.085204
269483954197112, 0.032303106, 4.820341, 8.34138, 0.16570377, 0.021250486, 9.632625
269483963837112, 0.0634098, 5.3216376, 8.500503, -0.17495394, -0.03222978, 10.0275
269483973477008, 0.14356937, 5.3036914, 8.641679, -0.10865593, 0.064650536, 10.139644
269483983116904, -0.031106694, 4.7676992, 8.534002, 0.32696033, -0.006645918, 9.770065
269483992756904, 0.21415763, 5.703293, 8.723035, -0.41920996, 0.0631879, 10.415615
269484002396800, -0.08733802, 4.408776, 8.4909315, 0.6205578, 0.02044785, 9.54753
269484012036696, 0.15672988, 5.812166, 8.657232, -0.52986956, -0.020977378, 10.415005
269484021676591, -0.049052864, 4.358526, 8.4012, 0.5990162, 0.059233308, 9.445476
269484031316591, 0.11844472, 5.690132, 8.487342, -0.50294304, -0.05301082, 10.206412
269484040956487, 0.10049855, 4.688736, 8.359326, 0.266814, 0.13099545, 9.580414
269484050596383, 0.11844472, 5.278567, 8.411968, -0.19625616, 0.019116402, 9.929733
269484060236383, 0.23449662, 5.163711, 8.487342, -0.0917573, 0.16535473, 9.935698
269484069876279, 0.040677983, 4.76411, 8.421539, 0.2542808, 0.05560112, 9.672278
269484079516175, 0.2009971, 5.625526, 8.652447, -0.3928151, 0.041175842, 10.314833
269484089156175, -0.09332009, 4.4243293, 8.555537, 0.6284573, 0.004464507, 9.611746
269484098796071, 0.14476576, 5.879165, 8.809176, -0.5063629, -0.050107718, 10.579614
269484108435966, -0.07178468, 4.4039903, 8.550752, 0.64068294, 0.018621266, 9.597126
269484118075966, 0.10049855, 5.7786665, 8.668, -0.49541473, -0.07037574, 10.4061
269484127715862, -0.013160525, 4.685147, 8.499306, 0.35878038, 0.011822343, 9.69846
269484137355758, -0.043070808, 5.4089756, 8.4813595, -0.23414803, -0.15917575, 10.055455
269484146995758, 0.06580263, 5.1876397, 8.4347, -0.10316944, -0.008413136, 9.90199
269484156635654, -0.05623133, 4.8598228, 8.318648, 0.14439392, -0.07438958, 9.632994
269484166275550, 0.17108682, 5.6207404, 8.532805, -0.43793488, 0.020702302, 10.209728
269484175915550, -0.046660043, 4.449454, 8.4347, 0.5430553, 0.025181651, 9.520948
269484185555446, 0.19262223, 5.8396835, 8.725428, -0.5242009, 0.018223584, 10.487944
269484195195341, -0.0634098, 4.336991, 8.52443, 0.6811795, 0.03418702, 9.540138
269484204835341, 0.1268196, 5.7391853, 8.72782, -0.44179773, -0.042825162, 10.4370575
269484214475237, 0.0634098, 4.6169515, 8.605786, 0.44821286, 0.10519689, 9.755402
269484224115133, 0.07178468, 5.430511, 8.662018, -0.2019639, -0.04314828, 10.221719
269484233755133, 0.0849452, 5.0919266, 8.553144, 0.022838116, 0.025596857, 9.954399
269484243395029, -0.046660043, 4.914858, 8.38804, 0.12636614, -0.082116544, 9.720829
269484253034925, 0.20458634, 5.6147585, 8.447861, -0.4851184, 0.029656827, 10.133978
269484262674925, -0.023928227, 4.5415773, 8.292327, 0.38384128, 0.003481567, 9.446789
269484272314821, 0.19501504, 5.849255, 8.541181, -0.6315322, -0.01693976, 10.334623
269484281954716, -0.047856454, 4.314259, 8.355737, 0.6113975, 0.016772747, 9.383994
269484291594716, 0.14356937, 5.773881, 8.580662, -0.5439091, -0.04021263, 10.32902
269484301234612, 0.025124637, 4.5212383, 8.5112705, 0.5028508, 0.05516666, 9.624346
269484310874508, 0.096909314, 5.426922, 8.6548395, -0.19820976, -0.026990652, 10.214064
269484320514508, 0.17587246, 4.9986067, 8.615358, 0.117827415, 0.11977953, 9.960581
269484330154404, 0.08015956, 4.95075, 8.499306, 0.11768532, 0.022387028, 9.83566
269484339794300, 0.27756742, 5.4999027, 8.525627, -0.3725319, 0.11609274, 10.141994
269484349434300, -0.0059820567, 4.493721, 8.365308, 0.45494866, 0.012414634, 9.484978
269484359074196, 0.20458634, 5.784649, 8.647661, -0.52822876, 0.004396558, 10.392641
269484368714091, -0.0741775, 4.322634, 8.456235, 0.65723944, 0.0115356445, 9.474518
269484378354091, 0.11844472, 5.790631, 8.6345005, -0.5337715, -0.08954674, 10.38302
269484387993987, -0.02751746, 4.5044885, 8.4909315, 0.50075483, 0.013917029, 9.598758
269484397633883, 0.013160525, 5.5334024, 8.624929, -0.29095173, -0.14067149, 10.24225
269484407273883, 0.06460621, 5.023731, 8.615358, 0.10675001, 0.012836397, 9.972709
269484416913779, -0.0023928226, 5.063213, 8.555537, 0.06306791, -0.0662002, 9.941076
269484426553675, 0.20338993, 5.51426, 8.6141615, -0.3333583, 0.05324185, 10.224394
269484436193675, -0.059820566, 4.5678983, 8.463413, 0.44374156, -0.034095407, 9.607318
269484445833571, 0.14955142, 5.770292, 8.657232, -0.5109587, -0.04076785, 10.392474
269484455473466, -0.06819545, 4.314259, 8.438289, 0.6469462, -0.005546868, 9.455349
269484465113466, 0.15792629, 5.8360944, 8.608179, -0.60115194, -0.04157543, 10.383765
269484474753362, -0.020338992, 4.5152564, 8.423932, 0.45154667, 0.0048778057, 9.547077
269484484393258, 0.062213387, 5.5776696, 8.541181, -0.38704443, -0.0939278, 10.193499
269484494033258, 0.08015956, 4.90409, 8.5016985, 0.14715195, 0.04422033, 9.813856
269484503673154, -0.0011964113, 5.070391, 8.453842, 0.008218288, -0.06966847, 9.857555
269484513313154, 0.20817557, 5.363512, 8.543573, -0.2386303, 0.091475666, 10.086521
269484522953050, 0.03589234, 4.5523453, 8.456235, 0.4320891, 0.05868286, 9.593899
269484532592946, 0.29910284, 5.7009, 8.745767, -0.43805933, 0.13096279, 10.434037
269484542232946, 0.040677983, 4.298706, 8.601001, 0.7175381, 0.10801762, 9.588077
269484551872841, 0.2620141, 5.820541, 8.7984085, -0.50610733, 0.07454443, 10.540288
269484561512737, 0.041874398, 4.442275, 8.548359, 0.5579865, 0.082811475, 9.617266
269484571152737, 0.05503492, 5.6147585, 8.635697, -0.38354874, -0.103155434, 10.293011
269484580792633, -0.0047856453, 4.901697, 8.547162, 0.19220161, -0.037748516, 9.851004
269484590432529, -0.08973085, 5.186443, 8.493324, -0.05477476, -0.17562807, 9.950375
269484600072529, 0.032303106, 5.4185467, 8.512466, -0.26259327, -0.09643185, 10.086897
269484609712425, -0.15553348, 4.705486, 8.333005, 0.2909186, -0.16017097, 9.565275
269484619352321, 0.15433706, 5.800202, 8.578269, -0.5733762, -0.049499154, 10.340292
269484628992321, -0.08733802, 4.402794, 8.410771, 0.57215214, -0.030740678, 9.476551
269484638632216, 0.15194423, 5.8731833, 8.641679, -0.59298944, -0.06063217, 10.432674
269484648272216, 0.016749758, 4.4171505, 8.459825, 0.5585692, 0.06496537, 9.527009
269484657912112, 0.17347965, 5.629115, 8.620144, -0.4197111, -0.00851655, 10.288231
269484667552008, 0.16151553, 4.7174497, 8.590233, 0.3344674, 0.15691626, 9.794695
269484677192008, 0.18903299, 5.127819, 8.657232, 0.019413471, 0.108404815, 10.063091
269484686831904, 0.3493521, 5.235496, 8.687142, -0.095470905, 0.24508023, 10.1454315
269484696471800, 0.111266255, 4.621737, 8.508878, 0.38522077, 0.11163932, 9.675381
269484706111800, 0.33260235, 5.625526, 8.597412, -0.46040392, 0.1319356, 10.2685585
269484715751696, 0.0741775, 4.3058844, 8.360522, 0.5789182, 0.12880802, 9.385774
269484725391591, 0.3074777, 5.800202, 8.456235, -0.6699438, 0.05452609, 10.236847
269484735031591, 0.101694964, 4.3633122, 8.202596, 0.4575832, 0.12674093, 9.279331
269484744671487, 0.21774685, 5.6506505, 8.361719, -0.5713897, -0.008269012, 10.078147
269484754311487, 0.12323037, 4.715057, 8.311469, 0.2115767, 0.07776493, 9.553882
269484763951383, 0.06460621, 5.2666025, 8.46461, -0.1684866, -0.071510494, 9.967818
269484773591279, 0.101694964, 5.279763, 8.559127, -0.14040565, -0.028090537, 10.056062
269484783231279, -0.09810573, 4.7569313, 8.475378, 0.29416013, -0.13378072, 9.714195
269484792871175, 0.1268196, 5.7080784, 8.678768, -0.44843817, -0.06486297, 10.378534
269484802511071, -0.10289137, 4.473382, 8.472985, 0.52496624, -0.08114803, 9.567187
269484812151071, 0.10289137, 5.892326, 8.616554, -0.62860584, -0.11899209, 10.41949
269484821790966, -0.14117654, 4.408776, 8.305488, 0.51233125, -0.09924495, 9.389678
269484831430966, -0.010767702, 5.7547383, 8.428718, -0.5884657, -0.21875292, 10.186575
269484841070862, -0.07058827, 4.7162533, 8.416754, 0.29081798, -0.069256306, 9.643673
269484850710758, -0.11006984, 5.328816, 8.611769, -0.12922525, -0.20174432, 10.124898
269484860350758, -0.0035892338, 5.1589255, 8.762517, 0.06708145, -0.051650226, 10.168041
269484869990654, -0.111266255, 4.7892346, 8.785249, 0.4062872, -0.08925152, 9.997836
269484879630654, 0.16390835, 5.6075797, 8.987442, -0.24307346, 0.052907944, 10.591697
269484889270550, -0.029910283, 4.395615, 8.831908, 0.7322099, 0.05251783, 9.837991
269484898910446, 0.25603202, 5.8157554, 9.031709, -0.4318905, 0.1025331, 10.736074
269484908550446, 0.043070808, 4.336991, 8.734999, 0.7077167, 0.12266058, 9.726029
269484918190341, 0.20458634, 5.710471, 8.793623, -0.4497385, 0.047621787, 10.477339
269484927830237, 0.07776674, 4.5894337, 8.57468, 0.40832996, 0.100905836, 9.71685
269484937470237, 0.058624156, 5.337191, 8.572288, -0.20382404, -0.05866289, 10.095949
269484947110133, 0.13399807, 5.10748, 8.471788, -0.07921457, 0.047370553, 9.892776
269484956750133, -0.0071784677, 4.8179483, 8.276773, 0.10475874, -0.05593437, 9.576197
269484966390029, 0.21655045, 5.564509, 8.411968, -0.497499, 0.01791352, 10.075914
269484976030029, -0.02751746, 4.4350967, 8.299505, 0.44714713, 0.00737828, 9.399609
269484985669925, 0.17108682, 5.7990055, 8.55793, -0.59836864, -0.05914122, 10.321548
269484995309821, -0.148355, 4.3202415, 8.413164, 0.64339805, -0.08940315, 9.436413
269485004949821, 0.09810573, 5.767899, 8.642876, -0.514698, -0.114934385, 10.377834
269485014589716, 0.029910283, 4.6037908, 8.487342, 0.4112265, 0.022313118, 9.646821
269485024229716, 0.1268196, 5.4460645, 8.589037, -0.26272583, -0.037991107, 10.167437
269485033869612, 0.19262223, 5.1026945, 8.568698, -0.0025048256, 0.09224689, 9.974401
269485043509508, 0.02632105, 4.942375, 8.482556, 0.1374898, -0.045450687, 9.816341
269485053149508, 0.2117648, 5.534599, 8.577073, -0.34581137, 0.025468469, 10.204046
269485062789404, 0.016749758, 4.4925246, 8.420342, 0.49103975, 0.027487457, 9.5311775
269485072429404, 0.31465617, 5.8301125, 8.633304, -0.5744257, 0.06686497, 10.406187
269485082069300, 0.08733802, 4.3405805, 8.394022, 0.5924635, 0.11510199, 9.430993
269485091709196, 0.28594232, 5.8229337, 8.5423765, -0.6038437, 0.025127292, 10.324497
269485101349196, 0.111266255, 4.5391846, 8.4347, 0.44043255, 0.09195948, 9.56861
269485110989091, 0.11964113, 5.4628143, 8.610572, -0.23703432, -0.062455714, 10.1950245
269485120629091, 0.06580263, 4.9842496, 8.652447, 0.18410873, -0.025100112, 9.983858
269485130268987, -0.07178468, 4.9698925, 8.595019, 0.19469643, -0.1632986, 9.925461
269485139908987, 0.16151553, 5.483153, 8.620144, -0.27192307, -0.026760101, 10.213878
269485149548883, -0.0023928226, 4.5451665, 8.407183, 0.4404831, -0.029860973, 9.546956
269485159188779, 0.29312077, 5.8971114, 8.589037, -0.6587291, 0.010028601, 10.401894
269485168828779, 0.076570325, 4.438686, 8.338987, 0.4804182, 0.06658602, 9.434578
269485178468675, 0.30149564, 5.9030933, 8.487342, -0.7035217, 0.0027909875, 10.318792
269485188108675, 0.104087785, 4.5655055, 8.366505, 0.38636875, 0.070682526, 9.523591
269485197748571, 0.1363909, 5.5908303, 8.526823, -0.3835659, -0.09330565, 10.189547
269485207388571, 0.11485548, 4.9842496, 8.539984, 0.12257242, 0.010099947, 9.8879795
269485217028466, -0.0071784677, 5.0620165, 8.52802, 0.08238077, -0.12770605, 9.916053
269485226668362, 0.12801601, 5.4424753, 8.646464, -0.21885872, -0.06057501, 10.215023
269485236308362, -0.10887343, 4.5559344, 8.478967, 0.48952842, -0.13796997, 9.612625
269485245948258, 0.20458634, 5.7188463, 8.695518, -0.45145464, -0.029307842, 10.399732
269485255588258, 0.09451649, 4.298706, 8.482556, 0.66083384, 0.100899935, 9.486552
269485265228154, 0.40438703, 5.8037915, 8.660822, -0.58947134, 0.13349819, 10.415954
269485274868154, 0.26679972, 4.426722, 8.483752, 0.50491786, 0.24727511, 9.556413
269485284508050, 0.32662028, 5.5106707, 8.653643, -0.3323617, 0.11544877, 10.258455
269485294148050, 0.27756742, 4.8418765, 8.622537, 0.22228909, 0.19119823, 9.888528
269485303787946, 0.1591227, 5.087141, 8.55793, 0.009700298, 0.030929089, 9.95698
269485313427946, 0.2739782, 5.3742795, 8.543573, -0.26377153, 0.08231741, 10.093277
269485323067841, 0.01794617, 4.5762734, 8.342576, 0.35974956, -0.014683604, 9.508497
269485332707737, 0.21894327, 5.7451673, 8.563912, -0.5469742, -0.03298813, 10.300253
269485342347737, -0.07298109, 4.3441696, 8.419147, 0.615952, -0.037518322, 9.454013
269485351987633, 0.16869399, 5.8097734, 8.633304, -0.5664997, -0.07742125, 10.391771
269485361627633, 0.15433706, 4.430311, 8.422736, 0.48045206, 0.17361218, 9.504367
269485371267529, 0.16869399, 5.6123657, 8.632108, -0.40626526, -0.048635483, 10.28946
269485380907529, 0.049052864, 4.800002, 8.660822, 0.3163972, 0.009372771, 9.897075
269485390547425, -0.04426722, 5.1661043, 8.691928, 0.050497532, -0.15583599, 10.1100645
269485400187425, 0.05742774, 5.345566, 8.718249, -0.117123604, -0.09658837, 10.2256155
269485409827321, -0.076570325, 4.705486, 8.513663, 0.34650064, -0.10666466, 9.721033
269485419467321, 0.21415763, 5.7427745, 8.673982, -0.50547504, -0.042408586, 10.392593
269485429107216, 0.04546363, 4.3740797, 8.465807, 0.5745702, 0.07518488, 9.511506
269485438747216, 0.30269206, 5.845666, 8.628518, -0.6305599, 0.020359337, 10.407533
269485448387112, 0.096909314, 4.371687, 8.367701, 0.5172632, 0.104474664, 9.42661
269485458027112, 0.17467605, 5.6207404, 8.541181, -0.4555068, -0.059342682, 10.215868
269485467667008, 0.07178468, 4.743771, 8.502895, 0.2784028, 0.014970422, 9.732935
269485477306904, 0.021535404, 5.188836, 8.506484, -0.078244686, -0.12811571, 9.963043
269485486946904, 0.13160525, 5.267799, 8.484949, -0.18625116, -0.040011406, 9.986246
269485496586800, -0.0023928226, 4.6959143, 8.348558, 0.25743628, -0.06507021, 9.574944
269485506226800, 0.25124636, 5.5262237, 8.581859, -0.37803745, 0.03380519, 10.20326
269485515866696, 0.15074782, 4.932804, 8.571091, 0.1292696, 0.055603325, 9.889341
269485525506696, 0.2009971, 5.089534, 8.652447, 0.027671814, 0.0744881, 10.040034
269485535146591, 0.2009971, 5.0177493, 8.659625, 0.09118748, 0.08989918, 10.0095415
269485544786591, 0.17467605, 5.038088, 8.681161, 0.08962393, 0.058135867, 10.038128
269485554426487, 0.1268196, 5.0392847, 8.706285, 0.10914707, 0.00969851, 10.059715
269485564066487, 0.086141616, 5.0333023, 8.650054, 0.09240198, -0.03459245, 10.007759
269485573706383, 0.10887343, 5.0644093, 8.592627, 0.031008244, -0.01990503, 9.9745655
269485583346383, 0.07776674, 5.0715876, 8.55793, 0.013765812, -0.054370522, 9.9479685
269485592986279, 0.07776674, 5.0823555, 8.507681, -0.019819736, -0.057885647, 9.910261
269485602626279, 0.08853444, 5.070391, 8.469396, -0.028270721, -0.041771293, 9.871416
269485612266175, 0.15074782, 5.081159, 8.437093, -0.064907074, 0.01761961, 9.849918
269485621906175, 0.17108682, 5.1014977, 8.459825, -0.07433224, 0.03625405, 9.880098
269485631546071, 0.2105684, 5.10748, 8.4502535, -0.09095287, 0.07466239, 9.875406
269485641186071, 0.17347965, 5.1062837, 8.530413, -0.046508312, 0.045044124, 9.943238
269485650825966, 0.062213387, 5.0943193, 8.7469635, 0.08768368, -0.047679305, 10.122024
269485660465966, 0.08733802, 5.1673007, 8.7984085, 0.047353745, -0.030460775, 10.203795
269485670105862, 0.0023928226, 5.1469617, 8.745767, 0.047444344, -0.11611229, 10.147116
269485679745862, 0.034695927, 5.1086764, 8.660822, 0.03431797, -0.08316785, 10.054926
269485689385758, 0.06699903, 5.076373, 8.553144, 0.0063405037, -0.05306834, 9.946228
269485699025758, 0.12801601, 5.056034, 8.474181, -0.02202797, 0.0047141314, 9.868693
269485708665654, 0.18424734, 5.020142, 8.46461, -0.0016961098, 0.06410289, 9.842829
269485718305654, 0.2213361, 5.026124, 8.469396, -0.010825634, 0.10011494, 9.850452
269485727945654, 0.2321038, 5.0368915, 8.519645, 0.0065755844, 0.11105287, 9.8993
269485737585550, 0.2440679, 5.0751767, 8.516056, -0.026733398, 0.11356938, 9.915977
269485747225550, 0.1902294, 5.10748, 8.492127, -0.0552454, 0.049987376, 9.911268
269485756865446, 0.13160525, 5.1146584, 8.480164, -0.054644108, -0.014792323, 9.90389
269485766505446, 0.09092726, 5.111069, 8.489735, -0.040238857, -0.054667592, 9.909706
269485776145341, 0.0526421, 5.123033, 8.508878, -0.034312725, -0.09254867, 9.931742
269485785785341, 0.047856454, 5.13739, 8.532805, -0.03689003, -0.098019004, 9.959561
269485795425237, 0.07178468, 5.139783, 8.563912, -0.029478073, -0.073391795, 9.987836
269485805065237, 0.06819545, 5.1361938, 8.589037, -0.013427734, -0.07462561, 10.007545
269485814705133, 0.08015956, 5.1409793, 8.6141615, -0.007033348, -0.061311007, 10.031752
269485824345133, 0.08135597, 5.144569, 8.608179, -0.013457298, -0.059224725, 10.028473
269485833985029, 0.09092726, 5.111069, 8.543573, -0.018257618, -0.046443105, 9.955976
269485843625029, 0.08255238, 5.0715876, 8.49811, -0.0036273003, -0.04506302, 9.896649
269485853264925, 0.09810573, 5.0512486, 8.559127, 0.043132782, -0.02086842, 9.9388685
269485862904925, 0.14117654, 5.1050873, 8.608179, 0.015424252, 0.017594635, 10.009098
269485872544925, 0.19142582, 5.0955157, 8.647661, 0.036634922, 0.07026273, 10.038761
269485882184821, 0.19142582, 5.0979085, 8.622537, 0.023900986, 0.06557727, 10.018414
269485891824821, 0.20338993, 5.0512486, 8.673982, 0.08839893, 0.0808782, 10.038929
269485901464716, 0.25004998, 5.050052, 8.724232, 0.106469154, 0.12839013, 10.082159
269485911104716, 0.24765715, 5.0273204, 8.748159, 0.13884115, 0.13052154, 10.091048
269485920744612, 0.20937198, 5.003392, 8.744571, 0.16679096, 0.09061062, 10.075181
269485930384612, 0.19501504, 5.0249276, 8.691928, 0.123027325, 0.07164192, 10.040781
269485940024508, 0.17347965, 5.070391, 8.610572, 0.05395794, 0.038107336, 9.993826
269485949664508, 0.15553348, 5.109873, 8.52802, -0.012588024, 0.008689344, 9.942931
269485959304404, 0.14596218, 5.1649075, 8.5016985, -0.0641799, -0.011635542, 9.948476
269485968944404, 0.111266255, 5.2019963, 8.469396, -0.09911871, -0.0522393, 9.939379
269485978584404, 0.050249275, 5.2283173, 8.438289, -0.11979246, -0.116775155, 9.92545
269485988224300, -0.0071784677, 5.239085, 8.422736, -0.12652683, -0.1763025, 9.916826
269485997864300, -0.019142581, 5.2127643, 8.383254, -0.109065056, -0.18402952, 9.8694725
269486007504196, 0.02751746, 5.2055855, 8.3784685, -0.11525965, -0.1360063, 9.862344
269486017144196, 0.06580263, 5.1852465, 8.402397, -0.086565495, -0.09215522, 9.872964
269486026784091, 0.10289137, 5.1421757, 8.432307, -0.031669617, -0.04499221, 9.876909
269486036424091, 0.104087785, 5.1493545, 8.455039, -0.02641344, -0.04313749, 9.900091
269486046064091, 0.13160525, 5.1553364, 8.477771, -0.017451763, -0.01372546, 9.923049
269486055703987, 0.17826529, 5.160122, 8.486146, -0.024882317, 0.032184184, 9.933361
269486065343987, 0.18903299, 5.168497, 8.469396, -0.039598465, 0.041224003, 9.9235325
269486074983883, 0.2213361, 5.1661043, 8.506484, -0.021255493, 0.07716507, 9.954473
269486084623883, 0.20578274, 5.1589255, 8.553144, 0.015695095, 0.067804575, 9.99041
269486094263779, 0.17228323, 5.1385865, 8.526823, 0.024709702, 0.036182523, 9.956883
269486103903779, 0.16869399, 5.12423, 8.514859, 0.03254509, 0.035904527, 9.939149
269486113543779, 0.2117648, 5.130212, 8.467003, -0.003953457, 0.07444632, 9.901944
269486123183675, 0.23808585, 5.12423, 8.426325, -0.023226261, 0.09785116, 9.864445
269486132823675, 0.20458634, 5.123033, 8.446664, -0.0052347183, 0.06289655, 9.880762
269486142463571, 0.20338993, 5.1421757, 8.458628, -0.015962124, 0.055820465, 9.900927
269486152103571, 0.20219351, 5.144569, 8.467003, -0.013630867, 0.05490458, 9.909309
269486161743466, 0.19262223, 5.143372, 8.467003, -0.014044285, 0.039046347, 9.908572
269486171383466, 0.18903299, 5.1625147, 8.506484, -0.009028912, 0.035687923, 9.952197
269486181023466, 0.2009971, 5.1900325, 8.567501, -0.0069975853, 0.045161903, 10.018824
269486190663362, 0.16749759, 5.1924253, 8.52802, -0.024904728, 0.009632707, 9.985776
269486200303362, 0.16271193, 5.1852465, 8.493324, -0.03585577, 0.003436625, 9.952311
269486209943258, 0.11365908, 5.17089, 8.465807, -0.031526566, -0.042356014, 9.92059
269486219583258, 0.12323037, 5.160122, 8.447861, -0.0365839, -0.027211785, 9.899815
269486229223258, 0.12323037, 5.1529436, 8.514859, 0.0038862228, -0.021728754, 9.95341
269486238863154, 0.13160525, 5.148158, 8.536395, 0.013426781, -0.00941664, 9.969483
269486248503154, 0.096909314, 5.127819, 8.559127, 0.045630455, -0.039542437, 9.9779215
269486258143050, 0.086141616, 5.127819, 8.57468, 0.052815914, -0.049936414, 9.991086
269486267783050, 0.10289137, 5.151747, 8.5938225, 0.039934635, -0.035345376, 10.020081
269486277423050, 0.083748795, 5.176872, 8.580662, 0.013471603, -0.058698297, 10.021535
269486287062946, 0.0634098, 5.180461, 8.555537, -6.380081E-4, -0.08099413, 10.001592
269486296702946, 0.051445685, 5.2008, 8.492127, -0.048038006, -0.099283755, 9.957662
269486306342841, 0.07537391, 5.2031927, 8.413164, -0.096242905, -0.07926291, 9.891647
269486315982841, 0.12083755, 5.1852465, 8.407183, -0.09217024, -0.031068087, 9.877886
269486325622737, 0.14955142, 5.1469617, 8.427522, -0.057356358, 0.0026845336, 9.8759
269486335262737, 0.148355, 5.1003013, 8.526823, 0.033281803, 0.013747513, 9.936827
269486344902737, 0.13040884, 5.083552, 8.6345005, 0.09812546, 0.0032905936, 10.020204
269486354542633, 0.13758731, 5.083552, 8.709874, 0.13595581, 0.012890309, 10.084873
269486364182633, 0.17347965, 5.1050873, 8.688339, 0.09958267, 0.047985703, 10.078047
269486373822633, 0.17826529, 5.1349974, 8.665607, 0.061767578, 0.04823959, 10.074055
269486383462529, 0.17467605, 5.176872, 8.602198, -0.0011134148, 0.03991747, 10.04125
269486393102529, 0.14596218, 5.1756754, 8.517252, -0.039595127, 0.0065693855, 9.967493
269486402742425, 0.11485548, 5.1673007, 8.441878, -0.0611248, -0.025045931, 9.898239
269486412382425, 0.09810573, 5.144569, 8.420342, -0.050502777, -0.040247798, 9.867838
269486422022425, 0.11365908, 5.12423, 8.449057, -0.019610882, -0.020607173, 9.882125
269486431662321, 0.16151553, 5.1086764, 8.484949, 0.00432539, 0.029471397, 9.90546
269486441302321, 0.17228323, 5.111069, 8.551949, 0.032669544, 0.04186678, 9.964222
269486450942216, 0.17228323, 5.1326046, 8.565108, 0.017850876, 0.031074524, 9.986647
269486460582216, 0.18424734, 5.1421757, 8.526823, -0.011631012, 0.03884387, 9.958966
269486470222216, 0.17108682, 5.139783, 8.5016985, -0.020725727, 0.02155286, 9.936026
269486479862112, 0.14237295, 5.13739, 8.472985, -0.027445316, -0.008533537, 9.90978
