timestamp_acc,device_acc_x,device_acc_y,device_acc_z,earth_acc_x,earth_acc_y,earth_acc_z
186783799474431, -0.63888365, 7.6534433, 6.245267, -0.017466605, -0.025202274, 9.898778
186783809113702, -0.6089734, 7.665407, 6.2404814, 0.015102878, -0.017682552, 9.903151
186783818752973, -0.60658056, 7.6797643, 6.206982, 0.021096721, 0.016434193, 9.893061
186783828392244, -0.61854464, 7.664211, 6.1914287, 0.008061752, 0.018696308, 9.871985
186783838031514, -0.6221339, 7.661818, 6.2033925, 0.0040182173, 0.007911682, 9.87788
186783847670785, -0.6257231, 7.6666036, 6.2201424, 6.7061186E-4, -0.0014939308, 9.892346
186783857310056, -0.65084773, 7.6678, 6.2488565, -0.024570242, -0.020359516, 9.912919
186783866949327, -0.66161543, 7.6713896, 6.253642, -0.03459595, -0.019883156, 9.9193945
186783876588598, -0.65084773, 7.6678, 6.2344995, -0.023014441, -0.008173943, 9.903895
186783886227869, -0.6197411, 7.658229, 6.2201424, 0.007812187, -0.0064558983, 9.885477
186783895867244, -0.6161518, 7.6606216, 6.2201424, 0.011628315, -0.005355358, 9.8871
186783905506514, -0.6221339, 7.676175, 6.2105713, 0.008493125, 0.010441303, 9.893518
186783915145785, -0.64845496, 7.6773715, 6.206982, -0.01733002, 0.01677847, 9.893865
186783924785056, -0.64845496, 7.676175, 6.198607, -0.015313327, 0.019534588, 9.887684
186783934424327, -0.6556334, 7.682157, 6.1902323, -0.020429939, 0.029405117, 9.887522
186783944063598, -0.64845496, 7.68455, 6.189036, -0.012252122, 0.029960155, 9.888172
186783953702869, -0.64606214, 7.664211, 6.2009997, -0.013301313, 0.0075917244, 9.879763
186783963342139, -0.613759, 7.6630144, 6.2105713, 0.018256783, -0.0051236153, 9.88278
186783972981410, -0.5982057, 7.664211, 6.1734824, 0.03588909, 0.022301197, 9.859417
186783982620681, -0.5778667, 7.6402826, 6.0981083, 0.056504995, 0.06358957, 9.792216
186783992259952, -0.64008003, 7.5900335, 6.157929, -0.01676783, -0.0060362816, 9.7948
186784001899327, -0.64008003, 7.6678, 6.2105713, -0.013079554, 0.003264904, 9.888169
186784011538598, -0.6436693, 7.7001033, 6.283552, -0.021000862, -0.024866104, 9.9593115
186784021177869, -0.6520442, 7.6953177, 6.330212, -0.031493068, -0.06346989, 9.985473
186784030817139, -0.654437, 7.704889, 6.326623, -0.034835428, -0.050858498, 9.990793
186784040456410, -0.6472585, 7.7108707, 6.289534, -0.025750726, -0.017128468, 9.971649
186784050095681, -0.6233303, 7.6809607, 6.2380886, -0.003332138, 0.0019540787, 9.914608
186784059734952, -0.6257231, 7.647461, 6.2105713, -0.008832723, 3.8576126E-4, 9.8714905
186784069374223, -0.59940207, 7.648658, 6.1507506, 0.020394772, 0.04286337, 9.833145
186784079013494, -0.5910272, 7.6366935, 6.142376, 0.027003288, 0.04132366, 9.818083
186784088652869, -0.5886344, 7.6259255, 6.1268225, 0.027872056, 0.04499483, 9.799817
186784098292139, -0.60059845, 7.6366935, 6.151947, 0.014493942, 0.033021927, 9.824713
186784107931410, -0.61016977, 7.6594253, 6.198607, 0.005113244, 0.012578964, 9.872267
186784117570681, -0.6376872, 7.6570325, 6.229714, -0.024025768, -0.008934975, 9.891686
186784127209952, -0.6376872, 7.672586, 6.239285, -0.022548348, -0.0069880486, 9.90976
186784136849223, -0.634098, 7.6917286, 6.250053, -0.015997022, -0.0022945404, 9.931147
186784146488494, -0.6329016, 7.6833534, 6.235696, -0.014291376, 0.003607273, 9.915552
186784156127869, -0.613759, 7.6773715, 6.227321, 0.0047896802, 0.0037665367, 9.904456
186784165767139, -0.6017949, 7.678568, 6.227321, 0.016801119, 0.0028367043, 9.904636
186784175406410, -0.6149554, 7.670193, 6.215357, 0.0032984316, 0.008626938, 9.891441
186784185045681, -0.63170516, 7.6630144, 6.212964, -0.014943033, 0.0081272125, 9.885418
186784194684952, -0.6149554, 7.643872, 6.206982, -6.701648E-4, -0.0015249252, 9.865778
186784204324223, -0.62093747, 7.649854, 6.215357, -0.0060247183, -0.004032135, 9.876054
186784213963598, -0.6221339, 7.6666036, 6.1902323, -0.0016096532, 0.023669243, 9.873313
186784223602869, -0.6125626, 7.655836, 6.155536, 0.008551359, 0.042561054, 9.842552
186784233242139, -0.6197411, 7.6426754, 6.1184473, 0.0026697814, 0.061098576, 9.809498
186784242881410, -0.6017949, 7.617551, 6.1160545, 0.01748252, 0.044932842, 9.787392
186784252520681, -0.57188463, 7.63789, 6.1471615, 0.04703471, 0.029183388, 9.820842
186784262159952, -0.56829536, 7.641479, 6.2009997, 0.046717405, -0.01014328, 9.8572445
186784271799327, -0.59581286, 7.6534433, 6.2751775, 0.0146996975, -0.051602364, 9.914898
186784281438598, -0.62452674, 7.668997, 6.3397837, -0.016711414, -0.08808231, 9.969371
186784291077869, -0.68075806, 7.6953177, 6.34098, -0.0680567, -0.062376976, 9.994041
186784300717139, -0.67477596, 7.696514, 6.290731, -0.0568434, -0.02259779, 9.962993
186784310356410, -0.65324056, 7.6977105, 6.224928, -0.028179377, 0.024140358, 9.92118
186784319995785, -0.64247286, 7.6773715, 6.1675005, -0.017203659, 0.052844524, 9.868626
186784329635056, -0.6233303, 7.6630144, 6.1363935, 0.0022180974, 0.06572819, 9.836733
186784339274327, -0.59700924, 7.6426754, 6.1184473, 0.025145918, 0.06281948, 9.808044
186784348913598, -0.5886344, 7.6331043, 6.1435723, 0.027866721, 0.03666401, 9.815912
186784358552869, -0.58983076, 7.63789, 6.189036, 0.02306956, 0.005981922, 9.848292
186784368192244, -0.58265233, 7.6331043, 6.224928, 0.027238905, -0.025925636, 9.8667145
186784377831514, -0.6053841, 7.645068, 6.2440705, 0.0044935644, -0.0276165, 9.889448
186784387470785, -0.63170516, 7.655836, 6.253642, -0.019554079, -0.024377346, 9.905451
186784397110056, -0.6556334, 7.6809607, 6.2237315, -0.03499925, 0.017185688, 9.90759
186784406749327, -0.63529444, 7.6797643, 6.1938214, -0.012577355, 0.036298275, 9.886574
186784416388702, -0.6329016, 7.665407, 6.13759, -0.0058377385, 0.06866312, 9.839933
186784426027973, -0.6113662, 7.648658, 6.1363935, 0.013589859, 0.053532124, 9.824867
186784435667244, -0.6053841, 7.647461, 6.157929, 0.017645419, 0.035262585, 9.837109
186784445306514, -0.5946164, 7.6390862, 6.2105713, 0.02107814, -0.00944376, 9.863057
186784454945889, -0.6161518, 7.6390862, 6.265606, -0.003456235, -0.049242973, 9.899025
186784464585160, -0.6412765, 7.668997, 6.302695, -0.027590543, -0.051712513, 9.947124
186784474224431, -0.62452674, 7.6833534, 6.306284, -0.008577794, -0.046787262, 9.959464
186784483863702, -0.6125626, 7.6977105, 6.253642, 0.008737177, 0.001376152, 9.936698
186784493503077, -0.634098, 7.6773715, 6.1974106, -0.01171869, 0.035083294, 9.886893
186784503142348, -0.64247286, 7.6833534, 6.157929, -0.016848415, 0.06750488, 9.867216
186784512781619, -0.6472585, 7.647461, 6.1447687, -0.024680376, 0.056270123, 9.83143
186784522420889, -0.66161543, 7.6343007, 6.166304, -0.04181561, 0.031152248, 9.835693
186784532060264, -0.6197411, 7.6426754, 6.1842504, -5.5494905E-4, 0.016791344, 9.85085
186784541699535, -0.5838487, 7.6510506, 6.196214, 0.035152465, 0.0076208115, 9.862618
186784551338806, -0.58504516, 7.6737823, 6.2141604, 0.03529504, 0.008281708, 9.891598
186784560978077, -0.6233303, 7.668997, 6.2321067, -0.0056131184, -0.0017142296, 9.901575
186784570617452, -0.62811595, 7.6737823, 6.2141604, -0.008187562, 0.015875816, 9.894287
186784580256723, -0.613759, 7.6570325, 6.196214, 0.005199671, 0.01732397, 9.8691225
186784589895994, -0.62093747, 7.6546397, 6.175875, -8.028746E-5, 0.031572342, 9.854925
186784599535264, -0.61734825, 7.6546397, 6.151947, 0.005311787, 0.04950905, 9.839645
186784609174639, -0.6448657, 7.6534433, 6.1567326, -0.022434175, 0.048789024, 9.843452
186784618813910, -0.64845496, 7.6797643, 6.168697, -0.023346543, 0.056186676, 9.871596
186784628453181, -0.6269195, 7.6737823, 6.209375, -0.0056111217, 0.019063473, 9.891204
186784638092452, -0.6125626, 7.672586, 6.235696, 0.0059072375, -0.0030350685, 9.905941
186784647731827, -0.6089734, 7.6534433, 6.259624, 0.0042381287, -0.032956123, 9.905948
186784657371098, -0.6125626, 7.6366935, 6.24766, -8.004904E-4, -0.03276825, 9.885673
186784667010369, -0.59700924, 7.641479, 6.2117677, 0.017811507, -0.0042443275, 9.865817
186784676649639, -0.5778667, 7.6630144, 6.212964, 0.039304733, 0.005273819, 9.882058
186784686289014, -0.5814559, 7.6678, 6.2033925, 0.036778808, 0.015771389, 9.879967
186784695928285, -0.6149554, 7.6630144, 6.2081785, 0.0025493205, 0.013246059, 9.88136
186784705567556, -0.64008003, 7.6809607, 6.1974106, -0.019060165, 0.036197186, 9.89005
186784715206827, -0.63170516, 7.652247, 6.1806607, -0.013844341, 0.029035091, 9.856747
186784724846202, -0.6161518, 7.6343007, 6.155536, 5.4720044E-4, 0.0347023, 9.826067
186784734485473, -0.61016977, 7.6343007, 6.1507506, 0.0075748563, 0.03739071, 9.822683
186784744124744, -0.6053841, 7.6259255, 6.1806607, 0.007825077, 0.008314133, 9.834718
186784753764119, -0.6197411, 7.6390862, 6.206982, -0.0073310733, -0.0012102127, 9.862367
186784763403389, -0.6161518, 7.664211, 6.24766, -0.003509581, -0.016327858, 9.9072075
186784773042660, -0.6089734, 7.7108707, 6.2524457, 0.009892732, 0.0076794624, 9.945919
186784782681931, -0.6161518, 7.7072816, 6.227321, 0.004962206, 0.025586605, 9.9277725
186784792321306, -0.6436693, 7.6941214, 6.189036, -0.020683825, 0.051495075, 9.895195
186784801960577, -0.64606214, 7.670193, 6.1292152, -0.021314085, 0.08190298, 9.839174
186784811599848, -0.64247286, 7.6343007, 6.101698, -0.021006525, 0.07706404, 9.793858
186784821239119, -0.61016977, 7.6271224, 6.1040907, 0.008311033, 0.06478596, 9.787798
186784830878494, -0.57906306, 7.6366935, 6.151947, 0.036135674, 0.029036999, 9.823376
186784840517764, -0.60059845, 7.8149586, 6.189036, 0.036369145, 0.11344147, 9.986203
186784850157035, -0.5371887, 7.5182486, 6.2644095, 0.047524333, -0.13731098, 9.799712
186784859796306, -0.6879365, 7.6103725, 6.166304, -0.07853398, 0.018724918, 9.818749
186784869435681, -0.51445687, 7.9429746, 6.3110695, 0.12838405, 0.08781624, 10.1568165
186784879074952, -0.7932207, 7.204789, 6.0418773, -0.22679833, -0.121647835, 9.432723
186784888714223, -0.47377887, 8.281559, 6.3720865, 0.20893481, 0.24297857, 10.455118
186784898353494, -0.81834537, 6.971489, 6.0598235, -0.28566474, -0.27926445, 9.264622
186784907992869, -0.49172506, 8.316256, 6.3385873, 0.20549005, 0.28476143, 10.462135
186784917632139, -0.6903293, 7.068398, 6.0753765, -0.14997032, -0.24724197, 9.341595
186784927271410, -0.5300102, 8.075776, 6.256035, 0.1450879, 0.21044159, 10.226032
186784936910785, -0.54436713, 7.4452677, 6.236892, 0.024900556, -0.16207027, 9.72627
186784946550056, -0.63529444, 7.6606216, 6.1627145, -0.018759131, 0.046778202, 9.852169
186784956189327, -0.4749753, 7.90469, 6.2811594, 0.16565776, 0.07606602, 10.105913
186784965828598, -0.77647096, 7.176075, 5.9964137, -0.2177341, -0.0973115, 9.380781
186784975467973, -0.43070808, 8.242078, 6.3194447, 0.25617337, 0.24426937, 10.388813
186784985107244, -0.782453, 6.940382, 5.99761, -0.2589584, -0.25062895, 9.199055
186784994746514, -0.4749753, 8.303095, 6.279963, 0.21952218, 0.32023764, 10.414134
186785004385785, -0.73100734, 7.048059, 6.013163, -0.19065958, -0.19994831, 9.289312
186785014025160, -0.5706882, 8.139186, 6.2380886, 0.10537696, 0.26665258, 10.266624
186785023664431, -0.65324056, 7.448857, 6.2512493, -0.07884085, -0.15224886, 9.744788
186785033303702, -0.7322037, 7.7072816, 6.1998034, -0.11173278, 0.062164783, 9.917637
186785042942973, -0.53240305, 7.891529, 6.3122663, 0.104796946, 0.052591324, 10.118828
186785052582348, -0.7609176, 7.2526455, 6.0191455, -0.19317484, -0.06891489, 9.453462
186785062221619, -0.4031906, 8.248059, 6.3182483, 0.28829426, 0.24261284, 10.390925
186785071860889, -0.74177504, 6.9738817, 6.023931, -0.22332436, -0.25211954, 9.239023
186785081500160, -0.4223332, 8.342576, 6.3517475, 0.28034192, 0.27854156, 10.486443
186785091139535, -0.7082755, 7.0061846, 6.0729837, -0.18012449, -0.2762165, 9.293043
186785100778806, -0.52522457, 8.143971, 6.2668023, 0.14687985, 0.23994589, 10.285612
186785110418077, -0.6029913, 7.355537, 6.168697, -0.035546303, -0.15037823, 9.617509
186785120057348, -0.67836523, 7.7312098, 6.1639113, -0.05612594, 0.09262991, 9.910292
186785129696723, -0.50009996, 7.820941, 6.229714, 0.12797552, 0.06793165, 10.010273
186785139335994, -0.7645068, 7.2693954, 5.9820566, -0.19276017, -0.037027836, 9.4432535
186785148975264, -0.44745782, 8.209774, 6.323034, 0.2312553, 0.2212863, 10.367204
186785158614535, -0.7908279, 6.99781, 6.053841, -0.27008265, -0.25501394, 9.27932
186785168253910, -0.4426722, 8.382058, 6.40439, 0.25613874, 0.26901674, 10.55145
186785177893181, -0.73459655, 7.0085773, 6.09093, -0.21520078, -0.28679514, 9.30756
186785187532452, -0.51445687, 8.161918, 6.276374, 0.16073406, 0.24727821, 10.304729
186785197171723, -0.6149554, 7.2933235, 6.157929, -0.06079191, -0.18260527, 9.5631485
186785206810994, -0.60658056, 7.7754774, 6.1710896, 0.020566702, 0.104180336, 9.9447
186785216450369, -0.47377887, 7.7754774, 6.236892, 0.14412272, 0.033182144, 9.977949
186785226089639, -0.70348984, 7.3052874, 6.0047884, -0.13444626, -0.042120457, 9.481548
186785235728910, -0.42592242, 8.195417, 6.323034, 0.2442621, 0.21221876, 10.354822
186785245368181, -0.79800636, 7.024131, 6.0490556, -0.2721247, -0.23189402, 9.29723
186785255007556, -0.47736812, 8.370093, 6.3684974, 0.22578603, 0.2901721, 10.521831
186785264646827, -0.78364944, 6.9990063, 6.023931, -0.26303995, -0.22375154, 9.261138
186785274286098, -0.52522457, 8.213364, 6.209375, 0.16426528, 0.32857227, 10.303234
186785283925369, -0.6221339, 7.2550383, 6.0897336, -0.0731926, -0.1533246, 9.490975
186785293564744, -0.6029913, 7.7910304, 6.1627145, 0.023545206, 0.118394375, 9.951294
186785303204014, -0.47736812, 7.7072816, 6.270392, 0.12264681, -0.042735577, 9.946407
186785312843285, -0.6975078, 7.353144, 6.0981083, -0.13429958, -0.08046484, 9.576934
186785322482556, -0.40917268, 8.158329, 6.3996043, 0.24756956, 0.12523603, 10.37322
186785332121827, -0.77766734, 7.0348988, 6.101698, -0.26065046, -0.26370144, 9.337442
186785341761202, -0.4319045, 8.368897, 6.401997, 0.25318068, 0.2602949, 10.539387
186785351400473, -0.7812566, 6.9822564, 6.01436, -0.27276033, -0.22625017, 9.241711
186785361039744, -0.53240305, 8.2456665, 6.1770716, 0.15158993, 0.37710238, 10.3085165
186785370679014, -0.6999006, 7.207182, 6.0598235, -0.15820366, -0.13488197, 9.439892
186785380318285, -0.65084773, 7.8831544, 6.2057858, -0.027097285, 0.15987444, 10.052523
186785389957660, -0.57906306, 7.690532, 6.320641, 0.00633651, -0.05861759, 9.971291
186785399596931, -0.78364944, 7.422536, 6.168697, -0.22585082, -0.06918287, 9.680143
186785409236202, -0.4534399, 8.165507, 6.4474607, 0.18491834, 0.11757374, 10.411669
186785418875473, -0.7513463, 7.0875406, 6.1196437, -0.239698, -0.24028063, 9.3878975
186785428514744, -0.42711884, 8.372486, 6.4199433, 0.23382759, 0.26864195, 10.553189
186785438154119, -0.6891329, 6.9332037, 6.0287166, -0.20829904, -0.27844572, 9.206994
186785447793389, -0.40558344, 8.273184, 6.1974106, 0.25103694, 0.3739848, 10.335137
186785457432660, -0.5706882, 7.198807, 5.9270215, -0.04446584, -0.051570892, 9.342025
186785467071931, -0.51086766, 7.905886, 6.04427, 0.08889246, 0.28842306, 9.960227
186785476711202, -0.4438686, 7.624729, 6.088537, 0.09838468, 0.072740555, 9.766722
186785486350577, -0.6149554, 7.405786, 5.9653068, -0.09904969, 0.068572044, 9.528601
186785495989848, -0.39720857, 7.9776707, 6.2644095, 0.1641128, 0.15966034, 10.148469
186785505629119, -0.7477571, 6.9990063, 6.0358953, -0.3118472, -0.20178843, 9.264949
186785515268389, -0.33499518, 8.280363, 6.431907, 0.24664646, 0.20790195, 10.485323
186785524907660, -0.62931234, 6.914061, 6.0346985, -0.21502745, -0.2680483, 9.192375
186785534546931, -0.25124636, 8.22772, 6.2811594, 0.32529014, 0.28732347, 10.345197
186785544186306, -0.424726, 7.129415, 6.1196437, -0.0010046363, -0.22641087, 9.402539
186785553825577, -0.3696911, 7.928618, 6.276374, 0.15519464, 0.13582134, 10.116818
186785563464848, -0.31465617, 7.5110703, 6.3541408, 0.13083452, -0.17388153, 9.84088
186785573104119, -0.5300102, 7.448857, 6.263213, -0.08864933, -0.09691715, 9.745613
186785582743389, -0.32662028, 7.9537425, 6.4498534, 0.1673212, 0.0347023, 10.244028
186785592382660, -0.68195444, 7.0097737, 6.1627145, -0.30027443, -0.25319672, 9.350229
186785602022035, -0.33020952, 8.280363, 6.498906, 0.20805651, 0.2125802, 10.527145
186785611661306, -0.6664011, 6.9152575, 6.0801625, -0.28376955, -0.24930668, 9.224456
186785621300577, -0.35653058, 8.26122, 6.3625154, 0.18343699, 0.31253624, 10.427136
186785630939848, -0.56350976, 7.0815587, 6.168697, -0.16335201, -0.2312727, 9.404184
186785640579119, -0.43788654, 7.982456, 6.355337, 0.06815112, 0.16070509, 10.211327
186785650218389, -0.4642076, 7.479964, 6.3744793, -0.033023953, -0.15634155, 9.837368
186785659857660, -0.613759, 7.479964, 6.215357, -0.16496664, -0.0087304115, 9.743201
186785669497035, -0.35174492, 7.9106717, 6.35773, 0.1419341, 0.109098434, 10.153381
186785679136306, -0.6149554, 7.0779696, 6.017949, -0.20446295, -0.105084896, 9.30799
186785688775577, -0.20578274, 8.232507, 6.3278193, 0.33310163, 0.30380297, 10.375672
186785698414848, -0.56111693, 6.8518476, 5.986842, -0.17689818, -0.23150206, 9.111535
186785708054119, -0.25962126, 8.242078, 6.2979093, 0.28411853, 0.33534718, 10.36676
186785717693389, -0.48095736, 6.9906316, 6.0981083, -0.1033141, -0.24578142, 9.285263
186785727332764, -0.39601216, 7.962117, 6.2871413, 0.105528474, 0.19534206, 10.150419
186785736972035, -0.49172506, 7.4045897, 6.2871413, -0.07899445, -0.1262331, 9.725005
186785746611306, -0.61854464, 7.5517483, 6.285945, -0.1813879, -0.0045394897, 9.843357
186785756250577, -0.4235296, 7.9274216, 6.5742803, 0.03386122, -0.029624939, 10.307402
186785765889848, -0.74536425, 7.1688967, 6.384051, -0.37616068, -0.29026031, 9.616602
186785775529119, -0.36729828, 8.322237, 6.7968125, 0.12858593, 0.03829527, 10.750498
186785785168389, -0.6795616, 7.0097737, 6.4211397, -0.3427741, -0.42864895, 9.514648
186785794807660, -0.3290131, 8.383254, 6.617351, 0.19241053, 0.20338058, 10.681674
186785804447035, -0.56829536, 7.0528445, 6.2285175, -0.20223969, -0.29021978, 9.419921
186785814086306, -0.43070808, 8.066205, 6.300302, 0.07418007, 0.2587595, 10.240632
186785823725577, -0.44506502, 7.372287, 6.1794643, -0.031108677, -0.07802343, 9.629508
186785833364848, -0.5132605, 7.605587, 6.068198, -0.058422208, 0.15389872, 9.741884
186785843004119, -0.27996024, 7.838887, 6.2177496, 0.18615884, 0.137815, 10.006661
186785852643389, -0.567099, 7.1377897, 5.989235, -0.18004692, -0.07062912, 9.332909
186785862282660, -0.23330021, 8.196614, 6.3565335, 0.2545287, 0.23803091, 10.369329
186785871921931, -0.56350976, 6.9056864, 6.01436, -0.23025501, -0.24584103, 9.168703
186785881561306, -0.18664017, 8.309076, 6.2955165, 0.3200552, 0.3298607, 10.416232
186785891200577, -0.42951167, 6.9726853, 5.9318075, -0.07857221, -0.16734982, 9.162696
186785900839848, -0.28953153, 8.082955, 6.1495543, 0.18906415, 0.31543827, 10.153807
186785910479119, -0.36131623, 7.328019, 6.113662, 0.009925067, -0.108567715, 9.549627
186785920118389, -0.41635114, 7.690532, 6.1770716, -0.003317535, 0.07018423, 9.872636
186785929757660, -0.2620141, 7.8376904, 6.34098, 0.15115029, 0.009633064, 10.083806
186785939396931, -0.60777694, 7.239485, 6.1363935, -0.2551056, -0.14063549, 9.505263
186785949036202, -0.27517462, 8.219346, 6.4331036, 0.18492562, 0.16743183, 10.438198
186785958675473, -0.6113662, 6.975078, 6.053841, -0.28951162, -0.23449993, 9.2485485
186785968314744, -0.24047868, 8.361719, 6.3086767, 0.26326942, 0.33069706, 10.468855
186785977954014, -0.50488555, 6.99781, 5.98086, -0.17402148, -0.19111347, 9.215645
186785987593389, -0.29671, 8.109276, 6.1005015, 0.18938363, 0.34509706, 10.144434
186785997232660, -0.39960137, 7.27777, 6.0346985, -0.04347503, -0.0951581, 9.462149
186786006871931, -0.46181476, 7.756335, 6.1292152, -0.03730446, 0.14092588, 9.895456
186786016511202, -0.2727818, 7.7850485, 6.29432, 0.124259174, -0.008586407, 10.014206
186786026150473, -0.53359944, 7.2897344, 6.101698, -0.18737435, -0.104187965, 9.518913
186786035789744, -0.22253251, 8.232507, 6.442675, 0.2210356, 0.14635563, 10.452822
186786045429014, -0.5838487, 7.058827, 6.2201424, -0.28748626, -0.32329178, 9.416524
186786055068285, -0.25004998, 8.407183, 6.515656, 0.21033835, 0.20356417, 10.635382
186786064707556, -0.53599226, 7.024131, 6.155536, -0.23422003, -0.30389643, 9.347145
186786074346827, -0.3290131, 8.249256, 6.320641, 0.13897926, 0.2706957, 10.393093
186786083986098, -0.43669012, 7.298109, 6.1675005, -0.09823203, -0.16507816, 9.563171
186786093625369, -0.43070808, 7.813762, 6.175875, -0.013376236, 0.13547707, 9.968113
186786103264744, -0.2835495, 7.7300134, 6.209375, 0.113839686, 0.030136108, 9.918468
186786112904014, -0.50488555, 7.3256264, 5.9712887, -0.13692439, 0.007548809, 9.463468
186786122543285, -0.18185452, 8.139186, 6.242874, 0.27164274, 0.22660398, 10.253183
186786132182556, -0.57427746, 6.971489, 6.02752, -0.26674885, -0.24164915, 9.226749
186786141821827, -0.18903299, 8.316256, 6.3972116, 0.2624117, 0.22142315, 10.488197
186786151461098, -0.4953143, 6.9451675, 6.0957155, -0.20228833, -0.32269907, 9.246264
186786161100369, -0.25004998, 8.221739, 6.3110695, 0.20306987, 0.24990177, 10.362696
186786170739639, -0.38524446, 7.243074, 6.1531434, -0.06184858, -0.20088148, 9.509339
186786180378910, -0.3684947, 7.881958, 6.2033925, 0.047320485, 0.1425643, 10.035964
186786190018181, -0.29790643, 7.702496, 6.2321067, 0.08760911, -0.0039744377, 9.9120455
186786199657452, -0.526421, 7.379465, 6.0358953, -0.15948313, -0.0043287277, 9.546739
186786209296723, -0.2656033, 8.128419, 6.3086767, 0.18268412, 0.18607807, 10.289468
186786218935994, -0.58983076, 7.031309, 6.0430737, -0.27627558, -0.20674086, 9.2836895
186786228575264, -0.2656033, 8.353344, 6.4259253, 0.20320737, 0.23300505, 10.537828
186786238214535, -0.57427746, 6.9583282, 6.1268225, -0.28020257, -0.3224702, 9.279203
186786247853806, -0.32662028, 8.276773, 6.350551, 0.14254522, 0.27085638, 10.432999
186786257493077, -0.46899325, 7.220342, 6.172286, -0.13644683, -0.21701288, 9.507089
186786267132452, -0.4211368, 7.9190464, 6.257231, 0.0030784607, 0.13847446, 10.1006155
186786276771619, -0.34097722, 7.661818, 6.2979093, 0.038898587, -0.062031746, 9.923609
186786286410994, -0.53359944, 7.428518, 6.1100726, -0.16174394, -0.0262146, 9.631913
186786296050264, -0.2321038, 8.099705, 6.34098, 0.20511073, 0.15803432, 10.285917
186786305689535, -0.5694918, 7.0600233, 6.0753765, -0.25050616, -0.21679068, 9.3257
186786315328806, -0.23449662, 8.349754, 6.465407, 0.22650361, 0.21666002, 10.55825
186786324968077, -0.56111693, 6.9332037, 6.1244297, -0.26992482, -0.33137894, 9.257977
186786334607348, -0.30269206, 8.275578, 6.3314085, 0.16296792, 0.29003, 10.418871
186786344246619, -0.46181476, 7.149754, 6.1160545, -0.14400446, -0.20775175, 9.416713
186786353885889, -0.38763726, 7.952546, 6.1938214, 0.045684755, 0.2110281, 10.08514
186786363525160, -0.30388847, 7.600801, 6.1854467, 0.076848805, -0.014528275, 9.803986
186786373164431, -0.47258246, 7.4823565, 6.0155563, -0.08967978, 0.07462311, 9.61157
186786382803702, -0.16749759, 8.017152, 6.2404814, 0.26195765, 0.17165089, 10.156196
186786392442973, -0.4881358, 7.024131, 6.0119667, -0.17705017, -0.19750881, 9.254732
186786402082244, -0.13998012, 8.29472, 6.4366927, 0.30509704, 0.18086958, 10.494151
186786411721514, -0.5240282, 6.920043, 6.142376, -0.25525182, -0.34276152, 9.257848
186786421360785, -0.25722843, 8.273184, 6.4127645, 0.1951021, 0.21021175, 10.466759
186786431000056, -0.5084748, 7.115058, 6.168697, -0.2105838, -0.24150372, 9.425113
186786440639327, -0.42831525, 8.024331, 6.2380886, 0.022131085, 0.23161507, 10.1702
186786450278598, -0.3912265, 7.5816584, 6.1854467, -0.009819508, -0.0029129982, 9.792561
186786459917869, -0.5479564, 7.54457, 6.04427, -0.14604062, 0.114691734, 9.680884
186786469557139, -0.25004998, 8.012366, 6.2380886, 0.1930049, 0.18608332, 10.153935
186786479196410, -0.51206404, 7.1066833, 6.020342, -0.18252945, -0.14298105, 9.325122
186786488835681, -0.1363909, 8.2660055, 6.439086, 0.31075644, 0.17772388, 10.47278
186786498474952, -0.5024927, 6.882954, 6.168697, -0.22646618, -0.39604473, 9.24512
186786508114223, -0.20338993, 8.271988, 6.4438715, 0.24672562, 0.19684505, 10.482891
186786517753494, -0.4642076, 7.0528445, 6.166304, -0.16087914, -0.29246712, 9.373899
186786527392764, -0.3924229, 8.007581, 6.2871413, 0.03735292, 0.19473171, 10.18647
186786537032035, -0.40917268, 7.4823565, 6.2285175, -0.045984745, -0.08192921, 9.743649
186786546671306, -0.5419743, 7.5996046, 6.1028943, -0.1441285, 0.10964918, 9.760138
186786556310577, -0.29192436, 7.9561353, 6.2488565, 0.13642818, 0.17213202, 10.118563
186786565949848, -0.5455636, 7.1222367, 6.0083776, -0.2034272, -0.115134716, 9.331124
186786575589119, -0.148355, 8.26122, 6.3996043, 0.30944043, 0.21906471, 10.444181
186786585228389, -0.49292147, 6.9332037, 6.10768, -0.19008303, -0.31165504, 9.245688
186786594867660, -0.18903299, 8.286345, 6.4271216, 0.26745516, 0.22868109, 10.482524
186786604506931, -0.44865423, 7.01097, 6.148358, -0.14023584, -0.29763508, 9.330008
186786614146202, -0.33260235, 8.039884, 6.314659, 0.10174632, 0.18610859, 10.226452
186786623785473, -0.39840496, 7.422536, 6.300302, -0.048160017, -0.16465902, 9.742544
186786633424744, -0.5491528, 7.609176, 6.2344995, -0.16288257, 0.025287151, 9.851038
186786643064014, -0.35294133, 7.895118, 6.3888364, 0.05848044, 0.05097103, 10.16212
186786652703285, -0.6221339, 7.183254, 6.134001, -0.27440172, -0.14618015, 9.461264
186786662342556, -0.22253251, 8.281559, 6.471389, 0.24036247, 0.19995499, 10.507849
186786671981827, -0.5778667, 6.9858456, 6.1639113, -0.26336187, -0.29873514, 9.325833
186786681621098, -0.20219351, 8.359326, 6.4295144, 0.28166193, 0.27141666, 10.540632
186786691260369, -0.47018966, 7.024131, 6.131608, -0.14228392, -0.26677275, 9.330847
186786700899639, -0.3290131, 8.103293, 6.2883377, 0.13571602, 0.24742508, 10.258419
186786710538910, -0.3924229, 7.359126, 6.2321067, -0.03741598, -0.15193415, 9.65015
186786720178181, -0.5180461, 7.617551, 6.1878395, -0.116279066, 0.06411505, 9.826861
186786729817452, -0.3397808, 7.8053875, 6.2979093, 0.07694119, 0.06429577, 10.034596
186786739456723, -0.60777694, 7.1677003, 6.017949, -0.24784291, -0.064753056, 9.375254
186786749095994, -0.21774685, 8.177471, 6.330212, 0.25463247, 0.24257326, 10.337619
186786758735264, -0.5371887, 6.899704, 6.0574307, -0.21997392, -0.27460575, 9.190385
186786768374535, -0.16749759, 8.327023, 6.411568, 0.31606036, 0.266757, 10.502596
186786778013806, -0.44027936, 6.9786673, 6.151947, -0.13096005, -0.31668043, 9.307236
186786787653077, -0.28594232, 8.110473, 6.3792653, 0.16775548, 0.17577505, 10.319763
186786797292348, -0.38165522, 7.3136625, 6.3158555, -0.03932339, -0.24429989, 9.667685
186786806931619, -0.4438686, 7.7300134, 6.317052, -0.03343928, 0.027006626, 9.992667
186786816570889, -0.3182454, 7.816155, 6.391229, 0.09464848, -0.0016350746, 10.10111
186786826210160, -0.59581286, 7.2418776, 6.145965, -0.23221892, -0.12070799, 9.51337
186786835849431, -0.26919255, 8.188239, 6.4235325, 0.1982652, 0.19532585, 10.406921
186786845488702, -0.6305088, 6.975078, 6.096912, -0.29639524, -0.23969984, 9.277729
186786855127973, -0.2739782, 8.3377905, 6.3960147, 0.21627468, 0.30491924, 10.505383
186786864767244, -0.5371887, 6.940382, 6.058627, -0.19898468, -0.2524953, 9.2228565
186786874406514, -0.29671, 8.165507, 6.253642, 0.19721699, 0.31019545, 10.282823
186786884045785, -0.3900301, 7.26102, 6.186643, -0.032298625, -0.1811285, 9.545431
186786893685056, -0.4331009, 7.7443705, 6.222535, 0.0024499893, 0.09989691, 9.943481
186786903324327, -0.30149564, 7.7276206, 6.3218374, 0.114973664, -0.011855602, 9.987957
186786912963598, -0.53599226, 7.2957163, 6.10768, -0.15426105, -0.0685997, 9.528379
186786922602869, -0.2548356, 8.151151, 6.3720865, 0.22143263, 0.19958973, 10.345086
186786932242139, -0.64845496, 6.963114, 6.0514483, -0.3039834, -0.21028566, 9.240609
186786941881410, -0.30029923, 8.313862, 6.3996043, 0.20601594, 0.28067493, 10.490195
186786951520681, -0.57188463, 6.9451675, 6.0717874, -0.22879374, -0.25829172, 9.236339
186786961159952, -0.31585258, 8.1738825, 6.2727847, 0.17781597, 0.30086327, 10.3023205
186786970799223, -0.43429732, 7.2155566, 6.172286, -0.056313574, -0.19095707, 9.503178
186786980438494, -0.4223332, 7.826923, 6.2679987, 0.031139433, 0.10827255, 10.035646
186786990077764, -0.3062813, 7.688139, 6.355337, 0.11647135, -0.05908394, 9.978704
186786999717035, -0.5479564, 7.320841, 6.1627145, -0.15579939, -0.093194485, 9.583374
186787009356306, -0.26679972, 8.118847, 6.4235325, 0.21176839, 0.1468339, 10.352884
186787018995577, -0.64247286, 6.991828, 6.1124654, -0.2927516, -0.23196697, 9.301675
186787028634848, -0.2955136, 8.328219, 6.448657, 0.21374422, 0.2632947, 10.531702
186787038274119, -0.6412765, 6.936793, 6.084948, -0.29227716, -0.24327946, 9.241878
186787047913389, -0.3589234, 8.216953, 6.314659, 0.16255254, 0.30401373, 10.363552
186787057552660, -0.51565325, 7.1892357, 6.174679, -0.12790465, -0.18858528, 9.488191
186787067191931, -0.47976094, 7.856833, 6.262017, -0.0035234094, 0.15050459, 10.057344
186787076831202, -0.35413775, 7.629515, 6.334998, 0.07873094, -0.06785107, 9.922516
186787086470473, -0.526421, 7.367501, 6.1495543, -0.11011559, -0.057667255, 9.610345
186787096109744, -0.22372891, 8.05783, 6.3960147, 0.26275456, 0.1293459, 10.286006
186787105749014, -0.573081, 7.015756, 6.1244297, -0.20826346, -0.2457366, 9.32492
186787115388285, -0.2620141, 8.309076, 6.5228343, 0.24838418, 0.1982007, 10.561996
186787125027556, -0.6125626, 6.9152575, 6.1710896, -0.26698452, -0.33392286, 9.278769
186787134666723, -0.35533416, 8.254042, 6.3948183, 0.17319363, 0.27730846, 10.442331
186787144306098, -0.53599226, 7.1569324, 6.1902323, -0.15940154, -0.20905828, 9.474114
186787153945264, -0.47138608, 7.9154572, 6.2644095, 0.016892612, 0.18719625, 10.10367
186787163584535, -0.39601216, 7.570891, 6.2644095, 0.0403409, -0.043024063, 9.834356
186787173223806, -0.54436713, 7.426125, 6.0861444, -0.10598546, 0.032023907, 9.616265
186787182863077, -0.2428715, 8.000402, 6.3182483, 0.25566995, 0.1478033, 10.19306
186787192502348, -0.56470615, 7.001399, 6.053841, -0.18420237, -0.20309258, 9.268888
186787202141619, -0.2416751, 8.262417, 6.495317, 0.2716189, 0.17474842, 10.507654
186787211780889, -0.6269195, 6.8853474, 6.198607, -0.28581047, -0.37103653, 9.273855
186787221420397, -0.34217364, 8.26481, 6.48096, 0.17456472, 0.20906878, 10.504894
186787231059668, -0.57547385, 7.140183, 6.2751775, -0.19882882, -0.28188372, 9.516945
186787240698939, -0.4881358, 8.019546, 6.391229, 0.015495896, 0.15672398, 10.265203
186787250338210, -0.41994038, 7.623533, 6.407979, 0.02029854, -0.1135416, 9.967121
186787259977481, -0.61734825, 7.5385876, 6.186643, -0.15950018, 0.030639648, 9.770344
186787269616751, -0.3505485, 7.9860454, 6.303891, 0.16484821, 0.16204405, 10.177693
186787279256022, -0.6257231, 7.0468626, 5.9449677, -0.20760822, -0.094062805, 9.237993
186787288895293, -0.2416751, 8.238488, 6.2691956, 0.30921614, 0.3223014, 10.345745
186787298534564, -0.56590253, 6.838687, 5.956932, -0.18436432, -0.25322676, 9.081564
186787308173835, -0.2835495, 8.228917, 6.259624, 0.26784885, 0.32948208, 10.334315
186787317813106, -0.52522457, 7.038488, 6.0825553, -0.13332349, -0.2280407, 9.313639
186787327452376, -0.45702913, 7.9920278, 6.279963, 0.05952573, 0.20209217, 10.172262
186787337091647, -0.4749753, 7.4919276, 6.32423, -0.041702926, -0.136065, 9.814795
186787346730918, -0.6221339, 7.5661054, 6.215357, -0.15776831, 0.019961834, 9.810116
186787356370189, -0.3804588, 7.9716887, 6.3888364, 0.12714207, 0.08975506, 10.221819
186787366009460, -0.6975078, 7.1270223, 6.0981083, -0.2859925, -0.14375544, 9.40029
186787375648731, -0.30269206, 8.279166, 6.471389, 0.24515462, 0.19426632, 10.507961
186787385288001, -0.61734825, 6.9320073, 6.128019, -0.23998529, -0.3054657, 9.264749
186787394927272, -0.29790643, 8.289934, 6.4175506, 0.25725514, 0.24255371, 10.481971
186787404566543, -0.5180461, 7.024131, 6.161518, -0.13944107, -0.28756285, 9.352484
186787414205814, -0.38285163, 8.043473, 6.3134627, 0.1420393, 0.19414425, 10.229663
186787423845085, -0.43788654, 7.429714, 6.2775702, -0.00355798, -0.13796473, 9.735566
186787433484356, -0.5814559, 7.568498, 6.1698933, -0.11397922, 0.056406975, 9.781189
186787443123522, -0.35653058, 7.867601, 6.306284, 0.13653398, 0.097688675, 10.087978
186787452762793, -0.66161543, 7.1270223, 6.0622163, -0.24776173, -0.11578941, 9.375919
186787462402064, -0.30388847, 8.230113, 6.4175506, 0.22892463, 0.22717905, 10.435904
186787472041335, -0.6735796, 6.923632, 6.1040907, -0.2970947, -0.2658491, 9.246155
186787481680606, -0.32542387, 8.322237, 6.3924255, 0.24079943, 0.29248095, 10.492144
186787491319876, -0.5515456, 7.0337024, 6.096912, -0.15932792, -0.21581793, 9.320813
186787500959147, -0.39481574, 8.096115, 6.283552, 0.15112776, 0.25776196, 10.25167
186787510598418, -0.43429732, 7.3902326, 6.263213, -0.013243139, -0.1509614, 9.695826
186787520237689, -0.526421, 7.615158, 6.253642, -0.06230074, 0.014284611, 9.867711
186787529876960, -0.32662028, 7.82453, 6.393622, 0.14944309, -0.0022010803, 10.108709
186787539516231, -0.62452674, 7.170093, 6.15434, -0.22235829, -0.15395498, 9.465888
186787549155501, -0.28594232, 8.193025, 6.4797635, 0.23915541, 0.15021563, 10.445812
186787558794772, -0.66400826, 6.9116683, 6.15434, -0.29203606, -0.31221533, 9.268504
186787568434043, -0.3361916, 8.3174515, 6.430711, 0.21348631, 0.27884436, 10.513028
186787578073314, -0.58504516, 7.001399, 6.094519, -0.20264447, -0.2233386, 9.295918
186787587712585, -0.3912265, 8.115258, 6.276374, 0.15294254, 0.2854762, 10.261504
186787597351856, -0.43070808, 7.34118, 6.227321, -0.009617984, -0.14369154, 9.63521
186787606991126, -0.4833502, 7.7036924, 6.2440705, -0.006574869, 0.07363129, 9.927914
186787616630397, -0.30987054, 7.804191, 6.3625154, 0.1630559, 0.015844345, 10.072548
186787626269668, -0.6017949, 7.200003, 6.1160545, -0.19179803, -0.11209726, 9.463561
186787635908939, -0.30029923, 8.158329, 6.437889, 0.21961492, 0.17052984, 10.393152
186787645548210, -0.6771688, 6.9044895, 6.131608, -0.31762868, -0.2878046, 9.248968
186787655187481, -0.3278167, 8.299505, 6.442675, 0.2157709, 0.25931787, 10.506355
186787664826751, -0.59581286, 6.946364, 6.096912, -0.22095793, -0.25623226, 9.25553
186787674465918, -0.36490545, 8.153543, 6.302695, 0.17669445, 0.28251314, 10.306616
186787684105189, -0.45702913, 7.292127, 6.209375, -0.041342437, -0.15306854, 9.58724
186787693744460, -0.4881358, 7.7276206, 6.2380886, -0.004933119, 0.09372997, 9.942804
186787703383731, -0.34456646, 7.7312098, 6.352944, 0.121481836, -0.02063179, 10.011745
186787713023001, -0.5910272, 7.268199, 6.142376, -0.16911077, -0.09199858, 9.532458
186787722662272, -0.2727818, 8.142776, 6.454639, 0.24396676, 0.14661646, 10.390408
186787732301543, -0.63529444, 6.9391856, 6.1435723, -0.25604445, -0.2911296, 9.281651
186787741940814, -0.31585258, 8.306684, 6.5168524, 0.21961242, 0.21822214, 10.558138
186787751580085, -0.6305088, 6.9415784, 6.1495543, -0.25078404, -0.2987523, 9.286976
186787761219356, -0.41635114, 8.160722, 6.337391, 0.101705134, 0.28429842, 10.336446
186787770858626, -0.52522457, 7.2059855, 6.186643, -0.10942182, -0.18261385, 9.509539
186787780497897, -0.5312066, 7.77787, 6.2488565, -0.049878985, 0.12726498, 9.990343
186787790137168, -0.39720857, 7.7216387, 6.3481584, 0.07158601, -0.0036120415, 10.003773
186787799776439, -0.6029913, 7.335198, 6.1435723, -0.16457236, -0.056800842, 9.585505
186787809415710, -0.276371, 8.135597, 6.4498534, 0.2424267, 0.1525588, 10.381854
186787819054981, -0.53359944, 7.4344997, 6.2668023, -0.09273684, -0.09826326, 9.737099
186787828694251, -0.4319045, 7.672586, 6.3218374, 0.0325011, -0.0114040375, 9.950857
186787838333522, -0.45583272, 7.6127653, 6.2380886, 0.008495271, 0.019406319, 9.85268
186787847972793, -0.46181476, 7.5661054, 6.204589, -6.5779686E-4, 0.017446518, 9.795706
186787857612064, -0.4534399, 7.5696945, 6.2033925, 0.007478714, 0.01672697, 9.797328
186787867251335, -0.46301118, 7.564909, 6.1902323, -9.4008446E-4, 0.025801659, 9.78573
186787876890606, -0.44985065, 7.598408, 6.198607, 0.015566766, 0.035572052, 9.816283
186787886529876, -0.42951167, 7.59123, 6.2057858, 0.033320367, 0.02097416, 9.81435
186787896169043, -0.44626144, 7.611569, 6.239285, 0.015910625, 0.011426926, 9.852077
186787905808314, -0.44626144, 7.6343007, 6.279963, 0.015206873, -0.0050377846, 9.895423
186787915447585, -0.4761717, 7.62114, 6.323034, -0.020740628, -0.040890694, 9.91399
186787925086856, -0.4869394, 7.6426754, 6.352944, -0.03018397, -0.04660225, 9.950097
186787934726126, -0.4941179, 7.645068, 6.3625154, -0.03791213, -0.0511837, 9.958353
186787944365397, -0.49052864, 7.6546397, 6.3684974, -0.031562686, -0.050373077, 9.96937
186787954004668, -0.4941179, 7.647461, 6.3194447, -0.031152546, -0.016439438, 9.932872
186787963643939, -0.46660042, 7.6402826, 6.290731, -0.0012432337, -0.004994869, 9.907821
186787973283210, -0.47258246, 7.609176, 6.235696, -0.004331529, 0.013730526, 9.849193
186787982922481, -0.47377887, 7.618747, 6.1830535, 0.0022808313, 0.057371616, 9.823271
186787992561751, -0.47258246, 7.6031938, 6.134001, 0.006494701, 0.085087776, 9.780112
186788002201022, -0.43669012, 7.587641, 6.1208405, 0.039108455, 0.0752964, 9.7581
186788011840293, -0.43669012, 7.598408, 6.166304, 0.035125315, 0.047419548, 9.795221
186788021479564, -0.44865423, 7.5924263, 6.2440705, 0.011982083, -0.012999058, 9.840444
186788031118835, -0.48215377, 7.6139617, 6.320641, -0.02700138, -0.050676823, 9.907175
186788040758106, -0.49052864, 7.643872, 6.3589263, -0.034221053, -0.05814886, 9.954938
186788050397376, -0.4833502, 7.6666036, 6.344569, -0.020594656, -0.03329563, 9.963057
186788060036647, -0.4953143, 7.6594253, 6.29432, -0.024036884, -2.670288E-4, 9.926229
186788069675918, -0.51206404, 7.649854, 6.242874, -0.036683857, 0.036287785, 9.887027
186788079315189, -0.465404, 7.6259255, 6.186643, 0.013018191, 0.053470135, 9.830709
186788088954460, -0.4534399, 7.60798, 6.15434, 0.027512908, 0.061595917, 9.795832
186788098593731, -0.43788654, 7.585248, 6.1651077, 0.03864336, 0.033909798, 9.784357
186788108233001, -0.4223332, 7.587641, 6.212964, 0.04817611, -0.0050849915, 9.815764
186788117872272, -0.44027936, 7.6103725, 6.263213, 0.02809918, -0.025252819, 9.866005
186788127511439, -0.45224348, 7.6259255, 6.306284, 0.014359057, -0.04556656, 9.905867
186788137150710, -0.45822555, 7.635497, 6.317052, 0.009864867, -0.046587944, 9.920366
186788146789981, -0.48454657, 7.649854, 6.2955165, -0.009294331, -0.0171237, 9.919083
186788156429251, -0.52283174, 7.6546397, 6.2811594, -0.042291403, 0.0015797615, 9.915546
186788166068522, -0.54675996, 7.6426754, 6.2344995, -0.059905887, 0.031384945, 9.877947
186788175707793, -0.55393845, 7.641479, 6.2105713, -0.061950505, 0.047103405, 9.862263
186788185347064, -0.5491528, 7.62114, 6.189036, -0.05798751, 0.05021906, 9.832684
186788194986335, -0.52283174, 7.63789, 6.1830535, -0.026089072, 0.055787563, 9.840583
186788204625606, -0.47736812, 7.6307116, 6.1878395, 0.017250419, 0.03886652, 9.835812
186788214264876, -0.44985065, 7.641479, 6.2201424, 0.042555094, 0.015267849, 9.863199
186788223904147, -0.45583272, 7.635497, 6.265606, 0.02990377, -0.021747112, 9.887621
186788233543418, -0.4749753, 7.623533, 6.2979093, 0.00437212, -0.049425125, 9.89975
186788243182689, -0.49052864, 7.6127653, 6.2811594, -0.010772586, -0.03943777, 9.881604
186788252821960, -0.4953143, 7.629515, 6.2404814, -0.0055202246, 0.0019388199, 9.869065
186788262461231, -0.52283174, 7.6390862, 6.206982, -0.026486516, 0.03903818, 9.856644
186788272100501, -0.51086766, 7.648658, 6.189036, -0.009933829, 0.0533309, 9.852115
186788281739772, -0.4953143, 7.6713896, 6.212964, 0.0054499507, 0.045936584, 9.884045
186788291379043, -0.485743, 7.643872, 6.233303, 0.008484781, 0.010840893, 9.875152
186788301018314, -0.50368917, 7.6331043, 6.2584276, -0.013619006, -0.0119514465, 9.8836
186788310657585, -0.4833502, 7.643872, 6.2751775, 0.0059732795, -0.021258354, 9.901503
186788320296856, -0.49172506, 7.609176, 6.279963, -0.007675588, -0.044000626, 9.878122
186788329936126, -0.51206404, 7.6103725, 6.283552, -0.02731049, -0.041594982, 9.882335
186788339575397, -0.5204389, 7.631908, 6.2775702, -0.031794846, -0.021967411, 9.895618
186788349214564, -0.5491528, 7.6366935, 6.2883377, -0.059449255, -0.021217346, 9.907566
186788358853835, -0.56111693, 7.668997, 6.2679987, -0.061223507, 0.015440941, 9.920292
186788368493210, -0.53240305, 7.7001033, 6.236892, -0.02166301, 0.05039215, 9.92325
186788378132376, -0.51206404, 7.702496, 6.215357, 0.0017190576, 0.060172558, 9.910484
186788387771647, -0.48454657, 7.670193, 6.1914287, 0.023882568, 0.0524745, 9.8689995
186788397410918, -0.45702913, 7.6366935, 6.175875, 0.04485166, 0.038495064, 9.831882
186788407050189, -0.44626144, 7.5996046, 6.1902323, 0.04777795, 0.0028634071, 9.811718
186788416689460, -0.43908295, 7.564909, 6.198607, 0.043587923, -0.024875164, 9.789835
186788426328731, -0.43669012, 7.5673018, 6.192625, 0.046192706, -0.018092155, 9.787794
186788435968001, -0.45224348, 7.5613194, 6.198607, 0.029476106, -0.023477554, 9.787716
186788445607272, -0.4761717, 7.6067834, 6.1974106, 0.014025152, 0.009078026, 9.823315
186788455246543, -0.5276174, 7.63789, 6.2009997, -0.03242308, 0.03413248, 9.852204
186788464885814, -0.5491528, 7.672586, 6.2321067, -0.05003369, 0.034155846, 9.89978
186788474525085, -0.5766702, 7.682157, 6.2488565, -0.0739184, 0.029539108, 9.919172
186788484164356, -0.56350976, 7.6977105, 6.257231, -0.058765292, 0.030745983, 9.935837
186788493803626, -0.5180461, 7.6833534, 6.2715883, -0.017425537, 0.003320694, 9.931507
186788503442897, -0.47258246, 7.661818, 6.279963, 0.023484409, -0.023341179, 9.917844
186788513082168, -0.4642076, 7.631908, 6.3050876, 0.023097575, -0.06069994, 9.910167
186788522721439, -0.47138608, 7.624729, 6.2991056, 0.01512897, -0.05946207, 9.901196
186788532360710, -0.47976094, 7.6139617, 6.270392, 0.007297516, -0.041804314, 9.87515
186788541999981, -0.47856453, 7.62114, 6.2309103, 0.013504386, -0.0075092316, 9.8557
186788551639251, -0.506082, 7.6223364, 6.1567326, -0.004122615, 0.05434704, 9.811143
186788561278418, -0.50368917, 7.6402826, 6.141179, 0.0030639768, 0.07535362, 9.815091
186788570917689, -0.4989035, 7.6390862, 6.148358, 0.0070731044, 0.066707134, 9.818471
186788580556960, -0.4941179, 7.6594253, 6.1734824, 0.011530399, 0.05821657, 9.849839
186788590196231, -0.49172506, 7.658229, 6.2285175, 0.0050604343, 0.015268326, 9.883545
186788599835501, -0.4977071, 7.645068, 6.257231, -0.0075907707, -0.012171745, 9.891792
186788609474772, -0.4761717, 7.6426754, 6.2512493, 0.014639139, -0.013836861, 9.885086
186788619114043, -0.47856453, 7.647461, 6.2524457, 0.013084292, -0.011202335, 9.889665
186788628753314, -0.48095736, 7.6426754, 6.215357, 0.015468299, 0.0141682625, 9.8626585
186788638392585, -0.48454657, 7.6534433, 6.204589, 0.01575917, 0.028784275, 9.864372
186788648031856, -0.4761717, 7.635497, 6.1914287, 0.023431778, 0.023955345, 9.841758
186788657671126, -0.4941179, 7.623533, 6.196214, 0.0032952428, 0.016352654, 9.836421
186788667310397, -0.51445687, 7.6223364, 6.2141604, -0.018670201, 0.0051236153, 9.847848
186788676949668, -0.50129634, 7.635497, 6.2416778, -0.006879449, -0.009542942, 9.874741
186788686588939, -0.52522457, 7.658229, 6.2584276, -0.02947843, -0.0025901794, 9.904108
186788696228210, -0.5096712, 7.670193, 6.265606, -0.013773084, -0.0023832321, 9.917121
186788705867481, -0.50009996, 7.6678, 6.2715883, -0.0055521727, -0.010193825, 9.918566
186788715506751, -0.51206404, 7.649854, 6.276374, -0.022135317, -0.020479202, 9.908302
186788725146022, -0.506082, 7.647461, 6.2691956, -0.01610756, -0.017210007, 9.901619
186788734785293, -0.5180461, 7.6343007, 6.2177496, -0.023477733, 0.016524792, 9.859539
186788744424460, -0.50009996, 7.6259255, 6.1842504, -0.002938211, 0.03297949, 9.831007
186788754063731, -0.4953143, 7.6366935, 6.157929, 0.007395804, 0.0571599, 9.822483
186788763703001, -0.46660042, 7.6402826, 6.1435723, 0.03738582, 0.062986374, 9.814773
186788773342272, -0.485743, 7.6343007, 6.1471615, 0.016904712, 0.05890894, 9.813374
186788782981543, -0.47856453, 7.6259255, 6.186643, 0.018115342, 0.02064991, 9.831456
186788792620814, -0.48095736, 7.631908, 6.1974106, 0.0153988, 0.016562939, 9.843002