timestamp_acc,device_acc_x,device_acc_y,device_acc_z,earth_acc_x,earth_acc_y,earth_acc_z
187050415787337, 0.18664017, 7.517052, 6.174679, 0.01571083, 0.07683563, 9.729411
187050425426816, 0.1698904, 7.5254273, 6.202196, -0.003598094, 0.065265656, 9.753148
187050435066191, 0.17347965, 7.550552, 6.2727847, -0.010012031, 0.029213905, 9.817729
187050444705671, 0.19262223, 7.564909, 6.375676, -0.010623932, -0.042610645, 9.895064
187050454345046, 0.19860429, 7.6019974, 6.45105, -0.014712334, -0.073926926, 9.971969
187050463984525, 0.16869399, 7.6462646, 6.4905314, -0.043832183, -0.0645504, 10.030691
187050473623900, 0.16510476, 7.6534433, 6.5072813, -0.048944473, -0.068237305, 10.046894
187050483263379, 0.16031912, 7.624729, 6.492924, -0.053019762, -0.07321167, 10.015591
187050492902754, 0.20697916, 7.60798, 6.413961, 0.006202936, -0.036146164, 9.952978
187050502542129, 0.22372891, 7.578069, 6.3385873, 0.034083962, -0.003643036, 9.881989
187050512181608, 0.22851457, 7.5589266, 6.2584276, 0.05130756, 0.040791035, 9.815968
187050521820983, 0.23808585, 7.5457664, 6.202196, 0.06657612, 0.06929064, 9.770019
187050531460462, 0.20817557, 7.52782, 6.196214, 0.034786344, 0.06876755, 9.751848
187050541099837, 0.16869399, 7.524231, 6.218946, -0.00788331, 0.058841705, 9.762902
187050550739316, 0.15672988, 7.5122666, 6.2213387, -0.022060037, 0.05265665, 9.755024
187050560378691, 0.16151553, 7.5828547, 6.2883377, -0.019134998, 0.048192978, 9.852223
187050570018171, 0.19980069, 7.60439, 6.32423, 0.013682246, 0.025625706, 9.8925085
187050579657546, 0.22372891, 7.5900335, 6.3541408, 0.02927649, -0.010531902, 9.901153
187050589297025, 0.20817557, 7.594819, 6.367301, 0.012251735, -0.01347971, 9.912963
187050598936400, 0.17347965, 7.59123, 6.385247, -0.024517298, -0.020590782, 9.92105
187050608575879, 0.15074782, 7.578069, 6.375676, -0.046542645, -0.016394138, 9.904377
187050618215254, 0.12323037, 7.59123, 6.3924255, -0.071015, -0.013849735, 9.92471
187050627854733, 0.15194423, 7.5792656, 6.3996043, -0.044540405, -0.033159733, 9.920697
187050637494108, 0.19381863, 7.605587, 6.4091754, -0.0018767118, -0.033358574, 9.947811
187050647133587, 0.23808585, 7.600801, 6.4235325, 0.0375489, -0.056078434, 9.954199
187050656772962, 0.2536392, 7.588837, 6.418747, 0.048240185, -0.062610626, 9.942276
187050666412441, 0.25244278, 7.5960155, 6.3804617, 0.055478215, -0.029418468, 9.923182
187050676051816, 0.21894327, 7.585248, 6.3194447, 0.029607296, 0.015786171, 9.875129
187050685691191, 0.18664017, 7.5469627, 6.2548385, 0.0051243305, 0.047490597, 9.803683
187050695330671, 0.15314065, 7.5326056, 6.2105713, -0.023026824, 0.076762676, 9.763625
187050704970046, 0.16510476, 7.533802, 6.1363935, 0.0014895201, 0.1253686, 9.717255
187050714609525, 0.17347965, 7.519445, 6.1232333, 0.010343552, 0.12434435, 9.697968
187050724248900, 0.19142582, 7.533802, 6.1734824, 0.020746112, 0.09009838, 9.741569
187050733888379, 0.21535404, 7.5457664, 6.259624, 0.029393673, 0.029114723, 9.806433
187050743527754, 0.23449662, 7.5673018, 6.364908, 0.032889605, -0.03756666, 9.890835
187050753167233, 0.21415763, 7.598408, 6.4534426, 0.0019385815, -0.077697754, 9.9710865
187050762806608, 0.2009971, 7.5900335, 6.454639, -0.013126612, -0.08109188, 9.96517
187050772446087, 0.17347965, 7.609176, 6.430711, -0.03280294, -0.042836666, 9.963974
187050782085462, 0.17228323, 7.617551, 6.40439, -0.025775194, -0.016683102, 9.953495
187050791724941, 0.2009971, 7.611569, 6.3828545, 0.00528872, -0.010704994, 9.935646
187050801364316, 0.20937198, 7.6103725, 6.337391, 0.022264719, 0.018845558, 9.905719
187050811003796, 0.20458634, 7.585248, 6.3050876, 0.020302296, 0.027187347, 9.865638
187050820643171, 0.1794617, 7.570891, 6.306284, -0.0061460733, 0.023603916, 9.854906
187050830282650, 0.1902294, 7.5517483, 6.343373, -0.0073885918, -0.018963337, 9.864231
187050839922025, 0.1794617, 7.54457, 6.35773, -0.021921992, -0.031217575, 9.867727
187050849561504, 0.19501504, 7.560123, 6.337391, -5.633831E-4, -0.01025629, 9.866911
187050859200879, 0.19381863, 7.570891, 6.3122663, 0.005452752, 0.015230656, 9.859028
187050868840254, 0.20697916, 7.580462, 6.283552, 0.02614832, 0.038232803, 9.848204
187050878479733, 0.21296121, 7.5732837, 6.2488565, 0.038953662, 0.056637287, 9.820564
187050888119108, 0.18664017, 7.5732837, 6.253642, 0.012509465, 0.05858326, 9.8231325
187050897758587, 0.18065812, 7.5673018, 6.2512493, 0.0058351755, 0.05827999, 9.816893
187050907397962, 0.18424734, 7.57448, 6.2751775, 0.005039215, 0.04384756, 9.837814
187050917037441, 0.15553348, 7.564909, 6.317052, -0.03257823, 0.014567852, 9.85677
187050926676816, 0.16390835, 7.5613194, 6.361319, -0.03368771, -0.022796154, 9.882568
187050936316296, 0.21296121, 7.5613194, 6.373283, 0.013598919, -0.041077614, 9.891197
187050945955671, 0.20338993, 7.564909, 6.390033, 0.0015989542, -0.04906416, 9.9045105
187050955595150, 0.21535404, 7.5625157, 6.3589263, 0.019175649, -0.02909708, 9.882952
187050965234525, 0.19381863, 7.5553374, 6.3541408, -3.1864643E-4, -0.024320602, 9.873967
187050974874004, 0.17347965, 7.5517483, 6.3194447, -0.013904095, 0.0034070015, 9.848563
187050984513379, 0.1902294, 7.5720873, 6.3074803, 0.007119298, 0.021354675, 9.8568
187050994152858, 0.18185452, 7.5900335, 6.326623, -0.0026272535, 0.020049095, 9.882684
187051003792233, 0.16390835, 7.5816584, 6.3326054, -0.02232194, 0.014221668, 9.879756
187051013431712, 0.14237295, 7.57448, 6.364908, -0.05063176, -0.009104252, 9.894566
187051023071087, 0.14596218, 7.5996046, 6.3744793, -0.045849323, -2.2888184E-4, 9.92004
187051032710462, 0.17347965, 7.5792656, 6.3481584, -0.016542792, 0.0015482903, 9.888084
187051042349941, 0.25244278, 7.60439, 6.2775702, 0.07665193, 0.053495884, 9.86355
187051051989316, 0.29072794, 7.60439, 6.2344995, 0.1226356, 0.07574797, 9.836638
187051061628796, 0.24047868, 7.5673018, 6.2404814, 0.0642333, 0.060073853, 9.811104
187051071268171, 0.18185452, 7.554141, 6.2787666, -0.002200365, 0.037554264, 9.82444
187051080907650, 0.15553348, 7.52782, 6.302695, -0.03724432, 0.010070324, 9.8191
187051090547025, 0.14356937, 7.519445, 6.3290157, -0.054753423, -0.010725498, 9.829342
187051100186504, 0.13878371, 7.54457, 6.367301, -0.06084764, -0.018467426, 9.87311
187051109825879, 0.17228323, 7.5673018, 6.385247, -0.02681303, -0.022582531, 9.902721
187051119465358, 0.17347965, 7.580462, 6.3828545, -0.02242279, -0.011250973, 9.911291
187051129104733, 0.18783657, 7.587641, 6.4091754, -0.010652661, -0.028872013, 9.9339905
187051138744212, 0.20338993, 7.5936227, 6.4211397, 0.0032604933, -0.037189007, 9.946564
187051148383587, 0.19262223, 7.6103725, 6.422336, -0.0046571493, -0.024970055, 9.959952
187051158022962, 0.22253251, 7.580462, 6.422336, 0.019946456, -0.05019474, 9.937626
187051167662441, 0.22731815, 7.5996046, 6.407979, 0.027640939, -0.02971363, 9.943148
187051177301816, 0.20817557, 7.5924263, 6.355337, 0.015883803, 0.008248329, 9.903448
187051186941296, 0.21415763, 7.584051, 6.3122663, 0.029327154, 0.03295183, 9.869471
187051196580671, 0.20219351, 7.57448, 6.2679987, 0.023664594, 0.061419964, 9.833469
187051206220150, 0.2009971, 7.55773, 6.2668023, 0.018602133, 0.051020622, 9.819857
187051215859525, 0.1794617, 7.520642, 6.2668023, -0.008099318, 0.029975414, 9.791023
187051225499004, 0.15553348, 7.52782, 6.283552, -0.03315115, 0.026968002, 9.806808
187051235138379, 0.20578274, 7.515856, 6.2668023, 0.017309546, 0.018436909, 9.787882
187051244777754, 0.2416751, 7.542177, 6.263213, 0.05649972, 0.029176712, 9.80646
187051254417233, 0.24047868, 7.560123, 6.2811594, 0.053913474, 0.026829243, 9.831716
187051264056608, 0.19980069, 7.554141, 6.2883377, 0.011591792, 0.02679348, 9.8309355
187051273696087, 0.15433706, 7.570891, 6.3014984, -0.032861114, 0.03760767, 9.851324
187051283335462, 0.15074782, 7.580462, 6.2847486, -0.02838552, 0.05800724, 9.847844
187051292974941, 0.1794617, 7.5828547, 6.296713, -0.0022633076, 0.044211864, 9.857916
187051302614316, 0.20817557, 7.59123, 6.314659, 0.025429368, 0.03119564, 9.876406
187051312253796, 0.2105684, 7.57448, 6.3457656, 0.019041419, -0.0016298294, 9.883595
187051321893171, 0.21655045, 7.5673018, 6.378069, 0.017990112, -0.031599045, 9.898958
187051331532546, 0.21415763, 7.5517483, 6.40439, 0.0077308416, -0.057446003, 9.903919
187051341172025, 0.1794617, 7.564909, 6.4366927, -0.0307405, -0.06520319, 9.934076
187051350811400, 0.15433706, 7.5613194, 6.4402823, -0.057020187, -0.06145096, 9.933155
187051360450879, 0.16510476, 7.5637126, 6.411568, -0.04015839, -0.040653706, 9.916752
187051370090254, 0.16151553, 7.5720873, 6.3924255, -0.038679242, -0.020482063, 9.910791
187051379729733, 0.16749759, 7.5673018, 6.346962, -0.024477243, 0.008374691, 9.878026
187051389369108, 0.20697916, 7.576873, 6.309873, 0.022716522, 0.03253174, 9.862289
187051399008587, 0.21894327, 7.5756764, 6.2751775, 0.040898204, 0.053497314, 9.839315
187051408647962, 0.2117648, 7.5637126, 6.265606, 0.033881783, 0.052859306, 9.8238735
187051418287337, 0.22731815, 7.5613194, 6.2883377, 0.042610526, 0.027031422, 9.836966
187051427926816, 0.21296121, 7.550552, 6.3314085, 0.018923044, -0.008423805, 9.856091
187051437566191, 0.2117648, 7.550552, 6.3397837, 0.014285326, -0.01574564, 9.8614435
187051447205671, 0.2213361, 7.584051, 6.326623, 0.029358625, 0.011947155, 9.878865
187051456845046, 0.21655045, 7.2287173, 6.2344995, -0.0058333874, -0.14348936, 9.547231
187051466484525, 0.17826529, 8.099705, 6.391229, 0.04058194, 0.2961769, 10.314817
187051476123900, 0.20937198, 7.0815587, 6.145965, -0.016791701, -0.17218971, 9.37738
187051485763275, 0.11365908, 7.8520474, 6.3457656, -0.044463754, 0.18503809, 10.094558
187051495402754, 0.2536392, 7.487142, 6.1639113, 0.07908428, 0.061106205, 9.700796
187051505042129, 0.101694964, 7.3459654, 6.2380886, -0.10148072, -0.04969406, 9.637144
187051514681608, 0.28235307, 7.9776707, 6.3625154, 0.13373983, 0.21304846, 10.204962
187051524320983, 0.13758731, 6.9655066, 6.2608204, -0.11989176, -0.31225014, 9.360727
187051533960358, 0.25004998, 8.288737, 6.5898337, 0.10179007, 0.24557972, 10.588718
187051543599837, 0.16271193, 6.835098, 6.285945, -0.124168515, -0.41684008, 9.277336
187051553239212, 0.18544376, 8.239685, 6.558727, 0.037074566, 0.2635889, 10.529618
187051562878691, 0.2213361, 7.0325055, 6.2213387, -0.025204182, -0.25282574, 9.38859
187051572518066, 0.1268196, 7.9094753, 6.452246, -0.042288303, 0.14618587, 10.207066
187051582157441, 0.25603202, 7.475178, 6.2548385, 0.06341958, -0.010055542, 9.750012
187051591796921, 0.09571291, 7.405786, 6.273981, -0.10539889, -0.03232622, 9.705954
187051601436296, 0.29192436, 7.966903, 6.326623, 0.1539365, 0.23202753, 10.173759
187051611075775, 0.11724831, 7.01097, 6.2380886, -0.1330725, -0.26235914, 9.380547
187051620715150, 0.26799613, 8.304291, 6.5539412, 0.13313031, 0.2767353, 10.577946
187051630354525, 0.18305093, 6.8410797, 6.2488565, -0.10209715, -0.38595486, 9.258656
187051639994004, 0.2117648, 8.275578, 6.509674, 0.0801115, 0.30540228, 10.526452
187051649633379, 0.24047868, 6.9990063, 6.1603217, -0.009400129, -0.24219465, 9.323881
187051659272858, 0.15074782, 7.96451, 6.3972116, 0.0036913157, 0.20823574, 10.214554
187051668912233, 0.26919255, 7.426125, 6.175875, 0.08286345, 0.007238388, 9.662004
187051678551608, 0.106480606, 7.422536, 6.1902323, -0.07948494, 0.02900505, 9.665258
187051688191087, 0.27876383, 7.87119, 6.168697, 0.16137993, 0.27912712, 9.999109
187051697830462, 0.1052842, 6.975078, 6.068198, -0.117236376, -0.1679163, 9.243587
187051707469941, 0.23330021, 8.2145605, 6.3864436, 0.111376405, 0.34305382, 10.401442
187051717109316, 0.14356937, 6.7872415, 6.166304, -0.12057471, -0.36345243, 9.163183
187051726748691, 0.20219351, 8.269595, 6.5276203, 0.065906286, 0.2804556, 10.533468
187051736388171, 0.21296121, 6.9655066, 6.2668023, -0.045541048, -0.3369274, 9.365941
187051746027546, 0.13160525, 8.04108, 6.587441, -0.041924834, 0.12240553, 10.394897
187051755666921, 0.26799613, 7.4392858, 6.3960147, 0.047057986, -0.14445639, 9.813293
187051765306400, 0.10887343, 7.5996046, 6.428318, -0.09158921, -0.032348156, 9.953878
187051774945775, 0.2835495, 7.9357963, 6.401997, 0.12990618, 0.15822887, 10.198086
187051784585254, 0.104087785, 7.064809, 6.2931237, -0.14715624, -0.26781368, 9.456871
187051794224629, 0.27756742, 8.215756, 6.502496, 0.14604402, 0.25684834, 10.4771595
187051803864004, 0.15314065, 6.8111696, 6.195018, -0.12036562, -0.36796093, 9.200209
187051813503483, 0.19740787, 8.251649, 6.4343, 0.08548188, 0.34324837, 10.459626
187051823142858, 0.19980069, 6.8817577, 6.026324, -0.034125328, -0.2056117, 9.14722
187051832782233, 0.15194423, 8.031509, 6.283552, 0.043955684, 0.33007956, 10.193153
187051842421712, 0.26799613, 7.3268228, 6.1292152, 0.07745099, -0.025764942, 9.555877
187051852061087, 0.11365908, 7.55773, 6.24766, -0.0631026, 0.067344666, 9.805965
187051861700462, 0.28235307, 7.792227, 6.2141604, 0.14475, 0.19343567, 9.967745
187051871339941, 0.059820566, 7.0803623, 6.1842504, -0.17601621, -0.16670465, 9.397942
187051880979316, 0.2009971, 8.188239, 6.472585, 0.07099342, 0.2696619, 10.43572
187051890618796, 0.106480606, 6.8303123, 6.259624, -0.18418467, -0.39281988, 9.255224
187051900258171, 0.2009971, 8.29472, 6.552745, 0.0635066, 0.27966738, 10.568775
187051909897546, 0.17228323, 6.769295, 6.2416778, -0.113467574, -0.4300747, 9.198572
187051919537025, 0.17587246, 8.2014, 6.521638, 0.026850581, 0.25550747, 10.476624
187051929176400, 0.34097722, 7.422536, 6.175875, 0.1467663, -0.014658451, 9.660745
187051938815775, 0.17587246, 7.6163545, 6.3888364, -0.028389573, -0.009008884, 9.942642
187051948455254, 0.33020952, 7.756335, 6.3696938, 0.14183795, 0.05555296, 10.040894
187051958094629, 0.13998012, 7.146165, 6.282356, -0.1154834, -0.21369123, 9.512953
187051967734004, 0.2727818, 8.145168, 6.4438715, 0.12762666, 0.25664377, 10.385542
187051977373483, 0.15074782, 6.8255267, 6.195018, -0.13276792, -0.34881115, 9.211379
187051987012858, 0.18544376, 8.299505, 6.4618177, 0.05726123, 0.36221218, 10.513649
187051996652233, 0.13040884, 6.8542404, 6.2033925, -0.15107691, -0.32883167, 9.238439
187052006291712, 0.19621146, 8.128419, 6.445068, 0.046901464, 0.2660451, 10.371865
187052015931087, 0.27756742, 7.259824, 6.257231, 0.044066906, -0.1580491, 9.58687
187052025570462, 0.13280165, 7.690532, 6.373283, -0.05914581, 0.061699867, 9.988663
187052035209941, 0.31465617, 7.7108707, 6.215357, 0.1515075, 0.1465621, 9.906702
187052044849316, 0.12921242, 7.1677003, 6.166304, -0.09096205, -0.11557245, 9.454855
187052054488691, 0.29790643, 8.112865, 6.390033, 0.15498745, 0.27263784, 10.326736
187052064128171, 0.148355, 6.8458657, 6.2117677, -0.13417971, -0.35674906, 9.237351
187052073767546, 0.2644069, 8.300702, 6.5312095, 0.12126529, 0.2956419, 10.560595
187052083406921, 0.18305093, 6.8614187, 6.1938214, -0.09068215, -0.33682537, 9.238741
187052093046400, 0.16630118, 8.176275, 6.4761744, 0.024722934, 0.28274536, 10.42782
187052102685775, 0.22731815, 7.190432, 6.2416778, -0.012338638, -0.1799612, 9.522605
187052112325150, 0.10289137, 7.7216387, 6.4199433, -0.091726184, 0.050632477, 10.0418625
187052121964629, 0.24885355, 7.6546397, 6.283552, 0.07026005, 0.07596159, 9.905947
187052131604004, 0.096909314, 7.223932, 6.224928, -0.12829435, -0.11065483, 9.534969
187052141243379, 0.30269206, 8.116454, 6.373283, 0.17154741, 0.28520632, 10.318741
187052150882858, 0.15433706, 6.8913293, 6.2404814, -0.12560332, -0.34464645, 9.291031
187052160522233, 0.23688944, 8.3174515, 6.5611196, 0.09906387, 0.28873634, 10.592036
187052170161608, 0.18664017, 6.855437, 6.2117677, -0.098413944, -0.35759878, 9.245557
187052179800983, 0.17826529, 8.184649, 6.471389, 0.038660407, 0.28753948, 10.43144
187052189440462, 0.2105684, 7.1042905, 6.1914287, -0.031907797, -0.1935916, 9.423937
187052199079837, 0.09332009, 7.7886376, 6.393622, -0.084952116, 0.1171813, 10.076163
187052208719212, 0.28713873, 7.6127653, 6.250053, 0.10665679, 0.06170416, 9.853153
187052218358691, 0.13878371, 7.2502527, 6.2141604, -0.082128406, -0.10091686, 9.5490465
187052227998066, 0.3385844, 8.051848, 6.3661046, 0.19029713, 0.24304295, 10.265423
187052237637441, 0.18305093, 6.9583282, 6.2464633, -0.084688306, -0.31796265, 9.346758
187052247276921, 0.2739782, 8.368897, 6.5551376, 0.12498903, 0.3150344, 10.628662
187052256916296, 0.17826529, 6.8685975, 6.2321067, -0.09832525, -0.36523294, 9.268521
187052266555671, 0.1591227, 8.2253275, 6.5228343, 0.0030587912, 0.27589655, 10.495359
187052276195150, 0.21655045, 7.115058, 6.239285, -0.031596422, -0.21764088, 9.463154
187052285834525, 0.1268196, 7.856833, 6.4199433, -0.058093905, 0.13235569, 10.145969
187052295473900, 0.3182454, 7.5493555, 6.2440705, 0.12205541, 0.023792744, 9.801378
187052305113379, 0.18185452, 7.29452, 6.2201424, -0.03942871, -0.087367535, 9.587706
187052314752754, 0.3684947, 7.962117, 6.283552, 0.21614635, 0.24149704, 10.144413
187052324392129, 0.1471586, 6.8781686, 6.1124654, -0.10899913, -0.26157618, 9.198523
187052334031504, 0.25244278, 8.246863, 6.3684974, 0.13010609, 0.37507343, 10.415117
187052343670983, 0.12083755, 6.768099, 6.056234, -0.13774383, -0.28392458, 9.077453
187052353310358, 0.14117654, 8.196614, 6.3661046, 0.018532038, 0.37891817, 10.372452
187052362949733, 0.19740787, 7.018149, 6.13759, -0.047881722, -0.20289755, 9.323086
187052372589212, 0.111266255, 7.908279, 6.483353, -0.07386458, 0.11616659, 10.225858
187052382228587, 0.29192436, 7.521838, 6.3804617, 0.06654167, -0.08817911, 9.867187
187052391867962, 0.1471586, 7.4309106, 6.471389, -0.10711527, -0.16957712, 9.852855
187052401507337, 0.35653058, 8.017152, 6.5443697, 0.16832447, 0.09385252, 10.353428
187052411146816, 0.148355, 6.991828, 6.38764, -0.13988972, -0.38436222, 9.462681
187052420786191, 0.2883351, 8.318648, 6.6017976, 0.12887228, 0.26075983, 10.619894
187052430425566, 0.19501504, 6.832705, 6.236892, -0.09393227, -0.38633966, 9.244709
187052440065046, 0.20937198, 8.255239, 6.474978, 0.06468511, 0.33207655, 10.488264
187052449704421, 0.22253251, 6.987042, 6.145965, -0.025609732, -0.22411251, 9.30539
187052459343796, 0.13160525, 7.9154572, 6.418747, -0.046526074, 0.17424297, 10.190171
187052468983171, 0.26919255, 7.4333034, 6.2117677, 0.0636425, -0.009070396, 9.690635
187052478622650, 0.11964113, 7.3770723, 6.2321067, -0.093328476, -0.025367737, 9.657397
187052488262025, 0.32542387, 7.8891363, 6.245267, 0.17873132, 0.23484182, 10.062834
187052497901400, 0.17108682, 6.9894347, 6.145965, -0.080895305, -0.2152543, 9.30599
187052507540775, 0.27517462, 8.237292, 6.437889, 0.13634133, 0.31950045, 10.452486
187052517180254, 0.148355, 6.8039913, 6.1639113, -0.13271654, -0.3453188, 9.174599
187052526819629, 0.19740787, 8.2660055, 6.4618177, 0.061607122, 0.344779, 10.488006
187052536459004, 0.21535404, 6.9535427, 6.186643, -0.050501823, -0.28237963, 9.305397
187052546098483, 0.1268196, 8.000402, 6.4941206, -0.05255115, 0.16628695, 10.303676
187052555737858, 0.276371, 7.4010005, 6.3110695, 0.050674796, -0.104577065, 9.729712
187052565377233, 0.14596218, 7.530213, 6.393622, -0.076438785, -0.053542614, 9.879024
187052575016608, 0.33499518, 7.9094753, 6.3493547, 0.16702282, 0.1763506, 10.145311
187052584656087, 0.15314065, 7.0169525, 6.218946, -0.106900334, -0.2480855, 9.373548
187052594295462, 0.27996024, 8.188239, 6.4701924, 0.1288712, 0.27491903, 10.435366
187052603934837, 0.12921242, 6.789634, 6.204589, -0.15624702, -0.37047672, 9.189728
187052613574316, 0.19860429, 8.274381, 6.489335, 0.05335474, 0.3297472, 10.512123
187052623213691, 0.19980069, 6.928418, 6.1842504, -0.06319022, -0.28685093, 9.284482
187052632853066, 0.14596218, 8.037491, 6.503692, -0.024977565, 0.19035578, 10.338459
187052642492441, 0.27038896, 7.3639116, 6.303891, 0.042595506, -0.117400646, 9.696585
187052652131921, 0.11365908, 7.587641, 6.3625154, -0.091371536, 0.01731491, 9.902434
187052661771296, 0.26799613, 7.847262, 6.320641, 0.103853464, 0.17362118, 10.077744
187052671410671, 0.13399807, 7.038488, 6.1842504, -0.11556387, -0.198699, 9.3675165
187052681050046, 0.3278167, 8.179864, 6.422336, 0.1892227, 0.28631067, 10.39934
187052690689525, 0.16869399, 6.7836523, 6.1603217, -0.11960137, -0.34790993, 9.157544
187052700328900, 0.19980069, 8.287541, 6.4965134, 0.06358564, 0.33016968, 10.526864
187052709968275, 0.20697916, 6.88774, 6.2261243, -0.07375538, -0.34027004, 9.280475
187052719607650, 0.16031912, 8.067402, 6.5539412, -0.015191078, 0.16368866, 10.394026
187052729247129, 0.2548356, 7.3256264, 6.3661046, 0.003774047, -0.17882204, 9.706959
187052738886504, 0.08733802, 7.6366935, 6.4606214, -0.1293416, -0.0114889145, 10.002474
187052748525879, 0.27158538, 7.834101, 6.3517475, 0.10049057, 0.1456604, 10.087629
187052758165358, 0.16031912, 7.1186476, 6.229714, -0.08747721, -0.18352222, 9.458799
187052767804733, 0.34217364, 8.127222, 6.4175506, 0.20044076, 0.2561469, 10.35606
187052777444108, 0.17108682, 6.799206, 6.1627145, -0.12185764, -0.3341937, 9.1712055
187052787083483, 0.24885355, 8.269595, 6.463014, 0.12874901, 0.33781242, 10.492283
187052796722962, 0.20817557, 6.853044, 6.111269, -0.061006427, -0.27365637, 9.180225
187052806362337, 0.17587246, 8.094919, 6.4295144, 0.030018568, 0.27651834, 10.335373
187052816001712, 0.25603202, 7.2323065, 6.2679987, 0.009062648, -0.16414928, 9.572493
187052825641087, 0.11964113, 7.664211, 6.4331036, -0.092261314, 0.016923904, 10.006521
187052835280566, 0.26799613, 7.735996, 6.3565335, 0.07954955, 0.081754684, 10.015487
187052844919941, 0.09571291, 7.133004, 6.2847486, -0.16143644, -0.19942808, 9.503744
187052854559316, 0.2727818, 8.105687, 6.4677997, 0.11672962, 0.22804785, 10.370314
187052864198691, 0.1363909, 6.8614187, 6.2285175, -0.1499368, -0.3352232, 9.260521
187052873838171, 0.26679972, 8.323434, 6.501299, 0.13820732, 0.34467793, 10.558395
187052883477546, 0.21894327, 6.914061, 6.1184473, -0.03837967, -0.24204063, 9.231874
187052893116921, 0.20937198, 8.141579, 6.502496, 0.053070664, 0.23922634, 10.418806
187052902756296, 0.25004998, 7.203593, 6.303891, -0.01054883, -0.2084899, 9.573388
187052912395775, 0.09571291, 7.7240314, 6.5001025, -0.11941528, 0.014885902, 10.094883
187052922035150, 0.27876383, 7.664211, 6.381658, 0.073658586, 0.017476559, 9.976856
187052931674525, 0.12801601, 7.1856465, 6.273981, -0.119326115, -0.16394567, 9.537905
187052941313900, 0.33260235, 8.088937, 6.378069, 0.18699038, 0.27220154, 10.301079
187052950953379, 0.1471586, 6.835098, 6.161518, -0.13093078, -0.31126451, 9.1973095
187052960592754, 0.25124636, 8.255239, 6.3996043, 0.13233507, 0.37927103, 10.4405775
187052970232129, 0.17587246, 6.792027, 6.0215383, -0.07988739, -0.23735142, 9.075172
187052979871608, 0.16630118, 8.120044, 6.34098, 0.03533399, 0.3545494, 10.29776
187052989510983, 0.23449662, 7.099505, 6.1363935, -0.003938794, -0.14453268, 9.385754
187052999150358, 0.12921242, 7.753942, 6.4055862, -0.0663811, 0.090116024, 10.0578
187053008789733, 0.30508488, 7.631908, 6.352944, 0.0960958, 0.014427662, 9.934261
187053018429212, 0.11844472, 7.24786, 6.393622, -0.14930964, -0.2034483, 9.66231
187053028068587, 0.31585258, 8.094919, 6.5084777, 0.1397717, 0.1941638, 10.388962
187053037707962, 0.17228323, 6.9188466, 6.3864436, -0.14084029, -0.41107273, 9.407337
187053047347337, 0.29671, 8.293523, 6.6915283, 0.10658491, 0.19929886, 10.658145
187053056986816, 0.17347965, 6.6891356, 6.346962, -0.17071974, -0.5177145, 9.206594
187053066626191, 0.28235307, 8.347362, 6.48096, 0.1377579, 0.40101433, 10.563202
187053076265566, 0.3290131, 7.1772714, 6.2309103, 0.07546198, -0.15330982, 9.508761
187053085904941, 0.19501504, 7.739585, 6.492924, -0.03648293, 0.03756094, 10.104185
187053095544421, 0.31345975, 7.5433736, 6.3625154, 0.07743549, -0.017829418, 9.872997
187053105183796, 0.12083755, 7.2753773, 6.282356, -0.1315428, -0.08217335, 9.611954
187053114823171, 0.27756742, 7.982456, 6.3625154, 0.10054505, 0.26805544, 10.207659
187053124462650, 0.1471586, 6.8865438, 6.2488565, -0.15361702, -0.31300306, 9.293695
187053134102025, 0.3062813, 8.248059, 6.512067, 0.13875198, 0.31041384, 10.507887
187053143741400, 0.20817557, 6.7872415, 6.2057858, -0.10185087, -0.35946655, 9.191419
187053153380775, 0.20697916, 8.206185, 6.489335, 0.043747306, 0.32323742, 10.458938
187053163020254, 0.23928227, 7.02772, 6.181857, -0.02842915, -0.20080805, 9.360572
187053172659629, 0.16031912, 7.8520474, 6.430711, -0.037923336, 0.15370846, 10.149351
187053182299004, 0.29072794, 7.5050883, 6.2775702, 0.07097328, 0.017980576, 9.788433
187053191938379, 0.13280165, 7.3627152, 6.2979093, -0.106062055, -0.050430775, 9.689018
187053201577858, 0.34576288, 7.9477606, 6.3864436, 0.16971636, 0.19622421, 10.198324
187053211217233, 0.16271193, 6.9092755, 6.2871413, -0.14053524, -0.33872557, 9.335857
187053220856608, 0.30388847, 8.271988, 6.606583, 0.12801492, 0.24520779, 10.587189
187053230496087, 0.18544376, 6.823134, 6.2931237, -0.13269019, -0.4014163, 9.274385
187053240135462, 0.20697916, 8.22772, 6.5838513, 0.037168026, 0.26637602, 10.53627
187053249774837, 0.20338993, 6.9894347, 6.2440705, -0.08125353, -0.26462603, 9.370451
187053259414212, 0.13280165, 7.911868, 6.483353, -0.05861926, 0.15888405, 10.228416
187053269053691, 0.27876383, 7.448857, 6.263213, 0.057613254, -0.010373592, 9.735893
187053278693066, 0.09571291, 7.3926253, 6.279963, -0.13252187, -0.015708923, 9.699493
187053288332441, 0.30149564, 7.921439, 6.283552, 0.13533401, 0.26785898, 10.111038
187053297971816, 0.20219351, 6.9762745, 6.174679, -0.068151474, -0.22813845, 9.31554
187053307611296, 0.36610186, 8.244471, 6.5084777, 0.19218838, 0.28728342, 10.50458
187053317250671, 0.24885355, 6.7764735, 6.2715883, -0.07191062, -0.43524075, 9.226091
187053326890046, 0.2739782, 8.2456665, 6.576673, 0.08709037, 0.2586789, 10.547238
187053336529525, 0.27996024, 6.9523463, 6.2751775, -0.01805985, -0.32698202, 9.363981
187053346168900, 0.19381863, 7.944171, 6.5144596, -0.02133274, 0.13612604, 10.274561
187053355808275, 0.2739782, 7.4010005, 6.2787666, 0.03378117, -0.048966885, 9.709236
187053365447650, 0.10049855, 7.493124, 6.3086767, -0.12774646, 0.028772354, 9.794859
187053375087129, 0.27517462, 7.8891363, 6.2931237, 0.10298574, 0.24728012, 10.09187
187053384726504, 0.13160525, 7.007381, 6.215357, -0.14345431, -0.2189436, 9.363913
187053394365879, 0.32422748, 8.215756, 6.503692, 0.1559099, 0.28597927, 10.478344
187053404005358, 0.20817557, 6.7848487, 6.239285, -0.096996546, -0.39179087, 9.2110405
187053413644733, 0.26679972, 8.251649, 6.552745, 0.09045029, 0.29151154, 10.535946
187053423284108, 0.27996024, 6.899704, 6.2321067, -0.012021184, -0.3273158, 9.29603
187053432923483, 0.2117648, 7.972885, 6.532406, 0.0057332516, 0.14213896, 10.308435
187053442562962, 0.27038896, 7.37109, 6.3457656, 0.021057248, -0.11262798, 9.7294235
187053452202337, 0.08135597, 7.550552, 6.3625154, -0.1428144, 0.025757313, 9.873095
187053461841712, 0.27038896, 7.8496547, 6.302695, 0.09318912, 0.21729946, 10.067684
187053471481191, 0.08973085, 7.0540414, 6.233303, -0.1693663, -0.19417763, 9.410379
187053481120566, 0.25842485, 8.195417, 6.524031, 0.08933997, 0.27308416, 10.474352
187053490759941, 0.17587246, 6.7812595, 6.29432, -0.13619423, -0.4285469, 9.24298
187053500399316, 0.276371, 8.269595, 6.5611196, 0.10682881, 0.29233074, 10.555283
187053510038796, 0.26919255, 6.884151, 6.209375, -0.012362003, -0.32613564, 9.2689705
187053519678171, 0.22971097, 8.019546, 6.4558353, 0.049940944, 0.21589565, 10.295368
187053529317546, 0.29072794, 7.2705917, 6.229714, 0.054576755, -0.09930611, 9.578232
187053538957025, 0.11844472, 7.611569, 6.3421764, -0.08829367, 0.06961012, 9.907601
187053548596400, 0.27876383, 7.8233337, 6.317052, 0.103671074, 0.18153667, 10.057022
187053558235775, 0.07537391, 7.133004, 6.2979093, -0.18880177, -0.18603277, 9.512035
187053567875150, 0.25842485, 8.190632, 6.567102, 0.08597648, 0.23702669, 10.498405
187053577514629, 0.15792629, 6.836294, 6.309873, -0.15103877, -0.39972925, 9.294718
187053587154004, 0.28235307, 8.295917, 6.5575304, 0.12674785, 0.29971504, 10.573422
187053596793379, 0.28235307, 6.869794, 6.141179, 0.007550597, -0.28141975, 9.214588
187053606432858, 0.2620141, 8.069795, 6.413961, 0.10177386, 0.27491426, 10.307435
187053616072233, 0.3074777, 7.196414, 6.1938214, 0.067055464, -0.12121439, 9.498797
187053625711608, 0.14117654, 7.598408, 6.3589263, -0.072413564, 0.04714203, 9.908794
187053635351087, 0.30269206, 7.7072816, 6.2991056, 0.110272646, 0.120586395, 9.957201
187053644990462, 0.10767702, 7.1186476, 6.2691956, -0.15353906, -0.1821742, 9.483292
187053654629837, 0.2632105, 8.12124, 6.515656, 0.09341347, 0.23083067, 10.412279
187053664269212, 0.148355, 6.8709903, 6.306284, -0.15724456, -0.3704853, 9.318785
187053673908691, 0.27038896, 8.316256, 6.6053867, 0.11323917, 0.28808117, 10.619254
187053683548066, 0.2213361, 6.8662047, 6.263213, -0.07501471, -0.35793734, 9.289127
187053693187441, 0.17826529, 8.142776, 6.5742803, 0.008672953, 0.22454214, 10.464572
187053702826921, 0.2416751, 7.1892357, 6.3254266, -0.017259479, -0.20693588, 9.576611
187053712466296, 0.15553348, 7.7216387, 6.4905314, -0.060310245, 0.022100925, 10.08815
187053722105671, 0.32422748, 7.7204423, 6.355337, 0.1309197, 0.07925367, 10.003862
187053731745150, 0.1591227, 7.222735, 6.276374, -0.086147666, -0.13737917, 9.568687
187053741384525, 0.31465617, 8.124829, 6.4594245, 0.1560607, 0.25558662, 10.380094
187053751023900, 0.14117654, 6.8279195, 6.2464633, -0.15176654, -0.358634, 9.247004
187053760663379, 0.23090738, 8.275578, 6.468996, 0.089398265, 0.35896492, 10.499979
187053770302754, 0.15553348, 6.820741, 6.0801625, -0.10575509, -0.2517805, 9.134577
187053779942129, 0.17228323, 8.1344, 6.375676, 0.034433603, 0.35068274, 10.330694
187053789581608, 0.28713873, 7.105487, 6.1208405, 0.05403495, -0.13567352, 9.381566
187053799220983, 0.17826529, 7.7587276, 6.375676, -0.010585427, 0.11227846, 10.043215
187053808860358, 0.28713873, 7.631908, 6.2991056, 0.09186697, 0.06550503, 9.899216
187053818499837, 0.11485548, 7.2323065, 6.276374, -0.12618089, -0.12737751, 9.574976
187053828139212, 0.2955136, 8.055437, 6.454639, 0.13132715, 0.21764708, 10.3235235
187053837778587, 0.13280165, 6.8662047, 6.306284, -0.16405737, -0.38290977, 9.314404
187053847418066, 0.25124636, 8.297112, 6.6161547, 0.090727925, 0.2669897, 10.611277
187053857057441, 0.19740787, 6.855437, 6.262017, -0.08453119, -0.37043142, 9.279249
187053866696816, 0.19860429, 8.23131, 6.5515485, 0.036968708, 0.28284264, 10.5183325
187053876336296, 0.2428715, 7.123433, 6.323034, -0.01807952, -0.2543502, 9.5246
187053885975671, 0.11365908, 7.8197446, 6.5431733, -0.09670496, 0.05201292, 10.196196
187053895615046, 0.2739782, 7.5661054, 6.350551, 0.06371844, 0.0017156601, 9.881622
187053905254525, 0.09332009, 7.281359, 6.250053, -0.12986279, -0.06451416, 9.595261
187053914893900, 0.29192436, 7.9968133, 6.3314085, 0.1414702, 0.27946138, 10.199162
187053924533275, 0.1363909, 6.8781686, 6.198607, -0.13842249, -0.29266214, 9.254497
187053934172754, 0.30508488, 8.250452, 6.518049, 0.15817201, 0.29734898, 10.513542
187053943812129, 0.2428715, 6.8039913, 6.1938214, -0.050718427, -0.35577726, 9.197151
187053953451504, 0.22971097, 8.206185, 6.495317, 0.0880301, 0.30548525, 10.463379
187053963090983, 0.23449662, 7.042077, 6.229714, -0.033738494, -0.22864246, 9.40222
187053972730358, 0.11844472, 7.85444, 6.4737816, -0.068006516, 0.12892962, 10.178156
187053982369733, 0.26081768, 7.5110703, 6.2871413, 0.056840062, 0.0142502785, 9.798416
187053992009212, 0.104087785, 7.3639116, 6.290731, -0.11640048, -0.0420022, 9.684835
187054001648587, 0.29910284, 7.9740815, 6.344569, 0.15325475, 0.24960804, 10.19035
187054011287962, 0.13998012, 6.908079, 6.2057858, -0.13205159, -0.27548552, 9.282218
187054020927441, 0.2727818, 8.262417, 6.5371914, 0.1292522, 0.30333138, 10.534141
187054030566816, 0.19501504, 6.788438, 6.257231, -0.10810411, -0.3952999, 9.225288
187054040206191, 0.25722843, 8.243274, 6.586244, 0.098273635, 0.2663908, 10.550625
187054049845671, 0.2428715, 7.0325055, 6.3326054, -0.04402232, -0.30422974, 9.461634
187054059485046, 0.14117654, 7.911868, 6.6041903, -0.0626024, 0.075007915, 10.306473
187054069124525, 0.2727818, 7.4644103, 6.401997, 0.040849566, -0.09384394, 9.837021
187054078763900, 0.10049855, 7.4045897, 6.352944, -0.12334192, -0.053512096, 9.756018
187054088403275, 0.2739782, 7.9298143, 6.302695, 0.13009977, 0.2721367, 10.128672
187054098042754, 0.11964113, 6.95115, 6.1675005, -0.12909687, -0.20634508, 9.290404
187054107682129, 0.2644069, 8.239685, 6.4414787, 0.13039804, 0.36475134, 10.454899
187054117321504, 0.17467605, 6.768099, 6.174679, -0.09991014, -0.34081268, 9.156321
187054126960983, 0.23808585, 8.224132, 6.5108705, 0.088653445, 0.31085873, 10.487133
187054136600358, 0.27876383, 6.9451675, 6.242874, 0.013118267, -0.3033862, 9.33779
187054146239837, 0.17826529, 7.897511, 6.512067, -0.0099595785, 0.12697744, 10.236858
187054155879212, 0.29192436, 7.367501, 6.3314085, 0.06367648, -0.10270071, 9.717894
187054165518587, 0.12323037, 7.4787674, 6.37089, -0.093016505, -0.02107668, 9.82478
187054175158066, 0.29192436, 7.9166536, 6.3625154, 0.13586736, 0.22047043, 10.157419
187054184797441, 0.12323037, 7.0337024, 6.2931237, -0.14092445, -0.23976421, 9.434734
187054194436816, 0.2632105, 8.255239, 6.6424756, 0.10427296, 0.23996639, 10.595861
187054204076296, 0.12323037, 6.849455, 6.4031935, -0.19022226, -0.43549824, 9.365109
187054213715671, 0.22731815, 8.274381, 6.6795645, 0.059249282, 0.23232937, 10.633728
187054223355150, 0.28235307, 6.920043, 6.2751775, 0.004858136, -0.33464718, 9.339836
187054232994525, 0.22971097, 7.982456, 6.472585, 0.060848594, 0.2023983, 10.277259
187054242633900, 0.33260235, 7.320841, 6.1914287, 0.12477231, -0.02816391, 9.59285
187054252273379, 0.11724831, 7.4548388, 6.2213387, -0.07396889, 0.07758522, 9.709888
187054261912754, 0.28115666, 7.7623167, 6.1639113, 0.14327753, 0.2722125, 9.911196
187054271552233, 0.09930214, 6.987042, 6.101698, -0.13109446, -0.12616968, 9.275034
187054281191608, 0.22971097, 8.166703, 6.442675, 0.10097277, 0.33365822, 10.398767
187054290830983, 0.13280165, 6.782456, 6.283552, -0.16824532, -0.3958187, 9.236741
187054300470462, 0.22013968, 8.273184, 6.647261, 0.067472816, 0.24915457, 10.611948
187054310109837, 0.22372891, 6.9020967, 6.343373, -0.07151914, -0.3788023, 9.369034
187054319749316, 0.15433706, 8.073383, 6.652047, -0.022382975, 0.15326595, 10.460836
187054329388691, 0.25842485, 7.322037, 6.428318, 0.0066821575, -0.18497515, 9.745155
187054339028066, 0.1052842, 7.585248, 6.5108705, -0.115920424, -0.04017067, 9.996174
187054348667546, 0.29790643, 7.806584, 6.411568, 0.1238209, 0.12498951, 10.104887
187054358306921, 0.12801601, 7.115058, 6.2644095, -0.109048724, -0.16188478, 9.478669
187054367946400, 0.29790643, 8.175078, 6.458228, 0.16768825, 0.31806278, 10.416338
187054377585775, 0.12323037, 6.820741, 6.2691956, -0.15954876, -0.34932137, 9.257053
187054387225150, 0.20338993, 8.27797, 6.602994, 0.05384791, 0.29852343, 10.586487
187054396864629, 0.22492532, 6.814759, 6.2416778, -0.051356196, -0.36261988, 9.236663
187054406504004, 0.1591227, 8.025527, 6.5144596, -0.006104231, 0.22068071, 10.335564
187054416143483, 0.25962126, 7.200003, 6.2344995, 0.03390217, -0.11783743, 9.526879
187054425782858, 0.16630118, 7.605587, 6.3158555, -0.016715646, 0.094552994, 9.887033
187054435422233, 0.32183465, 7.536195, 6.175875, 0.15272415, 0.114546776, 9.746937
187054445061712, 0.20458634, 7.537391, 6.2524457, 0.023140669, 0.08697748, 9.794849
187054454701087, 0.16390835, 7.542177, 6.3314085, -0.031953454, 0.038817883, 9.84863
187054464340566, 0.1471586, 7.556534, 6.373283, -0.052017808, 0.022061825, 9.886272
187054473979941, 0.18185452, 7.536195, 6.411568, -0.02864194, -0.02722311, 9.896158
187054483619421, 0.20338993, 7.5732837, 6.4271216, -0.0033589602, -0.017812729, 9.934967
187054493258796, 0.23808585, 7.55773, 6.4534426, 0.02318263, -0.055368423, 9.940789
187054502898275, 0.2321038, 7.560123, 6.442675, 0.020058513, -0.04371786, 9.935545
187054512537650, 0.20458634, 7.548159, 6.428318, -0.0056302547, -0.032539368, 9.91659
187054522177025, 0.2009971, 7.5469627, 6.410372, -0.006007433, -0.019118786, 9.904015
187054531816504, 0.19381863, 7.5469627, 6.38764, -0.008439422, -6.957054E-4, 9.88919
187054541455879, 0.19381863, 7.5146594, 6.385247, -0.012390494, -0.019705296, 9.8629875
187054551095358, 0.19501504, 7.536195, 6.375676, -0.006447315, 5.8698654E-4, 9.87327
187054560734733, 0.19381863, 7.5409803, 6.35773, -0.0035009384, 0.017782211, 9.865311
187054570374212, 0.18424734, 7.554141, 6.3864436, -0.016399741, 0.0069737434, 9.8937025
187054580013587, 0.21655045, 7.550552, 6.3972116, 0.013011336, -0.011193275, 9.898575
187054589653066, 0.19980069, 7.5457664, 6.3960147, -0.0033334494, -0.0101828575, 9.8938055
187054599292441, 0.20338993, 7.5409803, 6.3541408, 0.007139683, 0.017059326, 9.86319
187054608931816, 0.20578274, 7.5349984, 6.3385873, 0.012404561, 0.023312092, 9.848633
187054618571296, 0.18783657, 7.524231, 6.334998, -0.0053064823, 0.022413254, 9.837734
187054628210671, 0.19860429, 7.530213, 6.363712, 9.1564655E-4, 0.002251625, 9.861053
187054637850150, 0.18903299, 7.5326056, 6.3744793, -0.009351015, -0.001917839, 9.86964
187054647489525, 0.20697916, 7.55773, 6.3828545, 0.0102728605, 0.0045700073, 9.8945875
187054657129004, 0.20578274, 7.554141, 6.391229, 0.007445812, -0.0022068024, 9.897227
187054666768379, 0.2105684, 7.556534, 6.375676, 0.014921784, 0.010721207, 9.889109
187054676407858, 0.19740787, 7.560123, 6.3864436, 6.008148E-4, 0.007888794, 9.898537
187054686047233, 0.17587246, 7.5720873, 6.4127645, -0.024052382, 0.0014653206, 9.924234
187054695686712, 0.18065812, 7.5409803, 6.4354963, -0.026919246, -0.034147263, 9.915279
187054705326087, 0.17826529, 7.5433736, 6.4438715, -0.030371547, -0.038389206, 9.922468
187054714965462, 0.15792629, 7.5457664, 6.4474607, -0.050670028, -0.03439045, 9.926204
187054724604941, 0.18424734, 7.5433736, 6.407979, -0.0182904, -0.012304306, 9.899401
187054734244316, 0.22253251, 7.536195, 6.3481584, 0.030123591, 0.016871452, 9.856049
187054743883796, 0.20578274, 7.4919276, 6.306284, 0.01582539, 0.021743298, 9.794887
187054753523171, 0.19740787, 7.4883385, 6.245267, 0.017846584, 0.06658554, 9.752579
187054763162650, 0.22492532, 7.513463, 6.2584276, 0.045853972, 0.06645203, 9.780805
187054772802025, 0.24526432, 7.5314093, 6.32423, 0.056215525, 0.025013924, 9.837397
187054782441504, 0.2213361, 7.5637126, 6.4414787, 0.015751123, -0.034787178, 9.9373
187054792080879, 0.18185452, 7.578069, 6.535995, -0.03822553, -0.08175039, 10.00856
187054801720358, 0.16869399, 7.5756764, 6.5611196, -0.056049347, -0.09904289, 10.022709
187054811359733, 0.1471586, 7.5936227, 6.5455666, -0.06917465, -0.068917274, 10.02595
187054820999212, 0.15672988, 7.6019974, 6.491728, -0.050137043, -0.025306702, 9.997714
187054830638587, 0.18544376, 7.5816584, 6.3996043, -0.008262634, 0.024058342, 9.923218
187054840278066, 0.20937198, 7.542177, 6.344569, 0.020055056, 0.030210495, 9.858019
187054849917441, 0.22971097, 7.5110703, 6.2668023, 0.049276233, 0.06428242, 9.784437
187054859556921, 0.22253251, 7.4919276, 6.2524457, 0.041024566, 0.05916071, 9.76045
187054869196296, 0.21535404, 7.4656067, 6.2464633, 0.030828118, 0.04737377, 9.736364
187054878835775, 0.21296121, 7.4739814, 6.2548385, 0.02798462, 0.046987057, 9.748117
187054888475150, 0.19860429, 7.5086775, 6.283552, 0.014423251, 0.05022955, 9.792854
187054898114629, 0.15194423, 7.5433736, 6.3541408, -0.03938389, 0.030014992, 9.863987
187054907754004, 0.15433706, 7.5385876, 6.4067826, -0.045559883, -0.010372162, 9.894382
187054917393483, 0.17706887, 7.578069, 6.45105, -0.026438713, -0.023330688, 9.953557
187054927032858, 0.2009971, 7.5924263, 6.4773707, -0.0047026873, -0.03785801, 9.981995
187054936672337, 0.21774685, 7.5816584, 6.4881387, 0.008309364, -0.053734303, 9.981079
187054946311712, 0.21655045, 7.5732837, 6.5001025, 0.003968954, -0.06766701, 9.982397
187054955951191, 0.23449662, 7.548159, 6.489335, 0.018436909, -0.07864523, 9.956639
187054965590566, 0.2213361, 7.5349984, 6.474978, 0.005201936, -0.07295132, 9.937061
187054975230046, 0.18664017, 7.539784, 6.4366927, -0.01995051, -0.034547806, 9.91527
187054984869421, 0.1698904, 7.521838, 6.3625154, -0.024082541, 0.010966301, 9.853316
187054994508900, 0.18664017, 7.52782, 6.2608204, 0.011958003, 0.086061, 9.79251
187055004148275, 0.17706887, 7.5517483, 6.2141604, 0.01543355, 0.13581562, 9.780458
187055013787754, 0.19501504, 7.54457, 6.2309103, 0.02628839, 0.11314678, 9.78618
187055023427129, 0.21415763, 7.52782, 6.3194447, 0.024306893, 0.03155136, 9.830959
187055033066608, 0.1902294, 7.513463, 6.428318, -0.024382591, -0.0514369, 9.889811
187055042705983, 0.17467605, 7.513463, 6.4666033, -0.04591632, -0.076654434, 9.914213
187055052345462, 0.1794617, 7.521838, 6.4618177, -0.03803718, -0.067765236, 9.917626
187055061984837, 0.17706887, 7.5266237, 6.3996043, -0.024914265, -0.018016815, 9.881063
187055071624316, 0.21894327, 7.5469627, 6.350551, 0.028509617, 0.021121025, 9.86574
187055081263691, 0.22253251, 7.554141, 6.309873, 0.040225387, 0.053792953, 9.845028
187055090903171, 0.20817557, 7.55773, 6.3134627, 0.025746584, 0.055604935, 9.849806
187055100542546, 0.2213361, 7.5469627, 6.3278193, 0.03454745, 0.035172462, 9.851118
187055110182025, 0.19381863, 7.5529447, 6.3960147, -0.0062617064, -0.004784107, 9.899164
187055119821400, 0.17108682, 7.548159, 6.4570317, -0.04026723, -0.047922134, 9.93445
187055129460879, 0.19381863, 7.5385876, 6.4761744, -0.023843527, -0.07220793, 9.939966
187055139100254, 0.19621146, 7.554141, 6.4666033, -0.01772654, -0.05478525, 9.945713
187055148739733, 0.19142582, 7.548159, 6.407979, -0.011691332, -0.014585495, 9.9031925
187055158379108, 0.19501504, 7.530213, 6.361319, -0.0019915104, 0.007850647, 9.859435
187055168018587, 0.19740787, 7.5349984, 6.3158555, 0.009008765, 0.043162823, 9.833782
187055177658066, 0.19501504, 7.5326056, 6.302695, 0.008855939, 0.05080557, 9.823414
187055187297441, 0.21655045, 7.520642, 6.2919273, 0.030168295, 0.044585705, 9.807774
187055196936921, 0.20338993, 7.537391, 6.3014984, 0.01678729, 0.05030632, 9.82648
187055206576296, 0.19740787, 7.5266237, 6.3158555, 0.0074210167, 0.033896446, 9.827404
187055216215775, 0.22492532, 7.530213, 6.3326054, 0.031782746, 0.018070698, 9.841507
187055225855150, 0.22612174, 7.5529447, 6.373283, 0.028927565, 0.0019488335, 9.885141
187055235494629, 0.17467605, 7.5469627, 6.4151573, -0.02939248, -0.022477627, 9.906566
187055245134004, 0.1902294, 7.5529447, 6.430711, -0.01634717, -0.031043053, 9.92149
187055254773483, 0.22492532, 7.568498, 6.445068, 0.01653397, -0.039110184, 9.943333
187055264412858, 0.22013968, 7.57448, 6.4295144, 0.015304208, -0.022109032, 9.937765
187055274052337, 0.18424734, 7.5625157, 6.4151573, -0.018641233, -0.010753155, 9.918638
187055283691712, 0.18065812, 7.5385876, 6.3792653, -0.018715143, 0.0012836456, 9.877126
187055293331191, 0.18544376, 7.554141, 6.37089, -0.010082245, 0.014943123, 9.883692
187055302970671, 0.17826529, 7.550552, 6.3792653, -0.019273877, 0.007499218, 9.886214
187055312610046, 0.16510476, 7.5457664, 6.3744793, -0.031610847, 0.010928154, 9.879208
187055322249525, 0.19262223, 7.537391, 6.3804617, -0.006601095, -0.005568981, 9.877226
187055331888900, 0.18903299, 7.5146594, 6.385247, -0.013341665, -0.023004532, 9.862886
187055341528379, 0.1902294, 7.517052, 6.3744793, -0.009081721, -0.014041424, 9.857786
187055351167754, 0.19381863, 7.5026956, 6.32423, 0.0016987324, 0.013388157, 9.814465
187055360807233, 0.23808585, 7.5290165, 6.2991056, 0.05373788, 0.038025856, 9.819225
187055370446608, 0.23688944, 7.570891, 6.283552, 0.06076312, 0.07529354, 9.841146
187055380086087, 0.20937198, 7.5637126, 6.337391, 0.022908568, 0.037229538, 9.869863
187055389725462, 0.19262223, 7.564909, 6.3888364, -0.00415504, 0.0035729408, 9.903645
187055399364941, 0.20458634, 7.587641, 6.4594245, -0.004323721, -0.035408974, 9.966797
187055409004421, 0.19501504, 7.5732837, 6.4965134, -0.023702264, -0.069322586, 9.979578
