timestamp_acc,device_acc_x,device_acc_y,device_acc_z,earth_acc_x,earth_acc_y,earth_acc_z
187018581753923, -0.38404804, 7.520642, 6.472585, 0.07291865, 0.0034899712, 9.92958
187018591393402, -0.3924229, 7.501499, 6.492924, 0.05617547, -0.021028042, 9.928793
187018601032777, -0.42831525, 7.5086775, 6.4534426, 0.028467298, 0.02204752, 9.910062
187018610672152, -0.45702913, 7.479964, 6.4606214, -0.006181121, 0.0062589645, 9.894359
187018620311527, -0.45822555, 7.5122666, 6.4737816, -0.0025029182, 0.016643524, 9.92742
187018629950902, -0.46660042, 7.495517, 6.4701924, -0.012160063, 0.010144234, 9.912802
187018639590277, -0.4761717, 7.4656067, 6.437889, -0.022087336, 0.017814636, 9.869532
187018649229652, -0.4869394, 7.4333034, 6.4642105, -0.041365266, -0.019780636, 9.86281
187018658869027, -0.4869394, 7.4177504, 6.4606214, -0.042191803, -0.026450634, 9.848721
187018668508506, -0.49651068, 7.396215, 6.431907, -0.049467206, -0.016174793, 9.814136
187018678147881, -0.4881358, 7.408179, 6.418747, -0.03706956, -9.1791153E-4, 9.814191
187018687787256, -0.46061835, 7.4273214, 6.4271216, -0.0073540807, -0.0013289452, 9.832859
187018697426631, -0.45822555, 7.4344997, 6.401997, -0.0011845231, 0.019738197, 9.821758
187018707066006, -0.4438686, 7.4644103, 6.3924255, 0.019697428, 0.042177677, 9.837446
187018716705381, -0.42831525, 7.48116, 6.407979, 0.034012437, 0.035894394, 9.859562
187018726344756, -0.44985065, 7.4907312, 6.4354963, 0.008998334, 0.025121212, 9.885765
187018735984235, -0.44626144, 7.4919276, 6.4414787, 0.010915279, 0.01953125, 9.890413
187018745623610, -0.44745782, 7.460821, 6.4343, 0.0050451756, 0.005615711, 9.862263
187018755262985, -0.42592242, 7.459625, 6.4091754, 0.030672431, 0.018550873, 9.843965
187018764902360, -0.4103691, 7.475178, 6.3828545, 0.05415994, 0.044617653, 9.837815
187018774541735, -0.42711884, 7.4919276, 6.4067826, 0.03739345, 0.04237175, 9.86687
187018784181110, -0.40677986, 7.500303, 6.4067826, 0.058115542, 0.042692184, 9.872269
187018793820485, -0.4031906, 7.493124, 6.391229, 0.060878813, 0.047472, 9.856536
187018803459965, -0.4319045, 7.4907312, 6.4067826, 0.031029105, 0.040305614, 9.866198
187018813099340, -0.44626144, 7.457232, 6.458228, 0.0021549463, -0.015936375, 9.875116
187018822738715, -0.4761717, 7.4416785, 6.498906, -0.03400898, -0.04653406, 9.8913
187018832378090, -0.51565325, 7.4392858, 6.4845495, -0.067922235, -0.025706768, 9.88195
187018842017465, -0.52163535, 7.4129643, 6.4534426, -0.07400012, -0.017520428, 9.842016
187018851656840, -0.5180461, 7.4045897, 6.458228, -0.070558846, -0.025104523, 9.838671
187018861296215, -0.4869394, 7.4153576, 6.4881387, -0.041540146, -0.047122, 9.864921
187018870935590, -0.49172506, 7.426125, 6.454639, -0.03796053, -0.013335705, 9.85139
187018880575069, -0.4642076, 7.4512496, 6.4259253, -0.0017188787, 0.016821861, 9.850321
187018890214444, -0.465404, 7.4620175, 6.4366927, -0.003271699, 0.016061306, 9.865548
187018899853819, -0.44147578, 7.4739814, 6.4737816, 0.016285896, -0.009901047, 9.897716
187018909493194, -0.46779683, 7.4823565, 6.468996, -0.006248474, 0.006813526, 9.902138
187018919132569, -0.47138608, 7.48116, 6.4761744, -0.010348916, 0.0020561218, 9.906094
187018928771944, -0.45822555, 7.4644103, 6.458228, 0.0019321442, 0.0016050339, 9.881098
187018938411319, -0.47856453, 7.436893, 6.437889, -0.019249022, 0.00371027, 9.847966
187018948050694, -0.45942193, 7.420143, 6.4211397, -0.0016595125, -3.0326843E-4, 9.823473
187018957690173, -0.4331009, 7.3986077, 6.3720865, 0.027274907, 0.016117096, 9.773918
187018967329548, -0.42951167, 7.416554, 6.355337, 0.035892904, 0.0374403, 9.776369
187018976968923, -0.4438686, 7.4141607, 6.3326054, 0.022945106, 0.05517912, 9.7603855
187018986608298, -0.44027936, 7.4548388, 6.350551, 0.02810669, 0.06605625, 9.802694
187018996247673, -0.44985065, 7.4679995, 6.385247, 0.015544951, 0.051436424, 9.835745
187019005887048, -0.42592242, 7.493124, 6.4354963, 0.03614688, 0.024091244, 9.886457
187019015526423, -0.4211368, 7.524231, 6.4737816, 0.04031223, 0.015460014, 9.934757
187019025165902, -0.40797627, 7.5146594, 6.501299, 0.046416104, -0.012805462, 9.944904
187019034805277, -0.40677986, 7.507481, 6.5001025, 0.044426203, -0.01591587, 9.938654
187019044444652, -0.43669012, 7.499106, 6.503692, 0.013169169, -0.017049313, 9.936039
187019054084027, -0.45104706, 7.483553, 6.4941206, -0.0025667548, -0.01568079, 9.918686
187019063723402, -0.46061835, 7.460821, 6.458228, -0.008962452, 9.036064E-4, 9.878495
187019073362777, -0.46779683, 7.452446, 6.4761744, -0.019093871, -0.015267849, 9.884232
187019083002152, -0.42951167, 7.456035, 6.483353, 0.018594205, -0.026509285, 9.889882
187019092641631, -0.43669012, 7.479964, 6.4474607, 0.021355629, 0.016612053, 9.884816
187019102281006, -0.42711884, 7.4883385, 6.442675, 0.032409072, 0.022086143, 9.887576
187019111920381, -0.4223332, 7.4943204, 6.4402823, 0.03861344, 0.026379108, 9.89031
187019121559756, -0.424726, 7.496713, 6.431907, 0.03718555, 0.033832073, 9.886759
187019131199131, -0.4534399, 7.4584284, 6.4295144, 0.0029814243, 0.017251492, 9.857592
187019140838506, -0.47018966, 7.4380894, 6.4175506, -0.013593078, 0.017990112, 9.835178
187019150477881, -0.46660042, 7.440482, 6.4211397, -0.008179903, 0.016496658, 9.839166
187019160117256, -0.485743, 7.420143, 6.4235325, -0.031130314, 0.007259369, 9.826253
187019169756735, -0.50488555, 7.3866434, 6.437889, -0.057516217, -0.019184113, 9.811225
187019179396110, -0.5383851, 7.368697, 6.4259253, -0.09029961, -0.012839317, 9.791413
187019189035485, -0.5180461, 7.361519, 6.4259253, -0.07036495, -0.022304535, 9.785059
187019198674860, -0.506082, 7.3950186, 6.445068, -0.055177927, -0.018695354, 9.822317
187019208314235, -0.48454657, 7.4249287, 6.454639, -0.029844642, -0.012439728, 9.850161
187019217953610, -0.46181476, 7.459625, 6.4343, 0.0025008917, 0.01922226, 9.862005
187019227592985, -0.45822555, 7.4787674, 6.390033, 0.017632008, 0.06275463, 9.847347
187019237232360, -0.4546363, 7.4787674, 6.35773, 0.026166797, 0.08588219, 9.826054
187019246871735, -0.424726, 7.472785, 6.439086, 0.040344954, 0.014854908, 9.873343
187019256511215, -0.41754755, 7.466803, 6.495317, 0.037635446, -0.03138399, 9.905263
187019266150590, -0.4546363, 7.440482, 6.491728, -0.0017691851, -0.033546448, 9.884781
187019275789965, -0.47377887, 7.4584284, 6.4869423, -0.0129618645, -0.008936882, 9.896101
187019285429340, -0.48095736, 7.450053, 6.503692, -0.02444315, -0.024574757, 9.901083
187019295068715, -0.46899325, 7.476374, 6.4331036, 0.003181696, 0.04091692, 9.874172
187019304708090, -0.43788654, 7.4787674, 6.3948183, 0.03955388, 0.06287575, 9.849462
187019314347465, -0.43070808, 7.4907312, 6.398408, 0.04358661, 0.06146145, 9.860552
187019323986840, -0.4127619, 7.450053, 6.4151573, 0.050157428, 0.01904726, 9.83997
187019333626215, -0.4223332, 7.4440713, 6.4761744, 0.028079152, -0.028993607, 9.875816
187019343265694, -0.44626144, 7.432107, 6.4965134, -0.0012540817, -0.04535961, 9.881194
187019352905069, -0.48095736, 7.432107, 6.474978, -0.030109286, -0.019160748, 9.868717
187019362544444, -0.4749753, 7.457232, 6.4594245, -0.013257027, 0.01035881, 9.877235
187019372183819, -0.45942193, 7.493124, 6.465407, 0.007847667, 0.024446487, 9.907513
187019381823194, -0.44745782, 7.542177, 6.501299, 0.023465753, 0.026393414, 9.9674635
187019391462569, -0.42831525, 7.537391, 6.513263, 0.038990855, 0.009768009, 9.970795
187019401101944, -0.46061835, 7.503892, 6.489335, 0.0027352571, 0.010495663, 9.93136
187019410741319, -0.46899325, 7.4333034, 6.442675, -0.0118608475, 0.0028076172, 9.847937
187019420380694, -0.45583272, 7.3986077, 6.4199433, -0.0022062063, -0.008244514, 9.806263
187019430020173, -0.46061835, 7.4045897, 6.3768725, 9.2089176E-4, 0.026420116, 9.782839
187019439659548, -0.45224348, 7.411768, 6.3254266, 0.019630015, 0.06558514, 9.754239
187019449298923, -0.4354937, 7.4440713, 6.3565335, 0.03796327, 0.05900097, 9.798186
187019458938298, -0.42951167, 7.446464, 6.3972116, 0.038177133, 0.028785706, 9.826307
187019468577673, -0.44745782, 7.429714, 6.407979, 0.018089712, 0.016727448, 9.82153
187019478217048, -0.48095736, 7.405786, 6.418747, -0.019402325, 0.002796173, 9.81208
187019487856423, -0.5204389, 7.3603225, 6.4402823, -0.069147885, -0.031618595, 9.793705
187019497495798, -0.5383851, 7.381858, 6.4606214, -0.085436285, -0.028863907, 9.824113
187019507135173, -0.54317075, 7.393822, 6.4761744, -0.090714335, -0.032826424, 9.843534
187019516774548, -0.55752766, 7.4129643, 6.485746, -0.10242969, -0.024490833, 9.864922
187019526413923, -0.52163535, 7.4416785, 6.5539412, -0.07420516, -0.065354824, 9.929504
187019536053298, -0.4869394, 7.483553, 6.5814586, -0.036579728, -0.066857815, 9.977497
187019545692777, -0.46660042, 7.5050883, 6.550352, -0.0076405406, -0.035274506, 9.972456
187019555332152, -0.45583272, 7.5110703, 6.5084777, 0.010628283, -7.419586E-4, 9.949076
187019564971527, -0.45942193, 7.5026956, 6.465407, 0.012437284, 0.026880264, 9.914743
187019574610902, -0.43788654, 7.4883385, 6.4055862, 0.04055202, 0.056605816, 9.863754
187019584250277, -0.41994038, 7.457232, 6.384051, 0.05494708, 0.049260616, 9.82534
187019593889652, -0.4103691, 7.4416785, 6.4031935, 0.059086442, 0.022037506, 9.825678
187019603529027, -0.40438703, 7.429714, 6.401997, 0.062012196, 0.013464451, 9.815585
187019613168402, -0.39361933, 7.4823565, 6.378069, 0.085529685, 0.061692238, 9.839169
187019622807777, -0.48215377, 7.1282187, 6.3517475, -0.06347507, -0.12153721, 9.55876
187019632447152, -0.36131623, 7.9657063, 6.4498534, 0.20074618, 0.30051088, 10.249537
187019642086527, -0.55034924, 6.836294, 6.236892, -0.17214733, -0.20067072, 9.26643
187019651725902, -0.3385844, 8.196614, 6.5204415, 0.2572248, 0.38498402, 10.469044
187019661365277, -0.49052864, 6.7848487, 6.2608204, -0.13430518, -0.26404524, 9.240394
187019671004652, -0.37328035, 8.015956, 6.611369, 0.1725136, 0.20494843, 10.393908
187019680644131, -0.47138608, 7.045666, 6.4127645, -0.0897342, -0.21817303, 9.5358
187019690283506, -0.5204389, 7.615158, 6.611369, -0.053011537, -3.9958954E-4, 10.097965
187019699922881, -0.4546363, 7.5433736, 6.445068, 0.027810812, 0.063831806, 9.931931
187019709562256, -0.59342, 7.1449685, 6.424729, -0.18322092, -0.13521194, 9.624344
187019719201631, -0.37686956, 7.98126, 6.533602, 0.18557382, 0.24978256, 10.316669
187019728841006, -0.60059845, 6.7561345, 6.3888364, -0.26684076, -0.34142733, 9.307821
187019738480381, -0.38644084, 8.109276, 6.6484575, 0.18064487, 0.24364948, 10.489029
187019748119756, -0.60059845, 6.634101, 6.300302, -0.2711076, -0.3590212, 9.157696
187019757759131, -0.4761717, 7.948957, 6.5575304, 0.07821989, 0.2370472, 10.312689
187019767398506, -0.526421, 6.9523463, 6.270392, -0.12710851, -0.15207195, 9.37501
187019777037881, -0.5096712, 7.6462646, 6.483353, -0.0051054955, 0.11444378, 10.037226
187019786677256, -0.38883367, 7.5230346, 6.3290157, 0.10884476, 0.115822315, 9.837603
187019796316631, -0.4953143, 7.2011995, 6.3314085, -0.06329298, -0.05552435, 9.60116
187019805956006, -0.29072794, 7.987242, 6.393622, 0.287264, 0.32792854, 10.225893
187019815595381, -0.50129634, 6.8015985, 6.3014984, -0.15401053, -0.28346205, 9.27997
187019825234756, -0.31944183, 8.189436, 6.6388865, 0.26137447, 0.28514194, 10.540118
187019834874131, -0.526421, 6.745367, 6.352944, -0.20542061, -0.34265757, 9.272398
187019844513506, -0.39720857, 8.084151, 6.6101727, 0.16612887, 0.25807762, 10.445642
187019854152881, -0.48095736, 6.9822564, 6.343373, -0.10081303, -0.19913387, 9.443081
187019863792256, -0.45583272, 7.752745, 6.5922265, 0.03932154, 0.085366726, 10.1863365
187019873431631, -0.39481574, 7.5230346, 6.431907, 0.07473111, 0.042402267, 9.905251
187019883071006, -0.51445687, 7.2287173, 6.463014, -0.10690355, -0.13469219, 9.708759
187019892710485, -0.33140594, 7.9166536, 6.478567, 0.20613456, 0.23559475, 10.230204
187019902349860, -0.5802595, 6.8339014, 6.355337, -0.23120868, -0.2817278, 9.343254
187019911989235, -0.3684947, 8.157132, 6.6484575, 0.19409668, 0.27745485, 10.524347
187019921628610, -0.573081, 6.6855464, 6.350551, -0.25644195, -0.36495447, 9.227974
187019931267985, -0.4211368, 8.075776, 6.5850477, 0.14082682, 0.28053188, 10.424002
187019940907360, -0.51206404, 6.899704, 6.279963, -0.1389662, -0.19766188, 9.340647
187019950546735, -0.48215377, 7.706085, 6.5443697, 0.017693996, 0.09803772, 10.121021
187019960186110, -0.44147578, 7.3172517, 6.3804617, 0.0020797253, -0.03514862, 9.718339
187019969825485, -0.5563313, 7.2023964, 6.4211397, -0.1418364, -0.105849266, 9.663527
187019979464860, -0.36370903, 7.836494, 6.431907, 0.17399561, 0.22738647, 10.140532
187019989104235, -0.5455636, 6.8685975, 6.302695, -0.18480426, -0.23542595, 9.333256
187019998743610, -0.32542387, 8.206185, 6.5479593, 0.25788355, 0.36405373, 10.494005
187020008382985, -0.5096712, 6.7872415, 6.303891, -0.16363966, -0.2945919, 9.271026
187020018022360, -0.3385844, 8.202596, 6.6053867, 0.23350477, 0.31445646, 10.529718
187020027661735, -0.45583272, 6.963114, 6.259624, -0.068666875, -0.16630459, 9.372475
187020037301110, -0.43788654, 7.82453, 6.5288167, 0.078440785, 0.16111422, 10.19845
187020046940485, -0.39361933, 7.3292155, 6.3720865, 0.047139406, -0.039494514, 9.719673
187020056579860, -0.51565325, 7.3028946, 6.4534426, -0.09295106, -0.08257866, 9.758566
187020066219235, -0.3361916, 7.8197446, 6.4151573, 0.2038058, 0.20940351, 10.115844
187020075858610, -0.54675996, 6.8685975, 6.263213, -0.18457866, -0.20600176, 9.307412
187020085497985, -0.317049, 8.143971, 6.521638, 0.27179205, 0.3273821, 10.429548
187020095137360, -0.5479564, 6.7011, 6.3194447, -0.23051083, -0.34716415, 9.217739
187020104776735, -0.40079778, 8.130812, 6.6257257, 0.1684835, 0.2699437, 10.491413
187020114416110, -0.52522457, 6.8398833, 6.3086767, -0.17561924, -0.26320982, 9.314459
187020124055485, -0.50129634, 7.8317084, 6.587441, 0.012462974, 0.14427137, 10.245017
187020133694860, -0.48215377, 7.2873416, 6.410372, -0.053740144, -0.06800175, 9.717157
187020143334235, -0.56470615, 7.342376, 6.5778694, -0.15064406, -0.13895273, 9.871967
187020152973610, -0.40438703, 7.7587276, 6.506085, 0.104133844, 0.12943983, 10.132273
187020162612985, -0.5910272, 6.9092755, 6.367301, -0.23221868, -0.24273968, 9.408352
187020172252360, -0.36131623, 8.128419, 6.5718875, 0.21352232, 0.290833, 10.45281
187020181891735, -0.5455636, 6.7238317, 6.378069, -0.23644805, -0.38241577, 9.272819
187020191531110, -0.3493521, 8.187042, 6.623333, 0.22772396, 0.28288126, 10.53026
187020201170485, -0.47377887, 6.8853474, 6.2608204, -0.10438526, -0.21155834, 9.315294
187020210809756, -0.40079778, 7.9357963, 6.558727, 0.13361955, 0.19496584, 10.300415
187020220449131, -0.39601216, 7.2550383, 6.3517475, 0.03184867, -0.07183266, 9.650436
187020230088506, -0.4869394, 7.452446, 6.4402823, -0.031562805, 0.0057873726, 9.861657
187020239727881, -0.3493521, 7.733603, 6.3326054, 0.17723405, 0.22184563, 9.997595
187020249367256, -0.5312066, 6.927222, 6.2057858, -0.14815646, -0.14375448, 9.31331
187020259006631, -0.30987054, 8.084151, 6.3828545, 0.2776096, 0.38420343, 10.2939625
187020268646006, -0.52283174, 6.7238317, 6.2141604, -0.18031919, -0.27827978, 9.1645565
187020278285381, -0.3290131, 8.1679, 6.5539412, 0.23968184, 0.31098747, 10.470093
187020287924756, -0.48215377, 6.799206, 6.2524457, -0.13979888, -0.26595736, 9.244701
187020297564131, -0.42831525, 7.954939, 6.539584, 0.111996174, 0.22370052, 10.303789
187020307203506, -0.45583272, 7.2059855, 6.344569, -0.039367557, -0.08830547, 9.611359
187020316842881, -0.5587241, 7.500303, 6.5694947, -0.11725891, -0.04505825, 9.985449
187020326482256, -0.4319045, 7.6953177, 6.506085, 0.05996251, 0.08883762, 10.085736
187020336121631, -0.61016977, 7.004988, 6.4366927, -0.24339652, -0.238729, 9.526645
187020345761006, -0.37806597, 8.049456, 6.570691, 0.17231476, 0.2469449, 10.393267
187020355400381, -0.6221339, 6.658029, 6.344569, -0.30766904, -0.38337946, 9.2048
187020365039756, -0.4235296, 8.118847, 6.6185474, 0.13740897, 0.27037382, 10.478943
187020374679131, -0.56350976, 6.725028, 6.285945, -0.22778589, -0.3130684, 9.214486
187020384318506, -0.424726, 7.958528, 6.5898337, 0.10339284, 0.1880126, 10.33917
187020393957881, -0.4546363, 7.1545396, 6.3601227, -0.04408574, -0.13063145, 9.582603
187020403597256, -0.49292147, 7.5816584, 6.515656, -0.024237752, 0.027540207, 10.008844
187020413236631, -0.36251262, 7.682157, 6.381658, 0.14496219, 0.15847445, 9.991317
187020422876006, -0.5276174, 7.103094, 6.3397837, -0.12572902, -0.1315546, 9.533732
187020432515277, -0.3278167, 8.063812, 6.492924, 0.23627925, 0.30482912, 10.350935
187020442154652, -0.526421, 6.727421, 6.323034, -0.1941793, -0.35945988, 9.238461
187020451794027, -0.3278167, 8.159525, 6.576673, 0.2345922, 0.29935837, 10.4782295
187020461433402, -0.4761717, 6.73101, 6.2344995, -0.13019764, -0.29799557, 9.181312
187020471072777, -0.37088752, 8.023134, 6.518049, 0.17349017, 0.2679, 10.338827
187020480712152, -0.42592242, 7.123433, 6.2871413, -0.014167786, -0.10602045, 9.510069
187020490351527, -0.44027936, 7.668997, 6.5252275, 0.033843577, 0.057296276, 10.078768
187020499990902, -0.3385844, 7.668997, 6.3792653, 0.15235573, 0.14120865, 9.97898
187020509630277, -0.50009996, 7.155736, 6.3493547, -0.09811413, -0.12221956, 9.57833
187020519269652, -0.29072794, 8.042277, 6.4701924, 0.25645673, 0.29480648, 10.318598
187020528909027, -0.52522457, 6.786045, 6.3290157, -0.1949057, -0.33122873, 9.286282
187020538548402, -0.3469593, 8.190632, 6.6388865, 0.2046532, 0.27895594, 10.543337
187020548187777, -0.57547385, 6.6855464, 6.3278193, -0.25267375, -0.37888432, 9.212036
187020557827152, -0.485743, 7.975278, 6.580262, 0.04701209, 0.22088337, 10.348425
187020567466527, -0.5802595, 6.971489, 6.317052, -0.20185578, -0.19026995, 9.4216
187020577105798, -0.5982057, 7.580462, 6.5754766, -0.14110631, 0.0026416779, 10.051779
187020586745173, -0.48215377, 7.4847493, 6.465407, -0.026551366, -0.0014777184, 9.902258
187020596384548, -0.56470615, 7.1473613, 6.4534426, -0.17158878, -0.18147326, 9.64304
187020606023923, -0.35174492, 7.999206, 6.4869423, 0.1997968, 0.27116203, 10.2994175
187020615663298, -0.5192425, 6.812366, 6.3218374, -0.1714412, -0.3111086, 9.301474
187020625302673, -0.2955136, 8.2348995, 6.6089764, 0.2817551, 0.30984592, 10.554813
187020634942048, -0.47976094, 6.788438, 6.302695, -0.13600898, -0.31577396, 9.269241
187020644581423, -0.35413775, 8.1344, 6.5742803, 0.20130444, 0.28588057, 10.459101
187020654220798, -0.42711884, 7.0540414, 6.245267, -0.026670098, -0.12583017, 9.430205
187020663860173, -0.44985065, 7.743174, 6.4761744, 0.053358078, 0.14016342, 10.103338
187020673499548, -0.37806597, 7.5026956, 6.302695, 0.10267472, 0.101121426, 9.804926
187020683138819, -0.51445687, 7.1808605, 6.3134627, -0.09376085, -0.075464725, 9.574694
187020692778194, -0.32063824, 7.90469, 6.363712, 0.23125744, 0.2868085, 10.14633
187020702417569, -0.5240282, 6.7848487, 6.2512493, -0.16891474, -0.27341175, 9.234913
187020712056944, -0.31226337, 8.158329, 6.532406, 0.2630056, 0.31760788, 10.447876
187020721696319, -0.5383851, 6.6795645, 6.2321067, -0.20892888, -0.31791925, 9.143351
187020731335694, -0.38883367, 8.072187, 6.5276203, 0.17264175, 0.28538752, 10.383159
187020740975069, -0.5024927, 6.936793, 6.285945, -0.13073075, -0.20941782, 9.371432
187020750614444, -0.5240282, 7.7503524, 6.6125655, -0.040215373, 0.059641838, 10.201149
187020760253819, -0.5024927, 7.4177504, 6.489335, -0.06702459, -0.06035328, 9.868074
187020769893194, -0.6233303, 7.2622166, 6.5575304, -0.22284257, -0.17542362, 9.800467
187020779532569, -0.43070808, 7.867601, 6.613762, 0.07913029, 0.11314058, 10.286276
187020789171840, -0.64008003, 6.832705, 6.465407, -0.30830747, -0.36642885, 9.416355
187020798811215, -0.41874397, 8.149954, 6.690332, 0.13818479, 0.2321086, 10.549155
187020808450590, -0.6149554, 6.704689, 6.4055862, -0.29128557, -0.40995455, 9.27953
187020818089965, -0.44626144, 8.117651, 6.6556363, 0.10931277, 0.24684191, 10.503334
187020827729340, -0.5371887, 6.8889365, 6.2811594, -0.16108215, -0.2194972, 9.33407
187020837368715, -0.44865423, 7.780263, 6.5288167, 0.061327577, 0.12386131, 10.165636
187020847008090, -0.41156548, 7.3950186, 6.296713, 0.060820103, 0.047781944, 9.721025
187020856647465, -0.47018966, 7.351948, 6.3074803, -0.008882523, 0.024956703, 9.698238
187020866286840, -0.24765715, 7.899904, 6.2691956, 0.32377017, 0.33194113, 10.0775795
187020875926215, -0.46779683, 6.9116683, 6.1794643, -0.0775761, -0.15780592, 9.281425
187020885565485, -0.25962126, 8.184649, 6.4642105, 0.33079338, 0.36200762, 10.421202
187020895204860, -0.5072784, 6.7381887, 6.2117677, -0.16492856, -0.28180504, 9.172783
187020904844235, -0.34456646, 8.161918, 6.521638, 0.23568451, 0.3369317, 10.445013
187020914483610, -0.4833502, 6.873383, 6.265606, -0.11729562, -0.2385869, 9.309357
187020924122985, -0.44147578, 7.874779, 6.5982084, 0.070118666, 0.121202946, 10.2822075
187020933762360, -0.4438686, 7.344769, 6.4343, -0.014630675, -0.084653854, 9.774225
187020943401735, -0.5192425, 7.4177504, 6.5347986, -0.08959323, -0.09423113, 9.89845
187020953041110, -0.34217364, 7.8496547, 6.4414787, 0.18184555, 0.1961708, 10.156538
187020962680485, -0.5407779, 6.9702926, 6.337391, -0.17101735, -0.22106028, 9.431959
187020972319860, -0.36729828, 8.154739, 6.593423, 0.19137931, 0.28267574, 10.487677
187020981959131, -0.6269195, 6.6735826, 6.3828545, -0.31955093, -0.41997194, 9.240786
187020991598506, -0.45224348, 8.084151, 6.6532435, 0.08500409, 0.21216679, 10.477188
187021001237881, -0.6233303, 6.7645097, 6.344569, -0.27293527, -0.3383584, 9.285027
187021010877256, -0.5491528, 7.7910304, 6.6364937, -0.04765117, 0.07782793, 10.24873
187021020516631, -0.5300102, 7.192825, 6.3601227, -0.10366428, -0.09811878, 9.61501
187021030156006, -0.5587241, 7.3986077, 6.4570317, -0.10663116, -0.034188747, 9.8352585
187021039795381, -0.36370903, 7.773084, 6.398408, 0.16349488, 0.19478321, 10.071152
187021049434756, -0.5371887, 6.971489, 6.2979093, -0.1535585, -0.19193268, 9.407097
187021059074131, -0.31226337, 8.115258, 6.454639, 0.27621365, 0.3388443, 10.364659
187021068713402, -0.5491528, 6.7058854, 6.2787666, -0.21827567, -0.33477926, 9.19422
187021078352777, -0.3900301, 8.143971, 6.6101727, 0.18558908, 0.26574135, 10.49122
187021087992152, -0.5395815, 6.7633133, 6.273981, -0.19623947, -0.30066633, 9.23404
187021097631527, -0.4426722, 7.9011, 6.559923, 0.08676994, 0.16561794, 10.277207
187021107270902, -0.42831525, 7.2526455, 6.3744793, -2.0897388E-4, -0.09681034, 9.664829
187021116910277, -0.4642076, 7.54457, 6.503692, -0.0021736622, -0.0045661926, 9.971661
187021126549652, -0.32063824, 7.8077803, 6.3804617, 0.21776485, 0.20545387, 10.083894
187021136189027, -0.4749753, 7.1042905, 6.3074803, -0.08054936, -0.13387251, 9.51086
187021145828402, -0.2440679, 8.179864, 6.4845495, 0.34049308, 0.33427525, 10.430313
187021155467777, -0.4761717, 6.8039913, 6.3278193, -0.15599036, -0.3351531, 9.296543
187021165107048, -0.30269206, 8.202596, 6.6161547, 0.27113068, 0.26660776, 10.535801
187021174746423, -0.506082, 6.7633133, 6.2644095, -0.18545961, -0.29893017, 9.225922
187021184385798, -0.46181476, 7.9298143, 6.541977, 0.069868326, 0.19662094, 10.288302
187021194025173, -0.5024927, 7.1282187, 6.3182483, -0.107243896, -0.115787506, 9.537262
187021203664548, -0.567099, 7.5122666, 6.5084777, -0.11645222, -0.0029883385, 9.955023
187021213303923, -0.4426722, 7.6510506, 6.3804617, 0.057781816, 0.13906622, 9.971064
187021222943298, -0.5886344, 7.0468626, 6.3050876, -0.2006774, -0.1381545, 9.470984
187021232582673, -0.35533416, 8.038688, 6.4941206, 0.20245028, 0.2681632, 10.33477
187021242222048, -0.5814559, 6.708278, 6.385247, -0.26564825, -0.41190338, 9.266619
187021251861319, -0.4139583, 8.141579, 6.7094746, 0.12824535, 0.19490099, 10.555534
187021261500694, -0.5982057, 6.6939216, 6.3696938, -0.2788397, -0.40075588, 9.246679
187021271140069, -0.4881358, 7.938189, 6.611369, 0.03574121, 0.16677856, 10.340902
187021280779444, -0.4989035, 7.075577, 6.355337, -0.099014044, -0.17366362, 9.521715
187021290418819, -0.49292147, 7.6343007, 6.5168524, -0.0164814, 0.048939705, 10.049489
187021300058194, -0.3696911, 7.6953177, 6.330212, 0.14444745, 0.19496918, 9.968315
187021309697569, -0.47736812, 7.1916285, 6.273981, -0.055681467, -0.05735445, 9.5553055
187021319336944, -0.2428715, 8.110473, 6.418747, 0.33789217, 0.33963728, 10.334869
187021328976319, -0.44506502, 6.8243303, 6.2679987, -0.096556604, -0.29118824, 9.271637
187021338615694, -0.25004998, 8.226524, 6.5539412, 0.3269515, 0.32880402, 10.51082
187021348254965, -0.44865423, 6.751349, 6.256035, -0.10737932, -0.31999445, 9.209021
187021357894340, -0.37567315, 8.037491, 6.562316, 0.16978884, 0.23837137, 10.3788595
187021367533715, -0.4761717, 7.0672016, 6.346962, -0.0867154, -0.1799717, 9.508738
187021377173090, -0.5300102, 7.6570325, 6.5694947, -0.0610801, 0.030934334, 10.102706
187021386812465, -0.43788654, 7.54457, 6.413961, 0.03126669, 0.054586887, 9.911973
187021396451840, -0.573081, 7.149754, 6.3924255, -0.17557305, -0.14392328, 9.605153
187021406091215, -0.37208393, 7.982456, 6.452246, 0.1693424, 0.28163624, 10.265552
187021415730590, -0.6089734, 6.7501526, 6.343373, -0.28163654, -0.34746647, 9.2722025
187021425369965, -0.39361933, 8.157132, 6.6795645, 0.14906096, 0.22015381, 10.547021
187021435009340, -0.61854464, 6.6831536, 6.401997, -0.3102923, -0.429811, 9.260221
187021444648610, -0.4833502, 8.02792, 6.6484575, 0.04687202, 0.19085741, 10.432856
187021454287985, -0.5599205, 6.954739, 6.320641, -0.17924017, -0.20835781, 9.410465
187021463927360, -0.5491528, 7.6606216, 6.558727, -0.068395495, 0.051955223, 10.099318
187021473566735, -0.45822555, 7.501499, 6.430711, 0.011125088, 0.027317524, 9.89119
187021483206110, -0.56470615, 7.196414, 6.4163537, -0.14848155, -0.12896967, 9.6559925
187021492845485, -0.34337005, 7.9357963, 6.4343, 0.20494646, 0.26806688, 10.216707
187021502484860, -0.55752766, 6.792027, 6.273981, -0.1984052, -0.27584648, 9.256883
187021512124235, -0.3385844, 8.170293, 6.5347986, 0.23618531, 0.3310747, 10.459757
187021521763610, -0.49651068, 6.7178497, 6.2057858, -0.14735687, -0.28856087, 9.1532955
187021531402985, -0.29910284, 8.140383, 6.4606214, 0.27969062, 0.3590026, 10.386906
187021541042256, -0.37686956, 7.0492554, 6.1974106, 0.026792407, -0.10908699, 9.393047
187021550681631, -0.37208393, 7.830512, 6.512067, 0.13708246, 0.14470434, 10.189339
187021560321006, -0.3684947, 7.479964, 6.4127645, 0.083394885, -1.2683868E-4, 9.859119
187021569960381, -0.5132605, 7.2873416, 6.492924, -0.10985482, -0.13992739, 9.772165
187021579599756, -0.3469593, 7.91785, 6.546763, 0.1709336, 0.16904736, 10.276917
187021589239131, -0.5587241, 6.8745794, 6.4175506, -0.2274372, -0.32997465, 9.412563
187021598878506, -0.32063824, 8.233703, 6.6161547, 0.2433343, 0.31036425, 10.560048
187021608517881, -0.526421, 6.7872415, 6.314659, -0.20215893, -0.3198805, 9.277687
187021618157256, -0.3469593, 8.195417, 6.641279, 0.20238042, 0.2649684, 10.5489645
187021627796631, -0.4881358, 6.9535427, 6.3565335, -0.13654089, -0.25830603, 9.42922
187021637436006, -0.46779683, 7.792227, 6.6305118, 0.0058163404, 0.054875374, 10.241985
187021647075277, -0.46061835, 7.361519, 6.472585, -0.042989254, -0.092805386, 9.812647
187021656714652, -0.6017949, 7.259824, 6.5228343, -0.20649636, -0.15771866, 9.774817
187021666354027, -0.465404, 7.8029947, 6.4235325, 0.057538986, 0.22030973, 10.115002
187021675993402, -0.6269195, 6.806384, 6.276374, -0.2740649, -0.25678062, 9.272094
187021685632777, -0.3589234, 8.130812, 6.5611196, 0.20531523, 0.29228163, 10.447948
187021695272152, -0.54317075, 6.6891356, 6.253642, -0.21549493, -0.32697725, 9.164837
187021704911527, -0.3684947, 8.114061, 6.4618177, 0.20545435, 0.35144663, 10.371264
187021714550902, -0.46779683, 6.8374906, 6.1639113, -0.1013875, -0.19328594, 9.215002
187021724190277, -0.4331009, 7.8077803, 6.483353, 0.081247926, 0.16672897, 10.156204
187021733829652, -0.43070808, 7.332805, 6.330212, 0.011689186, -0.015429974, 9.696739
187021743469027, -0.5312066, 7.3459654, 6.431907, -0.1008147, -0.056153774, 9.777603
187021753108402, -0.3469593, 7.806584, 6.4295144, 0.174353, 0.18036127, 10.116269
187021762747777, -0.552742, 6.9116683, 6.3493547, -0.20390731, -0.2570939, 9.39592
187021772387048, -0.32303107, 8.145168, 6.579066, 0.23511231, 0.2747097, 10.469072
187021782026423, -0.5395815, 6.7334027, 6.3589263, -0.23226535, -0.3792057, 9.266501
187021791665798, -0.3469593, 8.195417, 6.664011, 0.20606029, 0.24769163, 10.563641
187021801305173, -0.4749753, 6.9020967, 6.3326054, -0.12903082, -0.265985, 9.37438
187021810944548, -0.40917268, 7.9106717, 6.606583, 0.09587753, 0.1389041, 10.313322
187021820583923, -0.4139583, 7.2933235, 6.378069, 0.00460124, -0.074968815, 9.697321
187021830223298, -0.5096712, 7.448857, 6.465407, -0.07230556, -0.020275116, 9.876287
187021839862673, -0.34097722, 7.816155, 6.3888364, 0.18073893, 0.22137833, 10.096737
187021849502048, -0.5300102, 6.9619174, 6.3696938, -0.17559457, -0.24319172, 9.446281
187021859141423, -0.33738798, 8.147561, 6.606583, 0.21676075, 0.266716, 10.489298
187021868780798, -0.5419743, 6.748956, 6.40439, -0.23823965, -0.4001932, 9.308138
187021878420173, -0.34097722, 8.190632, 6.698707, 0.20079255, 0.22426176, 10.582285
187021888059548, -0.4546363, 6.8422766, 6.334998, -0.12051368, -0.30758286, 9.329872
187021897698923, -0.3924229, 7.9633136, 6.539584, 0.13576484, 0.21925402, 10.308639
187021907338298, -0.3924229, 7.2729845, 6.2691956, 0.04104376, -0.010356426, 9.609961
187021916977673, -0.4869394, 7.4775705, 6.4343, -0.03906262, 0.013450146, 9.876724
187021926616944, -0.3696911, 7.7012997, 6.3924255, 0.12612927, 0.1526885, 10.013519
187021936256319, -0.5946164, 6.9535427, 6.320641, -0.23070031, -0.2011218, 9.410748
187021945895694, -0.3684947, 8.020741, 6.5455666, 0.16592586, 0.23873377, 10.355096
187021955535069, -0.6221339, 6.6819572, 6.385247, -0.32046026, -0.41416788, 9.248392
187021965174444, -0.3912265, 8.169097, 6.674779, 0.15071476, 0.23780632, 10.552753
187021974813819, -0.52522457, 6.8255267, 6.2919273, -0.1736533, -0.27869225, 9.292159
187021984453194, -0.40677986, 8.008778, 6.533602, 0.13032436, 0.25269318, 10.33988
187021994092569, -0.41874397, 7.1916285, 6.282356, 0.003791809, -0.06777668, 9.558151
187022003731944, -0.47018966, 7.548159, 6.472585, -0.007014096, 0.026414871, 9.954366
187022013371319, -0.357727, 7.655836, 6.3565335, 0.13848728, 0.15453148, 9.955012
187022023010694, -0.54317075, 6.9966135, 6.300302, -0.15864033, -0.17341661, 9.427948
187022032650069, -0.3182454, 8.043473, 6.431907, 0.24192834, 0.32440138, 10.295844
187022042289444, -0.552742, 6.710671, 6.3014984, -0.2269147, -0.3504119, 9.212667
187022051928819, -0.37567315, 8.153543, 6.6257257, 0.18119228, 0.2625084, 10.508088
187022061568194, -0.56470615, 6.728617, 6.270392, -0.23584163, -0.31125498, 9.206437
187022071207569, -0.44506502, 7.98126, 6.5479593, 0.09359908, 0.22672272, 10.330257
187022080846944, -0.4761717, 7.1449685, 6.3326054, -0.07032561, -0.11662388, 9.558279
187022090486319, -0.49651068, 7.6343007, 6.593423, -0.03563094, 1.8692017E-4, 10.099556
187022100125694, -0.37208393, 7.7012997, 6.5204415, 0.11150181, 0.06037426, 10.096958
187022109765069, -0.5300102, 7.1282187, 6.4331036, -0.1492787, -0.18994188, 9.613474
187022119404444, -0.34097722, 8.065009, 6.512067, 0.21355307, 0.2816701, 10.365458
187022129043819, -0.56350976, 6.7812595, 6.34098, -0.23383391, -0.3335986, 9.292206
187022138683194, -0.36011982, 8.1942215, 6.631708, 0.20499456, 0.28446102, 10.541896
187022148322569, -0.53599226, 6.7334027, 6.350551, -0.2121877, -0.37330675, 9.2612705
187022157961840, -0.40677986, 8.025527, 6.619744, 0.13438964, 0.20784187, 10.408375
187022167601319, -0.48933223, 7.0528445, 6.3158555, -0.089968264, -0.15442467, 9.478406
187022177240590, -0.5084748, 7.5900335, 6.5575304, -0.042782426, 0.0071001053, 10.043232
187022186879965, -0.41754755, 7.52782, 6.4055862, 0.058607936, 0.059994698, 9.892771
187022196519340, -0.56111693, 7.105487, 6.3158555, -0.1487441, -0.10200548, 9.52157
187022206158715, -0.36370903, 7.96451, 6.330212, 0.20231438, 0.37253428, 10.171411
187022215798090, -0.56470615, 6.7465634, 6.1998034, -0.20920175, -0.2432518, 9.1744
187022225437465, -0.33020952, 8.2049885, 6.5347986, 0.24512601, 0.35140467, 10.485746
187022235076840, -0.5096712, 6.7441707, 6.2955165, -0.18031716, -0.33558702, 9.232117
187022244716215, -0.38524446, 8.067402, 6.619744, 0.15180945, 0.2270484, 10.439244
187022254355590, -0.47258246, 7.004988, 6.344569, -0.099422574, -0.21186924, 9.46002
187022263994965, -0.47856453, 7.672586, 6.5850477, -0.009217858, 0.026568413, 10.122236
187022273634340, -0.38404804, 7.537391, 6.452246, 0.07902157, 0.02128458, 9.928976
187022283273715, -0.4941179, 7.245467, 6.468996, -0.091323614, -0.14487886, 9.724173
187022292913090, -0.24765715, 8.068598, 6.515656, 0.30442834, 0.26406908, 10.36605
187022302552465, -0.42711884, 6.9762745, 6.3397837, -0.07150757, -0.24131775, 9.43294
187022312191840, -0.24765715, 8.338987, 6.626922, 0.3300364, 0.34994364, 10.643532
187022321831215, -0.50488555, 6.778867, 6.3278193, -0.18799376, -0.32919264, 9.279306
187022331470590, -0.42711884, 8.087741, 6.631708, 0.11032581, 0.23892021, 10.46443
187022341109965, -0.55513483, 6.91765, 6.398408, -0.21385568, -0.28248358, 9.432718
187022350749340, -0.567099, 7.6390862, 6.631708, -0.10916948, 9.150505E-4, 10.131382
187022360388715, -0.49172506, 7.3627152, 6.430711, -0.058349967, -0.04303837, 9.787754
187022370028090, -0.587438, 7.1784678, 6.4570317, -0.19432652, -0.1500144, 9.669979
187022379667465, -0.35174492, 7.881958, 6.431907, 0.1872766, 0.23806953, 10.174806
187022389306840, -0.5419743, 6.8015985, 6.290731, -0.19854563, -0.27308655, 9.274416
187022398946215, -0.32063824, 8.163115, 6.538388, 0.24938524, 0.3327341, 10.455469
187022408585590, -0.54436713, 6.6975107, 6.2285175, -0.2100541, -0.30101347, 9.154926
187022418224965, -0.39840496, 8.094919, 6.513263, 0.1632067, 0.32910252, 10.391059
187022427864340, -0.52163535, 6.896115, 6.2033925, -0.14104432, -0.15959597, 9.287909
187022437503715, -0.49052864, 7.753942, 6.506085, 0.005513191, 0.13906622, 10.132818
187022447143090, -0.40917268, 7.381858, 6.3888364, 0.032481372, -0.022902489, 9.771126
187022456782465, -0.47976094, 7.2861447, 6.4462643, -0.06678152, -0.10912466, 9.739407
187022466421840, -0.2847459, 7.891529, 6.4151573, 0.2469585, 0.24175501, 10.168192
187022476061215, -0.47856453, 6.8853474, 6.3278193, -0.12460917, -0.2695117, 9.358964
187022485700694, -0.24885355, 8.206185, 6.63769, 0.30306828, 0.2634287, 10.549934
187022495340069, -0.5084748, 6.754938, 6.4127645, -0.19624501, -0.40284872, 9.317214
187022504979444, -0.37806597, 8.185846, 6.661618, 0.16497517, 0.27060223, 10.555934
187022514618819, -0.5168497, 6.928418, 6.3122663, -0.15503591, -0.22020292, 9.383085
187022524258194, -0.45702913, 7.850851, 6.558727, 0.04322827, 0.16436958, 10.238787
187022533897569, -0.4319045, 7.355537, 6.352944, 0.004273236, 8.401871E-4, 9.728842
187022543536944, -0.5300102, 7.332805, 6.424729, -0.10701454, -0.04683304, 9.762914
187022553176319, -0.36131623, 7.804191, 6.4271216, 0.14551002, 0.20790482, 10.113331
187022562815694, -0.56470615, 6.862615, 6.4151573, -0.22953671, -0.32425404, 9.402702
187022572455069, -0.3361916, 8.086544, 6.6795645, 0.1892066, 0.19688416, 10.490339
187022582094444, -0.573081, 6.658029, 6.431907, -0.27678186, -0.45598936, 9.259732
187022591733819, -0.3912265, 8.145168, 6.6915283, 0.14354861, 0.23472595, 10.545031
187022601373194, -0.51445687, 6.876972, 6.3481584, -0.16157198, -0.26777744, 9.367961
187022611012569, -0.41754755, 7.7156568, 6.515656, 0.06291032, 0.109992504, 10.106604
187022620651944, -0.4319045, 7.517052, 6.3948183, 0.029694676, 0.078528404, 9.878222
187022630291319, -0.37447673, 7.5756764, 6.3804617, 0.098059654, 0.1063261, 9.9106245
187022639930694, -0.357727, 7.4979095, 6.3589263, 0.102573276, 0.06883907, 9.837038
187022649570069, -0.36370903, 7.501499, 6.3218374, 0.10348761, 0.10001421, 9.815788
187022659209444, -0.37328035, 7.4416785, 6.3326054, 0.08275628, 0.05684471, 9.778023
187022668848819, -0.40797627, 7.426125, 6.398408, 0.03677857, 0.0092020035, 9.81081
187022678488194, -0.44865423, 7.381858, 6.407979, -0.013209701, -0.013168335, 9.785447
187022688127569, -0.48933223, 7.3639116, 6.3720865, -0.049420238, 0.013580322, 9.7502575
187022697766944, -0.50368917, 7.37109, 6.413961, -0.07010269, -0.008263111, 9.7836895
187022707406319, -0.47856453, 7.411768, 6.4761744, -0.04884672, -0.03595829, 9.853958
187022717045798, -0.49172506, 7.4440713, 6.5144596, -0.06253636, -0.03902197, 9.903976
187022726685173, -0.47976094, 7.4548388, 6.5539412, -0.05534017, -0.06277084, 9.937401
187022736324548, -0.5084748, 7.463214, 6.586244, -0.08525419, -0.071522236, 9.96616
187022745963923, -0.5288138, 7.4440713, 6.599405, -0.11085653, -0.08796692, 9.961224
187022755603298, -0.5383851, 7.442875, 6.5850477, -0.11321139, -0.07310343, 9.951429
187022765242673, -0.5084748, 7.4333034, 6.576673, -0.08490801, -0.08038902, 9.93738
187022774882048, -0.47736812, 7.4177504, 6.4761744, -0.040245652, -0.023329258, 9.858479
187022784521423, -0.46061835, 7.4356966, 6.3948183, -0.0074501038, 0.043818474, 9.81802
187022794160798, -0.39840496, 7.460821, 6.4091754, 0.05465591, 0.03277445, 9.843578
187022803800173, -0.36370903, 7.4787674, 6.45105, 0.08404505, 0.0038247108, 9.882974
187022813439548, -0.37806597, 7.5086775, 6.4402823, 0.075428724, 0.035999775, 9.899162
187022823078923, -0.38404804, 7.5146594, 6.428318, 0.072666526, 0.05010748, 9.896116
187022832718298, -0.4211368, 7.4847493, 6.439086, 0.027807117, 0.03146553, 9.882251
187022842357777, -0.42592242, 7.4584284, 6.4151573, 0.021944642, 0.033848286, 9.846939
187022851997152, -0.40677986, 7.4380894, 6.3948183, 0.037831545, 0.028372765, 9.81744
187022861636527, -0.40079778, 7.4452677, 6.355337, 0.051139235, 0.060813904, 9.796766
187022871275902, -0.39840496, 7.429714, 6.350551, 0.04967451, 0.05299759, 9.781799
187022880915277, -0.41635114, 7.4440713, 6.393622, 0.02656293, 0.03534746, 9.8216095
187022890554652, -0.40677986, 7.475178, 6.4677997, 0.030001879, -0.0025277138, 9.893194
187022900194027, -0.42711884, 7.5086775, 6.5371914, 0.0061148405, -0.025383472, 9.964783
187022909833402, -0.44506502, 7.509874, 6.6101727, -0.021584272, -0.06895208, 10.014263
187022919472777, -0.45822555, 7.513463, 6.6448684, -0.038787127, -0.08930731, 10.040264
187022929112152, -0.46899325, 7.495517, 6.6089764, -0.047798097, -0.06981468, 10.003708
187022938751527, -0.46181476, 7.4548388, 6.530013, -0.036715984, -0.040475845, 9.920988
187022948391006, -0.44985065, 7.4452677, 6.431907, -0.011280298, 0.023030281, 9.849018
187022958030381, -0.4354937, 7.4333034, 6.4163537, 0.0027729273, 0.020129204, 9.829184
187022967669756, -0.44506502, 7.4177504, 6.4199433, -0.010106325, 0.0101418495, 9.820213
187022977309131, -0.45224348, 7.408179, 6.4570317, -0.024171114, -0.021592617, 9.837575
187022986948506, -0.4941179, 7.393822, 6.4845495, -0.07083559, -0.03842306, 9.846605
187022996587881, -0.5096712, 7.396215, 6.483353, -0.08140242, -0.029717445, 9.848355
187023006227256, -0.47736812, 7.408179, 6.4163537, -0.035330415, 0.018481731, 9.812085
187023015866631, -0.45942193, 7.459625, 6.326623, 0.0067511797, 0.111040115, 9.791368
187023025506006, -0.40079778, 7.4739814, 6.3457656, 0.063072085, 0.09077215, 9.812114
187023035145381, -0.37328035, 7.4943204, 6.4259253, 0.079347014, 0.036078453, 9.878719
187023044784860, -0.37447673, 7.493124, 6.513263, 0.061744213, -0.026564121, 9.935049
187023054424235, -0.4426722, 7.4380894, 6.532406, -0.018316865, -0.056644917, 9.909082
187023064063610, -0.485743, 7.396215, 6.5431733, -0.0698812, -0.078566074, 9.886457
187023073702985, -0.5084748, 7.3950186, 6.524031, -0.088550925, -0.05986023, 9.874027
187023083342360, -0.47258246, 7.4440713, 6.474978, -0.03674233, -0.0016307831, 9.877323
187023092981735, -0.38644084, 7.503892, 6.48096, 0.057406545, 0.009576321, 9.92256
187023102621110, -0.30987054, 7.5756764, 6.4462643, 0.14893997, 0.060165405, 9.950649
187023112260485, -0.2739782, 7.605587, 6.452246, 0.18574059, 0.06326389, 9.975622
187023121899965, -0.32063824, 7.5900335, 6.468996, 0.13124168, 0.051537037, 9.976947
187023131539340, -0.38883367, 7.536195, 6.4618177, 0.053592443, 0.039025784, 9.934591
187023141178715, -0.4223332, 7.436893, 6.4594245, 0.0047035217, -0.012739658, 9.859499
187023150818090, -0.50129634, 7.3663044, 6.4666033, -0.0833264, -0.041811943, 9.814377
187023160457465, -0.55034924, 7.3172517, 6.45105, -0.1342997, -0.048056602, 9.769379
187023170096840, -0.5312066, 7.308877, 6.4331036, -0.11228007, -0.04510498, 9.750488
187023179736215, -0.51086766, 7.355537, 6.4211397, -0.08189118, -0.011692524, 9.776967
187023189375590, -0.48215377, 7.4033933, 6.454639, -0.05269736, -0.014884472, 9.833721
187023199015069, -0.43788654, 7.475178, 6.4965134, -0.0052829385, -0.012553215, 9.913353
187023208654444, -0.39361933, 7.5182486, 6.495317, 0.043883383, 0.0045380592, 9.943148
187023218293819, -0.39840496, 7.54457, 6.471389, 0.047043324, 0.039964676, 9.947578
187023227933194, -0.39720857, 7.539784, 6.418747, 0.05516869, 0.075781345, 9.909472
187023237572569, -0.44626144, 7.5026956, 6.424729, 7.391572E-4, 0.060081005, 9.887524
187023247211944, -0.4426722, 7.446464, 6.483353, -0.012989342, -0.018341541, 9.883277
187023256851319, -0.43788654, 7.4249287, 6.5108705, -0.009532452, -0.04830599, 9.884854
187023266490798, -0.4426722, 7.4237323, 6.4965134, -0.010132432, -0.034959316, 9.874772
187023276130173, -0.43070808, 7.4141607, 6.4498534, 0.0068211555, -0.009414673, 9.836451
187023285769548, -0.40558344, 7.428518, 6.418747, 0.038528442, 0.015704155, 9.825779
187023295408923, -0.37088752, 7.429714, 6.40439, 0.0746721, 0.018136024, 9.815727
187023305048298, -0.3912265, 7.4536424, 6.3828545, 0.057767987, 0.049999237, 9.820633
187023314687673, -0.39840496, 7.442875, 6.346962, 0.054432392, 0.07172966, 9.789329
187023324327048, -0.41754755, 7.442875, 6.375676, 0.029444098, 0.05340433, 9.808989
187023333966527, -0.4354937, 7.442875, 6.424729, 0.004082799, 0.022274971, 9.841884
187023343605902, -0.44626144, 7.459625, 6.5144596, -0.017691612, -0.030792713, 9.913733
187023353245277, -0.4977071, 7.440482, 6.5718875, -0.07702756, -0.067723274, 9.939198
187023362884652, -0.526421, 7.436893, 6.5551376, -0.10123414, -0.048404694, 9.92682
187023372524027, -0.50009996, 7.4440713, 6.5659056, -0.07465321, -0.058692455, 9.938129
187023382163402, -0.47856453, 7.4536424, 6.5431733, -0.048508584, -0.040941715, 9.929497
187023391802777, -0.4642076, 7.4416785, 6.513263, -0.033252418, -0.029661655, 9.900236
187023401442256, -0.41754755, 7.456035, 6.532406, 0.009874105, -0.047183514, 9.921534
187023411081631, -0.39960137, 7.4656067, 6.502496, 0.032837987, -0.023462296, 9.908369
187023420721006, -0.43669012, 7.429714, 6.448657, -0.0016763806, 0.002506733, 9.847665
187023430360381, -0.43908295, 7.442875, 6.4402823, 6.787777E-4, 0.017727375, 9.852215
187023439999756, -0.43070808, 7.4380894, 6.448657, 0.0073637962, 0.006716728, 9.853718
187023449639131, -0.41515473, 7.4476604, 6.437889, 0.026417613, 0.016819954, 9.853195
187023459278610, -0.4426722, 7.4548388, 6.4199433, 0.003666699, 0.040567398, 9.848076
187023468917985, -0.42951167, 7.448857, 6.4211397, 0.015093923, 0.032741547, 9.843764
187023478557360, -0.4426722, 7.4237323, 6.390033, 0.0019158125, 0.041682243, 9.805027
187023488196735, -0.41994038, 7.4153576, 6.3996043, 0.018239856, 0.01988411, 9.803982
187023497836110, -0.41515473, 7.4440713, 6.4031935, 0.024648845, 0.032078743, 9.827806
187023507475485, -0.42711884, 7.475178, 6.4163537, 0.016953826, 0.044755936, 9.860426
187023517114965, -0.4139583, 7.4847493, 6.448657, 0.018939376, 0.019453526, 9.88824
187023526754340, -0.38285163, 7.5182486, 6.495317, 0.045888662, -0.0021176338, 9.94272
187023536393715, -0.37208393, 7.560123, 6.501299, 0.06294572, 0.018447876, 9.977799
187023546033090, -0.36610186, 7.5529447, 6.533602, 0.063717484, -0.0088329315, 9.99324
187023555672465, -0.38763726, 7.536195, 6.562316, 0.03536147, -0.03511858, 10.000301
187023565311840, -0.39601216, 7.499106, 6.512067, 0.030693054, -0.015923977, 9.939781
187023574951319, -0.4319045, 7.475178, 6.437889, 0.008550525, 0.036857605, 9.874706
