timestamp_acc,device_acc_x,device_acc_y,device_acc_z,earth_acc_x,earth_acc_y,earth_acc_z
1127273217703488, -1.5361922, 3.8321054, 9.02453, -0.06392071, -0.021421432, 9.923836
1127273227342447, -1.5517455, 3.8440695, 9.020942, -0.051766753, -0.037136078, 9.927643
1127273236981405, -1.5613167, 3.8536408, 9.010174, -0.04365191, -0.053031445, 9.923042
1127273246620363, -1.5780666, 3.8500516, 9.038888, -0.026758134, -0.04281783, 9.950484
1127273256259322, -1.5804594, 3.8321054, 9.080762, -0.019312412, -0.011367559, 9.982116
1127273265898176, -1.5864414, 3.7974095, 9.105886, -0.0038926005, 0.024726152, 9.992681
1127273275537134, -1.5876378, 3.8117664, 9.1681, -0.0095924735, 0.035681248, 10.054991
1127273285176092, -1.5828521, 3.8237305, 9.200403, -0.01880452, 0.038716316, 10.088205
1127273294815051, -1.5732809, 3.8165522, 9.18485, -0.024473011, 0.04156494, 10.0697775
1127273304453905, -1.5744773, 3.842873, 9.157332, -0.030775577, 0.0069606304, 10.054968
1127273314092863, -1.5517455, 3.8548372, 9.135797, -0.053697214, -0.0036563873, 10.036312
1127273323731822, -1.550549, 3.845266, 9.133404, -0.05156152, 0.0039527416, 10.030287
1127273333370780, -1.5529419, 3.8321054, 9.115458, -0.04329163, 0.009282351, 10.00931
1127273343009634, -1.5696917, 3.8153558, 9.048459, -0.020967223, -0.0052273273, 9.944596
1127273352648592, -1.5637096, 3.8069808, 9.005388, -0.024103694, -0.011980772, 9.901241
1127273362287551, -1.5936198, 3.8081772, 8.968299, 0.0027950034, -0.036331415, 9.872736
1127273371926509, -1.5972091, 3.7866418, 8.9348, 0.014531121, -0.032978773, 9.834587
1127273381565467, -1.5936198, 3.7794633, 8.916854, 0.013293564, -0.031601667, 9.81494
1127273391204322, -1.5960127, 3.7615173, 8.904889, 0.021877438, -0.02099371, 9.797569
1127273400843280, -1.6079768, 3.8093736, 8.924032, 0.017778233, -0.057042837, 9.835226
1127273410482238, -1.5936198, 3.8213377, 8.971889, -1.8166006E-4, -0.042814255, 9.881052
1127273420121197, -1.5637096, 3.8117664, 9.019745, -0.024356663, -0.0055258274, 9.916143
1127273429760051, -1.5972091, 3.7854455, 9.029316, 0.01611866, 0.010200024, 9.920124
1127273439399009, -1.6175481, 3.7890346, 9.014959, 0.034305647, -0.0052187443, 9.911686
1127273449037967, -1.6486548, 3.7686956, 8.983852, 0.06539483, -0.013301611, 9.8806
1127273458676926, -1.6701902, 3.7555351, 9.022138, 0.08956836, 0.0061864853, 9.913853
1127273468315884, -1.6797615, 3.7591243, 9.078369, 0.09328864, 0.0207057, 9.967962
1127273477954738, -1.6773686, 3.7806597, 9.15135, 0.07879026, 0.028900146, 10.042267
1127273487593697, -1.68694, 3.7962132, 9.215957, 0.0812803, 0.039241552, 10.108547
1127273497232655, -1.6558332, 3.8033917, 9.202796, 0.049951836, 0.036459923, 10.094316
1127273506871613, -1.6534405, 3.7998023, 9.104691, 0.050110735, 0.0010738373, 10.003262
1127273516510467, -1.6773686, 3.7794633, 9.032906, 0.08041614, -0.015676737, 9.934011
1127273526149426, -1.6378871, 3.7651064, 8.943174, 0.04931383, -0.026319027, 9.840525
1127273535788384, -1.5960127, 3.7555351, 8.974281, 0.012753099, 0.007668972, 9.858438
1127273545427342, -1.564906, 3.7758741, 9.007781, -0.023313254, 0.013808966, 9.891691
1127273555066197, -1.5409778, 3.790231, 9.012567, -0.050654262, 0.010327339, 9.897685
1127273564705155, -1.5266209, 3.822534, 9.05803, -0.07452053, 0.005175352, 9.949103
1127273574344113, -1.5206388, 3.842873, 9.060423, -0.082941175, -0.010602713, 9.958126
1127273583983072, -1.5206388, 3.851248, 9.089137, -0.08643508, -0.0068166256, 9.98746
1127273593622030, -1.5230316, 3.8739798, 9.078369, -0.08762777, -0.031208277, 9.986763
1127273603260884, -1.5302101, 3.8871403, 9.065208, -0.083393365, -0.04882717, 9.980988
1127273612899842, -1.5002998, 3.888337, 9.022138, -0.10974567, -0.05666423, 9.937495
1127273622538801, -1.5026926, 3.9026937, 9.016156, -0.11205743, -0.072223425, 9.937928
1127273632177759, -1.5086746, 3.9074793, 9.025727, -0.10431419, -0.06931853, 9.9495
1127273641816613, -1.4955142, 3.8907297, 9.005388, -0.108465746, -0.05776143, 9.922514
1127273651455572, -1.5278172, 3.8177485, 8.98146, -0.052645355, -0.015115738, 9.877907
1127273661094530, -1.5577276, 3.8033917, 9.001799, -0.01865609, -0.0021586418, 9.895671
1127273670733488, -1.5960127, 3.7507496, 9.020942, 0.033179596, 0.037862062, 9.899001
1127273680372342, -1.6307086, 3.7423747, 9.068798, 0.06819451, 0.05367565, 9.944857
1127273690011301, -1.6498512, 3.760321, 9.102298, 0.07640958, 0.04427409, 9.9852915
1127273699650259, -1.666601, 3.7555351, 9.102298, 0.09018481, 0.041476965, 9.98617
1127273709289217, -1.68694, 3.751946, 9.093923, 0.106922805, 0.0348742, 9.980462
1127273718928176, -1.7012969, 3.7710886, 9.059227, 0.10936673, -4.4608116E-4, 9.958572
1127273728567030, -1.7156538, 3.7627137, 9.02812, 0.12507167, -0.009762526, 9.929386
1127273738205988, -1.707279, 3.778267, 9.036494, 0.111131236, -0.015892982, 9.941616
1127273747844947, -1.6749759, 3.7818563, 9.071191, 0.078579456, 0.005055189, 9.969368
1127273757483905, -1.6450655, 3.8093736, 9.114262, 0.04005091, 0.007853746, 10.014274
1127273767122759, -1.625923, 3.822534, 9.144172, 0.017268628, 0.014221668, 10.043445
1127273776761717, -1.6115661, 3.818945, 9.1465645, 0.0052646548, 0.022752285, 10.041942
1127273786400676, -1.599602, 3.8069808, 9.103494, -0.0020247698, 0.021562338, 9.996247
1127273796039634, -1.5816557, 3.7914274, 9.007781, -0.012360573, 0.0030896664, 9.900329
1127273805678488, -1.558924, 3.784249, 8.945567, -0.029740438, -0.010062695, 9.837327
1127273815317447, -1.5254245, 3.8069808, 8.906086, -0.067166865, -0.03204155, 9.804737
1127273824956405, -1.5110675, 3.8368912, 8.891729, -0.08768977, -0.05787635, 9.80086
1127273834595363, -1.5314065, 3.8584266, 8.919247, -0.07672559, -0.07058573, 9.837417
1127273844234217, -1.544567, 3.8739798, 8.937193, -0.06311548, -0.07814503, 9.861883
1127273853873176, -1.5529419, 3.8668015, 8.993423, -0.054191276, -0.051095486, 9.911605
1127273863512134, -1.5661024, 3.863212, 9.025727, -0.036907375, -0.03889227, 9.94173
1127273873151092, -1.5732809, 3.8356948, 9.038888, -0.022392154, -0.012175798, 9.944275
1127273882789947, -1.5744773, 3.8177485, 9.046066, -0.017199486, 0.0046081543, 9.944102
1127273892428905, -1.570888, 3.7998023, 9.050852, -0.014904588, 0.023125887, 9.940993
1127273902067863, -1.5529419, 3.8081772, 9.052048, -0.036799997, 0.0192523, 9.942418
1127273911706822, -1.5457634, 3.8333018, 9.014959, -0.050221026, -0.016527176, 9.9171715
1127273921345676, -1.5541383, 3.8488553, 9.01137, -0.046955943, -0.034327745, 9.921211
1127273930984634, -1.5816557, 3.8368912, 9.022138, -0.012580365, -0.026415586, 9.930835
1127273940623592, -1.6175481, 3.8380876, 9.0544405, 0.01981926, -0.024091959, 9.966409
1127273950262551, -1.6414764, 3.8333018, 9.092726, 0.04461862, -0.011528492, 10.003207
1127273959901405, -1.6450655, 3.8009987, 9.111869, 0.058678776, 0.022437334, 10.008799
1127273969540363, -1.6354942, 3.7962132, 9.097511, 0.04656984, 0.02184248, 9.992402
1127273979179322, -1.6307086, 3.772285, 9.046066, 0.048086345, 0.021800756, 9.935687
1127273988818280, -1.6067804, 3.792624, 9.007781, 0.01668188, -0.0041344166, 9.904828
1127273998457134, -1.6115661, 3.760321, 8.955139, 0.033427313, 2.3889542E-4, 9.845333
1127274008096092, -1.6043876, 3.7651064, 8.975478, 0.024603263, 0.0075752735, 9.864514
1127274017735051, -1.6091732, 3.7950168, 9.010174, 0.019936517, -0.004301548, 9.9083
1127274027373905, -1.6031911, 3.7866418, 9.005388, 0.021954626, 0.004458666, 9.899769
1127274037012863, -1.6151553, 3.8009987, 8.991031, 0.029179603, -0.01697731, 9.894132
1127274046651822, -1.6247265, 3.8117664, 8.974281, 0.035681337, -0.036013365, 9.884555
1127274056290780, -1.625923, 3.8165522, 8.957532, 0.034991413, -0.047444105, 9.871352
1127274065929634, -1.6115661, 3.804588, 8.962317, 0.022015572, -0.033613205, 9.868818
1127274075568592, -1.599602, 3.822534, 9.093923, 5.9741735E-4, 0.0066633224, 9.993491
1127274085207551, -1.5768701, 3.8129628, 9.1465645, -0.01920247, 0.041120052, 10.0340805
1127274094846509, -1.5828521, 3.772285, 9.164511, 3.8832426E-4, 0.08164883, 10.035794
1127274104485363, -1.6283158, 3.7710886, 9.116654, 0.045507073, 0.050441027, 9.999065
1127274114124322, -1.6462619, 3.784249, 9.038888, 0.062185854, 9.4127655E-4, 9.936214
1127274123763280, -1.6546369, 3.7746778, 8.987442, 0.07621029, -0.011132717, 9.887072
1127274133402238, -1.6462619, 3.790231, 8.995817, 0.06388515, -0.017593384, 9.899312
1127274143041092, -1.6175481, 3.804588, 9.025727, 0.031446397, -0.0097785, 9.927438
1127274152680051, -1.5828521, 3.8153558, 9.062816, -0.0061059594, 0.005715847, 9.9597645
1127274162319009, -1.5361922, 3.8416767, 9.038888, -0.058168083, -0.013641596, 9.94064
1127274171957863, -1.5397813, 3.8584266, 9.001799, -0.060074866, -0.043931007, 9.913891
1127274181596822, -1.5326029, 3.8464625, 8.976674, -0.06147255, -0.040222883, 9.885312
1127274191235780, -1.5337993, 3.8500516, 8.9826565, -0.06003526, -0.040701628, 9.892334
1127274200874738, -1.5074782, 3.8500516, 9.012567, -0.08405335, -0.019371986, 9.915357
1127274210513592, -1.4871392, 3.8668015, 9.035298, -0.10951041, -0.017421722, 9.9392185
1127274220152551, -1.4823537, 3.8703907, 9.041281, -0.11358318, -0.015044689, 9.945298
1127274229791509, -1.5098711, 3.8775692, 9.0029955, -0.08749919, -0.043738365, 9.917641
1127274239430363, -1.5254245, 3.8763726, 8.969496, -0.071825154, -0.06226635, 9.889186
1127274249069322, -1.5541383, 3.851248, 8.965906, -0.034730107, -0.0512352, 9.880846
1127274258708280, -1.558924, 3.4600215, 8.932407, 0.10941103, 0.2679429, 9.700832
1127274268347134, -1.5948163, 4.3238306, 9.138189, -0.16783422, -0.39991474, 10.22533
1127274277986092, -1.5158532, 3.3667014, 8.958728, 0.10423334, 0.3713591, 9.682073
1127274287625051, -1.6414764, 4.0977087, 9.239884, -0.042541392, -0.17453718, 10.238598
1127274297264009, -1.5014962, 3.7830527, 9.0233345, -0.060870633, 0.040097, 9.898548
1127274306902863, -1.7240287, 3.5593238, 9.056833, 0.22537613, 0.17697191, 9.878522
1127274316541822, -1.550549, 4.2460637, 9.038888, -0.17853463, -0.3632908, 10.098065
1127274326180780, -1.7599211, 3.1441689, 8.944371, 0.40172487, 0.47662878, 9.622701
1127274335819634, -1.599602, 4.475775, 9.201599, -0.21848129, -0.504308, 10.342083
1127274345458592, -1.7060826, 3.03051, 8.9826565, 0.38415048, 0.5986972, 9.606083
1127274355097551, -1.6462619, 4.4518466, 9.292527, -0.16928723, -0.461164, 10.4229965
1127274364736405, -1.5876378, 3.2745779, 8.949157, 0.1834535, 0.41305494, 9.650211
1127274374375363, -1.713261, 4.112066, 9.213564, 0.014439091, -0.22562718, 10.231471
1127274384014322, -1.5266209, 3.7483566, 9.013762, -0.034293026, 0.058909178, 9.880486
1127274393653280, -1.7084754, 3.5928233, 9.102298, 0.19078112, 0.17253137, 9.930405
1127274403292134, -1.4644074, 4.2221355, 9.0951185, -0.25910756, -0.29111838, 10.126213
1127274412931092, -1.6630118, 3.1920254, 8.971889, 0.2962014, 0.46861768, 9.651013
1127274422570051, -1.5122639, 4.5391846, 9.145369, -0.3347544, -0.54602265, 10.3013935
1127274432208905, -1.5972091, 3.0999017, 8.807981, 0.25623107, 0.51973987, 9.455433
1127274441847863, -1.5349957, 4.510471, 9.101101, -0.3014806, -0.5522289, 10.253525
1127274451486822, -1.5050855, 3.2853456, 8.775677, 0.1064955, 0.36738944, 9.482878
1127274461125676, -1.5756737, 4.211368, 9.016156, -0.14299434, -0.33724403, 10.068529
1127274470764634, -1.4344971, 3.749553, 8.831908, -0.1084459, 0.026258707, 9.70088
1127274480403592, -1.6366907, 3.6921253, 8.958728, 0.10087238, 0.065962315, 9.826231
1127274490042447, -1.4177474, 4.241278, 8.9348, -0.2934251, -0.34715176, 9.981108
1127274499681405, -1.6594225, 3.2482567, 8.895318, 0.2705944, 0.41872382, 9.601198
1127274509320363, -1.5182459, 4.5008993, 9.145369, -0.29088244, -0.51094747, 10.288598
1127274518959217, -1.6618153, 3.0197423, 8.897711, 0.35202214, 0.6016295, 9.516504
1127274528598176, -1.5888343, 4.4781675, 9.175279, -0.22894034, -0.4991243, 10.318071
1127274538237134, -1.585245, 3.211168, 8.879765, 0.2198359, 0.44482112, 9.561832
1127274547875988, -1.707279, 4.188636, 9.2075815, -0.017489508, -0.28147244, 10.254731
1127274557514947, -1.5361922, 3.6610186, 8.993423, 0.010851264, 0.12916112, 9.829944
1127274567153905, -1.719243, 3.7483566, 9.12144, 0.14883162, 0.052640438, 10.009083
1127274576792759, -1.4871392, 4.206582, 9.101101, -0.22380671, -0.28270817, 10.129511
1127274586431717, -1.6689938, 3.2793634, 9.030513, 0.2693706, 0.42340755, 9.738486
1127274596070676, -1.4943178, 4.5224347, 9.189635, -0.317175, -0.5214474, 10.332585
1127274605709530, -1.6331015, 3.068795, 8.937193, 0.29542875, 0.5908196, 9.566692
1127274615348488, -1.5816557, 4.5320063, 9.21476, -0.23866537, -0.54272056, 10.373091
1127274624987447, -1.538585, 3.1477582, 8.867801, 0.18689485, 0.5196519, 9.518852
1127274634626301, -1.6283158, 4.2257247, 9.150154, -0.09761271, -0.3164816, 10.204107
1127274644265259, -1.4979069, 3.609573, 8.868998, -0.0089721605, 0.12876701, 9.690987
1127274653904113, -1.6857436, 3.7950168, 8.983852, 0.099054106, -0.036500692, 9.896583
1127274663543072, -1.4488541, 4.130012, 8.908479, -0.2407202, -0.2775209, 9.918781
1127274673182030, -1.6642082, 3.298506, 8.8905325, 0.25566697, 0.35484648, 9.617693
1127274682820884, -1.4871392, 4.487739, 9.077172, -0.33889085, -0.52596974, 10.215426
1127274692459842, -1.6187445, 3.0604203, 8.88455, 0.2972585, 0.57733774, 9.513152
1127274702098801, -1.5421742, 4.5224347, 9.193225, -0.28916025, -0.5203717, 10.343679
1127274711737655, -1.5696917, 3.158526, 8.878569, 0.21459499, 0.49536633, 9.538226
1127274721376613, -1.6570296, 4.301099, 9.164511, -0.10922481, -0.3902657, 10.250327
1127274731015467, -1.524228, 3.5593238, 8.938389, 0.03500393, 0.19579983, 9.738956
1127274740654426, -1.7108682, 3.8201413, 9.134601, 0.11524139, -0.0038194656, 10.047297
1127274750293384, -1.5062819, 4.0773697, 9.055637, -0.16329879, -0.20140791, 10.0414715
1127274759932238, -1.6941184, 3.3284163, 9.02453, 0.26805753, 0.37698603, 9.75585
1127274769571197, -1.5014962, 4.4542394, 9.180064, -0.29795352, -0.46793747, 10.298573
1127274779210155, -1.6594225, 3.0747771, 8.986245, 0.33275422, 0.57448626, 9.61872
1127274788849009, -1.5672989, 4.5487556, 9.2997055, -0.27898857, -0.5270481, 10.453541
1127274798487967, -1.6079768, 3.150151, 8.961121, 0.25253797, 0.5168588, 9.616641
1127274808126822, -1.6522441, 4.3130627, 9.218349, -0.11840162, -0.37306333, 10.303261
1127274817765780, -1.5625132, 3.4863427, 8.91805, 0.08895436, 0.23777676, 9.698617
1127274827404738, -1.7347964, 3.818945, 9.041281, 0.13280612, -0.05103922, 9.96586
1127274837043592, -1.5326029, 3.9684963, 8.916854, -0.10614613, -0.16874313, 9.87767
1127274846682551, -1.7120646, 3.32722, 8.926425, 0.28274783, 0.33909297, 9.668903
1127274856321405, -1.4835501, 4.406383, 9.0747795, -0.29304716, -0.46979833, 10.181461
1127274865960363, -1.6366907, 3.0843484, 8.955139, 0.28366876, 0.5804603, 9.590051
1127274875599322, -1.5290136, 4.6121655, 9.208778, -0.31511948, -0.5960672, 10.390236
1127274885238176, -1.5349957, 3.1728828, 8.848659, 0.16018927, 0.50020814, 9.510325
1127274894877134, -1.5672989, 4.4255257, 9.122637, -0.20996243, -0.4827366, 10.24632
1127274904515988, -1.4560326, 3.5162528, 8.843872, -0.022169799, 0.22123384, 9.625421
1127274914154947, -1.5984055, 3.9373896, 9.026923, -0.026867405, -0.1066463, 9.976532
1127274923793905, -1.4141582, 3.9804604, 8.8701935, -0.21017638, -0.16195607, 9.821092
1127274933432759, -1.6283158, 3.4612179, 8.879765, 0.1572712, 0.23430252, 9.664473
1127274943071717, -1.457229, 4.4231324, 9.0029955, -0.3109647, -0.50017715, 10.119026
1127274952710676, -1.672583, 3.1082766, 8.88814, 0.31898576, 0.53042316, 9.543314
1127274962349530, -1.5672989, 4.558327, 9.21476, -0.2537494, -0.56002045, 10.381164
1127274971988488, -1.6187445, 3.0747771, 8.955139, 0.27680424, 0.5967908, 9.583128
1127274981627342, -1.6845472, 4.369294, 9.316455, -0.0958744, -0.38915205, 10.419412
1127274991266301, -1.5936198, 3.3726835, 9.050852, 0.14921737, 0.37901497, 9.780932
1127275000905155, -1.7347964, 3.926622, 9.314062, 0.09097424, -0.02790761, 10.255272
1127275010544113, -1.5637096, 3.867998, 9.135797, -0.051278174, -0.0089735985, 10.043239
1127275020183072, -1.7886349, 3.4121652, 9.069994, 0.31528008, 0.28855705, 9.84501
1127275029821926, -1.5876378, 4.3094735, 9.116654, -0.18623315, -0.39697742, 10.198691
1127275039460884, -1.7563318, 3.0879376, 8.987442, 0.39717185, 0.5494132, 9.640258
1127275049099738, -1.5828521, 4.5391846, 9.257831, -0.27640554, -0.53816295, 10.413983
1127275058738697, -1.6331015, 3.080759, 8.921639, 0.283729, 0.56783414, 9.557763
1127275068377655, -1.5900307, 4.4602213, 9.212367, -0.24014474, -0.47925687, 10.344183
1127275078016509, -1.5038891, 3.4229329, 8.860622, 0.045768782, 0.28014064, 9.61292
1127275087655467, -1.6319051, 4.06062, 9.022138, -0.05784963, -0.22965503, 10.0247
1127275097294322, -1.4285151, 3.8847475, 8.805588, -0.1845108, -0.10748243, 9.727522
1127275106933280, -1.6103697, 3.5330026, 8.8701935, 0.104901254, 0.17487884, 9.680606
1127275116572134, -1.3806586, 4.3537407, 8.926425, -0.3866303, -0.43230844, 10.010295
1127275126211092, -1.5828521, 3.1692936, 8.811569, 0.20852542, 0.47329497, 9.482939
1127275135850051, -1.4727824, 4.59063, 9.018549, -0.37777108, -0.6173136, 10.200657
1127275145488905, -1.6127625, 3.0843484, 8.696713, 0.27915442, 0.48456287, 9.350633
1127275155127863, -1.6235301, 4.4674, 9.055637, -0.19872306, -0.55561376, 10.210284
1127275164766717, -1.579263, 3.324827, 8.859426, 0.15565838, 0.3614745, 9.5855665
1127275174405676, -1.7180467, 4.0761733, 9.229117, 0.01829347, -0.18161774, 10.232799
1127275184044530, -1.524228, 3.802195, 9.128618, -0.06669587, 0.071092606, 10.005106
1127275193683488, -1.7371893, 3.5473595, 9.206385, 0.21524474, 0.2592411, 10.012269
1127275203322342, -1.5158532, 4.281956, 9.163314, -0.23300725, -0.32952, 10.219412
1127275212961301, -1.7312071, 3.1537402, 9.022138, 0.34074852, 0.52958226, 9.692552
1127275222600259, -1.5888343, 4.558327, 9.254242, -0.2523057, -0.5502558, 10.420043
1127275232239113, -1.6773686, 3.0532417, 8.94796, 0.32487628, 0.5898938, 9.578535
1127275241878072, -1.6546369, 4.459025, 9.270991, -0.17524281, -0.48161626, 10.407179
1127275251516926, -1.5804594, 3.286542, 9.001799, 0.16367194, 0.43466616, 9.701333
1127275261155884, -1.6941184, 4.150351, 9.267402, -0.039251044, -0.2265091, 10.2921
1127275270794738, -1.5098711, 3.7770705, 8.979067, -0.07405278, 0.030019045, 9.857142
1127275280433697, -1.7228323, 3.6083765, 8.991031, 0.18615833, 0.11545849, 9.837641
1127275290072551, -1.4931214, 4.2520456, 8.9013, -0.26479954, -0.39010215, 9.96595
1127275299711509, -1.6857436, 3.2123644, 8.815159, 0.29188216, 0.4057827, 9.519358
1127275309350467, -1.477568, 4.5391846, 9.072387, -0.37690204, -0.5615351, 10.229282
1127275318989322, -1.558924, 3.0317063, 8.790034, 0.23163435, 0.58372235, 9.407008
1127275328628280, -1.5409778, 4.506881, 9.08794, -0.2909819, -0.54196167, 10.242013
1127275338267134, -1.5469599, 3.2542388, 8.763713, 0.13989064, 0.38862228, 9.466532
1127275347906092, -1.6713866, 4.1874394, 9.077172, -0.062843576, -0.3106842, 10.130289
1127275357544947, -1.550549, 3.7040894, 8.891729, -0.006816134, 0.055012465, 9.756243
1127275367183905, -1.7443677, 3.6586258, 8.988638, 0.19171974, 0.07361007, 9.858085
1127275376822759, -1.5302101, 4.1874394, 8.940782, -0.20290962, -0.3281777, 9.98323
1127275386461717, -1.7491534, 3.2087753, 8.91805, 0.36323985, 0.41629362, 9.621962
1127275396100676, -1.579263, 4.4841495, 9.195618, -0.27072784, -0.4977417, 10.336346
1127275405739530, -1.6905292, 3.0005996, 8.979067, 0.38512322, 0.6370716, 9.588061
1127275415378488, -1.6761723, 4.459025, 9.285348, -0.18503568, -0.4737556, 10.423601
1127275425017342, -1.6749759, 3.1609187, 8.939586, 0.29188713, 0.49436402, 9.611636
1127275434656301, -1.7288144, 4.1718864, 9.209974, -0.016811147, -0.2739544, 10.253864
1127275444295155, -1.5672989, 3.629912, 8.979067, 0.022934005, 0.13976145, 9.810009
1127275453934113, -1.7312071, 3.739982, 9.0747795, 0.13580069, 0.034205914, 9.965769
1127275463572967, -1.477568, 4.191029, 9.048459, -0.25516614, -0.28911042, 10.073423
1127275473211926, -1.6618153, 3.2817562, 9.044869, 0.24702384, 0.43182397, 9.751602
1127275482850780, -1.5122639, 4.4985065, 9.238688, -0.32808295, -0.47839713, 10.370168
1127275492489738, -1.6594225, 3.0448668, 8.925228, 0.31469536, 0.5855975, 9.5521
1127275502128592, -1.6366907, 4.51406, 9.123833, -0.22272614, -0.57087636, 10.291954
1127275511767551, -1.6271194, 3.1573296, 8.766106, 0.25539532, 0.4411931, 9.444626
1127275521406509, -1.6713866, 4.2185464, 9.068798, -0.082281515, -0.36086345, 10.133892
1127275531045363, -1.4668003, 3.5712879, 8.835498, -0.04600507, 0.1638825, 9.640677
1127275540684322, -1.6091732, 3.7962132, 9.049655, 0.007915854, 0.017915249, 9.9446745
1127275550323176, -1.3555341, 4.17069, 9.013762, -0.34601563, -0.25696635, 10.014702
1127275559962134, -1.5661024, 3.3619158, 9.02453, 0.10014698, 0.3935249, 9.748458
1127275569600988, -1.3974084, 4.520042, 9.225528, -0.40454796, -0.48997927, 10.348436
1127275579239947, -1.579263, 3.0867412, 8.995817, 0.2071875, 0.6132145, 9.619137
1127275588878801, -1.5230316, 4.610969, 9.232706, -0.3151254, -0.5936992, 10.410175
1127275598517759, -1.5326029, 3.2207394, 8.847462, 0.14046645, 0.45098805, 9.52767
1127275608156613, -1.6007984, 4.3609195, 9.208778, -0.16990396, -0.40626645, 10.304749
1127275617795572, -1.4548361, 3.5928233, 8.957532, -0.051728874, 0.1948402, 9.758158
1127275627434426, -1.6618153, 3.8572302, 9.131011, 0.046626374, -0.026546955, 10.05049
1127275637073384, -1.5170496, 4.058227, 9.02453, -0.158986, -0.19725657, 10.007428
1127275646712238, -1.7455641, 3.2805598, 8.98146, 0.33009762, 0.38150024, 9.706759
1127275656351197, -1.5637096, 4.3704906, 9.145369, -0.21838066, -0.4284408, 10.244653
1127275665990051, -1.747957, 2.9982069, 8.989835, 0.4195321, 0.6335914, 9.606471
1127275675629009, -1.6510476, 4.485346, 9.32483, -0.1804362, -0.49144602, 10.465309
1127275685267967, -1.6713866, 3.0412776, 8.949157, 0.33090246, 0.6002319, 9.573951
1127275694906822, -1.7024933, 4.2771707, 9.1872425, -0.054061443, -0.37412882, 10.269138
1127275704545780, -1.6247265, 3.4695928, 8.886943, 0.13642018, 0.21192527, 9.674299
1127275714184634, -1.7862421, 3.8560338, 9.092726, 0.15377733, -0.07596779, 10.035333
1127275723823592, -1.5888343, 3.9756749, 8.995817, -0.07397951, -0.16230679, 9.961089
1127275733462447, -1.7850457, 3.35713, 9.018549, 0.32034394, 0.31916165, 9.776832
1127275743101405, -1.558924, 4.3932223, 9.116654, -0.2566956, -0.45777774, 10.225878
1127275752740259, -1.6977077, 3.0652058, 8.879765, 0.3487146, 0.545161, 9.524132
1127275762379217, -1.5517455, 4.5714874, 9.129815, -0.3194108, -0.60339785, 10.305039
1127275772018072, -1.579263, 3.12383, 8.768498, 0.22015256, 0.47594547, 9.426768
1127275781657030, -1.5661024, 4.3848476, 9.037691, -0.23737927, -0.47254777, 10.152822
1127275791295884, -1.4536397, 3.4492538, 8.745767, -0.016252875, 0.23165989, 9.510253
1127275800934842, -1.6019948, 3.9290147, 8.991031, -0.039155588, -0.12085056, 9.941128
1127275810573697, -1.4081762, 3.9601214, 8.874979, -0.22839935, -0.13900542, 9.816277
1127275820212655, -1.6618153, 3.4037902, 8.9312105, 0.20019338, 0.28488755, 9.694983
1127275829851509, -1.4883357, 4.3633122, 9.093923, -0.28779536, -0.4328456, 10.182481
1127275839490467, -1.6689938, 3.0759735, 8.94796, 0.32096946, 0.5671165, 9.585849
1127275849129426, -1.5720844, 4.5415773, 9.239884, -0.28341678, -0.55201554, 10.396529
1127275858768280, -1.6115661, 3.0903304, 8.944371, 0.26153696, 0.5669613, 9.579103
1127275868407238, -1.6079768, 4.45065, 9.282955, -0.22061206, -0.46985006, 10.406618
1127275878046092, -1.4991034, 3.473182, 9.048459, 0.025477275, 0.3097663, 9.802465
1127275887685051, -1.6701902, 4.0354953, 9.32483, -0.014919102, -0.11004996, 10.296354
1127275897323905, -1.4871392, 3.918247, 9.171689, -0.14324066, -0.02363658, 10.082809
1127275906962863, -1.7168503, 3.4743786, 9.194421, 0.23250112, 0.29044676, 9.970849
1127275916601717, -1.4799608, 4.319045, 9.235099, -0.29573217, -0.3332193, 10.292375
1127275926240676, -1.6713866, 3.0699914, 9.068798, 0.331038, 0.6031699, 9.694744
1127275935879530, -1.4943178, 4.5116673, 9.250652, -0.36070833, -0.50116515, 10.381783
1127275945518488, -1.5529419, 3.0783663, 8.878569, 0.22180443, 0.55623627, 9.505701
1127275955157342, -1.5433706, 4.487739, 9.12503, -0.30754563, -0.54351544, 10.266351
1127275964796301, -1.4703895, 3.406183, 8.792427, 0.014564753, 0.26277375, 9.539478
1127275974435155, -1.6366907, 4.0414777, 9.0544405, -0.05301504, -0.21623659, 10.04717
1127275984074113, -1.5014962, 3.8404803, 8.833105, -0.10435651, -0.08930969, 9.747239
1127275993712967, -1.7503498, 3.5102708, 8.882157, 0.24248455, 0.13777661, 9.705704
1127276003351926, -1.5373886, 4.2592244, 8.959925, -0.21087174, -0.40944862, 10.028593
1127276012990884, -1.7407784, 3.0532417, 8.864211, 0.37791386, 0.52951646, 9.51334
1127276022629738, -1.5840486, 4.49731, 9.12144, -0.25016525, -0.5602195, 10.274203
1127276032268697, -1.6749759, 2.9874392, 8.797213, 0.3377642, 0.58222604, 9.416379
1127276041907551, -1.6462619, 4.382455, 9.131011, -0.14849153, -0.47945547, 10.2488785
1127276051546509, -1.6007984, 3.266203, 8.885747, 0.18331316, 0.38961625, 9.591755
1127276061185363, -1.7300107, 4.0307097, 9.176475, 0.039132178, -0.18423867, 10.169158
1127276070824322, -1.5529419, 3.7471602, 9.038888, -0.031611204, 0.047335625, 9.907124
1127276080463176, -1.7694924, 3.522235, 9.141779, 0.24892406, 0.21133232, 9.950012
1127276090102134, -1.5481563, 4.2664027, 9.160921, -0.22270322, -0.34610868, 10.215287
1127276099740988, -1.7383857, 3.1561332, 9.086744, 0.33818364, 0.5168729, 9.755539
1127276109379947, -1.5804594, 4.5188456, 9.365508, -0.28787458, -0.5019171, 10.502178
1127276119018801, -1.6893328, 3.0173492, 9.089137, 0.34331658, 0.6370437, 9.697781
1127276128657759, -1.6426728, 4.4434714, 9.383454, -0.1933957, -0.4562111, 10.499834
1127276138296717, -1.5924234, 3.2135608, 8.987442, 0.18665197, 0.4545467, 9.664133
1127276147935572, -1.713261, 4.074977, 9.182457, -0.0034452975, -0.23631263, 10.188345
1127276157574530, -1.5469599, 3.7328033, 8.9312105, -0.0364099, 0.004550457, 9.802656
1127276167213384, -1.6821543, 3.609573, 9.008977, 0.13219605, 0.10830045, 9.848408
1127276176852342, -1.4213367, 4.229314, 9.02453, -0.3291546, -0.32978034, 10.0564575
1127276186491197, -1.5972091, 3.2303107, 8.963513, 0.197409, 0.44736147, 9.648392
1127276196130155, -1.4069797, 4.554738, 9.220742, -0.45236188, -0.52400327, 10.357031
1127276205769009, -1.5074782, 3.0699914, 8.943174, 0.18280582, 0.6046269, 9.553989
1127276215407967, -1.4859428, 4.5427737, 9.226724, -0.35325286, -0.53537583, 10.371394
1127276225046822, -1.4823537, 3.286542, 8.891729, 0.069259286, 0.40911698, 9.585897
1127276234685780, -1.5637096, 4.260421, 9.186047, -0.18079683, -0.3423071, 10.238651
1127276244324738, -1.4057833, 3.7710886, 8.927621, -0.1649499, 0.019350529, 9.791433
1127276253963592, -1.6079768, 3.7328033, 8.997013, 0.03710839, 0.031518698, 9.872351
1127276263602551, -1.375873, 4.2341, 8.903693, -0.33515498, -0.3808794, 9.94178
1127276273241405, -1.585245, 3.2554352, 8.843872, 0.1695176, 0.3904698, 9.546923
1127276282880363, -1.4584254, 4.5188456, 9.079565, -0.3452029, -0.579144, 10.224034
1127276292519217, -1.6319051, 3.0185459, 8.851051, 0.3029004, 0.59291005, 9.46956
1127276302158176, -1.6283158, 4.4578285, 9.1872425, -0.16805822, -0.5154879, 10.326427
1127276311797030, -1.6582261, 3.138187, 8.926425, 0.2827875, 0.50984406, 9.588488
1127276321435988, -1.7922242, 4.1467614, 9.3104725, 0.07012667, -0.25845313, 10.345088
1127276331074842, -1.6414764, 3.546163, 9.144172, 0.12686598, 0.23911333, 9.940439
1127276340713801, -1.8340986, 3.6263227, 9.2997055, 0.27683792, 0.17071319, 10.143614
1127276350352759, -1.6342978, 4.066602, 9.189635, -0.066471115, -0.19633603, 10.179126
1127276359991613, -1.8376877, 3.2219357, 9.077172, 0.41869587, 0.42421174, 9.787634
1127276369630572, -1.6342978, 4.4315076, 9.23151, -0.20238772, -0.49199677, 10.3560095
1127276379269426, -1.747957, 2.9922247, 8.967103, 0.41420168, 0.60825133, 9.585205
1127276388908384, -1.6271194, 4.5128636, 9.212367, -0.23855945, -0.562629, 10.368593
1127276398547238, -1.5864414, 3.1513474, 8.834301, 0.1934742, 0.46523762, 9.49941
1127276408186197, -1.6223338, 4.2448673, 9.113065, -0.13491742, -0.3662808, 10.175779
1127276417825051, -1.4835501, 3.5976088, 8.82832, -0.03753203, 0.11239076, 9.647223
1127276427464009, -1.625923, 3.8081772, 8.941978, 0.03049624, -0.054145575, 9.85398
1127276437102967, -1.4129617, 4.15394, 8.87139, -0.27889836, -0.32069802, 9.888004
1127276446741822, -1.6187445, 3.3164523, 8.902496, 0.19787253, 0.35185432, 9.628638
1127276456380780, -1.4177474, 4.4985065, 9.109476, -0.40578002, -0.5175395, 10.237021
1127276466019634, -1.6127625, 3.0795627, 8.914461, 0.27120242, 0.5667279, 9.547649
1127276475658592, -1.5553347, 4.5535417, 9.19801, -0.31025195, -0.5687494, 10.360378
1127276485297447, -1.5936198, 3.141776, 8.868998, 0.2251304, 0.49046516, 9.527762
1127276494936405, -1.6127625, 4.3274198, 9.192028, -0.16959156, -0.40013766, 10.277746
1127276504575363, -1.4799608, 3.566502, 8.974281, -0.018462673, 0.2073338, 9.7675295
1127276514214217, -1.6426728, 3.8787656, 9.221938, 0.020344764, -0.007789612, 10.138388
1127276523853176, -1.430908, 4.072584, 9.101101, -0.23571351, -0.17134047, 10.068691
1127276533492030, -1.6438692, 3.367898, 9.035298, 0.1996369, 0.3502221, 9.77339
1127276543130988, -1.4679967, 4.4578285, 9.140582, -0.33181363, -0.48940372, 10.258065
1127276552769842, -1.6402799, 3.0616167, 8.938389, 0.2990085, 0.5723269, 9.567749
1127276562408801, -1.5780666, 4.536792, 9.269794, -0.26685476, -0.54407907, 10.422792
1127276572047759, -1.625923, 3.121437, 9.02453, 0.26836258, 0.55495334, 9.66691
1127276581686613, -1.672583, 4.345366, 9.382257, -0.11021985, -0.35272813, 10.467565
1127276591325572, -1.5517455, 3.493521, 9.078369, 0.07501468, 0.2874682, 9.845869
1127276600964426, -1.7431713, 3.8967116, 9.226724, 0.112362266, -0.05370593, 10.165626
1127276610603384, -1.5397813, 3.9960139, 9.012567, -0.115574464, -0.16288495, 9.976248
1127276620242238, -1.7551354, 3.353541, 8.927621, 0.31540522, 0.2813754, 9.687647
1127276629881197, -1.5134603, 4.3836513, 9.025727, -0.27786678, -0.47920418, 10.1323185
1127276639520155, -1.6558332, 3.0783663, 8.865408, 0.32418293, 0.5320058, 9.509232
1127276649159009, -1.5373886, 4.549952, 9.128618, -0.31745017, -0.57303596, 10.294084
1127276658797967, -1.5696917, 3.0867412, 8.762517, 0.23760353, 0.514328, 9.404926
1127276668436822, -1.6115661, 4.348955, 9.026923, -0.16449371, -0.46907878, 10.136507
1127276678075780, -1.5361922, 3.4013975, 8.776874, 0.09354143, 0.2535596, 9.533616
1127276687714738, -1.7048861, 3.8751762, 9.02453, 0.08177802, -0.091661215, 9.96748
1127276697353592, -1.5026926, 3.879962, 8.8701935, -0.10648695, -0.10474253, 9.79644
1127276706992551, -1.698904, 3.4169507, 8.889337, 0.23454106, 0.24237204, 9.667904
1127276716631405, -1.4763715, 4.402794, 9.025727, -0.31025708, -0.49046516, 10.133667
1127276726270363, -1.6558332, 3.1310084, 8.9108715, 0.2869026, 0.51217866, 9.570997
1127276735909217, -1.5314065, 4.5762734, 9.241081, -0.31903583, -0.5602684, 10.405258
1127276745548176, -1.6199409, 3.1310084, 9.006584, 0.25660837, 0.55481696, 9.652582
1127276755187134, -1.6402799, 4.4434714, 9.32124, -0.18715106, -0.44465685, 10.444509
1127276764825988, -1.570888, 3.4097722, 9.010174, 0.124591656, 0.31499743, 9.755138
1127276774464947, -1.7599211, 3.9756749, 9.317652, 0.09042962, -0.1007185, 10.281228
1127276784103905, -1.591227, 3.8500516, 9.131011, -0.018606938, -0.015636444, 10.036417
1127276793742759, -1.7814565, 3.4217365, 9.156136, 0.3116653, 0.29958844, 9.926218
1127276803381717, -1.5804594, 4.2723846, 9.215957, -0.19393635, -0.33580184, 10.273005
1127276813020572, -1.7694924, 3.0317063, 9.038888, 0.44059896, 0.5897567, 9.668604
1127276822659530, -1.5876378, 4.482953, 9.239884, -0.24154837, -0.5098529, 10.376637
1127276832298488, -1.6247265, 3.0269206, 8.8701935, 0.2953163, 0.58035254, 9.489905
1127276841937342, -1.5696917, 4.4147577, 9.195618, -0.23284262, -0.462502, 10.307536
1127276851576301, -1.4727824, 3.3810585, 8.927621, 0.028996259, 0.34666395, 9.653086
1127276861215155, -1.5577276, 4.132405, 9.200403, -0.13949871, -0.21570015, 10.202192
1127276870854113, -1.3722838, 3.9577286, 9.029316, -0.25204128, -0.08791518, 9.950079
1127276880493072, -1.6031911, 3.6263227, 9.068798, 0.079469144, 0.1543262, 9.89613
1127276890131926, -1.396212, 4.4075794, 9.067601, -0.36586675, -0.46266603, 10.161182
1127276899770884, -1.591227, 3.225525, 8.925228, 0.2034725, 0.45435166, 9.609781
1127276909409738, -1.4584254, 4.5930233, 9.140582, -0.38304752, -0.594769, 10.308862
1127276919048697, -1.5493526, 3.0759735, 8.815159, 0.21163262, 0.5427091, 9.446156
1127276928687655, -1.5290136, 4.486542, 9.131011, -0.286371, -0.5347829, 10.27007
1127276938326509, -1.5062819, 3.324827, 8.865408, 0.09174222, 0.370507, 9.579829
1127276947965467, -1.6390835, 4.0833516, 9.142975, -0.045319036, -0.20616913, 10.144447
1127276957604322, -1.4907285, 3.772285, 8.933603, -0.074894756, 0.0111403465, 9.811012
1127276967243280, -1.7168503, 3.5569308, 9.031709, 0.21048576, 0.17149115, 9.8538
1127276976882238, -1.5134603, 4.2281175, 9.089137, -0.21535726, -0.32440162, 10.130564
1127276986521092, -1.7324036, 3.1022944, 9.046066, 0.37288827, 0.5599334, 9.695578
1127276996160051, -1.5972091, 4.5092745, 9.318848, -0.24076593, -0.5051284, 10.46004
1127277005799009, -1.7407784, 3.0113673, 9.053245, 0.4078904, 0.63836765, 9.668817
1127277015437863, -1.7252251, 4.429115, 9.375079, -0.112771764, -0.45191193, 10.500886
1127277025076822, -1.7036897, 3.1872396, 9.008977, 0.30211434, 0.47204232, 9.690645
1127277034715676, -1.8089739, 4.0905304, 9.274581, 0.096616656, -0.21956038, 10.293936
1127277044354634, -1.6283158, 3.711268, 9.025727, 0.05252111, 0.057087183, 9.893567
1127277053993592, -1.7946169, 3.6179478, 9.101101, 0.23814508, 0.121895075, 9.953324
1127277063632447, -1.5206388, 4.2053857, 9.029316, -0.21126407, -0.33572817, 10.068209
1127277073271405, -1.678565, 3.205186, 8.906086, 0.26748163, 0.43289042, 9.599492
1127277082910363, -1.4787644, 4.5224347, 9.08794, -0.35490528, -0.5635538, 10.236517
1127277092549217, -1.5601203, 3.068795, 8.82114, 0.20653433, 0.5656736, 9.449939
1127277102188176, -1.4919249, 4.5152564, 9.12503, -0.3332243, -0.5503926, 10.269643
1127277111827134, -1.4787644, 3.2506495, 8.805588, 0.08344731, 0.4142182, 9.492803
1127277121465988, -1.5780666, 4.2341, 9.065208, -0.16426522, -0.34024787, 10.121915
1127277131104947, -1.442872, 3.7387853, 8.807981, -0.11616039, 0.014193773, 9.676116
1127277140743905, -1.666601, 3.7615173, 8.957532, 0.08432384, -0.00997448, 9.856812
1127277150382759, -1.4608182, 4.23051, 8.915657, -0.28060523, -0.3581848, 9.965596
1127277160021717, -1.6630118, 3.2614172, 8.953942, 0.26515612, 0.4128852, 9.660993
1127277169660572, -1.4644074, 4.520042, 9.2590275, -0.37727204, -0.46646476, 10.389655
1127277179299530, -1.5936198, 3.056831, 9.037691, 0.28048763, 0.6299436, 9.648223
1127277188938488, -1.5421742, 4.546363, 9.342776, -0.31810015, -0.49530816, 10.487549
1127277198577342, -1.5529419, 3.225525, 8.967103, 0.17106028, 0.47901464, 9.641881
1127277208216301, -1.6749759, 4.249653, 9.280562, -0.077831075, -0.30448294, 10.339012
1127277217855259, -1.5481563, 3.6191442, 9.042477, 0.0258879, 0.16639781, 9.860681
1127277227494113, -1.7527425, 3.711268, 9.221938, 0.17808023, 0.10570383, 10.091921
1127277237133072, -1.5744773, 3.7962132, 9.119047, -0.017201364, 0.04071641, 10.002263
1127277246772030, -1.6582261, 3.7974095, 9.162118, 0.057559446, 0.031803846, 10.055352
1127277256410884, -1.6342978, 3.8141594, 9.099904, 0.030585408, 0.0024335384, 10.001303
1127277266049842, -1.6510476, 3.8500516, 9.037691, 0.037391305, -0.058748484, 9.961117
1127277275688801, -1.6247265, 3.7962132, 8.979067, 0.030624747, -0.026879787, 9.882963
1127277285327655, -1.6271194, 3.8081772, 8.989835, 0.026951909, -0.028945446, 9.897743
1127277294966613, -1.6175481, 3.7531424, 8.971889, 0.034501344, 0.016188145, 9.858796
1127277304605572, -1.5637096, 3.7591243, 8.974281, -0.0187352, 0.02590704, 9.854588
1127277314244426, -1.5314065, 3.7794633, 8.959925, -0.054926127, 0.011161566, 9.844119
1127277323883384, -1.5134603, 3.8081772, 8.946764, -0.07967439, -0.01377821, 9.840266
1127277333522342, -1.5433706, 3.8524444, 8.902496, -0.0631361, -0.07764411, 9.8218
1127277343161197, -1.5493526, 3.8751762, 8.866604, -0.06520568, -0.11206794, 9.798845
1127277352800155, -1.5924234, 3.8584266, 8.8905325, -0.019267023, -0.10016489, 9.821124
1127277362439113, -1.6211374, 3.8668015, 8.974281, 0.0030075312, -0.08349395, 9.905098
1127277372077967, -1.6450655, 3.8333018, 9.078369, 0.034642115, -0.018785954, 9.990778
1127277381716926, -1.6438692, 3.7794633, 9.169296, 0.049743325, 0.0623765, 10.052675
1127277391355884, -1.6522441, 3.778267, 9.211171, 0.054894343, 0.07153392, 10.091718
1127277400994842, -1.6331015, 3.7746778, 9.221938, 0.0375863, 0.0827229, 10.097082
1127277410633697, -1.6199409, 3.802195, 9.188439, 0.015919417, 0.049541235, 10.074999
1127277420272655, -1.6091732, 3.7938204, 9.133404, 0.009766042, 0.036271334, 10.019989
1127277429911613, -1.6067804, 3.8033917, 9.052048, 0.0067151934, -0.003096819, 9.9492235
1127277439550467, -1.6295122, 3.81057, 9.047262, 0.025871456, -0.017070293, 9.951268
1127277449189426, -1.6366907, 3.802195, 9.071191, 0.03380865, -0.0018782616, 9.970998
1127277458828384, -1.6474584, 3.790231, 9.119047, 0.046446472, 0.025414705, 10.011704
1127277468467238, -1.6845472, 3.8117664, 9.132208, 0.067851216, -9.753704E-4, 10.037923
1127277478106197, -1.6917256, 3.790231, 9.092726, 0.078877985, -6.597042E-4, 9.99496
1127277487745155, -1.6965113, 3.7962132, 9.048459, 0.079476014, -0.025580883, 9.957763
1127277497384009, -1.6247265, 3.798606, 8.991031, 0.012073666, -0.0278728, 9.894791
1127277507022967, -1.558924, 3.798606, 8.969496, -0.046362624, -0.0149436, 9.86454
1127277516661926, -1.5086746, 3.792624, 8.989835, -0.08638702, 0.015651703, 9.872665
1127277526300884, -1.4847465, 3.8237305, 9.001799, -0.11340299, 0.0023972988, 9.891657
1127277535939738, -1.4679967, 3.8703907, 8.995817, -0.13983028, -0.03244424, 9.901469
1127277545578697, -1.4703895, 3.863212, 8.941978, -0.13015638, -0.04921341, 9.850182
1127277555217655, -1.5158532, 3.8823547, 8.9013, -0.09296653, -0.09616327, 9.827805
1127277564856509, -1.5517455, 3.9038901, 8.909675, -0.06656098, -0.12158871, 9.849435
1127277574495467, -1.5613167, 3.8739798, 8.992228, -0.052017316, -0.06795192, 9.914548
1127277584134426, -1.5529419, 3.8703907, 9.104691, -0.06116289, -0.015710115, 10.014137
1127277593773280, -1.5421742, 3.851248, 9.144172, -0.06972709, 0.01461792, 10.040977
1127277603412238, -1.5816557, 3.8069808, 9.174082, -0.018303275, 0.051143408, 10.057612
1127277613051197, -1.6283158, 3.798606, 9.123833, 0.02908288, 0.022979736, 10.016175
1127277622690155, -1.6642082, 3.7710886, 9.0544405, 0.07311946, 0.0057320595, 9.948278
1127277632329009, -1.6701902, 3.769892, 9.036494, 0.07931794, -0.0024411678, 9.93245
1127277641967967, -1.6546369, 3.7651064, 9.071191, 0.06589061, 0.020971775, 9.959699
1127277651606926, -1.6354942, 3.7878382, 9.11785, 0.038158283, 0.025758743, 10.007778
1127277661245884, -1.6546369, 3.798606, 9.15494, 0.050477132, 0.024019718, 10.048735
1127277670884738, -1.6749759, 3.7746778, 9.170493, 0.0777072, 0.04432583, 10.057022
1127277680523697, -1.698904, 3.7447674, 9.157332, 0.104567766, 0.053201914, 10.037556
1127277690162655, -1.7001005, 3.7459638, 9.128618, 0.10135485, 0.03991866, 10.012114
1127277699801509, -1.6953149, 3.7328033, 9.098708, 0.10175675, 0.04108286, 9.979097
1127277709440467, -1.6498512, 3.7567315, 9.101101, 0.048343047, 0.03514409, 9.98306
1127277719079426, -1.6151553, 3.7974095, 9.126225, 8.881092E-4, 0.021651983, 10.015816
1127277728718384, -1.5780666, 3.8069808, 9.126225, -0.034068793, 0.028034687, 10.013463
1127277738357238, -1.5804594, 3.8213377, 9.078369, -0.03607285, -0.0046954155, 9.975768
1127277747996197, -1.579263, 3.859623, 8.979067, -0.047730982, -0.07558918, 9.899818
1127277757635155, -1.5565311, 3.8464625, 8.897711, -0.062420532, -0.08774972, 9.817114
1127277767274009, -1.5290136, 3.8344984, 8.8701935, -0.08389422, -0.0756371, 9.783089
1127277776912967, -1.5206388, 3.8201413, 8.879765, -0.08366266, -0.05267787, 9.785002
1127277786551926, -1.5122639, 3.8141594, 8.941978, -0.08711239, -0.017872334, 9.837979
1127277796190884, -1.5266209, 3.8321054, 9.029316, -0.080902636, -0.003553152, 9.92661
1127277805829738, -1.5158532, 3.8656049, 9.0544405, -0.098479085, -0.01827979, 9.960603
1127277815468697, -1.544567, 3.879962, 9.032906, -0.07703682, -0.048857927, 9.951124
1127277825107655, -1.5972091, 3.863212, 9.0029955, -0.02095262, -0.06509495, 9.9259615
1127277834746613, -1.625923, 3.8141594, 8.975478, 0.023271315, -0.04463482, 9.886765
1127277844385467, -1.6582261, 3.7651064, 9.010174, 0.06838915, 0.0012936592, 9.90476
1127277854024426, -1.6307086, 3.7387853, 9.075976, 0.04561633, 0.055361986, 9.950171
1127277863663384, -1.6307086, 3.7244284, 9.140582, 0.04759662, 0.091867924, 10.003504
1127277873302342, -1.605584, 3.7567315, 9.164511, 0.01088804, 0.07936168, 10.033582
1127277882941197, -1.5960127, 3.818945, 9.147761, -0.018372923, 0.021585226, 10.040534
1127277892580155, -1.591227, 3.8823547, 9.103494, -0.042375594, -0.0513618, 10.023665
1127277902219113, -1.6103697, 3.8943188, 9.099904, -0.027791142, -0.06885862, 10.028049
1127277911858072, -1.6127625, 3.9158542, 9.109476, -0.032243848, -0.08202267, 10.045383
1127277921496926, -1.6283158, 3.8608193, 9.120243, -5.811453E-5, -0.033159256, 10.036687
1127277931135884, -1.6319051, 3.8285162, 9.12503, 0.012846708, -0.0036735535, 10.029287
1127277940774842, -1.6390835, 3.778267, 9.109476, 0.036604434, 0.031147242, 9.997107
1127277950413801, -1.6426728, 3.7256248, 9.072387, 0.05624008, 0.06103587, 9.943842
1127277960052655, -1.6474584, 3.7016966, 9.05803, 0.069317415, 0.07413864, 9.922414
1127277969691613, -1.6486548, 3.7172499, 9.037691, 0.06468418, 0.05245614, 9.910041
1127277979330572, -1.6342978, 3.7471602, 8.989835, 0.041413248, 0.012142181, 9.875597
1127277988969530, -1.6354942, 3.7998023, 8.941978, 0.025191396, -0.052616358, 9.852355
1127277998608384, -1.6163517, 3.8416767, 8.950353, -0.008411318, -0.07808566, 9.87288
1127278008247342, -1.6019948, 3.8608193, 8.973084, -0.028549105, -0.07950878, 9.898558
1127278017886301, -1.6091732, 3.8584266, 9.02812, -0.02154024, -0.05586362, 9.948883
1127278027525259, -1.6307086, 3.8368912, 9.059227, 0.0057266355, -0.031055689, 9.97244
1127278037164113, -1.6031911, 3.824927, 9.096315, -0.017423123, 0.0020127296, 9.997147
1127278046803072, -1.6031911, 3.7866418, 9.111869, -0.0058505535, 0.041373014, 9.996664
1127278056442030, -1.6331015, 3.7818563, 9.092726, 0.023797661, 0.029013634, 9.982269
1127278066080988, -1.625923, 3.7854455, 9.066405, 0.015230536, 0.017285109, 9.958533
1127278075719947, -1.6342978, 3.7770705, 9.040084, 0.025392383, 0.011854887, 9.932752
1127278085358801, -1.6498512, 3.7615173, 9.035298, 0.04539904, 0.01874733, 9.924981
1127278094997759, -1.6654046, 3.792624, 9.035298, 0.047220647, -0.012974262, 9.9394045
1127278104636717, -1.6558332, 3.7950168, 9.041281, 0.03605029, -0.0099720955, 9.944209
1127278114275676, -1.6342978, 3.7806597, 9.036494, 0.020439744, 0.006096363, 9.930865
1127278123914530, -1.6283158, 3.7866418, 9.073584, 0.012348145, 0.017716408, 9.965918
1127278133553488, -1.6127625, 3.8261235, 9.11785, -0.015084207, 0.0062959194, 10.018741
1127278143192447, -1.5744773, 3.8751762, 9.133404, -0.067943096, -0.018381119, 10.045402
1127278152831405, -1.5601203, 3.8572302, 9.109476, -0.07211143, -0.0050156116, 10.014466
1127278162470259, -1.5900307, 3.8464625, 9.064013, -0.039359868, -0.023860931, 9.97385
1127278172109217, -1.6163517, 3.8560338, 9.019745, -0.018160477, -0.055250645, 9.94153
1127278181748176, -1.6402799, 3.81057, 8.974281, 0.020406619, -0.042331934, 9.886681
1127278191387134, -1.6378871, 3.7770705, 8.974281, 0.026773944, -0.009843111, 9.873493
1127278201026092, -1.6582261, 3.7483566, 8.988638, 0.05482775, 0.014454603, 9.87888
1127278210664947, -1.6378871, 3.7471602, 8.980264, 0.03658644, 0.01804328, 9.867489
