timestamp_acc,device_acc_x,device_acc_y,device_acc_z,earth_acc_x,earth_acc_y,earth_acc_z
1127516813167511, 0.55034924, 6.739385, 7.280163, -0.020721316, 0.13313007, 9.93503
1127516822806521, 0.56470615, 6.751349, 7.335198, -0.029811643, 0.14560032, 9.984119
1127516832445532, 0.63170516, 6.77767, 7.3543406, -0.09164545, 0.13036537, 10.019821
1127516842084542, 0.64247286, 6.8051877, 7.351948, -0.09864995, 0.10900831, 10.037573
1127516851723553, 0.57906306, 6.780063, 7.2442703, -0.034804434, 0.05701685, 9.938791
1127516861362615, 0.5383851, 6.759724, 7.115058, 0.0053466707, -0.0046949387, 9.828923
1127516871001625, 0.51086766, 6.7836523, 7.0348988, 0.034200784, -0.068207264, 9.785852
1127516880640636, 0.44865423, 6.800402, 6.966703, 0.09496584, -0.118083954, 9.744678
1127516890279646, 0.485743, 6.8015985, 6.9583282, 0.056231283, -0.121790886, 9.741562
1127516899918657, 0.5407779, 6.812366, 6.9930243, 0.0024523158, -0.10667133, 9.777105
1127516909557719, 0.62452674, 6.8662047, 7.0396843, -0.0778746, -0.11729622, 9.85252
1127516919196730, 0.6520442, 6.853044, 7.1270223, -0.10505244, -0.051248074, 9.908086
1127516928835740, 0.6305088, 6.855437, 7.1880393, -0.080831975, -0.019087791, 9.952665
1127516938474750, 0.57427746, 6.812366, 7.2622166, -0.02618371, 0.059597015, 9.97365
1127516948113761, 0.48933223, 6.800402, 7.3363943, 0.05791561, 0.12353945, 10.01444
1127516957752823, 0.40797627, 6.8171515, 7.3495545, 0.1387344, 0.11560345, 10.031118
1127516967391834, 0.4354937, 6.789634, 7.3627152, 0.107888825, 0.14172077, 10.023305
1127516977030844, 0.53359944, 6.8135624, 7.2897344, 0.013107772, 0.06767416, 9.992238
1127516986669855, 0.59342, 6.8243303, 7.2083783, -0.045680717, 0.007520199, 9.943953
1127516996308865, 0.57188463, 6.823134, 7.1282187, -0.023817515, -0.03873682, 9.883907
1127517005947875, 0.5072784, 6.8195443, 7.036095, 0.03930065, -0.0900836, 9.811241
1127517015586886, 0.41874397, 6.808777, 6.9966135, 0.12581013, -0.1006217, 9.770437
1127517025225948, 0.41515473, 6.800402, 7.0097737, 0.127486, -0.08397293, 9.774019
1127517034864959, 0.5204389, 6.862615, 7.0731835, 0.026699334, -0.09082317, 9.8685
1127517044503969, 0.6257231, 6.884151, 7.133004, -0.07574701, -0.07427168, 9.932348
1127517054142980, 0.6795616, 6.914061, 7.1820574, -0.12736407, -0.0634861, 9.991383
1127517063781990, 0.6520442, 6.927222, 7.2023964, -0.09572529, -0.06156969, 10.013646
1127517073421053, 0.61016977, 6.855437, 7.18445, -0.05637603, -0.022521496, 9.948968
1127517083060063, 0.5455636, 6.7872415, 7.146165, 0.004371397, 0.004448414, 9.87076
1127517092699073, 0.47856453, 6.7501526, 7.109076, 0.068292186, 0.0079813, 9.814673
1127517102338084, 0.4546363, 6.6939216, 7.0612197, 0.08591686, 0.01952076, 9.740038
1127517111977094, 0.5084748, 6.661618, 7.0779696, 0.030742139, 0.053281784, 9.732912
1127517121616157, 0.58983076, 6.680761, 7.1007013, -0.04999791, 0.055747032, 9.767027
1127517131255167, 0.6687939, 6.690332, 7.1377897, -0.1282459, 0.071213245, 9.804813
1127517140894178, 0.7501499, 6.707082, 7.1856465, -0.2056122, 0.08704901, 9.855523
1127517150533188, 0.7393822, 6.728617, 7.220342, -0.1912765, 0.09178257, 9.894915
1127517160172198, 0.6436693, 6.739385, 7.2789664, -0.09353603, 0.12273216, 9.939476
1127517169811261, 0.5838487, 6.786045, 7.304091, -0.031021185, 0.10835838, 9.986408
1127517179450271, 0.5132605, 6.769295, 7.29452, 0.03537018, 0.110667706, 9.964102
1127517189089282, 0.48454657, 6.808777, 7.268199, 0.06667264, 0.06533909, 9.970569
1127517198728292, 0.485743, 6.8518476, 7.233503, 0.06599926, 0.0093503, 9.975114
1127517208367303, 0.46301118, 6.8721867, 7.186843, 0.08699979, -0.034746647, 9.954058
1127517218006365, 0.42711884, 6.9056864, 7.1186476, 0.12067487, -0.10093403, 9.925792
1127517227645375, 0.44745782, 6.926025, 7.0779696, 0.09454944, -0.13181591, 9.911679
1127517237284386, 0.46181476, 6.948757, 7.0600233, 0.079414636, -0.15417767, 9.915258
1127517246923396, 0.44626144, 6.9702926, 6.9990063, 0.09723094, -0.21050453, 9.885164
1127517256562407, 0.47018966, 6.9499536, 6.991828, 0.06994528, -0.19168091, 9.867468
1127517266201417, 0.48933223, 6.940382, 7.051648, 0.051083833, -0.14233541, 9.905111
1127517275840428, 0.5204389, 6.9595246, 7.0731835, 0.021917412, -0.14295864, 9.935535
1127517285479490, 0.55513483, 6.936793, 7.1007013, -0.014555613, -0.110548496, 9.94157
1127517295118500, 0.526421, 6.9212394, 7.1389866, 0.01430732, -0.07244396, 9.956924
1127517304757511, 0.47138608, 6.903293, 7.1581287, 0.068578325, -0.04395628, 9.955393
1127517314396521, 0.43788654, 6.838687, 7.1365933, 0.09689836, -0.012363911, 9.893474
1127517324035532, 0.43908295, 6.812366, 7.143772, 0.093261614, 0.011517525, 9.880577
1127517333674594, 0.49292147, 6.7836523, 7.1342006, 0.037100937, 0.020597458, 9.856771
1127517343313605, 0.50129634, 6.769295, 7.125826, 0.027873302, 0.02384758, 9.841274
1127517352952615, 0.6197411, 6.751349, 7.1473613, -0.0912364, 0.044591427, 9.850851
1127517362591625, 0.68195444, 6.739385, 7.173682, -0.15363118, 0.069159985, 9.864973
1127517372230636, 0.68195444, 6.741778, 7.1784678, -0.14905812, 0.068817616, 9.87016
1127517381869646, 0.66161543, 6.708278, 7.1952176, -0.12927571, 0.10263729, 9.858126
1127517391508657, 0.59581286, 6.6915283, 7.210771, -0.06296401, 0.12558699, 9.85429
1127517401147719, 0.57188463, 6.704689, 7.203593, -0.03792274, 0.11229181, 9.856855
1127517410786730, 0.57188463, 6.7238317, 7.23111, -0.035778128, 0.11459398, 9.889969
1127517420425740, 0.56350976, 6.751349, 7.213164, -0.024879478, 0.07861662, 9.895514
1127517430064750, 0.5694918, 6.7645097, 7.2023964, -0.030768242, 0.060411453, 9.897113
1127517439703761, 0.56829536, 6.7908306, 7.203593, -0.02845538, 0.041961193, 9.916023
1127517449342823, 0.5515456, 6.829116, 7.1784678, -0.0094792275, -0.0014657974, 9.923273
1127517458981834, 0.4989035, 6.8398833, 7.1688967, 0.042541947, -0.0114684105, 9.920889
1127517468620844, 0.47377887, 6.8518476, 7.160522, 0.066135585, -0.023553371, 9.921717
1127517478259855, 0.49651068, 6.8518476, 7.117451, 0.041066244, -0.05265951, 9.891815
1127517487898865, 0.573081, 6.8745794, 7.1007013, -0.034832977, -0.08181095, 9.899511
1127517497537875, 0.573081, 6.8925257, 7.1018977, -0.032604594, -0.094305515, 9.912737
1127517507176886, 0.5479564, 6.8817577, 7.075577, -0.009665279, -0.10024738, 9.884964
1127517516815948, 0.4881358, 6.867401, 7.0600233, 0.049453348, -0.0971632, 9.860605
1127517526454959, 0.4354937, 6.8913293, 7.0468626, 0.10195446, -0.117033005, 9.8647995
1127517536093969, 0.46061835, 6.9116683, 7.0839515, 0.0761208, -0.10635328, 9.906997
1127517545732980, 0.51206404, 6.8805614, 7.103094, 0.020971846, -0.072230816, 9.902153
1127517555371990, 0.51445687, 6.8985076, 7.064809, 0.018973742, -0.111111164, 9.887007
1127517565011000, 0.50129634, 6.88774, 7.0875406, 0.029892497, -0.08561897, 9.895316
1127517574650011, 0.48215377, 6.8721867, 7.099505, 0.04637729, -0.06446791, 9.892224
1127517584289073, 0.45942193, 6.853044, 7.140183, 0.06540571, -0.021814823, 9.907207
1127517593928084, 0.46899325, 6.8374906, 7.172486, 0.054421287, 0.0104317665, 9.920319
1127517603567094, 0.5371887, 6.8039913, 7.186843, -0.019004166, 0.03646803, 9.9112
1127517613206105, 0.5479564, 6.792027, 7.21436, -0.030653995, 0.06351662, 9.923403
1127517622845115, 0.56829536, 6.7908306, 7.21436, -0.05105958, 0.059077263, 9.92367
1127517632484125, 0.6161518, 6.8099732, 7.1712894, -0.09698388, 0.012303352, 9.908239
1127517642123136, 0.5886344, 6.788438, 7.1545396, -0.071357444, 0.017578125, 9.87985
1127517651762198, 0.54675996, 6.7932234, 7.1342006, -0.029833443, 0.0070757866, 9.866241
1127517661401209, 0.53599226, 6.8135624, 7.1138616, -0.019248582, -0.018530369, 9.865001
1127517671040219, 0.4749753, 6.820741, 7.1246295, 0.042029347, -0.012365818, 9.87454
1127517680679230, 0.4534399, 6.836294, 7.1066833, 0.06259568, -0.03233242, 9.871197
1127517690318240, 0.46061835, 6.843473, 7.1078796, 0.053154718, -0.035465717, 9.877407
1127517699957250, 0.47138608, 6.8913293, 7.115058, 0.043740317, -0.06464529, 9.916178
1127517709596261, 0.44626144, 6.882954, 7.1270223, 0.06490307, -0.049144268, 9.917765
1127517719235271, 0.50368917, 6.867401, 7.112665, 0.0064558536, -0.05182457, 9.899606
1127517728874282, 0.49052864, 6.8506513, 7.146165, 0.017025288, -0.01658392, 9.911566
1127517738513344, 0.4869394, 6.8805614, 7.1246295, 0.023708902, -0.054824352, 9.916452
1127517748152355, 0.485743, 6.843473, 7.123433, 0.02191071, -0.028928757, 9.889948
1127517757791365, 0.4869394, 6.789634, 7.159325, 0.016320746, 0.03462267, 9.878801
1127517767430375, 0.51565325, 6.792027, 7.1342006, -0.012448154, 0.012148857, 9.863773
1127517777069386, 0.56111693, 6.7872415, 7.1509504, -0.058067024, 0.023954391, 9.8749
1127517786708396, 0.57906306, 6.77767, 7.1677003, -0.076364465, 0.039420605, 9.8813305
1127517796347407, 0.5838487, 6.769295, 7.179664, -0.08134649, 0.050610065, 9.884464
1127517805986417, 0.5922236, 6.7465634, 7.1880393, -0.090478376, 0.06904554, 9.875313
1127517815625428, 0.55034924, 6.728617, 7.2023964, -0.04897268, 0.09066868, 9.871223
1127517825264490, 0.47736812, 6.728617, 7.2299137, 0.023894507, 0.109998226, 9.887424
1127517834903500, 0.47138608, 6.735796, 7.2011995, 0.030042894, 0.081346035, 9.871319
1127517844542511, 0.43669012, 6.7609205, 7.216753, 0.06611973, 0.0761919, 9.898085
1127517854181521, 0.48454657, 6.7238317, 7.210771, 0.014714075, 0.0933404, 9.870714
1127517863820532, 0.51206404, 7.1916285, 7.243074, 0.023452647, -0.225873, 10.217255
1127517873459542, 0.5706882, 6.390033, 7.1102724, -0.09985906, 0.26229858, 9.5726385
1127517883098553, 0.46181476, 7.1306114, 7.1688967, 0.06628959, -0.22771263, 10.119078
1127517892737563, 0.6879365, 6.7525454, 7.140183, -0.18952146, 0.016704082, 9.849678
1127517902376573, 0.3804588, 6.695118, 6.9475603, 0.11390353, -0.054898262, 9.655152
1127517912015584, 0.6843473, 7.233503, 7.200003, -0.14123261, -0.2901349, 10.2238865
1127517921654594, 0.27756742, 6.270392, 6.8506513, 0.18028161, 0.19333982, 9.287433
1127517931293605, 0.53599226, 7.4847493, 7.243074, 0.021544866, -0.428586, 10.420496
1127517940932615, 0.26679972, 6.1710896, 6.9475603, 0.18312858, 0.33425522, 9.288534
1127517950571625, 0.43669012, 7.550552, 7.2646093, 0.11582253, -0.45049143, 10.476626
1127517960210636, 0.45942193, 6.350551, 7.048059, 0.0029688478, 0.25641584, 9.494733
1127517969849646, 0.40079778, 7.2658057, 7.204789, 0.119567, -0.29557276, 10.235228
1127517979488657, 0.6364908, 6.8315086, 7.240681, -0.14253202, 0.034539223, 9.973993
1127517989127667, 0.3397808, 6.7908306, 7.076773, 0.14720634, -0.037308216, 9.81267
1127517998766678, 0.67836523, 7.2765737, 7.3196445, -0.1565381, -0.2339096, 10.339568
1127518008405740, 0.317049, 6.355337, 7.003792, 0.14546768, 0.22505474, 9.458971
1127518018044750, 0.613759, 7.5110703, 7.368697, -0.07586054, -0.36546326, 10.53334
1127518027683761, 0.4139583, 6.0634127, 6.9990063, 0.03187704, 0.43108988, 9.259352
1127518037322771, 0.58265233, 7.4105716, 7.3100734, -0.042772718, -0.34535313, 10.419796
1127518046961782, 0.53359944, 6.1591253, 7.024131, -0.08288969, 0.36825514, 9.349626
1127518056600792, 0.4534399, 7.1078796, 7.109076, 0.06835245, -0.26089668, 10.059512
1127518066239803, 0.6376872, 6.5276203, 7.1042905, -0.15890232, 0.15011883, 9.666417
1127518075878813, 0.31345975, 6.6352973, 6.9583282, 0.17172793, -0.01175642, 9.618427
1127518085517823, 0.6125626, 7.036095, 7.183254, -0.097067155, -0.16444683, 10.071969
1127518095156834, 0.35653058, 6.2380886, 6.920043, 0.09474636, 0.24459791, 9.31982
1127518104795844, 0.7070791, 7.452446, 7.396215, -0.1712281, -0.32767487, 10.516951
1127518114434855, 0.49052864, 6.076573, 7.079166, -0.051305555, 0.45936012, 9.330933
1127518124073865, 0.58624154, 7.501499, 7.483553, -0.049389113, -0.30542994, 10.607735
1127518133712875, 0.47856453, 6.222535, 7.2287173, -0.028728664, 0.44989443, 9.539398
1127518143351886, 0.42592242, 7.24786, 7.429714, 0.08782328, -0.1597476, 10.386545
1127518152990896, 0.5096712, 6.6448684, 7.391429, -0.031237476, 0.24837494, 9.9491005
1127518162629855, 0.16869399, 6.8446693, 7.268199, 0.31461048, 0.031080723, 9.980217
1127518172268865, 0.47018966, 7.1389866, 7.4333034, 0.033183653, -0.077907085, 10.316639
1127518181907875, 0.1268196, 6.40439, 7.0025954, 0.32119447, 0.1832819, 9.483242
1127518191546886, 0.51086766, 7.5720873, 7.3196445, 0.009069685, -0.45444632, 10.53414
1127518201185896, 0.28953153, 6.2488565, 6.8853474, 0.1436068, 0.21347761, 9.299131
1127518210824907, 0.55034924, 7.668997, 7.1342006, -0.021737583, -0.64023924, 10.469137
1127518220463917, 0.44745782, 6.3074803, 6.8051877, -0.008057065, 0.13072157, 9.288593
1127518230102928, 0.40677986, 7.4069824, 7.0205417, 0.123798326, -0.50816584, 10.200162
1127518239741938, 0.54675996, 6.6364937, 7.02772, -0.08085451, 0.034906387, 9.681068
1127518249380948, 0.32662028, 6.853044, 7.038488, 0.16240032, -0.107890606, 9.827166
1127518259019959, 0.6843473, 7.0265236, 7.2909307, -0.180058, -0.09025192, 10.146797
1127518268658969, 0.35653058, 6.3218374, 7.0803623, 0.087192655, 0.29575253, 9.493639
1127518278297980, 0.6735796, 7.335198, 7.501499, -0.13986951, -0.17534637, 10.510996
1127518287936990, 0.37328035, 6.0023956, 7.1485577, 0.05528537, 0.55217934, 9.325342
1127518297576000, 0.60658056, 7.4584284, 7.493124, -0.055765025, -0.27944422, 10.585924
1127518307215011, 0.50129634, 6.1028943, 7.123433, -0.054866657, 0.45112038, 9.382612
1127518316854021, 0.45224348, 7.2753773, 7.2705917, 0.0885656, -0.29247236, 10.290956
1127518326493032, 0.5706882, 6.4797635, 7.079166, -0.09313283, 0.14795303, 9.612339
1127518336132042, 0.37088752, 6.893722, 7.0133634, 0.14596453, -0.18185377, 9.838387
1127518345771053, 0.7178468, 6.991828, 7.1581287, -0.19250381, -0.17264748, 10.0286045
1127518355410063, 0.43669012, 6.361319, 6.8518476, 0.04355894, 0.09049654, 9.35921
1127518365049021, 0.80997044, 7.308877, 7.237092, -0.24691758, -0.3621459, 10.308207
1127518374688032, 0.4869394, 5.985646, 6.9296145, -0.03761153, 0.405303, 9.160728
1127518384327042, 0.67836523, 7.3639116, 7.3627152, -0.10542297, -0.32086658, 10.429903
1127518393966053, 0.4749753, 5.936593, 7.070791, -0.026274607, 0.5259471, 9.229708
1127518403605063, 0.47018966, 7.135397, 7.314859, 0.08524401, -0.17457724, 10.227629
1127518413244073, 0.5946164, 6.259624, 7.283752, -0.109901376, 0.41481876, 9.61277
1127518422883084, 0.38285163, 6.7848487, 7.3268228, 0.14069642, 0.07527208, 9.991877
1127518432522094, 0.74177504, 6.8446693, 7.4715886, -0.21149541, 0.10093641, 10.157236
1127518442161105, 0.4103691, 6.398408, 7.233503, 0.08829569, 0.27797508, 9.661602
1127518451800063, 0.73579293, 7.3160553, 7.533802, -0.16977705, -0.20327854, 10.523976
1127518461439073, 0.37328035, 6.081359, 7.1042905, 0.099306464, 0.419549, 9.349188
1127518471078084, 0.587438, 7.495517, 7.499106, -0.005121723, -0.34481716, 10.613461
1127518480717094, 0.4211368, 6.087341, 7.1078796, 0.05772245, 0.41709757, 9.358297
1127518490356105, 0.4953143, 7.344769, 7.3196445, 0.08232662, -0.36517954, 10.374393
1127518499995115, 0.62931234, 6.3960147, 7.1581287, -0.12877613, 0.20584822, 9.616906
1127518509634125, 0.5288138, 6.9320073, 7.155736, 0.016844671, -0.17722511, 9.975231
1127518519273084, 0.77766734, 6.826723, 7.2622166, -0.23638779, -0.0511446, 9.994511
1127518528912094, 0.33499518, 6.411568, 7.160522, 0.17582147, 0.2075758, 9.613506
1127518538551105, 0.6089734, 7.2586274, 7.440482, -0.028935742, -0.23392582, 10.40979
1127518548190115, 0.33499518, 6.101698, 6.8709903, 0.14951833, 0.24213171, 9.190891
1127518557829125, 0.5946164, 7.519445, 7.3782687, -8.7908655E-4, -0.455441, 10.541682
1127518567468136, 0.4331009, 6.1938214, 6.9296145, 0.057212967, 0.21626902, 9.30164
1127518577107146, 0.44985065, 7.466803, 6.9726853, 0.13328451, -0.6584468, 10.204045
1127518586746157, 0.5096712, 6.468996, 6.786045, -0.0047237556, -0.051605225, 9.389109
1127518596385167, 0.3792624, 7.190432, 6.9009004, 0.1754713, -0.49058056, 9.959776
1127518606024125, 0.62093747, 6.960721, 7.0169525, -0.08011539, -0.25456, 9.899677
1127518615663136, 0.2632105, 6.5455666, 6.836294, 0.24712098, -0.068956375, 9.464821
1127518625302146, 0.66999036, 7.2670026, 7.2825556, -0.10685213, -0.30134678, 10.304932
1127518634941157, 0.39840496, 6.151947, 7.070791, 0.087976694, 0.3613534, 9.373524
1127518644580167, 0.7046863, 7.4452677, 7.6019974, -0.11945998, -0.23701763, 10.660605
1127518654219125, 0.5072784, 5.9581285, 7.2861447, -0.030701876, 0.6199465, 9.405277
1127518663858136, 0.5766702, 7.298109, 7.5493555, 0.0016983803, -0.18401432, 10.514458
1127518673497146, 0.5455636, 6.215357, 7.3567333, -0.048915125, 0.45915937, 9.635175
1127518683136157, 0.35413775, 6.9726853, 7.428518, 0.20084481, -0.031991005, 10.192411
1127518692775167, 0.6089734, 6.6975107, 7.428518, -0.074288435, 0.15056849, 10.019091
1127518702414178, 0.36011982, 6.526424, 7.160522, 0.16123706, 0.107357025, 9.693268
1127518712053188, 0.72382885, 7.1784678, 7.3950186, -0.14926066, -0.23010635, 10.327893
1127518721692146, 0.39720857, 6.117251, 7.0325055, 0.09373218, 0.31661844, 9.323393
1127518731331157, 0.7178468, 7.4237323, 7.4392858, -0.11720481, -0.37798452, 10.526798
1127518740970167, 0.5240282, 5.9844494, 7.097112, -0.040027864, 0.44101143, 9.287689
1127518750609178, 0.6257231, 7.347162, 7.393822, -0.026315216, -0.36834526, 10.435734
1127518760248188, 0.66400826, 6.1639113, 7.186843, -0.15790485, 0.3522129, 9.483482
1127518769887146, 0.50488555, 7.004988, 7.3136625, 0.069569185, -0.16683769, 10.138134
1127518779526157, 0.6364908, 6.5982084, 7.335198, -0.08318916, 0.12906408, 9.885496
1127518789165167, 0.2632105, 6.4402823, 7.109076, 0.27673087, 0.10181093, 9.591586
1127518798804178, 0.6472585, 7.025327, 7.3495545, -0.06639902, -0.17981339, 10.18594
1127518808443188, 0.44027936, 6.0861444, 6.9942207, 0.07405549, 0.27436447, 9.277573
1127518818082146, 0.8554341, 7.396215, 7.385447, -0.24751651, -0.4296894, 10.475432
1127518827721157, 0.5599205, 5.979664, 6.9678993, -0.054751605, 0.33101273, 9.192875
1127518837360167, 0.65922266, 7.3842506, 7.2442703, -0.041683424, -0.51083136, 10.352707
1127518846999178, 0.6221339, 6.1651077, 6.9966135, -0.09646577, 0.22120142, 9.342909
1127518856638188, 0.50009996, 7.0600233, 7.146165, 0.094392195, -0.32532692, 10.052212
1127518866277146, 0.7082755, 6.59103, 7.1808605, -0.14858156, 0.022577286, 9.7716675
1127518875916157, 0.38165522, 6.6077795, 7.085148, 0.17893949, -0.046187878, 9.693997
1127518885555167, 0.6867401, 7.075577, 7.385447, -0.0899436, -0.20657921, 10.248388
1127518895194125, 0.317049, 6.181857, 7.1138616, 0.20914388, 0.2808404, 9.423389
1127518904833136, 0.63170516, 7.4476604, 7.54457, -0.010310397, -0.3703599, 10.613668
1127518914472146, 0.43908295, 6.0430737, 7.1772714, 0.08064659, 0.4101925, 9.383495
1127518924111157, 0.5587241, 7.4656067, 7.4979095, 0.06040594, -0.41657114, 10.587206
1127518933750167, 0.5132605, 6.175875, 7.1545396, 0.011576235, 0.2916894, 9.460819
1127518943389125, 0.43429732, 7.1270223, 7.304091, 0.15309551, -0.30214214, 10.208727
1127518953028136, 0.6580262, 6.539584, 7.3064837, -0.10680657, 0.12699413, 9.826309
1127518962667146, 0.46660042, 6.6245294, 7.179664, 0.091021776, -0.01918888, 9.779623
1127518972306157, 0.8279166, 6.9475603, 7.426125, -0.24182197, -0.10908413, 10.199559
1127518981945167, 0.50129634, 6.0717874, 7.1413794, 0.020996988, 0.3558359, 9.380305
1127518991584125, 0.80757767, 7.1748786, 7.537391, -0.19815823, -0.2033906, 10.433729
1127519001223136, 0.53359944, 5.7858453, 7.160522, -0.027067237, 0.56640387, 9.203926
1127519010862146, 0.6795616, 7.194021, 7.5050883, -0.06624901, -0.25505066, 10.415019
1127519020501105, 0.58983076, 5.8672013, 7.2095747, -0.07837286, 0.5280099, 9.2986555
1127519030140115, 0.5168497, 6.927222, 7.385447, 0.07533926, -0.14030933, 10.137703
1127519039779125, 0.7106683, 6.326623, 7.393822, -0.16400993, 0.2974558, 9.751127
1127519049418136, 0.5371887, 6.5072813, 7.3232336, 0.022209793, 0.11594248, 9.810661
1127519059057146, 0.8662018, 6.806384, 7.554141, -0.2827775, 0.02494049, 10.201061
1127519068696105, 0.5024927, 6.0801625, 7.268199, 0.022561781, 0.3901229, 9.481293
1127519078335115, 0.7573284, 7.18445, 7.670193, -0.14359468, -0.17793608, 10.5342045
1127519087974125, 0.44745782, 5.837291, 7.2490563, 0.053757314, 0.554821, 9.301199
1127519097613136, 0.6089734, 7.3172517, 7.5625157, 0.016388563, -0.33374548, 10.535322
1127519107252146, 0.5300102, 6.0191455, 7.183254, -0.012714282, 0.36758614, 9.379492
1127519116891105, 0.4989035, 7.164111, 7.240681, 0.09711896, -0.42431402, 10.188787
1127519126530115, 0.6364908, 6.418747, 7.152147, -0.09855527, 0.05769682, 9.630451
1127519136169125, 0.3589234, 6.79442, 7.105487, 0.20029406, -0.22012854, 9.833225
1127519145808084, 0.5922236, 6.987042, 7.373483, -0.0156087745, -0.19323874, 10.173502
1127519155447094, 0.21296121, 6.32423, 7.0492554, 0.2976346, 0.10576582, 9.467495
1127519165086105, 0.573081, 7.351948, 7.372287, 0.016000831, -0.45191193, 10.417566
1127519174725115, 0.29790643, 6.084948, 7.1509504, 0.18570322, 0.34625912, 9.3860035
1127519184364125, 0.5623133, 7.5529447, 7.5792656, 0.036100693, -0.46179485, 10.704853
1127519194003084, 0.43908295, 6.1471615, 7.18445, 0.0428031, 0.315516, 9.460197
1127519203642094, 0.42831525, 7.3256264, 7.4309106, 0.15248682, -0.39143372, 10.435048
1127519213281105, 0.5347959, 6.498906, 7.428518, -0.024025753, 0.21038151, 9.8822975
1127519222920063, 0.33140594, 6.853044, 7.3698936, 0.20774253, -0.07678223, 10.066792
1127519232559073, 0.59700924, 6.910472, 7.487142, -0.0529567, -0.061767578, 10.205965
1127519242198084, 0.3278167, 6.317052, 7.200003, 0.17087942, 0.19486332, 9.580475
1127519251837042, 0.7393822, 7.222735, 7.5457664, -0.17615828, -0.26034927, 10.466822
1127519261476053, 0.4438686, 5.968896, 7.170093, 0.036020137, 0.42076588, 9.330414
1127519271115063, 0.69272214, 7.416554, 7.5900335, -0.10827293, -0.3778448, 10.627289
1127519280754021, 0.47856453, 6.0346985, 7.253842, 0.016690552, 0.42260075, 9.438536
1127519290393032, 0.40917268, 7.29452, 7.4644103, 0.16889207, -0.36782837, 10.437003
1127519300032042, 0.424726, 6.4091754, 7.3806615, 0.09772876, 0.22885513, 9.781113
1127519309671053, 0.111266255, 6.9798636, 7.3698936, 0.44748336, -0.18186092, 10.139669
1127519319310063, 0.37567315, 7.0205417, 7.4380894, 0.18473145, -0.17793751, 10.231739
1127519328949021, 0.09810573, 6.5694947, 7.129415, 0.42974776, -0.03731489, 9.685575
1127519338588032, 0.5766702, 7.4787674, 7.4141607, 0.013292581, -0.5274148, 10.533562
1127519348227042, 0.3397808, 6.2105713, 6.969096, 0.16593242, 0.11503363, 9.338854
1127519357866000, 0.63888365, 7.5960155, 7.3112698, -0.022945628, -0.67097616, 10.540946
1127519367505011, 0.52163535, 6.2033925, 6.9128647, 8.113161E-4, 0.10136223, 9.302238
1127519377144021, 0.55752766, 7.440482, 7.146165, 0.05965759, -0.6527152, 10.310658
1127519386783032, 0.5982057, 6.3972116, 7.0325055, -0.04861922, 0.043394566, 9.525443
1127519396422042, 0.36610186, 6.971489, 7.099505, 0.2261306, -0.32161283, 9.949076
1127519406061000, 0.61016977, 6.815955, 7.292127, -0.016557038, -0.095840454, 9.999762
1127519415700011, 0.36610186, 6.378069, 7.1162543, 0.19946572, 0.11294365, 9.560455
1127519425339021, 0.8362915, 7.1186476, 7.5493555, -0.19725658, -0.17950916, 10.406546
1127519434977980, 0.57188463, 5.936593, 7.3268228, -0.033250216, 0.55481195, 9.430992
1127519444616990, 0.8745767, 7.253842, 7.7611203, -0.2106998, -0.14658022, 10.656089
1127519454256000, 0.695115, 5.7487564, 7.4213395, -0.14208479, 0.71465206, 9.384921
1127519463895011, 0.7752745, 7.048059, 7.6546397, -0.10689795, -0.091005325, 10.433119
1127519473534021, 0.8530413, 5.9473605, 7.4907312, -0.25504595, 0.58592415, 9.581308
1127519483172980, 0.67477596, 6.5982084, 7.483553, -0.024478108, 0.108605385, 9.999144
1127519492811990, 0.8709874, 6.384051, 7.5026956, -0.22722177, 0.2578411, 9.883677
1127519502451000, 0.65922266, 6.0801625, 7.2526455, -0.037760705, 0.3242073, 9.481417
1127519512089959, 1.0683953, 6.778867, 7.564909, -0.3755675, -0.0053868294, 10.206923
1127519521728969, 0.782453, 5.7020965, 7.0145597, -0.17610887, 0.4427929, 9.061077
1127519531367980, 1.0959128, 7.003792, 7.38784, -0.37229732, -0.28803968, 10.228037
1127519541006938, 0.87338024, 5.564509, 7.0205417, -0.27786374, 0.54200983, 8.980175
1127519550645948, 0.87338024, 6.95115, 7.219146, -0.14334005, -0.33852625, 10.05297
1127519560284959, 0.79441714, 5.814559, 7.0097737, -0.17401448, 0.36150503, 9.1332445
1127519569923969, 0.5910272, 6.660422, 7.1473613, 0.10773776, -0.1467433, 9.785813
1127519579562980, 0.8243274, 6.4163537, 7.292127, -0.15001208, 0.1241045, 9.746092
1127519589201938, 0.57427746, 6.289534, 7.129415, 0.083896965, 0.12266588, 9.523367
1127519598840948, 0.92482597, 7.004988, 7.4943204, -0.20453353, -0.17754316, 10.296438
1127519608479959, 0.59700924, 6.050252, 7.155736, 0.035800263, 0.32162142, 9.384126
1127519618118917, 0.8542377, 7.348358, 7.63789, -0.10987538, -0.32318974, 10.627745
1127519627757928, 0.59940207, 5.9497533, 7.351948, 0.015264742, 0.5290022, 9.462025
1127519637396938, 0.6831509, 7.396215, 7.63789, 0.061502554, -0.34947395, 10.648105
1127519647035948, 0.68195444, 6.2871413, 7.448857, -0.050085824, 0.3361249, 9.7654085
1127519656674959, 0.49651068, 7.153343, 7.5385876, 0.21575594, -0.23061562, 10.399396
1127519666313917, 0.64965135, 6.74776, 7.463214, 0.023660928, 0.0040946007, 10.082325
1127519675952928, 0.37447673, 6.660422, 7.164111, 0.27982026, -0.109119415, 9.784464
1127519685591938, 0.6687939, 7.2083783, 7.3782687, 0.036444116, -0.3783002, 10.329685
1127519695230896, 0.30508488, 6.239285, 6.9499536, 0.30661583, 0.06804037, 9.339432
1127519704869907, 0.6879365, 7.463214, 7.2825556, 0.027808972, -0.62137127, 10.431758
1127519714508917, 0.5276174, 6.0430737, 6.928418, 0.06456488, 0.19334698, 9.20644
1127519724147928, 0.66400826, 7.4584284, 7.227521, 0.03921166, -0.64300823, 10.387066
1127519733786938, 0.6113662, 6.1938214, 7.0265236, -0.011358283, 0.15701294, 9.38533
1127519743425896, 0.57547385, 7.0935225, 7.2215385, 0.09995818, -0.37146044, 10.131725
1127519753064907, 0.6664011, 6.552745, 7.3363943, -0.035328016, 0.08959293, 9.858801
1127519762703917, 0.44506502, 6.5922265, 7.268199, 0.18660794, 0.017914772, 9.820748
1127519772342875, 0.8207382, 6.9822564, 7.588837, -0.15344422, -0.08302164, 10.343381
1127519781981886, 0.45702913, 6.0897336, 7.328019, 0.13179912, 0.41491842, 9.529119
1127519791620896, 0.6891329, 7.2729845, 7.797013, 0.0063191205, -0.16718149, 10.6834755
1127519801259907, 0.45224348, 5.845666, 7.448857, 0.11263979, 0.66676855, 9.455399
1127519810898917, 0.6735796, 7.263413, 7.7647095, 0.019650757, -0.17899847, 10.652191
1127519820537875, 0.6412765, 6.0514483, 7.436893, -0.052975126, 0.48809624, 9.59675
1127519830176886, 0.57906306, 7.105487, 7.515856, 0.1002478, -0.22734356, 10.356139
1127519839815896, 0.77407813, 6.5072813, 7.4380894, -0.13827771, 0.15896988, 9.910836
1127519849454907, 0.51565325, 6.652047, 7.2358956, 0.12996586, -0.07228899, 9.841326
1127519859093917, 0.80518484, 7.003792, 7.3782687, -0.12817197, -0.25019073, 10.201042
1127519868732875, 0.51206404, 6.181857, 7.0396843, 0.097245485, 0.15058088, 9.380972
1127519878371886, 0.90089774, 7.2753773, 7.4344997, -0.19328916, -0.41401625, 10.431
1127519888010896, 0.6269195, 5.8564334, 7.0205417, -0.04374002, 0.36799288, 9.156502
1127519897649907, 0.81595254, 7.29452, 7.355537, -0.095896386, -0.47895622, 10.379843
1127519907288917, 0.70947194, 5.962914, 7.0396843, -0.10795063, 0.30411482, 9.247307
1127519916927875, 0.6891329, 6.9966135, 7.1617184, 0.0061419383, -0.3797536, 10.028632
1127519926566886, 0.87338024, 6.3421764, 7.1342006, -0.23499642, 0.08087635, 9.582331
1127519936205896, 0.5778667, 6.6149583, 7.056434, 0.08165669, -0.16211271, 9.687721
1127519945844907, 0.8171489, 6.863812, 7.2849483, -0.13957928, -0.20291948, 10.039395
1127519955483917, 0.48095736, 6.1160545, 7.0169525, 0.13505326, 0.18186617, 9.317926
1127519965122875, 0.79920274, 7.2215385, 7.460821, -0.09171195, -0.3494749, 10.407817
1127519974761886, 0.52522457, 5.9138613, 7.1545396, 0.07381469, 0.41563272, 9.287564
1127519984400896, 0.66161543, 7.312466, 7.5864444, 0.04633388, -0.34513617, 10.5519085
1127519994039855, 0.5300102, 5.916254, 7.3268228, 0.07117045, 0.518909, 9.417588
1127520003678865, 0.5587241, 7.085148, 7.542177, 0.1260224, -0.21430874, 10.360219
1127520013317875, 0.74177504, 6.3278193, 7.499106, -0.115207866, 0.3099866, 9.83457
1127520022956886, 0.587438, 6.6735826, 7.422536, 0.064002305, 0.008423805, 9.998583
1127520032595896, 0.9320044, 6.792027, 7.655836, -0.2638573, 0.053712845, 10.273247
1127520042234855, 0.5766702, 6.175875, 7.402197, 0.04110761, 0.34985876, 9.6510315
1127520051873865, 0.85184485, 7.1856465, 7.759924, -0.14892806, -0.1902709, 10.607412
1127520061512875, 0.4833502, 5.8480587, 7.396215, 0.11765045, 0.5743046, 9.423043
1127520071151886, 0.5910272, 7.253842, 7.7347994, 0.11424887, -0.25657558, 10.616769
1127520080790896, 0.424726, 5.8672013, 7.3459654, 0.1750642, 0.52072763, 9.394991
1127520090429907, 0.49172506, 7.082755, 7.4656067, 0.18982072, -0.2975235, 10.296502
1127520100068917, 0.6891329, 6.3182483, 7.3064837, -0.066601455, 0.15695047, 9.682499
1127520109707875, 0.57906306, 6.8111696, 7.213164, 0.07073465, -0.2538247, 9.934166
1127520119346886, 0.86979103, 6.893722, 7.2969127, -0.2100793, -0.25995398, 10.070412
1127520128985896, 0.552742, 6.384051, 6.9248285, 0.060379133, -0.09368372, 9.434112
1127520138624907, 0.8362915, 7.3052874, 7.257431, -0.15228176, -0.56069136, 10.315006
1127520148263917, 0.5024927, 6.0251274, 6.8985076, 0.08535363, 0.16335392, 9.171156
1127520157902875, 0.64965135, 7.4213395, 7.300502, 0.04581, -0.5892472, 10.413759
1127520167541886, 0.44985065, 5.977271, 7.0025954, 0.13339294, 0.28099108, 9.212477
1127520177180896, 0.45224348, 7.222735, 7.3292155, 0.21571109, -0.4208393, 10.289128
1127520186819907, 0.587438, 6.3314085, 7.3256264, 0.019277737, 0.23207521, 9.697546
1127520196458917, 0.46301118, 6.9212394, 7.4392858, 0.18323433, -0.12510395, 10.169153
1127520206097875, 0.7920243, 6.8709903, 7.6773715, -0.14085811, 0.054394722, 10.332331
1127520215736886, 0.45822555, 6.418747, 7.460821, 0.15714745, 0.2449212, 9.848324
1127520225375896, 0.76570326, 7.2466636, 7.806584, -0.08663809, -0.15066385, 10.677687
1127520235014907, 0.39840496, 6.0155563, 7.432107, 0.18562844, 0.5226941, 9.553753
1127520244653917, 0.6329016, 7.3806615, 7.793423, 0.058944523, -0.24864912, 10.749272
1127520254292928, 0.4438686, 5.9066825, 7.308877, 0.13039379, 0.5290041, 9.391951
1127520263931938, 0.5706882, 7.2155566, 7.4105716, 0.10646371, -0.37554836, 10.351527
1127520273570896, 0.71665037, 6.204589, 7.2442703, -0.116773985, 0.25823307, 9.56084
1127520283209907, 0.63888365, 6.815955, 7.225128, 0.014204957, -0.20068407, 9.951252
1127520292848917, 0.8578269, 6.650851, 7.3064837, -0.21230415, -0.038451195, 9.915031
1127520302487928, 0.5623133, 6.344569, 7.0325055, 0.06275161, 0.024114609, 9.487959
1127520312126938, 0.92482597, 7.056434, 7.393822, -0.23243801, -0.2791829, 10.255983
1127520321765948, 0.55393845, 5.8863435, 7.0983086, 0.03645429, 0.40370274, 9.22917
1127520331404959, 0.79441714, 7.263413, 7.5553374, -0.07177361, -0.31619692, 10.505535
1127520341043917, 0.6257231, 5.7966127, 7.18445, -0.03382411, 0.5176835, 9.237934
1127520350682928, 0.70588267, 7.1186476, 7.4333034, 0.0016942173, -0.29051113, 10.312275
1127520360321938, 0.7465607, 6.067002, 7.2753773, -0.12465062, 0.37662792, 9.494188
1127520369960948, 0.56590253, 6.847062, 7.359126, 0.12089177, -0.134027, 10.066116
1127520379599959, 0.83389866, 6.6676, 7.4344997, -0.15740912, 0.03412819, 10.019887
1127520389238969, 0.56470615, 6.4414787, 7.204789, 0.086726815, 0.06304455, 9.680343
1127520398877980, 0.930808, 7.1952176, 7.539784, -0.20947152, -0.28316736, 10.457621
1127520408516938, 0.5515456, 6.1160545, 7.2358956, 0.08509788, 0.3294959, 9.484339
1127520418155948, 0.73100734, 7.4105716, 7.6534433, 0.016250536, -0.35280085, 10.672461
1127520427794959, 0.49292147, 5.9234324, 7.2550383, 0.120206654, 0.48686838, 9.3655815
1127520437433969, 0.64008003, 7.2909307, 7.587641, 0.10404301, -0.30658627, 10.537307
1127520447072980, 0.73579293, 6.134001, 7.402197, -0.09961413, 0.40496397, 9.632547
1127520456711990, 0.66999036, 6.897311, 7.4440713, 0.04284248, -0.120853424, 10.1695385
1127520466351000, 0.88295156, 6.502496, 7.4787674, -0.20159487, 0.17449284, 9.945999
1127520475990011, 0.573081, 6.3696938, 7.253842, 0.09363552, 0.14171314, 9.669064
1127520485629021, 0.89013004, 6.9499536, 7.4644103, -0.16085082, -0.16514492, 10.235158
1127520495268032, 0.5419743, 5.928218, 7.0289164, 0.08845563, 0.31778383, 9.205126
1127520504907042, 0.8530413, 7.2299137, 7.4309106, -0.105195254, -0.38435793, 10.395142
1127520514546000, 0.6999006, 5.8277197, 7.0540414, -0.06206511, 0.4114194, 9.167255
1127520524185011, 0.88414794, 7.2646093, 7.300502, -0.12733985, -0.4918208, 10.324511
1127520533824021, 0.8327023, 6.087341, 7.055238, -0.17174456, 0.20966768, 9.35158
1127520543463032, 0.6652047, 6.9738817, 7.149754, 0.06778319, -0.36678457, 10.002869
1127520553102042, 0.7800602, 6.5407805, 7.222735, -0.07577592, -1.4925003E-4, 9.775094
1127520562741053, 0.43070808, 6.580262, 7.0863442, 0.27176684, -0.1070776, 9.675552
1127520572380063, 0.76689965, 7.125826, 7.3806615, -0.010701939, -0.32708693, 10.282635
1127520582019073, 0.4881358, 6.1710896, 7.0959153, 0.18133007, 0.19604349, 9.412828
1127520591658084, 0.8662018, 7.4177504, 7.536195, -0.08798732, -0.44831085, 10.599945
1127520601297094, 0.64247286, 6.029913, 7.1916285, 0.021312356, 0.3581004, 9.400185
1127520610936105, 0.7393822, 7.3974113, 7.550552, 0.032816708, -0.42587996, 10.587578
1127520620575115, 0.67477596, 6.087341, 7.29452, -0.0025245398, 0.37566662, 9.517348
1127520630214125, 0.573081, 7.0265236, 7.4907312, 0.17301163, -0.19728374, 10.283123
1127520639853084, 0.7848458, 6.4905314, 7.57448, -0.07607308, 0.24869394, 10.002403
1127520649492094, 0.5563313, 6.526424, 7.457232, 0.15670937, 0.13767672, 9.923231
1127520659131105, 0.93320084, 6.91765, 7.7347994, -0.18216218, 0.018903732, 10.417213
1127520668770115, 0.65084773, 6.050252, 7.3806615, 0.024374053, 0.4290595, 9.556078
1127520678409125, 0.91166544, 7.1976104, 7.725228, -0.13007545, -0.20277596, 10.59518
1127520688048136, 0.6269195, 5.7870417, 7.253842, 0.024799794, 0.5356784, 9.285125
1127520697687146, 0.79920274, 7.204789, 7.493124, -0.014901638, -0.3561821, 10.419575
1127520707326157, 0.75493556, 5.956932, 7.1066833, -0.08939289, 0.31079197, 9.298138
1127520716965167, 0.6257231, 7.04447, 7.1856465, 0.1374217, -0.4211259, 10.072407
1127520726604178, 0.79800636, 6.418747, 7.1270223, -0.08762773, 0.005940914, 9.624129
1127520736243188, 0.613759, 6.6053867, 7.001399, 0.10813649, -0.20711756, 9.642243
1127520745882198, 0.96909314, 6.95115, 7.2299137, -0.20549317, -0.32314348, 10.068894
1127520755521209, 0.6472585, 6.148358, 6.95115, 0.04026562, 0.101941586, 9.302027
1127520765160219, 0.991825, 7.2382884, 7.4237323, -0.1918599, -0.4114251, 10.405876
1127520774799230, 0.701097, 5.875576, 7.1377897, -0.034862444, 0.41998482, 9.261986
1127520784438240, 0.86979103, 7.281359, 7.585248, -0.061771676, -0.32500744, 10.545202
1127520794077250, 0.701097, 5.9210396, 7.3064837, -0.028365202, 0.4898243, 9.417762
1127520803716261, 0.63170516, 7.0133634, 7.5182486, 0.14964356, -0.16879082, 10.298519
1127520813355271, 0.80997044, 6.3361945, 7.52782, -0.09409584, 0.3125925, 9.867367
1127520822994282, 0.5623133, 6.597012, 7.456035, 0.17438433, 0.08190155, 9.969559
1127520832633292, 0.90089774, 6.818348, 7.643872, -0.13756414, 0.019983292, 10.281583
1127520842272303, 0.59581286, 6.4091754, 7.3842506, 0.12647495, 0.16499281, 9.793695
1127520851911313, 0.76570326, 6.5850477, 7.5385876, -0.0272986, 0.13242102, 10.037987
1127520861550323, 0.7286145, 6.558727, 7.460821, 0.004647419, 0.10130167, 9.959988
1127520871189334, 0.75613195, 6.5682983, 7.4045897, -0.02281773, 0.061540127, 9.926626
1127520880828344, 0.8063812, 6.5922265, 7.3543406, -0.07183845, 0.012478352, 9.909021
1127520890467355, 0.83748794, 6.5886374, 7.335198, -0.10371946, 8.120537E-4, 9.894742
1127520900106365, 0.74416786, 6.6053867, 7.3304124, -0.008192301, -0.0030751228, 9.895443
1127520909745375, 0.6723832, 6.6161547, 7.2873416, 0.06205812, -0.034106255, 9.865391
1127520919384386, 0.6939186, 6.5958157, 7.2909307, 0.038057342, -0.0125103, 9.856083
1127520929023396, 0.6987042, 6.634101, 7.2765737, 0.035522543, -0.047240257, 9.8714
1127520938662407, 0.71306115, 6.619744, 7.251449, 0.019488372, -0.05434084, 9.844271
1127520948301417, 0.74895346, 6.5946193, 7.245467, -0.021281809, -0.032791615, 9.825742
1127520957940428, 0.78364944, 6.6221366, 7.2382884, -0.05343251, -0.05984974, 9.841402
1127520967579438, 0.84347, 6.6221366, 7.194021, -0.11451682, -0.0833292, 9.813155
1127520977218448, 0.8458628, 6.641279, 7.1916285, -0.11499899, -0.09925699, 9.824383
1127520986857459, 0.8147561, 6.678368, 7.1629148, -0.081058025, -0.13271236, 9.825864
1127520996496469, 0.83988076, 6.606583, 7.155736, -0.114287406, -0.08230686, 9.774307
1127521006135532, 0.8147561, 6.5982084, 7.1748786, -0.08995867, -0.06151533, 9.78096
1127521015774542, 0.782453, 6.6053867, 7.1808605, -0.059115857, -0.060036182, 9.7878
1127521025413553, 0.73100734, 6.5682983, 7.233503, -0.013197996, 0.0045318604, 9.797974
1127521035052563, 0.71306115, 6.533602, 7.2861447, -0.0022482686, 0.063307285, 9.812253
1127521044691573, 0.70229346, 6.538388, 7.301698, 0.0039645247, 0.066566944, 9.826193
1127521054330584, 0.715454, 6.5659056, 7.3435726, -0.0061181746, 0.07362175, 9.876516
1127521063969594, 0.6999006, 6.5886374, 7.402197, 0.002018623, 0.09025383, 9.934001
1127521073608605, 0.71665037, 6.5886374, 7.4273214, -0.019914258, 0.10247278, 9.953791
1127521083247615, 0.72263247, 6.6305118, 7.442875, -0.021987785, 0.081638336, 9.993754
1127521092886625, 0.7728817, 6.678368, 7.4823565, -0.07509941, 0.06280279, 10.058529
1127521102525636, 0.7118647, 6.690332, 7.4919276, -0.013235096, 0.06461954, 10.069357
1127521112164646, 0.5706882, 6.704689, 7.440482, 0.12586752, 0.027173996, 10.031089
1127521121803657, 0.5347959, 6.698707, 7.3902326, 0.15662453, -0.0010771751, 9.987477
1127521131442719, 0.5288138, 6.7298136, 7.373483, 0.15263116, -0.032996178, 9.995693
1127521141081730, 0.56350976, 6.782456, 7.3340015, 0.1164401, -0.0979929, 10.004184
1127521150720740, 0.613759, 6.8075805, 7.312466, 0.068939224, -0.13369322, 10.008466
1127521160359750, 0.6269195, 6.815955, 7.2897344, 0.049943604, -0.15359688, 9.998222
1127521169998761, 0.5982057, 6.8279195, 7.27777, 0.076309964, -0.16538572, 9.995554
1127521179637771, 0.51086766, 6.8243303, 7.2382884, 0.15465868, -0.17930174, 9.958376
1127521189276782, 0.4761717, 6.8039913, 7.2059855, 0.18308723, -0.18281841, 9.918686
1127521198915792, 0.47138608, 6.7872415, 7.2957163, 0.1836424, -0.110146046, 9.973489
1127521208554803, 0.5024927, 6.826723, 7.298109, 0.1528363, -0.13949108, 10.003811
1127521218193865, 0.52283174, 6.7836523, 7.3160553, 0.12703173, -0.09760332, 9.989508
1127521227832875, 0.5922236, 6.7381887, 7.3292155, 0.054161876, -0.05853176, 9.973213
1127521237471886, 0.5910272, 6.7202425, 7.3160553, 0.054607734, -0.055927753, 9.951359
1127521247110896, 0.6113662, 6.7034926, 7.2526455, 0.030028403, -0.08748579, 9.894589
1127521256749907, 0.6017949, 6.678368, 7.298109, 0.041047662, -0.04125738, 9.91069
1127521266388917, 0.6197411, 6.6221366, 7.367501, 0.02635932, 0.034672737, 9.92547
1127521276027928, 0.6987042, 6.582655, 7.361519, -0.054847717, 0.058624744, 9.899751
1127521285666938, 0.75613195, 6.562316, 7.3986077, -0.109907925, 0.0875864, 9.917429
1127521295305948, 0.7848458, 6.5682983, 7.4309106, -0.12879276, 0.083307266, 9.947534
1127521304945011, 0.7537391, 6.5371914, 7.4177504, -0.10065755, 0.09769678, 9.914955
1127521314584021, 0.6795616, 6.4797635, 7.420143, -0.026831508, 0.13384438, 9.873652
1127521324223032, 0.65682983, 6.472585, 7.411768, -0.0012089759, 0.11567879, 9.861375
1127521333862042, 0.67118675, 6.468996, 7.4129643, -0.017426103, 0.11843729, 9.860838
1127521343501053, 0.6795616, 6.4737816, 7.4189467, -0.02299732, 0.105178356, 9.869186
1127521353140063, 0.74177504, 6.478567, 7.4141607, -0.08499296, 0.09538126, 9.87297
1127521362779073, 0.7070791, 6.518049, 7.405786, -0.048052274, 0.0559206, 9.890661
1127521372418136, 0.67118675, 6.576673, 7.37109, -0.0077453703, -0.008826256, 9.901312
1127521382057146, 0.70229346, 6.5922265, 7.3806615, -0.039295204, -0.011473656, 9.920845
1127521391696157, 0.67477596, 6.5742803, 7.344769, -0.013973929, -0.020519257, 9.880359
1127521401335167, 0.6664011, 6.6101727, 7.2993054, -0.0050884113, -0.074086666, 9.869793
1127521410974178, 0.65682983, 6.5946193, 7.3304124, -3.1226128E-4, -0.03755808, 9.882002
1127521420613188, 0.62093747, 6.5814586, 7.368697, 0.0329334, -0.0011458397, 9.899383
1127521430252198, 0.5910272, 6.5659056, 7.372287, 0.06129703, 0.015050411, 9.889746
1127521439891261, 0.6029913, 6.562316, 7.3902326, 0.047008835, 0.025168896, 9.901528
1127521449530271, 0.6652047, 6.5778694, 7.459625, -0.014245808, 0.050976276, 9.967652
1127521459169282, 0.6795616, 6.6053867, 7.5182486, -0.025902651, 0.055443764, 10.030615
1127521468808292, 0.69152576, 6.5742803, 7.52782, -0.040635236, 0.08415699, 10.01792
1127521478447303, 0.6759724, 6.5682983, 7.5433736, -0.026155785, 0.09318161, 10.024601
1127521488086365, 0.70947194, 6.550352, 7.554141, -0.06127993, 0.10611534, 10.022999
1127521497725375, 0.64606214, 6.576673, 7.5661054, 0.0038719922, 0.0941, 10.045253
1127521507364386, 0.6029913, 6.5814586, 7.489535, 0.043871954, 0.04078102, 9.98843
1127521517003396, 0.6364908, 6.5575304, 7.432107, 0.005778849, 0.023473263, 9.931866
1127521526642407, 0.567099, 6.5659056, 7.396215, 0.07482818, -0.00380373, 9.906113
1127521536281469, 0.53359944, 6.559923, 7.312466, 0.102411896, -0.04122114, 9.837544
1127521545920480, 0.57547385, 6.541977, 7.2861447, 0.05916594, -0.046447754, 9.808714
1127521555559490, 0.6580262, 6.576673, 7.268199, -0.024315104, -0.07563448, 9.823748
1127521565198500, 0.7477571, 6.600601, 7.2442703, -0.111004405, -0.11002684, 9.82762
1127521574837511, 0.77766734, 6.643672, 7.3052874, -0.13543308, -0.10426569, 9.903593
1127521584476573, 0.73579293, 6.611369, 7.3232336, -0.0946355, -0.06321907, 9.892845
1127521594115584, 0.6831509, 6.567102, 7.3363943, -0.044561952, -0.01853466, 9.869848
1127521603754594, 0.6472585, 6.5431733, 7.3902326, -0.011006113, 0.035870075, 9.891725
1127521613393605, 0.5371887, 6.5682983, 7.450053, 0.09880701, 0.06123209, 9.9459
1127521623032615, 0.5084748, 6.6161547, 7.4679995, 0.12973514, 0.038477898, 9.989231
1127521632671678, 0.5072784, 6.649654, 7.450053, 0.13081339, 0.0012440681, 9.998071
1127521642310688, 0.52163535, 6.626922, 7.409375, 0.111335866, -0.0060048103, 9.953625
1127521651949698, 0.63170516, 6.6891356, 7.4177504, 0.006866306, -0.05367565, 10.008182
1127521661588709, 0.66161543, 6.704689, 7.4141607, -0.023980603, -0.06084156, 10.01779
1127521671227719, 0.66400826, 6.7094746, 7.348358, -0.027175188, -0.10430288, 9.972198
1127521680866782, 0.63170516, 6.6735826, 7.331609, 0.0018655509, -0.08769226, 9.933809
1127521690505792, 0.56590253, 6.6532435, 7.3136625, 0.06748374, -0.07718706, 9.90278
1127521700144803, 0.55393845, 6.640083, 7.3136625, 0.07828449, -0.06644392, 9.893265
1127521709783813, 0.6053841, 6.6281185, 7.3028946, 0.02647549, -0.06617308, 9.88057
1127521719422823, 0.66041905, 6.6484575, 7.32443, -0.02725172, -0.069346905, 9.91362
1127521729061886, 0.6867401, 6.6484575, 7.3375907, -0.052564383, -0.061940193, 9.925083
1127521738700896, 0.6436693, 6.6245294, 7.3196445, -0.010947123, -0.054281235, 9.89307
1127521748339907, 0.5886344, 6.5922265, 7.314859, 0.042277656, -0.030343056, 9.864502
1127521757978917, 0.56470615, 6.576673, 7.3363943, 0.06475632, -0.0022387505, 9.868636
1127521767617928, 0.567099, 6.5742803, 7.350751, 0.0623108, 0.008237362, 9.877872
1127521777256990, 0.6556334, 6.5443697, 7.3663044, -0.027972266, 0.035844326, 9.875172
1127521786896000, 0.7118647, 6.5312095, 7.3902326, -0.08428988, 0.05961609, 9.887787
1127521796535011, 0.7369894, 6.521638, 7.3902326, -0.10749883, 0.06008482, 9.88308
1127521806174073, 0.721436, 6.5144596, 7.416554, -0.08990677, 0.08161116, 9.896928
