timestamp_acc,device_acc_x,device_acc_y,device_acc_z,earth_acc_x,earth_acc_y,earth_acc_z
256430199425567, -1.7718852, 3.8967116, 8.919247, 0.11817777, 0.018497944, 9.892552
256430209065046, -1.6845472, 3.9673, 8.768498, 0.23926151, 0.08896732, 9.76722
256430218704525, -1.6558332, 4.022335, 8.665607, 0.29931402, 0.1527555, 9.690242
256430228343900, -1.6510476, 4.025924, 8.681161, 0.30071092, 0.13957405, 9.704981
256430237983379, -1.7024933, 4.001996, 8.825927, 0.22795367, 0.08516765, 9.836272
256430247622754, -1.7551354, 3.9541395, 9.056833, 0.14227134, -0.019587278, 10.036002
256430257262233, -1.8436699, 3.859623, 9.115458, 0.0010212064, -0.06717992, 10.068906
256430266901608, -1.8915263, 3.8129628, 9.158528, -0.06700462, -0.094575405, 10.0986
256430276541088, -1.8855443, 3.7974095, 9.202796, -0.07422948, -0.12595916, 10.131421
256430286180567, -1.8927227, 3.7674992, 9.11785, -0.08761895, -0.10618091, 10.044536
256430295819942, -1.902294, 3.7543387, 9.006584, -0.08933574, -0.06295228, 9.9408455
256430305459421, -1.8951155, 3.7794633, 8.96471, -0.060400963, -0.030854702, 9.9114685
256430315098796, -1.867598, 3.8380876, 8.91805, 0.0057165027, 0.014450073, 9.886871
256430324738275, -1.869991, 3.8727834, 8.810373, 0.03134215, 0.08348274, 9.803574
256430334377650, -1.8747765, 3.8608193, 8.793623, 0.020996809, 0.08085871, 9.784761
256430344017129, -1.8795621, 3.8668015, 8.937193, 0.01081121, 0.02666092, 9.917537
256430353656504, -1.8460627, 3.8895333, 9.041281, 0.04265076, -0.021135092, 10.013936
256430363295983, -1.7802601, 3.9110687, 9.042477, 0.10739404, -0.042268038, 10.010936
256430372935463, -1.7946169, 3.912265, 8.898908, 0.1034835, 0.024690628, 9.884619
256430382574838, -1.7802601, 3.912265, 8.810373, 0.12201768, 0.052024364, 9.802053
256430392214317, -1.8041883, 3.8620157, 8.85823, 0.07291943, 0.0064735413, 9.830215
256430401853692, -2.0279171, 3.8033917, 9.073584, -0.16012913, -0.018790245, 10.044011
256430411493171, -2.105684, 3.7304106, 9.037691, -0.26282275, -0.01945448, 9.998014
256430421132546, -2.050649, 3.7567315, 8.959925, -0.19895065, 0.0030794144, 9.927682
256430430772025, -1.9932213, 3.863212, 8.914461, -0.094421804, 0.06691337, 9.917236
256430440411400, -1.9166509, 3.9050865, 8.955139, -0.0091893375, 0.04329872, 9.955692
256430450050879, -1.8807586, 3.8620157, 8.967103, -0.0015589893, -0.015222311, 9.942892
256430459690358, -1.8329022, 3.8608193, 8.874979, 0.04601139, -0.002429247, 9.850308
256430469329733, -1.6977077, 3.946961, 8.9013, 0.20878172, -0.020400763, 9.881794
256430478969213, -1.5948163, 4.0295134, 8.909675, 0.33654022, -0.016276598, 9.901979
256430488608588, -1.5756737, 4.045067, 8.847462, 0.364507, 0.012356758, 9.848344
256430498248067, -1.6881363, 4.01396, 8.801998, 0.24376518, 0.06063938, 9.817014
256430507887442, -1.8771694, 3.973282, 8.859426, 0.056934476, 0.099620104, 9.888731
256430517526921, -1.9716859, 3.92064, 8.94796, -0.057180107, 0.0690608, 9.965786
256430527166400, -2.0602202, 3.8548372, 9.041281, -0.17263988, 0.022027016, 10.040853
256430536805775, -2.1044874, 3.802195, 9.098708, -0.2330437, -0.021202087, 10.080542
256430546445254, -2.099702, 3.696911, 9.005388, -0.28011823, -0.061512947, 9.954432
256430556084629, -2.053042, 3.6000016, 8.8701935, -0.27744502, -0.100794554, 9.786123
256430565724108, -1.975275, 3.6382868, 8.807981, -0.1743469, -0.079720736, 9.730499
256430575363483, -1.867598, 3.7734814, 8.793623, -0.0055241883, -0.025547504, 9.749575
256430585002963, -1.8173488, 3.932604, 8.782856, 0.123882115, 0.07137442, 9.792153
256430594642442, -1.7802601, 4.022335, 8.797213, 0.20172554, 0.11116266, 9.832926
256430604281817, -1.8041883, 4.0307097, 8.819944, 0.18700516, 0.1167202, 9.861266
256430613921296, -1.7706888, 4.0474596, 8.999406, 0.20600384, 0.032218456, 10.0231285
256430623560671, -1.7252251, 4.054638, 9.15135, 0.23025292, -0.053453922, 10.154203
256430633200150, -1.6893328, 4.0331025, 9.126225, 0.23929173, -0.082152605, 10.116509
256430642839525, -1.6713866, 3.993621, 8.943174, 0.24505639, -0.039328575, 9.932839
256430652479004, -1.7958134, 3.912265, 8.773284, 0.11136907, 0.038368464, 9.771766
256430662118379, -1.9058832, 3.8380876, 8.839087, -0.019211113, 0.014862537, 9.823042
256430671757858, -2.0386848, 3.8201413, 9.000603, -0.14944583, 0.0010006428, 9.986902
256430681397338, -2.1248264, 3.76391, 9.080762, -0.24955046, -0.029877186, 10.053804
256430691036713, -2.1535404, 3.7016966, 9.065208, -0.30127364, -0.05431056, 10.021208
256430700676192, -2.1798615, 3.6430724, 9.014959, -0.34992263, -0.073210716, 9.958186
256430710315567, -2.1415763, 3.621537, 8.866604, -0.3218614, -0.042871, 9.808828
256430719955046, -2.050649, 3.7100716, 8.837891, -0.19213185, -0.015938282, 9.80005
256430729594421, -1.9369899, 3.859623, 8.863015, -0.01735124, 0.028173208, 9.859036
256430739233900, -1.8400806, 3.9756749, 8.849854, 0.13831872, 0.06846547, 9.873602
256430748873275, -1.8029919, 4.0331025, 8.773284, 0.20577002, 0.12324381, 9.819861
256430758512754, -1.7814565, 4.0474596, 8.76132, 0.2322729, 0.1279912, 9.8105
256430768152233, -1.7898313, 4.063013, 8.819944, 0.2266053, 0.11524105, 9.871086
256430777791608, -1.7359928, 4.048656, 8.921639, 0.24178487, 0.028757572, 9.946941
256430787431088, -1.7886349, 3.9948175, 9.040084, 0.16079354, -0.037233114, 10.042591
256430797070463, -1.8783658, 3.900301, 9.126225, 0.021584451, -0.09612489, 10.100441
256430806709942, -1.9980069, 3.7830527, 9.153743, -0.14413989, -0.12968826, 10.102322
256430816349317, -2.0638096, 3.7938204, 9.053245, -0.18578649, -0.044904947, 10.028811
256430825988796, -2.0231316, 3.8847475, 8.822337, -0.071719706, 0.09932923, 9.849007
256430835628171, -1.9776679, 3.9433718, 8.76132, 0.009159863, 0.1446476, 9.808215
256430845267650, -1.9716859, 3.9278183, 8.772088, 0.004879743, 0.12539077, 9.810661
256430854907129, -1.9357935, 3.8644085, 8.792427, 0.005559027, 0.049676895, 9.797207
256430864546504, -1.9453648, 3.818945, 8.806784, -0.028532803, 0.011651754, 9.794249
256430874185983, -1.9860427, 3.7627137, 8.872586, -0.096766144, -0.038269997, 9.839428
256430883825358, -2.0279171, 3.7938204, 8.959925, -0.1324476, -0.034320593, 9.938161
256430893464838, -1.9585253, 3.8560338, 8.983852, -0.044620782, -0.035089016, 9.970516
256430903104213, -1.9657038, 3.9074793, 8.935996, -0.019862235, 0.027647257, 9.949032
256430912743692, -1.881955, 3.932604, 9.062816, 0.062327504, -0.04979801, 10.056609
256430922383067, -1.861616, 3.9553359, 9.120243, 0.09411079, -0.06690955, 10.113149
256430932022546, -1.8711873, 3.891926, 9.052048, 0.06023574, -0.07847953, 10.028869
256430941661921, -1.9621146, 3.8368912, 8.933603, -0.038259804, -0.020646572, 9.91862
256430951301400, -2.0470598, 3.7686956, 8.937193, -0.14513153, -0.030199766, 9.9118595
256430960940879, -2.097309, 3.798606, 8.977871, -0.17559269, -0.0031557083, 9.969926
256430970580254, -2.07697, 3.8739798, 8.88455, -0.12015021, 0.07518315, 9.911442
256430980219733, -2.015953, 3.9038901, 8.751749, -0.04527545, 0.12359953, 9.791845
256430989859108, -1.9728823, 3.8847475, 8.730213, -0.021680951, 0.08669782, 9.756649
256430999498588, -1.9393828, 3.9242291, 8.816355, 0.023283958, 0.061723948, 9.842996
256431009137963, -1.8520447, 3.9625144, 8.805588, 0.11957124, 0.04974675, 9.831236
256431018777442, -1.8017955, 4.0211387, 8.807981, 0.19526508, 0.06659961, 9.846521
256431028416817, -1.8017955, 3.9852462, 8.914461, 0.17105287, -0.0077564716, 9.928089
256431038056296, -1.9573289, 3.8943188, 8.925228, -0.01289618, -0.0010490417, 9.932592
256431047695671, -2.070988, 3.7746778, 8.987442, -0.17640236, -0.05928564, 9.963768
256431057335150, -2.099702, 3.7663028, 8.953942, -0.20577294, -0.033967257, 9.935965
256431066974525, -2.097309, 3.830909, 8.943174, -0.16805029, 0.017390251, 9.9512
256431076614004, -2.0255244, 3.8955152, 8.85823, -0.06678724, 0.06679344, 9.886209
256431086253379, -1.9202402, 3.9086757, 8.811569, 0.032966495, 0.04080677, 9.828838
256431095892858, -1.8364913, 3.9373896, 8.804391, 0.12247753, 0.017900705, 9.817216
256431105532233, -1.7706888, 3.987639, 8.809176, 0.20415789, 0.015492678, 9.828342
256431115171713, -1.7324036, 4.0797625, 8.79482, 0.28911293, 0.06721544, 9.844108
256431124811088, -1.747957, 4.121637, 8.840283, 0.288292, 0.085119724, 9.904721
256431134450567, -1.8089739, 4.0701914, 8.88455, 0.20581281, 0.06194091, 9.936191
256431144089942, -1.9298115, 3.946961, 8.993423, 0.015602052, -0.012798309, 10.009192
256431153729421, -2.0338993, 3.845266, 9.107083, -0.13471824, -0.08127236, 10.091435
256431163368900, -2.0721843, 3.7938204, 9.093923, -0.19831115, -0.095603704, 10.066677
256431173008275, -2.024328, 3.7890346, 9.026923, -0.15722358, -0.09814143, 9.995284
256431182647754, -1.9860427, 3.778267, 8.819944, -0.11250323, -0.036545753, 9.797812
256431192287129, -1.9908284, 3.790231, 8.6345005, -0.099849015, 0.055679083, 9.636948
256431201926608, -1.9872392, 3.842873, 8.545966, -0.048781127, 0.13445354, 9.577571
256431211565983, -1.9740787, 3.8907297, 8.571091, -0.011369616, 0.15266156, 9.616389
256431221205463, -1.948954, 3.9218364, 8.603394, 0.029244632, 0.15111828, 9.652665
256431230844838, -1.9477576, 3.9349968, 8.723035, 0.027197301, 0.11356974, 9.765023
256431240484317, -1.9561325, 3.5365918, 8.913264, -0.21993428, -0.2547152, 9.78095
256431250123692, -1.8257236, 4.5942197, 9.281759, 0.44370168, 0.30555153, 10.502426
256431259763171, -1.8424734, 3.3379877, 8.995817, -0.24696442, -0.49462533, 9.754791
256431269402546, -1.8329022, 4.4685965, 9.409775, 0.35238993, 0.17261124, 10.569664
256431279042025, -1.8029919, 3.5808592, 9.030513, -0.0772762, -0.34174967, 9.874247
256431288681400, -2.0410776, 3.9888353, 9.292527, -0.07105312, -0.024508476, 10.316115
256431298320879, -1.8987048, 3.958925, 9.047262, 0.047198802, -0.01020503, 10.05628
256431307960254, -2.184647, 3.4444683, 9.014959, -0.4671939, -0.24615455, 9.880671
256431317599733, -1.8855443, 4.371687, 8.863015, 0.286058, 0.37316585, 10.049821
256431327239108, -2.0315065, 3.1752756, 8.578269, -0.45895138, -0.3276515, 9.352973
256431336878588, -1.7826529, 4.6396832, 8.868998, 0.5211482, 0.5135641, 10.140429
256431346517963, -1.8257236, 3.2530425, 8.504091, -0.24936259, -0.34763312, 9.276425
256431356157442, -1.7766708, 4.551149, 8.877372, 0.46778214, 0.43701172, 10.112738
256431365796817, -1.7599211, 3.5449667, 8.629715, -0.03458965, -0.21264791, 9.491559
256431375436192, -1.963311, 4.089334, 9.195618, 0.04862687, 0.045714617, 10.253396
256431385075671, -1.835295, 4.0031924, 9.12503, 0.113057286, -0.046062946, 10.131393
256431394715046, -2.1008983, 3.5174494, 9.250652, -0.37744632, -0.33670402, 10.104699
256431404354525, -1.9322042, 4.319045, 9.202796, 0.18220767, 0.20685387, 10.344227
256431413993900, -2.1834507, 3.0448668, 8.939586, -0.6930592, -0.5108278, 9.654719
256431423633379, -1.9920249, 4.447061, 9.090333, 0.20355466, 0.3792684, 10.305017
256431433272754, -2.0219352, 3.0783663, 8.644072, -0.5113145, -0.4300232, 9.372201
256431442912233, -1.861616, 4.4913282, 8.834301, 0.37317446, 0.4528916, 10.066685
256431452551608, -1.7443677, 3.574877, 8.343773, 0.018513441, -0.07303834, 9.243129
256431462191088, -1.8400806, 4.2795634, 8.79482, 0.2829942, 0.3015554, 9.943762
256431471830463, -1.6618153, 4.1312084, 8.670393, 0.35711437, 0.14766264, 9.739347
256431481469942, -1.902294, 3.7938204, 9.041281, -0.055892408, -0.14521861, 9.9866085
256431491109317, -1.7180467, 4.4434714, 9.227921, 0.43786323, 0.16358328, 10.374592
256431500748796, -2.015953, 3.2099717, 9.266206, -0.49736798, -0.6168299, 9.980115
256431510388171, -1.8891335, 4.536792, 9.475577, 0.32021594, 0.20830965, 10.66733
256431520027650, -2.0231316, 3.0759735, 8.902496, -0.54293853, -0.5523441, 9.602565
256431529667025, -1.9597218, 4.4578285, 9.013762, 0.25656775, 0.3929932, 10.234276
256431539306400, -1.9298115, 3.418147, 8.40479, -0.23766032, -0.13926506, 9.272139
256431548945879, -2.03031, 4.24726, 8.693125, 0.11197987, 0.40086484, 9.877175
256431558585254, -1.8281165, 4.0127635, 8.411968, 0.17422718, 0.24113727, 9.492997
256431568224733, -2.062613, 3.7447674, 8.598608, -0.17605358, 0.06934047, 9.600934
256431577864108, -1.8041883, 4.351348, 8.709874, 0.36005807, 0.3471799, 9.8894415
256431587503588, -2.0542383, 3.196811, 8.88814, -0.4848693, -0.47885823, 9.642308
256431597142963, -1.9118652, 4.4913282, 9.251849, 0.29989395, 0.26642752, 10.452896
256431606782442, -2.0602202, 3.022135, 8.940782, -0.60632104, -0.6170993, 9.621173
256431616421817, -1.9920249, 4.469793, 9.272188, 0.2271719, 0.28475523, 10.477979
256431626061296, -1.989632, 3.3954153, 8.831908, -0.33457476, -0.31573677, 9.658079
256431635700671, -2.0279171, 4.321438, 9.116654, 0.13107204, 0.2635181, 10.286595
256431645340046, -1.7778672, 4.0091743, 8.683554, 0.19758952, 0.08833456, 9.72582
256431654979525, -1.9585253, 3.9026937, 8.646464, -0.00837785, 0.11607027, 9.685798
256431664618900, -1.6881363, 4.430311, 8.504091, 0.5167153, 0.42789054, 9.713237
256431674258379, -1.9549361, 3.3870404, 8.627322, -0.28195497, -0.25810885, 9.464586
256431683897754, -1.7718852, 4.59063, 8.99462, 0.49663013, 0.37831092, 10.233616
256431693537233, -1.9597218, 3.0951161, 8.7673025, -0.43347406, -0.5462048, 9.476266
256431703176608, -1.9549361, 4.4374895, 9.156136, 0.24834806, 0.3029089, 10.353476
256431712815983, -2.050649, 3.1669009, 8.721839, -0.4898887, -0.40919757, 9.481427
256431722455463, -2.1822543, 4.1443686, 9.092726, -0.101649076, 0.23185277, 10.225048
256431732094838, -1.9788643, 3.7339997, 8.879765, -0.13859987, -0.08218002, 9.832747
256431741734317, -2.1212373, 3.8117664, 9.132208, -0.22388911, -0.057162046, 10.117957
256431751373692, -1.7694924, 4.2963133, 8.946764, 0.34491926, 0.20243931, 10.073433
256431761013171, -1.9980069, 3.339184, 8.873783, -0.35454673, -0.35631442, 9.676444
256431770652546, -1.7838492, 4.56072, 9.0747795, 0.47842428, 0.35962796, 10.294451
256431780291921, -1.9034904, 3.1345978, 8.866604, -0.37898946, -0.5524647, 9.571667
256431789931400, -1.8077775, 4.5834517, 9.15135, 0.45644587, 0.35488248, 10.377333
256431799570775, -1.8484555, 3.3343983, 8.687142, -0.23275435, -0.34713387, 9.477699
256431809210254, -1.8987048, 4.3441696, 9.072387, 0.24215227, 0.25127387, 10.230509
256431818849629, -1.7491534, 3.8213377, 8.796016, 0.09787732, -0.090143204, 9.747531
256431828489108, -1.948954, 3.9218364, 9.040084, -0.028962612, -0.019374609, 10.044954
256431838128483, -1.713261, 4.3034916, 8.864211, 0.38541296, 0.22661519, 9.991479
256431847767858, -2.03031, 3.4121652, 8.79482, -0.35318404, -0.24754238, 9.639911
256431857407338, -1.9118652, 4.4315076, 9.008977, 0.2840004, 0.35908175, 10.210072
256431867046713, -2.1918256, 2.9371898, 8.903693, -0.7602051, -0.55290556, 9.582449
256431876686192, -2.0757737, 4.4482574, 9.236296, 0.1499067, 0.34009004, 10.453079
256431886325567, -1.9860427, 3.2470603, 8.69791, -0.41135776, -0.3388629, 9.479313
256431895964942, -1.9202402, 4.4339004, 8.94796, 0.28884137, 0.3695748, 10.158384
256431905604421, -1.719243, 3.7914274, 8.5220375, 0.1274575, -0.019216537, 9.483629
256431915243796, -1.8735801, 3.9972103, 8.82832, 0.10032892, 0.08046532, 9.869684
256431924883275, -1.7024933, 4.24726, 8.645268, 0.39450192, 0.25647545, 9.770207
256431934522650, -1.9621146, 3.4013975, 8.807981, -0.31044137, -0.29430437, 9.634155
256431944162025, -1.7635103, 4.53081, 9.114262, 0.4614182, 0.30222297, 10.315218
256431953801504, -2.0003998, 3.2063823, 8.898908, -0.44746733, -0.45984578, 9.646831
256431963440879, -1.8951155, 4.631308, 9.200403, 0.38017964, 0.41540265, 10.45805
256431973080358, -1.9561325, 3.2267213, 8.799605, -0.42240232, -0.423491, 9.555809
256431982719733, -1.9932213, 4.341777, 9.206385, 0.14579618, 0.24830198, 10.368152
256431992359108, -1.8221345, 3.6370904, 8.845069, -0.06907475, -0.20634961, 9.733267
256432001998588, -1.9453648, 3.9649072, 9.152547, -0.0067765713, -0.02757597, 10.162344
256432011637963, -1.713261, 4.193422, 8.861818, 0.32931435, 0.14796567, 9.9459305
256432021277338, -1.9872392, 3.4719856, 8.837891, -0.2904433, -0.23883152, 9.6938505
256432030916817, -1.8113668, 4.4602213, 8.937193, 0.38529024, 0.3642881, 10.137401
256432040556192, -2.0697916, 3.080759, 8.834301, -0.57294345, -0.4808724, 9.553034
256432050195671, -1.9465612, 4.56072, 9.18485, 0.30901504, 0.38526917, 10.426255
256432059835046, -2.0087745, 3.231507, 8.702696, -0.44290048, -0.36607003, 9.480748
256432069474421, -1.9980069, 4.459025, 8.99462, 0.22022462, 0.41021657, 10.225526
256432079113900, -1.869991, 3.6143587, 8.648857, -0.11632949, -0.12663937, 9.556866
256432088753275, -1.9860427, 3.9780676, 8.967103, -0.019348145, 0.06335521, 10.008693
256432098392754, -1.8233309, 3.9720855, 8.730213, 0.13389593, 0.07651377, 9.76191
256432108032129, -2.1140587, 3.3355947, 8.793623, -0.46414095, -0.26170373, 9.624934
256432117671504, -1.9322042, 4.2795634, 8.956335, 0.20548797, 0.25904727, 10.107161
256432127310983, -2.1595225, 3.0735807, 8.8701935, -0.63914824, -0.468508, 9.600145
256432136950358, -1.9848464, 4.5762734, 9.080762, 0.31121916, 0.45364904, 10.345989
256432146589733, -2.0255244, 3.2063823, 8.639286, -0.44843474, -0.337497, 9.418382
256432156229213, -1.922633, 4.5188456, 9.071191, 0.30627567, 0.39291763, 10.303144
256432165868588, -1.6857436, 3.6897326, 8.749356, 0.0871543, -0.20195341, 9.64151
256432175508067, -1.7024933, 4.3058844, 9.110672, 0.3758669, 0.10500026, 10.212305
256432185147442, -1.4668003, 4.302295, 8.837891, 0.58303726, 0.09836054, 9.920684
256432194786817, -1.7874385, 3.7483566, 8.863015, 0.013930649, -0.16038465, 9.78633
256432204426296, -1.6271194, 4.4949174, 8.980264, 0.53947955, 0.25251245, 10.155892
256432214065671, -2.053042, 3.158526, 8.946764, -0.5511526, -0.48766637, 9.679581
256432223705046, -2.0279171, 4.49731, 9.367901, 0.17030704, 0.29730606, 10.581985
256432233344525, -2.2145574, 3.0197423, 8.883354, -0.7499071, -0.48176956, 9.599095
256432242983900, -2.160719, 4.3441696, 9.097511, 0.0011140704, 0.37334514, 10.303681
256432252623275, -2.0470598, 3.4013975, 8.681161, -0.37163445, -0.20613909, 9.536347
256432262262754, -2.053042, 4.0761733, 9.029316, -0.035105377, 0.1488676, 10.116094
256432271902129, -1.7252251, 4.0211387, 8.679964, 0.24220842, 0.089408636, 9.717051
256432281541504, -1.8029919, 3.7770705, 8.691928, 0.04115352, -0.060131073, 9.6468315
256432291180983, -1.5062819, 4.581059, 8.729017, 0.70499974, 0.39269662, 9.9397955
256432300820358, -1.7910278, 3.3140593, 8.752945, -0.21085039, -0.45043755, 9.516168
256432310459838, -1.7395821, 4.674379, 9.156136, 0.53072155, 0.3721354, 10.40628
256432320099213, -1.9716859, 3.1980073, 8.847462, -0.44383925, -0.47286916, 9.590193
256432329738588, -1.9657038, 4.546363, 9.176475, 0.25999403, 0.37257934, 10.417999
256432339378067, -2.0003998, 3.4289148, 8.72782, -0.35216504, -0.23529601, 9.578858
256432349017442, -2.12363, 4.1001015, 9.102298, -0.107934535, 0.15787697, 10.2046995
256432358656817, -1.9477576, 3.7866418, 8.806784, -0.10664314, -0.03140688, 9.7815895
256432368296296, -2.1248264, 3.5102708, 8.9013, -0.405585, -0.18535757, 9.791382
256432377935671, -1.7754744, 4.328616, 8.836694, 0.344087, 0.2706926, 9.989231
256432387575046, -1.9609182, 3.333202, 8.73141, -0.33987236, -0.32431173, 9.537938
256432397214525, -1.7156538, 4.7341995, 8.997013, 0.6030548, 0.4841454, 10.28126
256432406853900, -1.8687944, 3.2422748, 8.708678, -0.30587447, -0.4252944, 9.464217
256432416493275, -1.7814565, 4.6037908, 9.093923, 0.46884793, 0.36700535, 10.330218
256432426132754, -1.7898313, 3.4480574, 8.669196, -0.13862768, -0.30098724, 9.49409
256432435772129, -1.9190438, 4.241278, 9.005388, 0.15100867, 0.19700503, 10.134426
256432445411504, -1.8161523, 3.8644085, 8.749356, 0.045999467, -0.01727295, 9.735546
256432455050983, -2.111666, 3.7196429, 9.040084, -0.2998283, -0.09153867, 9.995986
256432464690358, -1.9345971, 4.2723846, 9.012567, 0.16254848, 0.2343564, 10.155833
256432474329733, -2.2145574, 3.1776686, 8.974281, -0.6679407, -0.39245367, 9.743687
256432483969213, -2.0374885, 4.487739, 9.178867, 0.1863997, 0.38295913, 10.409676
256432493608588, -2.115255, 3.0795627, 8.743374, -0.5940723, -0.44566727, 9.479085
256432503248067, -1.9070797, 4.549952, 8.986245, 0.33017746, 0.44979787, 10.236227
256432512887442, -1.7826529, 3.3810585, 8.530413, -0.15083209, -0.29061508, 9.34185
256432522526817, -1.7467605, 4.354937, 8.956335, 0.36254916, 0.22763658, 10.101946
256432532166192, -1.5349957, 3.9493537, 8.666803, 0.3364752, -0.050220966, 9.641129
256432541805671, -1.7383857, 3.9541395, 8.940782, 0.15065849, -0.06984329, 9.9281025
256432551445046, -1.5804594, 4.469793, 8.849854, 0.5639788, 0.2746985, 10.0201435
256432561084421, -1.9573289, 3.4432719, 8.898908, -0.32469225, -0.30873895, 9.730215
256432570723900, -1.8831514, 4.6085763, 9.254242, 0.36075312, 0.34926987, 10.496386
256432580363275, -2.1631117, 3.1058838, 9.0233345, -0.6892037, -0.49946475, 9.747906
256432590002754, -2.1140587, 4.442275, 9.232706, 0.06968343, 0.36708117, 10.4549675
256432599642129, -2.12363, 3.1190443, 8.687142, -0.6099819, -0.3665347, 9.444485
256432609281504, -2.0614166, 4.1587257, 8.979067, -0.015546441, 0.23991418, 10.104963
256432618920983, -1.8065811, 3.690929, 8.610572, -0.022200912, -0.072659254, 9.540591
256432628560358, -1.8867407, 3.8620157, 8.859426, -0.012106299, -0.016983032, 9.847029
256432638199733, -1.570888, 4.354937, 8.681161, 0.5169474, 0.28932595, 9.820631
256432647839213, -1.7970098, 3.5557344, 8.699107, -0.097118706, -0.22505188, 9.5648775
256432657478588, -1.6271194, 4.7210393, 8.993423, 0.63903475, 0.44778347, 10.257121
256432667117963, -1.8927227, 3.3032916, 8.967103, -0.340723, -0.48018575, 9.724012
256432676757442, -1.8508483, 4.6492543, 9.403793, 0.3891502, 0.3267336, 10.640222
256432686396817, -1.9776679, 3.2338998, 8.980264, -0.45686245, -0.4773605, 9.725113
256432696036192, -2.0578275, 4.2006, 9.407382, -0.030919373, 0.095086575, 10.505644
256432705675671, -2.0027926, 3.4839497, 8.971889, -0.35307336, -0.26634812, 9.820808
256432715315046, -2.178665, 3.6753755, 9.026923, -0.38567543, -0.061507225, 9.979368
256432724954421, -1.881955, 4.1024942, 8.660822, 0.13253802, 0.25025082, 9.762269
256432734593900, -2.0147567, 3.4516466, 8.58784, -0.33163643, -0.13205838, 9.465552
256432744233275, -1.6510476, 4.7246284, 8.719446, 0.66457075, 0.55719876, 10.016224
256432753872650, -1.7790636, 3.400201, 8.548359, -0.15347445, -0.27340722, 9.364966
256432763512129, -1.6175481, 4.8155556, 8.99821, 0.71611637, 0.4853902, 10.296864
256432773151504, -1.7036897, 3.3427732, 8.730213, -0.16317022, -0.43971014, 9.490697
256432782790879, -1.8161523, 4.362116, 9.203992, 0.2725085, 0.17352629, 10.340966
256432792430358, -1.7910278, 3.5772698, 8.983852, -0.12746787, -0.3276472, 9.828053
256432802069733, -2.0291135, 3.8871403, 9.352347, -0.1826852, -0.13502073, 10.32676
256432811709108, -1.7826529, 4.133601, 9.116654, 0.17616999, 0.023380995, 10.16594
256432821348588, -1.9477576, 3.4504502, 9.005388, -0.3266796, -0.3444016, 9.827057
256432830987963, -1.6151553, 4.6085763, 9.133404, 0.577327, 0.30335402, 10.336412
256432840627338, -1.8317057, 3.4624143, 8.903693, -0.19436592, -0.3618238, 9.718567
256432850266817, -1.6378871, 4.9734817, 9.12144, 0.7557652, 0.60165906, 10.473093
256432859906192, -1.8364913, 3.4827533, 8.488539, -0.15352556, -0.1622262, 9.354553
256432869545567, -1.9046868, 4.3274198, 8.898908, 0.20822367, 0.32374167, 10.069599
256432879185046, -1.9824536, 3.3547373, 8.719446, -0.35633335, -0.29626966, 9.539307
256432888824421, -2.243271, 3.6993039, 9.02453, -0.4167064, -0.047940016, 9.999167
256432898463796, -2.0374885, 3.8440695, 8.740981, -0.14323735, 0.08347678, 9.762455
256432908103275, -2.2935205, 3.3176486, 8.82832, -0.64116544, -0.21710491, 9.682357
256432917742650, -2.0578275, 4.338187, 8.925228, 0.12627196, 0.3867054, 10.1266365
256432927382025, -2.2205393, 3.0496526, 8.768498, -0.71779144, -0.40008688, 9.510125
256432937021504, -1.9704895, 4.5930233, 9.111869, 0.33353776, 0.4382782, 10.3779335
256432946660879, -1.9274186, 3.2219357, 8.723035, -0.35820353, -0.41519642, 9.480846
256432956300254, -1.814956, 4.476971, 9.0747795, 0.41568476, 0.30295753, 10.267638
256432965939733, -1.7491534, 3.5712879, 8.668, -0.0053081214, -0.21856427, 9.534153
256432975579108, -1.8795621, 4.1072803, 9.093923, 0.14634728, 0.05997801, 10.152682
256432985218483, -1.7012969, 4.193422, 8.955139, 0.34430224, 0.091326, 10.027305
256432994857963, -1.9214365, 3.7124643, 9.022138, -0.10390812, -0.18082929, 9.941317
256433004497338, -1.692922, 4.5798626, 8.968299, 0.55263245, 0.3647442, 10.189852
256433014136713, -1.963311, 3.2793634, 8.837891, -0.38933003, -0.40424085, 9.612604
256433023776192, -1.8388842, 4.6432724, 9.152547, 0.44616795, 0.39716744, 10.409313
256433033415567, -1.9609182, 3.1513474, 8.7266245, -0.43664774, -0.46167588, 9.461836
256433043054942, -2.0291135, 4.3322053, 9.053245, 0.12757564, 0.30864954, 10.234011
256433052694421, -2.0865414, 3.2673993, 8.707481, -0.4728123, -0.28995728, 9.515365
256433062333796, -2.2624137, 3.8656049, 9.086744, -0.31518453, 0.07474828, 10.125483
256433071973275, -2.0219352, 3.842873, 8.79482, -0.111196935, 0.058851242, 9.807595
256433081612650, -2.1415763, 3.5964124, 8.916854, -0.35143802, -0.118709564, 9.843434
256433091252025, -1.7682959, 4.476971, 8.898908, 0.42439637, 0.36615562, 10.101809
256433100891504, -1.9166509, 3.318845, 8.809176, -0.30639556, -0.4019301, 9.593459
256433110530879, -1.6307086, 4.7653065, 9.134601, 0.68545115, 0.40061045, 10.400864
256433120170254, -1.6642082, 3.3906298, 8.779266, -0.049388707, -0.4583652, 9.546147
256433129809733, -1.6199409, 4.770092, 9.09153, 0.6989738, 0.423167, 10.361769
256433139449108, -1.6354942, 3.6335013, 8.60459, 0.10455012, -0.2139864, 9.479421
256433149088483, -1.896312, 4.1874394, 9.068798, 0.15869579, 0.13606977, 10.165137
256433158727963, -1.9262222, 3.8404803, 8.959925, -0.048155606, -0.06385732, 9.936473
256433168367338, -2.2947168, 3.4205399, 9.083155, -0.594915, -0.23571634, 9.952889
256433178006713, -2.1068804, 4.1072803, 9.001799, -0.05793965, 0.20925379, 10.114046
256433187646192, -2.321038, 3.050849, 8.896515, -0.8040226, -0.4109068, 9.645081
256433197285567, -2.0470598, 4.4781675, 9.110672, 0.20490873, 0.40527964, 10.346137
256433206925046, -2.050649, 3.0759735, 8.733803, -0.5490994, -0.4590373, 9.456947
256433216564421, -1.8580267, 4.546363, 8.980264, 0.40812624, 0.40238214, 10.219506
256433226203796, -1.7623138, 3.5066817, 8.507681, -0.049407423, -0.1980393, 9.367045
256433235843275, -1.7730815, 4.401597, 8.927621, 0.41431022, 0.27285624, 10.098228
256433245482650, -1.6127625, 4.130012, 8.642876, 0.41403168, 0.10814762, 9.70434
256433255122025, -1.8424734, 3.9349968, 8.873783, 0.090522885, -0.009784937, 9.8800125
256433264761504, -1.6749759, 4.4721856, 8.953942, 0.5141318, 0.26314187, 10.131411
256433274400879, -2.015953, 3.3032916, 9.006584, -0.42622018, -0.43299198, 9.783928
256433284040254, -1.8831514, 4.5152564, 9.29133, 0.33055544, 0.25833654, 10.492217
256433293679733, -2.1379871, 3.0113673, 8.99462, -0.6826342, -0.5770459, 9.682124
256433303319108, -2.0817556, 4.375276, 9.323633, 0.10718876, 0.25944948, 10.503716
256433312958588, -2.0961127, 3.2004004, 8.785249, -0.51302767, -0.37575507, 9.560987
256433322597963, -2.152344, 4.1347976, 9.066405, -0.06839281, 0.22132826, 10.1919155
256433332237338, -1.9704895, 3.7734814, 8.668, -0.07709387, 0.031021833, 9.6565695
256433341876817, -2.1451654, 3.7220356, 8.839087, -0.26051766, 0.011915445, 9.824294
256433351516192, -1.8185452, 4.308277, 8.724232, 0.34430146, 0.31596327, 9.887476
256433361155567, -1.9740787, 3.397808, 8.675179, -0.29822528, -0.25273228, 9.515671
256433370795046, -1.6546369, 4.7509494, 8.944371, 0.70318776, 0.4509492, 10.228063
256433380434421, -1.747957, 3.3930225, 8.734999, -0.1296047, -0.4025483, 9.523093
256433390073900, -1.6019948, 4.8299127, 9.104691, 0.76069754, 0.4247718, 10.393785
256433399713275, -1.7156538, 3.4396825, 8.7015, -0.074667275, -0.36675715, 9.505308
256433409352650, -1.975275, 4.2855453, 9.233903, 0.14323497, 0.15955591, 10.367575
256433418992129, -1.9549361, 3.62393, 9.1669035, -0.1887824, -0.30299067, 10.042873
256433428631504, -2.3102703, 3.574877, 9.38465, -0.5224198, -0.26000667, 10.288257
256433438270879, -2.111666, 3.973282, 9.040084, -0.11668885, 0.09169078, 10.09689
256433447910358, -2.3437698, 3.1286156, 8.883354, -0.75380087, -0.3611958, 9.669373
256433457549733, -2.0542383, 4.4243293, 8.886943, 0.18476683, 0.4677906, 10.125185
256433467189213, -2.0817556, 3.12383, 8.517252, -0.50072104, -0.35171318, 9.287689
256433476828588, -1.8245273, 4.7198424, 8.729017, 0.57631993, 0.6226165, 10.053942
256433486467963, -1.7036897, 3.5186458, 8.318648, 0.03776923, -0.15550184, 9.190089
256433496107442, -1.7012969, 4.5834517, 8.907282, 0.581619, 0.38202167, 10.136955
256433505746817, -1.6127625, 3.9230328, 8.806784, 0.3039027, -0.1081779, 9.769676
256433515386296, -1.8915263, 3.9553359, 9.29492, 0.038484395, -0.15643048, 10.2758045
256433525025671, -1.7970098, 4.162315, 9.306884, 0.23035812, -0.059419394, 10.349667
256433534665046, -2.160719, 3.2805598, 9.287741, -0.56450635, -0.50405955, 10.055854
256433544304525, -1.9537396, 4.4195433, 9.221938, 0.23837817, 0.24779224, 10.405546
256433553943900, -2.1164517, 3.0939198, 8.816355, -0.5900427, -0.47440338, 9.550215
256433563583379, -1.9980069, 4.6229334, 8.995817, 0.3495518, 0.5236144, 10.29038
256433573222754, -2.012364, 3.3080773, 8.411968, -0.35321748, -0.1903224, 9.251661
256433582862129, -1.9537396, 4.456632, 8.743374, 0.33109885, 0.47087955, 9.98969
256433592501608, -1.7934206, 3.769892, 8.456235, 0.0864079, 0.00580287, 9.430208
256433602140983, -1.922633, 3.993621, 8.859426, 0.07886064, 0.061766624, 9.905801
256433611780463, -1.7300107, 4.1467614, 8.79123, 0.32087487, 0.09157014, 9.867268
256433621419838, -2.0291135, 3.379862, 9.017352, -0.38368505, -0.38868117, 9.826248
256433631059213, -1.855634, 4.447061, 9.215957, 0.3505777, 0.19906616, 10.391875
256433640698692, -2.103291, 3.0963125, 8.9826565, -0.6100085, -0.5327289, 9.697588
256433650338067, -1.9764715, 4.5798626, 9.24467, 0.32652867, 0.3583536, 10.493355
256433659977546, -2.0781665, 3.2135608, 8.803194, -0.48964316, -0.4022472, 9.578122
256433669616921, -2.0877378, 4.4231324, 9.115458, 0.14851493, 0.3571639, 10.337538
256433679256296, -1.9357935, 3.6634114, 8.663215, -0.09717929, -0.08343601, 9.602227
256433688895775, -2.0183458, 4.0881376, 8.9348, 0.05190757, 0.15693784, 10.029452
256433698535150, -1.7958134, 4.168297, 8.723035, 0.29230893, 0.20069456, 9.826762
256433708174629, -2.0602202, 3.4683964, 8.8701935, -0.31283396, -0.2599237, 9.735975
256433717814004, -1.855634, 4.4039903, 8.985049, 0.3477583, 0.28028393, 10.1671095
256433727453483, -2.0865414, 3.0783663, 8.711071, -0.5408813, -0.47639322, 9.444218
256433737092858, -1.902294, 4.59063, 8.903693, 0.38553944, 0.48436904, 10.177677
256433746732233, -1.9716859, 3.2434711, 8.562716, -0.36231026, -0.3500681, 9.35275
256433756371713, -2.0027926, 4.5044885, 9.114262, 0.25118288, 0.38700628, 10.351739
256433766011088, -1.948954, 3.5988052, 8.806784, -0.15661323, -0.19345522, 9.708105
256433775650567, -2.0518453, 4.0510488, 9.127422, -0.0248563, 0.05602503, 10.194468
256433785289942, -1.8329022, 4.040281, 8.873783, 0.17111254, 0.061619997, 9.919393
256433794929317, -2.0805593, 3.4624143, 9.059227, -0.3505929, -0.34227705, 9.906897
256433804568796, -1.8568304, 4.3501515, 9.159725, 0.29672036, 0.17760324, 10.30304
256433814208171, -2.1008983, 3.1322048, 8.865408, -0.55348575, -0.46752787, 9.60703
256433823847650, -1.9214365, 4.6396832, 9.036494, 0.40144974, 0.47305012, 10.3194895
256433833487025, -1.9908284, 3.31047, 8.629715, -0.36813432, -0.2937045, 9.443135
256433843126504, -1.8711873, 4.6576295, 9.049655, 0.45799994, 0.44005537, 10.328973
256433852765879, -1.7886349, 3.6203406, 8.708678, -0.02849406, -0.20407104, 9.59712
256433862405254, -1.9369899, 4.1431723, 9.160921, 0.10951853, 0.05147457, 10.23844
256433872044733, -1.7467605, 3.9960139, 8.955139, 0.20411742, -0.059957266, 9.958341
256433881684108, -1.9704895, 3.6251264, 9.042477, -0.19133723, -0.25126696, 9.934336
256433891323588, -1.8580267, 4.3633122, 9.008977, 0.3036445, 0.25795722, 10.173183
256433900962963, -2.204986, 3.121437, 8.784052, -0.6562487, -0.39691567, 9.548649
256433910602442, -1.989632, 4.5918264, 8.999406, 0.30491513, 0.49157166, 10.280965
256433920241817, -2.0291135, 3.278167, 8.567501, -0.41066387, -0.2864704, 9.381633
256433929881296, -1.8855443, 4.6899323, 8.896515, 0.4570479, 0.55756974, 10.20681
256433939520671, -1.7814565, 3.5700915, 8.603394, -0.037937522, -0.20316601, 9.481288
256433949160150, -1.8723837, 4.202993, 9.12144, 0.19415951, 0.08098078, 10.214079
256433958799525, -1.678565, 3.9481573, 8.987442, 0.23320875, -0.13985491, 9.955185
256433968438900, -1.9776679, 3.603591, 9.098708, -0.20693639, -0.29451728, 9.977674
256433978078379, -1.8113668, 4.3609195, 9.050852, 0.33978343, 0.21175575, 10.2008
256433987717754, -2.1080768, 3.2446675, 8.898908, -0.4995238, -0.40703106, 9.682316
256433997357233, -1.9286151, 4.6672006, 9.066405, 0.39764297, 0.48501182, 10.358991
256434006996608, -2.0578275, 3.2075787, 8.665607, -0.47811005, -0.3670876, 9.447362
256434016636088, -1.9680966, 4.5798626, 9.02453, 0.31476098, 0.4549687, 10.294884
256434026275463, -1.9034904, 3.4217365, 8.668, -0.22470537, -0.27676368, 9.504666
256434035914942, -1.9704895, 4.197011, 9.152547, 0.109410346, 0.11793709, 10.258703
256434045554317, -1.727618, 3.940979, 8.945567, 0.1955294, -0.10198331, 9.92424
256434055193796, -1.922633, 3.772285, 9.0747795, -0.06256974, -0.18188548, 10.012056
256434064833171, -1.747957, 4.3704906, 8.930014, 0.42038536, 0.23196888, 10.083212
256434074472650, -2.111666, 3.2159536, 8.810373, -0.51638085, -0.38337874, 9.592213
256434084112025, -1.9788643, 4.5008993, 9.042477, 0.30020165, 0.39176512, 10.280894
256434093751400, -2.1834507, 3.0783663, 8.617751, -0.6306208, -0.3670225, 9.379607
256434103390879, -2.0877378, 4.5008993, 8.971889, 0.20634538, 0.48285007, 10.238937
256434113030254, -2.0518453, 3.3463624, 8.650054, -0.3741503, -0.26168346, 9.488055
256434122669733, -2.085345, 4.213761, 9.083155, 0.04147607, 0.21345186, 10.225502
256434132309108, -1.8604196, 3.7914274, 8.822337, 0.022335947, -0.09531379, 9.780601
256434141948588, -2.012364, 3.7543387, 8.965906, -0.13457197, -0.10801506, 9.924837
256434151587963, -1.6797615, 4.375276, 8.907282, 0.49400973, 0.2002809, 10.050878
256434161227442, -1.9250258, 3.394219, 8.876176, -0.2520023, -0.38159633, 9.685236
256434170866817, -1.7300107, 4.671986, 9.128618, 0.6030731, 0.35481548, 10.376053
256434180506296, -2.0315065, 3.1944182, 8.849854, -0.4458121, -0.4541483, 9.604491
256434190145671, -2.062613, 4.551149, 9.08794, 0.26132566, 0.4578576, 10.357609
256434199785150, -2.103291, 3.3116665, 8.703893, -0.43938702, -0.26001906, 9.533522
256434209424525, -2.1343977, 4.3070807, 9.175279, 0.05326146, 0.2717533, 10.3545
256434219064004, -1.9441684, 3.6466618, 8.872586, -0.13157147, -0.17453861, 9.785343
256434228703379, -1.9525433, 4.0127635, 9.044869, 0.059800923, 0.018592596, 10.085655
256434238342858, -1.9130617, 3.792624, 8.95155, -0.025556684, -0.12221742, 9.9074955
256434247982233, -1.9621146, 3.8237305, 8.817552, -0.038871646, -0.017709494, 9.80909
256434257621713, -1.9369899, 3.8560338, 8.797213, 0.0015807748, 9.396076E-4, 9.798566
256434267261088, -1.9465612, 3.940979, 8.938389, 0.03246218, 0.005425215, 9.960629
256434276900567, -1.9669002, 3.9756749, 8.988638, 0.030828774, 0.01871872, 10.023423
256434286539942, -1.9680966, 4.007978, 8.946764, 0.051447093, 0.060875654, 9.998777
256434296179421, -1.98365, 4.0007997, 8.755338, 0.045104384, 0.14136791, 9.827267
256434305818796, -1.9669002, 3.973282, 8.694321, 0.044438064, 0.13770175, 9.758379
256434315458275, -1.9369899, 3.9290147, 8.8905325, 0.030472934, 0.00467062, 9.911091
256434325097650, -1.8436699, 3.9314077, 8.975478, 0.106131434, -0.078089476, 9.969801
256434334737129, -1.7994026, 3.9349968, 8.876176, 0.15481555, -0.05273819, 9.873289
256434344376504, -1.8293129, 3.952943, 8.8701935, 0.14062905, -0.021292925, 9.880904
256434354015983, -1.9154545, 3.9194436, 8.944371, 0.046592057, -0.030073404, 9.951368
256434363655358, -2.097309, 3.8129628, 8.913264, -0.1634928, 0.0018360615, 9.917508
256434373294838, -2.2145574, 3.735196, 9.014959, -0.31291664, -0.032248974, 10.001325
256434382934317, -2.268396, 3.7710886, 9.068798, -0.3405819, 0.0014390945, 10.074416
256434392573692, -2.2229323, 3.8057845, 9.018549, -0.27694696, 0.021467209, 10.034067
256434402213171, -2.1284158, 3.8368912, 9.007781, -0.17447454, 9.815693E-4, 10.018063
256434411852546, -1.9657038, 3.8907297, 8.974281, 5.3840876E-4, -0.031754494, 9.976897
256434421492025, -1.7898313, 3.9864426, 8.797213, 0.20848548, 0.022224426, 9.8204975
256434431131400, -1.6558332, 4.0965123, 8.647661, 0.38371485, 0.09540987, 9.703036
256434440770879, -1.5840486, 4.1647077, 8.489735, 0.48974177, 0.17886925, 9.573805
256434450410254, -1.5984055, 4.165904, 8.423932, 0.46648103, 0.21146607, 9.518928
256434460049733, -1.7371893, 4.115655, 8.49811, 0.30992925, 0.21826172, 9.593259
256434469689108, -1.8783658, 4.0067816, 8.847462, 0.111926556, 0.058247328, 9.8916235
256434479328588, -2.0733807, 3.8823547, 9.236296, -0.1547178, -0.08915162, 10.229803
256434488967963, -2.219343, 3.6981075, 9.537791, -0.3970998, -0.27312064, 10.456512
256434498607442, -2.2911277, 3.60718, 9.611969, -0.5114887, -0.33505702, 10.501291
256434508246817, -2.2085752, 3.5844483, 9.486345, -0.43383276, -0.33048725, 10.364334
256434517886296, -2.1284158, 3.6729827, 9.141779, -0.28634965, -0.15643692, 10.074057
256434527525775, -1.9968106, 3.7938204, 8.79482, -0.09089616, 0.015261173, 9.783694
256434537165150, -1.861616, 3.9361932, 8.55793, 0.12321505, 0.15443206, 9.599915
256434546804629, -1.8041883, 4.054638, 8.477771, 0.24616495, 0.24689698, 9.562753
256434556444004, -1.7359928, 4.15394, 8.459825, 0.361372, 0.28901744, 9.572011
256434566083483, -1.6642082, 4.1814575, 8.560323, 0.42699212, 0.22471428, 9.659219
256434575722858, -1.7312071, 4.1515474, 8.760123, 0.3186233, 0.14926863, 9.841159
256434585362338, -1.7982062, 3.9984066, 9.019745, 0.1659719, -0.044813633, 10.027315
256434595001713, -1.9262222, 3.8548372, 9.211171, -0.046032548, -0.16257071, 10.167951
256434604641192, -2.0721843, 3.694518, 9.340384, -0.26108706, -0.2546854, 10.249542
256434614280671, -2.2181466, 3.574877, 9.347562, -0.437819, -0.26699448, 10.237864
256434623920046, -2.271985, 3.5772698, 9.253045, -0.47696745, -0.19517016, 10.164254
256434633559525, -2.2492533, 3.6837504, 9.046066, -0.3653873, -0.03242588, 10.016283
256434643198900, -2.1535404, 3.859623, 8.79482, -0.16841975, 0.15582442, 9.840255
256434652838379, -1.9645073, 3.9900317, 8.632108, 0.07329494, 0.22394538, 9.707596
256434662477754, -1.7970098, 4.091727, 8.555537, 0.2719807, 0.23233867, 9.6457615
256434672117233, -1.6510476, 4.1443686, 8.603394, 0.412925, 0.16730905, 9.680994
256434681756713, -1.6043876, 4.130012, 8.636893, 0.43161625, 0.11623764, 9.696762
256434691396088, -1.6402799, 4.0163527, 8.790034, 0.31731582, -0.01433301, 9.7972145
256434701035567, -1.7838492, 3.8560338, 9.077172, 0.09027904, -0.17661929, 10.020322
256434710674942, -1.9860427, 3.7268212, 9.377472, -0.17857379, -0.28900814, 10.278869
256434720314421, -2.1332014, 3.7124643, 9.412168, -0.31360757, -0.23194838, 10.332941
256434729953796, -2.213361, 3.7447674, 9.335598, -0.35049123, -0.12348652, 10.292597
256434739593275, -2.2289143, 3.802195, 9.159725, -0.31999522, 0.002703905, 10.159868
256434749232754, -2.1619153, 3.8464625, 8.980264, -0.21994466, 0.07463789, 10.0030155
256434758872129, -2.0434706, 3.891926, 8.82114, -0.07724875, 0.112509966, 9.854782
256434768511608, -1.8711873, 3.9756749, 8.58784, 0.13703793, 0.17735934, 9.644072
256434778150983, -1.707279, 4.0570307, 8.469396, 0.32183495, 0.2021575, 9.537323
256434787790463, -1.6342978, 4.0773697, 8.486146, 0.39435902, 0.17001319, 9.546001
256434797429838, -1.7240287, 3.9972103, 8.665607, 0.25026298, 0.074316025, 9.694048
256434807069317, -1.847259, 3.842873, 8.906086, 0.04795766, -0.07872772, 9.873698
256434816708796, -1.9848464, 3.749553, 9.176475, -0.15010339, -0.18773532, 10.106864
256434826348171, -2.0901306, 3.7423747, 9.328419, -0.25179398, -0.20391321, 10.261014
256434835987650, -2.120041, 3.7746778, 9.257831, -0.26214325, -0.12790084, 10.215925
256434845627025, -2.1008983, 3.7854455, 9.077172, -0.22909671, -0.051371574, 10.05402
256434855266504, -2.0410776, 3.8333018, 8.88455, -0.14088774, 0.03466797, 9.888094
256434864905983, -1.9800607, 3.8572302, 8.85823, -0.060223907, 0.03392577, 9.862166
256434874545358, -1.9046868, 3.9684963, 8.872586, 0.061739087, 0.07343054, 9.904058
256434884184838, -1.8113668, 4.0438704, 8.847462, 0.19611073, 0.10149646, 9.89256
256434893824213, -1.7491534, 4.1084766, 8.841479, 0.2816646, 0.12196541, 9.900335
256434903463692, -1.713261, 4.072584, 8.906086, 0.29018736, 0.04923582, 9.937451
256434913103171, -1.7467605, 4.028317, 8.986245, 0.226067, -7.1287155E-5, 9.999001
256434922742546, -1.7766708, 3.932604, 8.971889, 0.12931281, -0.059145212, 9.954721
256434932382025, -1.8173488, 3.8751762, 8.952746, 0.05953273, -0.076494694, 9.922803
256434942021400, -1.896312, 3.8201413, 8.940782, -0.036363244, -0.07278371, 9.905577
256434951660879, -2.0051854, 3.8141594, 9.000603, -0.13453802, -0.04897976, 9.977923
256434961300358, -2.0482562, 3.8404803, 9.018549, -0.15184307, -0.012910128, 10.012774
256434970939733, -2.099702, 3.851248, 8.9826565, -0.17904153, 0.038758993, 9.99477
256434980579213, -2.0889342, 3.8380876, 8.921639, -0.16103548, 0.051338673, 9.9328575
256434990218588, -2.0673988, 3.7962132, 8.895318, -0.1638582, 0.020596504, 9.88862
256434999858067, -2.0255244, 3.7507496, 8.872586, -0.15227234, -0.02851677, 9.842238
256435009497546, -1.9740787, 3.7962132, 8.817552, -0.08204278, 0.0049796104, 9.800546
256435019136921, -1.8747765, 3.8895333, 8.768498, 0.04729882, 0.043876886, 9.773723
256435028776400, -1.7216359, 4.0103707, 8.837891, 0.23320961, 0.023437738, 9.853959
256435038415775, -1.6905292, 4.1144586, 8.876176, 0.30851275, 0.06779766, 9.923376
256435048055254, -1.7204394, 4.078566, 8.865408, 0.2651165, 0.058811903, 9.905369
256435057694733, -1.7527425, 4.0498524, 8.932407, 0.2111271, 0.026185274, 9.960726
256435067334108, -1.8305093, 3.9864426, 9.078369, 0.101897955, -0.042165518, 10.08202
256435076973588, -1.9130617, 3.871587, 9.203992, -0.04087609, -0.13466215, 10.165758
256435086613067, -2.0398812, 3.7770705, 9.195618, -0.20040536, -0.12729144, 10.145464
256435096252442, -2.14038, 3.6933217, 9.103494, -0.31840718, -0.08875084, 10.049188
256435105891921, -2.1834507, 3.6658044, 8.900104, -0.34768492, -0.004514694, 9.863901
256435115531296, -2.1272194, 3.7304106, 8.822337, -0.252447, 0.046211243, 9.808609
256435125170775, -2.024328, 3.8380876, 8.702696, -0.09421396, 0.12106991, 9.723282
256435134810254, -1.9058832, 3.9637108, 8.705089, 0.07696891, 0.15107703, 9.751575
256435144449629, -1.7826529, 4.01396, 8.772088, 0.20309609, 0.09606218, 9.807589
256435154089108, -1.7467605, 4.0067816, 8.825927, 0.22522992, 0.04736471, 9.846293
256435163728588, -1.7347964, 3.993621, 8.943174, 0.20930448, -0.017894745, 9.944586
256435173367963, -1.7467605, 3.946961, 9.110672, 0.1652517, -0.119121075, 10.079312
256435183007442, -1.861616, 3.9074793, 9.132208, 0.03927633, -0.09996724, 10.10543
256435192646817, -2.003989, 3.8656049, 9.071191, -0.10889825, -0.032041073, 10.061436
