timestamp_acc,device_acc_x,device_acc_y,device_acc_z,earth_acc_x,earth_acc_y,earth_acc_z
256400124514317, -1.867598, 3.7064822, 9.12503, 0.07482165, 0.006039381, 10.024296
256400134153692, -1.8137596, 3.662215, 8.913264, 0.10775769, 0.027809858, 9.804869
256400143793067, -1.8592232, 3.5617166, 8.845069, 0.015712678, 0.005455494, 9.714809
256400153432442, -1.9465612, 3.5066817, 8.995817, -0.1003443, -0.048995256, 9.848766
256400163071817, -2.012364, 3.5353954, 9.038888, -0.15166873, -0.009217739, 9.910956
256400172711192, -1.9884356, 3.6131623, 8.91805, -0.07912868, 0.08269739, 9.824833
256400182350567, -1.942972, 3.67059, 8.886943, -0.0155745745, 0.10716605, 9.808895
256400191989942, -1.942972, 3.7124643, 8.867801, 0.0074812174, 0.14507747, 9.80685
256400201629317, -1.8771694, 3.629912, 9.065208, 5.899668E-4, -0.03194022, 9.943691
256400211268692, -1.8903298, 3.5976088, 9.287741, -0.041504383, -0.13688135, 10.136954
256400220908067, -1.9477576, 3.5353954, 9.342776, -0.123015344, -0.16756272, 10.175316
256400230547442, -1.9657038, 3.5581272, 9.347562, -0.114536464, -0.13181353, 10.191697
256400240186817, -1.98365, 3.6586258, 9.230313, -0.06498659, -4.3916702E-4, 10.124963
256400249826192, -1.9106688, 3.7543387, 8.94796, 0.06667745, 0.1467917, 9.888666
256400259465567, -1.8628124, 3.8165522, 8.7266245, 0.1503604, 0.2557156, 9.7006235
256400269104942, -1.7587247, 3.8141594, 8.819944, 0.22171405, 0.15797687, 9.765154
256400278744317, -1.7024933, 3.7627137, 8.906086, 0.23460048, 0.05344343, 9.814121
256400288383692, -1.6522441, 3.6837504, 9.030513, 0.22453609, -0.08288574, 9.889025
256400298023067, -1.6965113, 3.629912, 9.202796, 0.15003896, -0.17131162, 10.034641
256400307662442, -1.8065811, 3.5796626, 9.221938, 0.025426507, -0.15803933, 10.054663
256400317301817, -2.0195422, 3.4839497, 9.267402, -0.21113709, -0.13205719, 10.101445
256400326941192, -2.1942184, 3.4037902, 9.186047, -0.39746612, -0.06033635, 10.031063
256400336580567, -2.2528424, 3.4420755, 9.115458, -0.40916073, 0.032755613, 9.992311
256400346219942, -2.2037897, 3.5712879, 8.965906, -0.2774738, 0.16326714, 9.894171
256400355859317, -2.062613, 3.650251, 8.886943, -0.10647184, 0.1718123, 9.824236
256400365498692, -1.896312, 3.7124643, 8.846265, 0.06792301, 0.14168501, 9.778043
256400375138067, -1.727618, 3.784249, 8.872586, 0.24764669, 0.08736706, 9.79587
256400384777442, -1.5936198, 3.8297126, 8.851051, 0.38312584, 0.057572365, 9.767156
256400394416817, -1.5684953, 3.7854455, 8.95155, 0.3680516, -0.028281927, 9.837873
256400404056192, -1.7156538, 3.6717863, 9.098708, 0.1597175, -0.0844233, 9.958881
256400413695567, -1.8640088, 3.5904303, 9.23151, -0.016490161, -0.1197145, 10.078288
256400423334942, -1.9860427, 3.5820556, 9.276974, -0.13097441, -0.07456851, 10.139775
256400432974317, -2.012364, 3.566502, 9.237492, -0.16448879, -0.05262184, 10.103018
256400442613692, -2.0578275, 3.5653057, 9.176475, -0.1988945, -0.0065643787, 10.055553
256400452253067, -2.0338993, 3.6059837, 8.975478, -0.13843721, 0.08858776, 9.882917
256400461892442, -1.8460627, 3.65384, 8.695518, 0.06576997, 0.13324761, 9.60981
256400471531817, -1.7168503, 3.7483566, 8.6141615, 0.23214793, 0.16256285, 9.545744
256400481171192, -1.7312071, 3.7100716, 8.780462, 0.1918168, 0.076128006, 9.685847
256400490810567, -1.8915263, 3.5617166, 9.040084, -0.03978944, -0.036951065, 9.89868
256400500449942, -1.9908284, 3.4827533, 9.383454, -0.18561524, -0.18158007, 10.201704
256400510089317, -1.9800607, 3.5497525, 9.519845, -0.15014446, -0.18764186, 10.348481
256400519728692, -1.975275, 3.6059837, 9.430114, -0.11653578, -0.10834527, 10.286232
256400529368067, -1.948954, 3.6263227, 9.345169, -0.085794926, -0.07493186, 10.211164
256400539007442, -1.9250258, 3.629912, 9.152547, -0.05563754, -0.016358852, 10.032334
256400548646817, -1.8484555, 3.6849468, 8.9108715, 0.054825187, 0.07885027, 9.8178425
256400558286192, -1.7324036, 3.7459638, 8.813962, 0.19645917, 0.09365392, 9.729954
256400567925567, -1.678565, 3.8117664, 8.800801, 0.2872408, 0.115549326, 9.731669
256400577564942, -1.7359928, 3.7734814, 8.773284, 0.21937305, 0.12997961, 9.703522
256400587204317, -1.8532411, 3.595216, 8.906086, 0.013273716, 0.009152412, 9.781524
256400596843692, -2.0195422, 3.4863427, 9.052048, -0.19743955, -0.039102554, 9.906169
256400606483067, -2.056631, 3.473182, 9.089137, -0.24062467, -0.044500113, 9.942097
256400616122442, -2.0183458, 3.5904303, 9.110672, -0.14543468, 0.014207125, 9.9973955
256400625761817, -1.8879371, 3.694518, 9.135797, 0.019261152, 0.011209488, 10.033747
256400635401192, -1.8317057, 3.7734814, 9.000603, 0.11709812, 0.09572649, 9.928862
256400645040567, -1.7467605, 3.7459638, 8.902496, 0.17871973, 0.06864667, 9.813318
256400654679942, -1.7563318, 3.6885362, 8.977871, 0.13511562, -7.2431564E-4, 9.862755
256400664319317, -1.8604196, 3.629912, 9.079565, 0.010922402, -0.029878855, 9.953637
256400673958692, -1.9393828, 3.5330026, 9.225528, -0.11718786, -0.117661, 10.066086
256400683598067, -1.989632, 3.5306098, 9.32483, -0.16722757, -0.13187456, 10.165182
256400693237442, -1.995614, 3.5736806, 9.178867, -0.14284208, -0.03797412, 10.049051
256400702876817, -1.948954, 3.5724843, 9.097511, -0.10412145, -0.03142929, 9.965639
256400712516192, -1.8723837, 3.6370904, 8.950353, 0.0037770867, 0.03585887, 9.840822
256400722155567, -1.7910278, 3.674179, 8.837891, 0.10113996, 0.06600189, 9.736585
256400731794942, -1.7048861, 3.7507496, 8.868998, 0.21862736, 0.06567693, 9.776592
256400741434317, -1.7204394, 3.7627137, 8.908479, 0.21431828, 0.068247795, 9.819795
256400751073692, -1.82692, 3.7280176, 9.025727, 0.10122079, 0.05074048, 9.934117
256400760713067, -1.9286151, 3.656233, 9.135797, -0.04121393, 0.0064866543, 10.027394
256400770352442, -2.0003998, 3.5712879, 9.156136, -0.15795094, -0.026372433, 10.028204
256400779991817, -2.0207388, 3.5389848, 9.12144, -0.19555753, -0.03140974, 9.988457
256400789631192, -1.9920249, 3.5377884, 9.090333, -0.17068186, -0.03515625, 9.954291
256400799270567, -1.922633, 3.595216, 9.12503, -0.08418253, -0.04460478, 9.993958
256400808909942, -1.8388842, 3.615555, 9.072387, 0.008286327, -0.05210662, 9.937764
256400818549317, -1.8017955, 3.6574295, 8.983852, 0.072467655, -0.0032787323, 9.865476
256400828188692, -1.7587247, 3.7292142, 8.974281, 0.15144083, 0.034393787, 9.874907
256400837828067, -1.7730815, 3.757928, 8.9348, 0.1569787, 0.08024454, 9.85218
256400847467442, -1.8317057, 3.702893, 8.909675, 0.0768078, 0.07843256, 9.820225
256400857106817, -1.902294, 3.6478581, 9.022138, -0.017294824, 0.02632165, 9.915824
256400866746192, -1.963311, 3.6335013, 9.119047, -0.084192455, 0.007008791, 10.010335
256400876385567, -1.9657038, 3.6430724, 9.147761, -0.086692095, 0.0038321018, 10.040418
256400886024942, -1.9250258, 3.6466618, 9.092726, -0.053966194, 0.0038440228, 9.983917
256400895664317, -1.8592232, 3.6777685, 9.0544405, 0.019471437, 0.0054779053, 9.948124
256400905303692, -1.7898313, 3.6873398, 9.004191, 0.085517764, -0.0060777664, 9.89283
256400914943067, -1.7060826, 3.6849468, 8.961121, 0.15563804, -0.035184383, 9.836959
256400924582442, -1.774278, 3.7005002, 8.943174, 0.10991931, 0.018764973, 9.839191
256400934221817, -1.7982062, 3.682554, 8.992228, 0.07684612, -6.7448616E-4, 9.88175
256400943861192, -1.8939191, 3.6681972, 9.048459, -0.012986958, 0.019310951, 9.945686
256400953500567, -1.9764715, 3.6251264, 9.129815, -0.1093806, -4.5776367E-4, 10.019457
256400963139942, -1.9908284, 3.611966, 9.171689, -0.13100225, -0.020763636, 10.055445
256400972779317, -1.9513469, 3.6466618, 9.132208, -0.07501906, 2.1862984E-4, 10.024843
256400982418692, -1.8903298, 3.6921253, 9.02812, 0.009441912, 0.041437626, 9.935306
256400992058067, -1.8065811, 3.7447674, 8.892925, 0.119571626, 0.08673477, 9.815767
256401001697442, -1.7527425, 3.7292142, 8.775677, 0.16281664, 0.09330034, 9.693112
256401011336817, -1.7455641, 3.6478581, 8.82114, 0.12005359, 0.010691881, 9.703188
256401020976192, -1.847259, 3.562913, 8.98146, -0.02171135, -0.059326172, 9.837141
256401030615567, -1.9848464, 3.4923246, 9.122637, -0.18309617, -0.09301758, 9.965754
256401040254942, -2.0721843, 3.501896, 9.209974, -0.25423068, -0.07227373, 10.065337
256401049894317, -2.0817556, 3.5724843, 9.165708, -0.2178359, 0.0037269592, 10.052816
256401059533588, -2.0410776, 3.6323047, 9.097511, -0.14727116, 0.052829266, 10.004992
256401069172963, -1.9609182, 3.67059, 9.152547, -0.05669132, 0.014674187, 10.05406
256401078812338, -1.8340986, 3.7292142, 9.099904, 0.083817154, 0.0130934715, 10.0036
256401088451713, -1.7419748, 3.7184465, 8.933603, 0.16545713, 0.024508476, 9.830699
256401098091088, -1.719243, 3.7244284, 8.903693, 0.18763629, 0.026931524, 9.801378
256401107730463, -1.8029919, 3.6670008, 8.843872, 0.08883771, 0.05204034, 9.741723
256401117369838, -1.861616, 3.6167514, 8.904889, 0.005182892, 0.018547535, 9.789953
256401127009213, -1.902294, 3.6394832, 9.053245, -0.028775603, -0.004400015, 9.941074
256401136648588, -1.9166509, 3.67059, 9.067601, -0.030567765, 0.020977497, 9.96829
256401146287963, -1.8640088, 3.682554, 9.113065, 0.017597824, -0.016348839, 10.004154
256401155927338, -1.8783658, 3.6849468, 9.2075815, 0.0017096996, -0.046015024, 10.093787
256401165566713, -1.8245273, 3.751946, 9.18485, 0.085392, -0.015598297, 10.087612
256401175206088, -1.6917256, 3.5174494, 8.857033, 0.08255613, -0.12672663, 9.677735
256401184845463, -1.8711873, 3.8548372, 9.101101, 0.115264, 0.11738992, 10.058037
256401194484838, -1.7288144, 3.751946, 8.962317, 0.1821264, 0.023447037, 9.866879
256401204124213, -2.103291, 3.249453, 9.042477, -0.41375214, -0.1826582, 9.82571
256401213763588, -1.896312, 4.0773697, 8.945567, 0.22760177, 0.35884523, 10.003176
256401223402963, -2.1044874, 2.8965118, 8.896515, -0.6083605, -0.3801825, 9.563052
256401233042338, -1.8652053, 4.3202415, 9.230313, 0.37410003, 0.40741348, 10.345832
256401242681713, -1.9345971, 2.9419754, 8.788837, -0.4392218, -0.40032792, 9.449252
256401252321088, -1.8640088, 4.2341, 9.128618, 0.32409137, 0.38016868, 10.221754
256401261960463, -1.7898313, 3.2709885, 8.812766, -0.13268685, -0.24370122, 9.565078
256401271599733, -1.9345971, 3.8895333, 9.241081, 0.07432747, 0.11377621, 10.2102995
256401281239108, -1.7347964, 3.7543387, 8.967103, 0.17763305, 0.022331715, 9.87327
256401290878483, -2.0027926, 3.379862, 9.19801, -0.28068602, -0.20574522, 9.995846
256401300517858, -1.7120646, 4.2125645, 9.242277, 0.43517464, 0.22759938, 10.288605
256401310157233, -1.902294, 3.0927234, 9.145369, -0.3706411, -0.44515753, 9.822723
256401319796608, -1.6642082, 4.475775, 9.153743, 0.6235736, 0.4282658, 10.296647
256401329435983, -1.7970098, 2.9946175, 8.585447, -0.2857533, -0.35793543, 9.257274
256401339075358, -1.8125632, 4.3561335, 8.904889, 0.4749776, 0.5197177, 10.052991
256401348714733, -1.814956, 3.249453, 8.555537, -0.14409333, -0.14208817, 9.327876
256401358354108, -2.0422742, 3.8811584, 9.0544405, -0.0043871403, 0.23654437, 10.057892
256401367993483, -1.9453648, 3.542574, 8.949157, -0.11127573, -0.02138424, 9.8188
256401377632858, -2.2767708, 3.1944182, 9.260223, -0.6122447, -0.22171545, 10.035723
256401387272233, -2.0207388, 3.8500516, 9.164511, -0.016513467, 0.15727592, 10.142463
256401396911608, -2.199004, 2.7816563, 9.09153, -0.7712722, -0.49436212, 9.715446
256401406550983, -1.8460627, 4.281956, 9.29492, 0.37131906, 0.31340766, 10.387614
256401416190254, -1.8317057, 2.9802606, 8.902496, -0.33639812, -0.46873403, 9.547705
256401425829629, -1.6833507, 4.4554358, 9.150154, 0.63902295, 0.42790365, 10.28681
256401435469004, -1.6307086, 3.4097722, 8.640483, 0.10641509, -0.15240026, 9.429165
256401445108379, -1.7312071, 4.226921, 9.150154, 0.46101463, 0.28606486, 10.212487
256401454747754, -1.625923, 3.8165522, 8.970692, 0.31916875, 0.011552811, 9.878308
256401464387129, -2.0171494, 3.473182, 9.138189, -0.2302903, -0.10846686, 9.978658
256401474026504, -1.841277, 3.987639, 9.060423, 0.20710194, 0.21014595, 10.064582
256401483665879, -2.160719, 2.9096723, 9.104691, -0.66058886, -0.44847012, 9.766924
256401493305254, -1.9453648, 4.1958146, 9.282955, 0.20857155, 0.3211224, 10.364165
256401502944629, -2.056631, 2.800799, 8.886943, -0.61847174, -0.50225997, 9.508796
256401512584004, -1.8628124, 4.298706, 9.040084, 0.3650026, 0.460104, 10.164995
256401522223379, -1.7934206, 3.2099717, 8.555537, -0.14800027, -0.20259881, 9.308843
256401531862650, -1.9130617, 4.0905304, 8.979067, 0.21642584, 0.34366584, 10.042456
256401541502025, -1.7754744, 3.5856447, 8.792427, 0.06571895, -0.023349762, 9.659765
256401551141400, -2.012364, 3.4743786, 9.263813, -0.2186467, -0.17425632, 10.092619
256401560780775, -1.7623138, 4.024728, 9.1669035, 0.29863134, 0.14618564, 10.1600065
256401570420150, -2.012364, 3.0604203, 9.138189, -0.44803834, -0.42265654, 9.825624
256401580059525, -1.820938, 4.3561335, 9.317652, 0.4241594, 0.34955335, 10.43112
256401589698900, -1.963311, 2.9946175, 8.970692, -0.44742447, -0.438483, 9.63863
256401599338275, -1.7946169, 4.4398823, 9.171689, 0.5086797, 0.45494056, 10.324118
256401608977650, -1.7850457, 3.1884363, 8.653643, -0.16484347, -0.25508428, 9.388601
256401618617025, -1.875973, 4.1204405, 9.05803, 0.26231658, 0.31098676, 10.118285
256401628256400, -1.7670995, 3.546163, 8.865408, 0.040694743, -0.09212279, 9.709955
256401637895671, -2.0662024, 3.522235, 9.169296, -0.24312556, -0.07684779, 10.034258
256401647535046, -1.8496519, 3.9074793, 8.974281, 0.16779405, 0.16599417, 9.958495
256401657174421, -2.1332014, 3.0149565, 8.9108715, -0.5709987, -0.30625534, 9.624152
256401666813796, -1.8568304, 4.2855453, 9.048459, 0.37240314, 0.42136526, 10.167208
256401676453171, -1.9776679, 2.9647074, 8.865408, -0.47281772, -0.41073942, 9.534351
256401686092546, -1.7682959, 4.499703, 9.242277, 0.54846317, 0.4493413, 10.406303
256401695731921, -1.7324036, 3.199204, 8.769695, -0.12451959, -0.3344419, 9.487693
256401705371296, -1.8077775, 4.226921, 9.199206, 0.37773544, 0.28072476, 10.273209
256401715010567, -1.7228323, 3.554538, 8.920443, 0.07611841, -0.14276695, 9.754538
256401724649942, -2.003989, 3.6346977, 9.235099, -0.12698025, -0.062634945, 10.123934
256401734289317, -1.7790636, 3.9457645, 8.932407, 0.24392289, 0.16356826, 9.921482
256401743928692, -2.036292, 3.1609187, 8.845069, -0.41268563, -0.2301209, 9.599473
256401753568067, -1.7922242, 4.3609195, 8.939586, 0.46679676, 0.4696045, 10.0850115
256401763207442, -1.9597218, 2.9718857, 8.785249, -0.463852, -0.3806429, 9.460083
256401772846817, -1.8424734, 4.3908296, 9.180064, 0.43879038, 0.4198799, 10.323703
256401782486192, -1.9250258, 2.9946175, 8.849854, -0.41187376, -0.4214878, 9.5208235
256401792125567, -1.98365, 4.019942, 9.348758, 0.09602827, 0.15315485, 10.366361
256401801764838, -1.9884356, 3.249453, 9.02453, -0.31681752, -0.26698804, 9.786895
256401811404213, -2.239682, 3.5330026, 9.452846, -0.3888241, -0.1035769, 10.329214
256401821043588, -1.98365, 3.8584266, 9.157332, 0.024080187, 0.11972427, 10.132332
256401830682963, -2.1367905, 3.2219357, 8.928818, -0.4500934, -0.16994667, 9.717976
256401840322338, -1.7359928, 4.3800616, 8.837891, 0.55137, 0.4766364, 9.98878
256401849961713, -1.835295, 3.0939198, 8.581859, -0.27122957, -0.29405832, 9.296715
256401859601088, -1.6582261, 4.5248275, 8.921639, 0.70670027, 0.48755503, 10.103578
256401869240358, -1.6606189, 3.097509, 8.658429, -0.13947469, -0.4212761, 9.334007
256401878879733, -1.7001005, 4.2951164, 9.15135, 0.5126032, 0.24283266, 10.235421
256401888519108, -1.719243, 3.5234313, 8.859426, 0.06197536, -0.1600194, 9.6866045
256401898158483, -2.0422742, 3.8093736, 9.347562, -0.068193614, 0.029204369, 10.298234
256401907797858, -1.9345971, 3.8608193, 9.1465645, 0.06287962, 0.08857608, 10.11417
256401917437233, -2.2612174, 3.17049, 9.092726, -0.59604895, -0.21585393, 9.871217
256401927076608, -1.9609182, 4.168297, 9.073584, 0.21492368, 0.36072636, 10.167277
256401936715879, -2.0757737, 2.8594232, 8.9013, -0.59215677, -0.47862768, 9.546653
256401946355254, -1.8161523, 4.2628136, 9.15494, 0.38582432, 0.3148241, 10.248655
256401955994629, -1.9082761, 2.9084759, 8.786445, -0.4252215, -0.48773003, 9.427814
256401965634004, -1.9274186, 4.219743, 9.169296, 0.26809117, 0.33769298, 10.266997
256401975273379, -1.8221345, 3.379862, 8.776874, -0.085939825, -0.17165995, 9.5781145
256401984912754, -2.0422742, 3.900301, 9.249456, -0.004043281, 0.12589622, 10.243038
256401994552129, -1.8496519, 3.9218364, 9.060423, 0.17585456, 0.11449766, 10.042372
256402004191400, -2.056631, 3.3786657, 9.105886, -0.31247675, -0.19209099, 9.921076
256402013830775, -1.7395821, 4.290331, 8.99821, 0.47785395, 0.34266925, 10.102232
256402023470150, -1.8999012, 3.0041888, 8.840283, -0.37277764, -0.44377494, 9.510494
256402033109525, -1.6917256, 4.4434714, 9.053245, 0.60574466, 0.41241837, 10.199539
256402042748900, -1.7706888, 3.083152, 8.535198, -0.20604622, -0.32509828, 9.238108
256402052388275, -1.7563318, 4.4171505, 8.939586, 0.54847574, 0.46896744, 10.099078
256402062027546, -1.7623138, 3.4396825, 8.611769, -0.0063138604, -0.10810256, 9.438644
256402071666921, -2.056631, 3.867998, 9.182457, -0.036934853, 0.13277483, 10.172988
256402081306296, -1.9812572, 3.6227336, 9.159725, -0.11623031, -0.07709956, 10.046427
256402090945671, -2.3150558, 3.1274192, 9.431311, -0.6911722, -0.37324452, 10.172158
256402100585046, -2.0350957, 3.9661036, 9.376275, 0.01778835, 0.11326194, 10.381377
256402110224421, -2.2277179, 2.8558338, 9.080762, -0.74898267, -0.46542025, 9.736589
256402119863796, -1.8975084, 4.308277, 9.217153, 0.35550267, 0.36091614, 10.337362
256402129503067, -1.9334008, 2.9659038, 8.687142, -0.40062654, -0.39097118, 9.364172
256402139142442, -1.7682959, 4.4602213, 8.840283, 0.5746773, 0.5435679, 10.027229
256402148781817, -1.6271194, 3.5042887, 8.3377905, 0.17501736, -0.025294065, 9.187766
256402158421192, -1.8161523, 4.159922, 8.912068, 0.3541146, 0.3254614, 9.989845
256402168060567, -1.7144574, 3.8620157, 8.860622, 0.2651354, 0.06522632, 9.8127775
256402177699838, -2.0171494, 3.4648073, 9.203992, -0.23400617, -0.19806337, 10.034604
256402187339213, -1.8065811, 4.135994, 9.251849, 0.3105302, 0.15852714, 10.288116
256402196978588, -2.1176481, 2.9108686, 9.206385, -0.64726084, -0.5523193, 9.848407
256402206617963, -1.8987048, 4.2364926, 9.375079, 0.27952707, 0.22621989, 10.455417
256402216257338, -2.0877378, 2.7936203, 9.105886, -0.68834305, -0.590734, 9.708623
256402225896713, -1.9872392, 4.2161536, 9.260223, 0.22883254, 0.32058167, 10.359618
256402235535983, -1.9202402, 3.1657043, 8.580662, -0.27900666, -0.1985724, 9.339138
256402245175358, -2.044667, 4.0390844, 8.904889, 0.11070794, 0.3601582, 9.982482
256402254814733, -1.8197416, 3.822534, 8.635697, 0.17625988, 0.18665552, 9.614187
256402264454108, -1.9716859, 3.6227336, 8.848659, -0.07320118, 0.035346508, 9.762372
256402274093483, -1.6474584, 4.281956, 8.79123, 0.57066435, 0.34561276, 9.893934
256402283732858, -1.8723837, 3.141776, 8.842676, -0.2932195, -0.36687255, 9.557663
256402293372129, -1.6905292, 4.4398823, 9.280562, 0.56539625, 0.2858119, 10.40663
256402303011504, -1.9070797, 2.9383862, 9.064013, -0.4781022, -0.5872121, 9.687826
256402312650879, -1.8951155, 4.328616, 9.359526, 0.33840168, 0.29300642, 10.475148
256402322290254, -1.963311, 3.1357942, 9.0341015, -0.3873135, -0.39872766, 9.746476
256402331929629, -2.1774685, 3.9541395, 9.495916, -0.11850828, 0.12198949, 10.512855
256402341569004, -2.03031, 3.5401812, 9.018549, -0.1875298, -0.06204176, 9.896981
256402351208275, -2.231307, 3.4600215, 8.980264, -0.39596218, 0.0032246113, 9.87111
256402360847650, -1.8484555, 4.0845485, 8.743374, 0.29578346, 0.3492043, 9.815167
256402370487025, -1.9477576, 3.1812577, 8.679964, -0.28924808, -0.24073863, 9.440039
256402380126400, -1.5960127, 4.5272202, 8.913264, 0.73847157, 0.45786643, 10.086341
256402389765775, -1.7036897, 3.1441689, 8.730213, -0.12128571, -0.43326354, 9.423509
256402399405046, -1.6618153, 4.6205406, 9.104691, 0.69578636, 0.5072348, 10.308492
256402409044421, -1.7060826, 3.3092737, 8.7266245, -0.04360017, -0.30803442, 9.4825735
256402418683796, -1.9609182, 4.130012, 9.27817, 0.15855399, 0.21491408, 10.339986
256402428323171, -1.9525433, 3.51386, 9.119047, -0.15895692, -0.18743134, 9.962743
256402437962546, -2.271985, 3.4504502, 9.304491, -0.47449216, -0.14291668, 10.16836
256402447601817, -2.024328, 3.8536408, 9.029316, -0.019991279, 0.14545274, 10.022746
256402457241192, -2.2636101, 2.9563324, 8.946764, -0.7052965, -0.36734438, 9.657952
256402466880567, -1.9298115, 4.26401, 9.035298, 0.30339622, 0.38662338, 10.163713
256402476519942, -1.9884356, 2.928815, 8.729017, -0.47510314, -0.42206335, 9.39807
256402486159317, -1.7802601, 4.4841495, 9.09153, 0.568529, 0.44364262, 10.267074
256402495798692, -1.7515461, 3.2913275, 8.723035, -0.060132563, -0.27843618, 9.482138
256402505437963, -1.8281165, 4.3118663, 9.156136, 0.42618167, 0.31526804, 10.270735
256402515077338, -1.7407784, 3.6598222, 8.907282, 0.1212123, -0.1065557, 9.784592
256402524716713, -2.044667, 3.6849468, 9.335598, -0.147807, -0.10693979, 10.241074
256402534356088, -1.9058832, 3.95055, 9.0951185, 0.12728256, 0.11011481, 10.096142
256402543995463, -2.1762722, 3.0723844, 9.000603, -0.59125227, -0.35724235, 9.7318735
256402553634733, -1.922633, 4.249653, 9.103494, 0.27660704, 0.32874584, 10.219838
256402563274108, -2.1020947, 2.8977082, 8.860622, -0.6090749, -0.4649999, 9.5257
256402572913483, -1.9381863, 4.386044, 9.123833, 0.35473794, 0.42355537, 10.292377
256402582552858, -1.9728823, 3.0867412, 8.739784, -0.3625575, -0.34624553, 9.46323
256402592192233, -1.9872392, 4.1874394, 9.159725, 0.22246563, 0.29629374, 10.258999
256402601831504, -1.8484555, 3.5306098, 8.797213, -0.004576862, -0.107836485, 9.657188
256402611470879, -1.969293, 3.81057, 8.969496, 0.04872942, 0.08863211, 9.94184
256402621110254, -1.6893328, 4.0869412, 8.755338, 0.45033175, 0.22393703, 9.795914
256402630749629, -1.9525433, 3.306881, 8.762517, -0.22126871, -0.20140195, 9.562431
256402640389004, -1.7228323, 4.3932223, 8.874979, 0.5867661, 0.40209627, 10.026358
256402650028379, -1.9932213, 3.0257242, 8.848659, -0.43969566, -0.4244938, 9.542179
256402659667650, -1.9501505, 4.4458647, 9.332008, 0.39113975, 0.38643217, 10.504896
256402669307025, -2.065006, 2.9838498, 8.961121, -0.53469485, -0.4600122, 9.642188
256402678946400, -2.0937197, 4.115655, 9.32124, 0.0810861, 0.22978878, 10.399445
256402688585775, -1.9513469, 3.365505, 8.895318, -0.20873803, -0.21568274, 9.704173
256402698225150, -2.0554347, 3.7339997, 9.176475, -0.10024023, -0.008815527, 10.117564
256402707864421, -1.7766708, 3.932604, 8.91805, 0.2632659, 0.094293356, 9.903301
256402717503796, -1.995614, 3.359523, 8.957532, -0.24196267, -0.22187996, 9.767215
256402727143171, -1.7407784, 4.4685965, 9.026923, 0.58897924, 0.43143654, 10.195634
256402736782546, -1.969293, 3.12383, 8.85823, -0.33851805, -0.3708558, 9.583973
256402746421921, -1.948954, 4.4542394, 9.200403, 0.41331694, 0.46252942, 10.387556
256402756061296, -2.1080768, 2.900101, 8.997013, -0.57457125, -0.5216205, 9.653943
256402765700567, -2.0961127, 4.080959, 9.361918, 0.05656466, 0.19066429, 10.423717
256402775339942, -1.9525433, 3.2422748, 8.82114, -0.26336482, -0.27868414, 9.591156
256402784979317, -2.0518453, 3.7770705, 9.0029955, -0.0676333, 0.08168721, 9.975922
256402794618692, -1.7934206, 3.912265, 8.662018, 0.24154249, 0.18443203, 9.66749
256402804258067, -1.9908284, 3.458825, 8.766106, -0.18257898, -0.08693433, 9.629671
256402813897338, -1.7048861, 4.5152564, 8.933603, 0.6397124, 0.46617436, 10.123087
256402823536713, -1.8831514, 3.2566316, 8.903693, -0.20234543, -0.35465407, 9.657171
256402833176088, -1.7850457, 4.627719, 9.158528, 0.6389887, 0.49190545, 10.384149
256402842815463, -1.9573289, 3.0293136, 8.878569, -0.40323102, -0.4592421, 9.563648
256402852454838, -2.0865414, 4.1144586, 9.337991, 0.09245241, 0.21161747, 10.412836
256402862094213, -2.105684, 3.0412776, 8.935996, -0.5102955, -0.3951466, 9.649806
256402871733483, -2.2755744, 3.62393, 9.268599, -0.3444419, -0.01611042, 10.202897
256402881372858, -2.0494525, 3.6634114, 9.020942, -0.12140715, -0.0084991455, 9.949041
256402891012233, -2.2073789, 3.318845, 8.993423, -0.44729263, -0.15949011, 9.82565
256402900651608, -1.8436699, 4.3322053, 8.7577305, 0.44697732, 0.47223926, 9.9218025
256402910290983, -1.9525433, 3.2243285, 8.623733, -0.26430172, -0.21962786, 9.405286
256402919930254, -1.6558332, 4.6875396, 8.9826565, 0.77306175, 0.55153656, 10.22258
256402929569629, -1.7252251, 3.2027931, 8.73141, -0.11069572, -0.4146037, 9.449216
256402939209004, -1.7096717, 4.4721856, 9.311669, 0.5836575, 0.2587657, 10.450982
256402948848379, -1.7036897, 3.3990045, 9.089137, -0.02052629, -0.42587566, 9.843091
256402958487754, -1.9345971, 4.0031924, 9.46481, 0.11909801, -0.010941744, 10.456413
256402968127129, -1.8173488, 3.8356948, 9.019745, 0.146752, -0.010352612, 9.967421
256402977766400, -2.1008983, 3.5198421, 8.908479, -0.24790078, -0.047721863, 9.803078
256402987405775, -1.9274186, 4.23051, 8.706285, 0.31374675, 0.46293902, 9.853874
256402997045150, -2.2360928, 2.926422, 8.707481, -0.67352647, -0.3242085, 9.424729
256403006684525, -2.14038, 4.220939, 9.158528, 0.12579793, 0.38201833, 10.301186
256403016323900, -2.2851455, 2.7290142, 8.9013, -0.8346346, -0.5176854, 9.536139
256403025963275, -2.160719, 4.0869412, 9.230313, 0.01508677, 0.26344705, 10.319927
256403035602546, -2.0350957, 3.0592237, 8.811569, -0.45405298, -0.38334203, 9.528438
256403045241921, -1.995614, 3.9864426, 9.217153, 0.08631164, 0.10350442, 10.237769
256403054881296, -1.707279, 3.9194436, 8.865408, 0.30599907, 0.049422503, 9.837491
256403064520671, -1.902294, 3.8141594, 8.928818, 0.084457815, 0.049596786, 9.89347
256403074160046, -1.6247265, 4.53081, 8.895318, 0.7335862, 0.43710256, 10.077969
256403083799421, -1.8496519, 3.3714871, 8.865408, -0.10651907, -0.2784431, 9.658921
256403093438796, -1.7012969, 4.5858445, 9.223135, 0.6787044, 0.39788198, 10.4101715
256403103078067, -1.9166509, 2.9886355, 8.980264, -0.3977246, -0.5686834, 9.631668
256403112717442, -1.9298115, 4.302295, 9.272188, 0.31183743, 0.29227042, 10.393494
256403122356817, -1.948954, 3.1130621, 8.743374, -0.35148352, -0.36143422, 9.470057
256403131996192, -2.0685952, 3.979264, 9.083155, 0.021826506, 0.19995475, 10.128023
256403141635567, -1.9154545, 3.6251264, 8.790034, -0.036558032, -0.021244764, 9.699144
256403151274942, -2.1332014, 3.5437703, 8.977871, -0.2677783, -0.046463013, 9.881153
256403160914213, -1.9142581, 4.1084766, 8.836694, 0.24477506, 0.30956888, 9.923475
256403170553588, -2.1966112, 3.0376883, 8.863015, -0.60064065, -0.3215053, 9.599041
256403180192963, -1.975275, 4.2664027, 9.243474, 0.2680562, 0.3005576, 10.362603
256403189832338, -2.1248264, 2.8235307, 9.089137, -0.6748885, -0.6128104, 9.709202
256403199471713, -1.9932213, 4.2951164, 9.430114, 0.25111872, 0.24800801, 10.546251
256403209111088, -1.9393828, 3.1752756, 8.861818, -0.3101533, -0.35452724, 9.599664
256403218750358, -1.9250258, 4.249653, 9.12144, 0.30749518, 0.3148725, 10.23583
256403228389733, -1.6295122, 3.9290147, 8.784052, 0.38091683, 0.059237003, 9.752098
256403238029108, -1.774278, 3.9481573, 8.988638, 0.2587213, 0.056846857, 9.973038
256403247668483, -1.585245, 4.342973, 8.7673025, 0.65283835, 0.32969213, 9.88459
256403257307858, -1.9381863, 3.249453, 8.855837, -0.2768271, -0.300025, 9.621574
256403266947233, -1.8005991, 4.339384, 9.3104725, 0.42968428, 0.21530962, 10.417597
256403276586608, -2.1284158, 2.8354948, 9.096315, -0.7105262, -0.5989239, 9.718518
256403286225983, -2.1008983, 4.1718864, 9.266206, 0.08983779, 0.28064585, 10.37276
256403295865254, -2.1870399, 2.9192436, 8.695518, -0.66789347, -0.35042524, 9.399376
256403305504629, -2.2145574, 4.001996, 9.079565, -0.07787049, 0.29848862, 10.16187
256403315144004, -1.9800607, 3.528217, 8.758927, -0.1399155, -0.04123187, 9.647099
256403324783379, -2.120041, 3.7005002, 8.989835, -0.16497019, 0.057982683, 9.948608
256403334422754, -1.8460627, 4.1144586, 8.7780695, 0.31168884, 0.31061363, 9.858883
256403344062129, -2.0051854, 3.3008988, 8.897711, -0.2799914, -0.25505924, 9.692396
256403353701504, -1.6654046, 4.508078, 9.119047, 0.6515174, 0.3664081, 10.28079
256403363340775, -1.8460627, 3.1202407, 8.878569, -0.2513727, -0.46995163, 9.575426
256403372980150, -1.6953149, 4.570291, 9.217153, 0.6417621, 0.384722, 10.399888
256403382619525, -1.7754744, 3.2147572, 8.831908, -0.16747907, -0.4143529, 9.554571
256403392258900, -1.8903298, 4.258028, 9.226724, 0.29734015, 0.24894214, 10.3289
256403401898275, -1.841277, 3.574877, 8.837891, -0.013251901, -0.1075933, 9.709101
256403411537650, -2.12363, 3.7244284, 9.200403, -0.18337059, 0.0011618137, 10.148644
256403421177025, -1.995614, 3.8751762, 9.102298, 0.0153695345, 0.08908105, 10.091736
256403430816296, -2.2983062, 3.0245278, 9.15494, -0.71806794, -0.39409542, 9.8778515
256403440455671, -2.0147567, 4.1312084, 9.157332, 0.1442321, 0.2613287, 10.241766
256403450095046, -2.099702, 2.9012976, 8.88814, -0.59988475, -0.47959065, 9.551723
256403459734421, -1.847259, 4.5188456, 9.123833, 0.50990486, 0.47313643, 10.32438
256403469373796, -1.774278, 3.2566316, 8.543573, -0.11813742, -0.25755906, 9.309461
256403479013171, -1.7958134, 4.453043, 8.827123, 0.5352829, 0.51196194, 10.021177
256403488652546, -1.7958134, 3.5593238, 8.6345005, 0.0361073, -0.058604717, 9.510184
256403498291921, -2.1332014, 3.7076788, 9.285348, -0.20879859, -0.036174536, 10.221067
256403507931296, -1.9824536, 3.8117664, 9.1681, -0.017601669, 0.0025565624, 10.124893
256403517570567, -2.1906292, 3.1573296, 9.164511, -0.56511915, -0.36100245, 9.914947
256403527209942, -1.8903298, 4.298706, 9.120243, 0.32605594, 0.32742262, 10.247806
256403536849317, -1.9992033, 3.0556345, 8.945567, -0.4532746, -0.44664907, 9.641159
256403546488692, -1.7611175, 4.549952, 9.1669035, 0.5652328, 0.4283185, 10.360152
256403556128067, -1.7934206, 3.199204, 8.752945, -0.17959878, -0.3682859, 9.481426
256403565767442, -1.7838492, 4.4039903, 9.135797, 0.47258607, 0.35723472, 10.28052
256403575406817, -1.7252251, 3.5102708, 8.813962, 0.040350914, -0.20232105, 9.640633
256403585046192, -2.0291135, 3.8691943, 9.298509, -0.043395817, 0.02018547, 10.273652
256403594685567, -1.8029919, 3.8931224, 8.896515, 0.18083036, 0.08658028, 9.874965
256403604324838, -2.0889342, 3.3499517, 8.85464, -0.3688004, -0.14973974, 9.686693
256403613964213, -1.7778672, 4.3669014, 8.968299, 0.460746, 0.37419987, 10.114778
256403623603588, -2.0542383, 3.1680973, 8.907282, -0.44522, -0.31469774, 9.659149
256403633242963, -1.7862421, 4.584648, 9.24826, 0.55604637, 0.42233396, 10.452389
256403642882338, -1.8460627, 3.0915267, 8.807981, -0.310216, -0.457695, 9.49949
256403652521713, -1.9764715, 4.2341, 9.052048, 0.21320444, 0.35792184, 10.178411
256403662161088, -1.9573289, 3.1597223, 8.79482, -0.358554, -0.3400402, 9.53518
256403671800463, -2.1834507, 3.6981075, 9.317652, -0.26490194, -0.039503098, 10.256234
256403681439838, -1.9513469, 3.7710886, 9.104691, -0.01445654, -0.013341188, 10.046087
256403691079213, -2.1559331, 3.3966117, 9.170493, -0.39309406, -0.21220827, 10.0041685
256403700718588, -1.7682959, 4.3836513, 9.073584, 0.4887579, 0.3593111, 10.212992
256403710357963, -1.896312, 3.2398818, 8.85823, -0.2481094, -0.32610273, 9.612138
256403719997233, -1.5972091, 4.6528435, 9.049655, 0.77561116, 0.46717882, 10.260433
256403729636608, -1.7670995, 3.158526, 8.612965, -0.17047876, -0.36069536, 9.333966
256403739275983, -1.8807586, 4.375276, 8.980264, 0.38909066, 0.42802453, 10.148441
256403748915358, -1.875973, 3.2961133, 8.748159, -0.20361835, -0.25953698, 9.529173
256403758554733, -2.0949163, 3.9050865, 9.287741, -0.0800401, 0.07489395, 10.290212
256403768194108, -1.9298115, 3.760321, 9.019745, -0.011313856, -0.008230448, 9.960914
256403777833483, -2.1978076, 3.3822548, 9.141779, -0.4566974, -0.19130087, 9.979828
256403787472858, -1.9417756, 4.132405, 9.06162, 0.18103859, 0.25351787, 10.142149
256403797112233, -2.1415763, 2.9359934, 8.933603, -0.62415487, -0.47902012, 9.612318
256403806751608, -1.9094725, 4.3764725, 9.158528, 0.3586076, 0.3701415, 10.315649
256403816390983, -2.0315065, 2.993421, 8.8187475, -0.48971447, -0.43686652, 9.509323
256403826030358, -1.98365, 4.375276, 9.131011, 0.30606967, 0.42604804, 10.304274
256403835669733, -1.9178474, 3.37388, 8.666803, -0.17925414, -0.15341759, 9.493103
256403845309108, -1.9776679, 4.176672, 8.962317, 0.19758135, 0.3488958, 10.07562
256403854948379, -1.6654046, 3.9493537, 8.644072, 0.3472003, 0.15485144, 9.640873
256403864587754, -1.881955, 3.60718, 9.02812, -0.05945891, -0.15627694, 9.901138
256403874227129, -1.6366907, 4.2364926, 9.148957, 0.4924466, 0.12815785, 10.201525
256403883866504, -1.975275, 3.080759, 9.188439, -0.43345565, -0.560997, 9.864967
256403893505879, -1.8580267, 4.4195433, 9.41815, 0.3937103, 0.2864802, 10.556946
256403903145254, -2.0398812, 2.9838498, 9.049655, -0.51900935, -0.5434091, 9.715764
256403912784629, -2.0147567, 4.418347, 9.224331, 0.2688102, 0.43786097, 10.411789
256403922424004, -1.98365, 3.2350962, 8.740981, -0.32683635, -0.24398994, 9.520457
256403932063379, -2.1008983, 4.025924, 9.128618, 0.001729548, 0.23060751, 10.193151
256403941702754, -1.867598, 3.676572, 8.775677, 0.01684302, -0.0015227795, 9.696252
256403951342129, -2.0003998, 3.611966, 8.974281, -0.14022774, -0.06775451, 9.877317
256403960981504, -1.6402799, 4.325027, 8.784052, 0.57446355, 0.33795762, 9.905137
256403970620879, -1.8723837, 3.2973096, 8.730213, -0.19872123, -0.26364422, 9.512398
256403980260254, -1.727618, 4.5475593, 9.05803, 0.6149938, 0.4070146, 10.255194
256403989899629, -1.963311, 2.9958138, 8.908479, -0.46203786, -0.51243615, 9.576765
256403999539004, -1.9250258, 4.3262234, 9.245867, 0.29748398, 0.2834959, 10.3797455
256404009178379, -1.9884356, 3.097509, 8.85823, -0.43262887, -0.39687204, 9.57455
256404018817754, -2.1343977, 4.0271206, 9.341579, -0.054674625, 0.1457262, 10.392992
256404028457129, -1.9477576, 3.6191442, 8.992228, -0.10266596, -0.10157871, 9.885913
256404038096504, -2.152344, 3.615555, 9.060423, -0.26988572, -0.021116495, 9.986131
256404047735879, -1.8520447, 4.1982074, 8.845069, 0.3238855, 0.3287809, 9.953756
256404057375254, -2.0937197, 3.2410784, 8.946764, -0.42272836, -0.27627897, 9.730251
256404067014629, -1.7994026, 4.5355954, 9.133404, 0.5399059, 0.42527914, 10.332287
256404076654004, -1.9310079, 3.1058838, 8.749356, -0.36678708, -0.3869636, 9.46796
256404086293379, -1.8017955, 4.475775, 9.069994, 0.49339435, 0.41510892, 10.253199
256404095932754, -1.8113668, 3.199204, 8.712267, -0.19182563, -0.3744192, 9.446829
256404105572129, -1.8747765, 4.219743, 9.139386, 0.27962962, 0.24153686, 10.23293
256404115211504, -1.7036897, 3.7172499, 8.786445, 0.16687298, -0.078190565, 9.689591
256404124850879, -1.9716859, 3.757928, 9.02812, -0.049251437, -0.016963243, 9.975663
256404134490254, -1.8484555, 4.092923, 8.915657, 0.23535368, 0.22618246, 9.977535
256404144129629, -2.2145574, 3.2039895, 9.060423, -0.5473976, -0.3342569, 9.841224
256404153769004, -2.0937197, 3.7627137, 9.188439, -0.15692785, -0.021519661, 10.146133
256404163408379, -2.1894326, 3.5210385, 9.115458, -0.3540308, -0.112149954, 10.007245
256404173047754, -2.1272194, 3.6275191, 9.001799, -0.23444197, -0.012099266, 9.932836
256404182687129, -2.0315065, 3.7483566, 8.921639, -0.075193465, 0.06371045, 9.887526
256404192326504, -1.8424734, 3.8811584, 8.894122, 0.15757579, 0.07421088, 9.875887
256404201965775, -1.7168503, 3.987639, 8.8187475, 0.3247248, 0.110182524, 9.823521
256404211605254, -1.6845472, 3.9493537, 8.738588, 0.32226104, 0.09375143, 9.730642
256404221244629, -1.7347964, 3.8727834, 8.836694, 0.23139691, 0.023477793, 9.800054
256404230884004, -1.8364913, 3.7878382, 9.138189, 0.07704759, -0.110120535, 10.060261
256404240523379, -1.9142581, 3.7734814, 9.332008, -0.011675119, -0.1597364, 10.245208
256404250162754, -2.0171494, 3.7423747, 9.188439, -0.11165398, -0.06525469, 10.123486
256404259802129, -2.056631, 3.7627137, 8.971889, -0.120492816, 0.062142372, 9.943045
256404269441504, -2.0602202, 3.7615173, 9.000603, -0.12436175, 0.050394535, 9.969273
256404279080879, -2.0279171, 3.7734814, 9.053245, -0.0835897, 0.018907785, 10.015264
256404288720254, -1.98365, 3.7411783, 8.894122, -0.0562039, 0.039652824, 9.850479
256404298359629, -1.9106688, 3.7052858, 8.831908, -0.0025902092, 3.6215782E-4, 9.766392
256404307999004, -1.9345971, 3.6957145, 8.9108715, -0.03565657, -0.027857304, 9.838829
256404317638379, -1.9142581, 3.7280176, 9.0436735, -0.008443534, -0.07109666, 9.9672165
256404327277754, -1.8580267, 3.8117664, 9.036494, 0.06929445, -0.04096079, 9.981664
256404336917129, -1.8161523, 3.867998, 8.927621, 0.13654238, 0.02033639, 9.896625
256404346556504, -1.8735801, 3.9014974, 8.851051, 0.11040884, 0.10869455, 9.85135
256404356195879, -1.8376877, 3.926622, 8.95155, 0.1474458, 0.066542625, 9.944824
256404365835254, -1.8532411, 3.9146578, 8.983852, 0.1284625, 0.052443743, 9.972431
256404375474629, -1.8831514, 3.8656049, 8.914461, 0.084848404, 0.06357169, 9.896746
256404385114004, -1.9369899, 3.7304106, 8.979067, -0.03157437, -0.030114412, 9.914114
256404394753379, -2.0518453, 3.6275191, 9.131011, -0.19306546, -0.109372616, 10.034696
256404404392754, -2.0877378, 3.5820556, 9.159725, -0.24496773, -0.1345005, 10.050486
256404414032129, -2.0985055, 3.6406796, 9.037691, -0.21549854, -0.034992695, 9.96446
256404423671504, -2.0267208, 3.7591243, 8.950353, -0.083572, 0.05342841, 9.9165325
256404433310879, -1.9405792, 3.8584266, 8.940782, 0.043456376, 0.08665633, 9.928822
256404442950254, -1.8484555, 3.8871403, 8.975478, 0.12983608, 0.03847885, 9.953268
256404452589629, -1.7718852, 3.8991046, 8.955139, 0.19647074, 0.013324261, 9.924633
256404462229004, -1.747957, 3.871587, 8.922835, 0.19767156, -0.008284092, 9.880405
256404471868379, -1.7431713, 3.8560338, 8.988638, 0.18994236, -0.049333096, 9.933014
256404481507754, -1.8137596, 3.8333018, 9.000603, 0.1123102, -0.0354743, 9.9489155
256404491147129, -1.9788643, 3.737589, 8.95155, -0.07522324, 8.34465E-4, 9.9000025
256404500786504, -2.1188445, 3.6658044, 8.999406, -0.23092762, 0.0017933846, 9.943019
256404510425879, -2.210968, 3.6670008, 9.050852, -0.30389622, 0.031536818, 10.007989
256404520065358, -2.1463618, 3.7064822, 8.924032, -0.22166723, 0.0809741, 9.895836
256404529704733, -2.0135603, 3.7244284, 8.877372, -0.08489126, 0.04772806, 9.834838
256404539344108, -1.9214365, 3.7543387, 8.943174, 0.007778436, -0.004354, 9.887733
256404548983483, -1.7874385, 3.7758741, 9.010174, 0.1278823, -0.08601117, 9.93034
256404558622858, -1.7324036, 3.8536408, 9.010174, 0.20966262, -0.06216693, 9.949231
256404568262233, -1.7682959, 3.9026937, 8.970692, 0.21044856, 0.009604692, 9.939157
256404577901608, -1.8089739, 3.9397824, 8.992228, 0.18948722, 0.048188925, 9.980791
256404587540983, -1.8831514, 3.9338005, 9.026923, 0.11570907, 0.06656647, 10.0244
256404597180358, -1.9238294, 3.8500516, 9.086744, 0.020713449, -5.3977966E-4, 10.054477
256404606819733, -1.9908284, 3.749553, 9.109476, -0.093827724, -0.044873476, 10.049591
256404616459108, -2.0638096, 3.6658044, 9.071191, -0.19889635, -0.046341658, 9.997111
256404626098483, -2.0554347, 3.5892339, 9.049655, -0.22455388, -0.097919464, 9.947043
256404635737858, -2.0542383, 3.6574295, 8.973084, -0.17792797, -0.01873517, 9.903581
256404645377233, -2.015953, 3.739982, 8.9108715, -0.08526939, 0.044084787, 9.871472
256404655016608, -1.9621146, 3.8033917, 8.848659, 0.0010152459, 0.08572173, 9.82889
256404664656088, -1.8807586, 3.8524444, 8.883354, 0.09321535, 0.06273866, 9.863057
256404674295463, -1.8364913, 3.885944, 8.963513, 0.14252824, 0.028560638, 9.939653
256404683934838, -1.8065811, 3.897908, 9.031709, 0.16618699, -0.0075211525, 10.000074
256404693574213, -1.7970098, 3.912265, 9.041281, 0.17150724, -0.01074028, 10.012507
256404703213588, -1.8053846, 3.9170506, 8.993423, 0.17019367, 0.018182278, 9.972717
256404712852963, -1.8137596, 3.8967116, 8.991031, 0.14859205, 0.007385969, 9.964465
256404722492338, -1.8628124, 3.8787656, 9.016156, 0.09526223, 0.0074386597, 9.989838
256404732131713, -1.8855443, 3.8500516, 8.922835, 0.066971034, 0.0372777, 9.898954
256404741771088, -1.9657038, 3.7974095, 8.902496, -0.023881197, 0.04803419, 9.876025
256404751410463, -2.0434706, 3.7052858, 8.925228, -0.13263929, 0.009299278, 9.876586
256404761049838, -2.082952, 3.635894, 8.992228, -0.20453933, -0.05015421, 9.918379
256404770689317, -2.12363, 3.562913, 8.965906, -0.27611107, -0.07313275, 9.874718
256404780328692, -2.1080768, 3.603591, 8.919247, -0.23891023, -0.031823397, 9.8450365
256404789968067, -2.0793629, 3.6801612, 8.94796, -0.17160907, 0.0022301674, 9.894641
256404799607442, -2.0183458, 3.757928, 8.99462, -0.07807356, 0.010471582, 9.954534
256404809246817, -1.9537396, 3.8344984, 9.048459, 0.015122116, 0.011615038, 10.019717
256404818886192, -1.8723837, 3.9110687, 9.072387, 0.1254744, 0.015773773, 10.054575
256404828525567, -1.8173488, 3.938586, 9.0747795, 0.1832084, 0.00289011, 10.056505
256404838164942, -1.8735801, 3.8560338, 9.077172, 0.08466095, -0.030097008, 10.038242
256404847804317, -1.9202402, 3.7854455, 9.0951185, 0.0050928593, -0.063853264, 10.036633
256404857443692, -1.9573289, 3.7208393, 9.037691, -0.06272197, -0.06819391, 9.967299
256404867083171, -1.9118652, 3.7471602, 8.973084, -0.008930683, -0.04786229, 9.910112
256404876722546, -1.7682959, 3.8237305, 8.695518, 0.17013139, 0.044835567, 9.6606865
256404886361921, -1.9094725, 4.0187454, 9.12144, 0.13895702, 0.08111572, 10.147472
256404896001296, -1.8628124, 3.9804604, 8.904889, 0.15542662, 0.11425233, 9.928443
256404905640671, -1.8293129, 3.8703907, 8.512466, 0.14493108, 0.18405104, 9.5254135
256404915280046, -1.8029919, 3.8847475, 8.769695, 0.15766668, 0.06505203, 9.758099
256404924919421, -1.8592232, 3.8811584, 9.138189, 0.08693385, -0.064540625, 10.100242
256404934558796, -1.9393828, 3.7507496, 9.142975, -0.052731812, -0.11667824, 10.070103
256404944198171, -2.1068804, 3.6323047, 9.0233345, -0.2503178, -0.06417513, 9.949189
256404953837650, -2.1355941, 3.5904303, 8.976674, -0.29901206, -0.05937338, 9.896449
256404963477025, -2.1738794, 3.6693935, 9.12503, -0.29606035, -0.047067165, 10.068094
256404973116400, -2.105684, 3.7256248, 8.940782, -0.19833621, 0.039853573, 9.910138
256404982755775, -2.0279171, 3.76391, 8.8187475, -0.10232255, 0.079505205, 9.799643
256404992395150, -1.9238294, 3.8321054, 8.926425, 0.020983338, 0.029987097, 9.902821
256405002034525, -1.8281165, 3.900301, 9.056833, 0.1321842, -0.02502203, 10.028086
256405011673900, -1.7934206, 3.9050865, 8.987442, 0.16177732, -0.016175032, 9.960609
256405021313275, -1.7850457, 3.8907297, 8.993423, 0.1515407, -0.036345005, 9.958995
256405030952754, -1.8125632, 3.8943188, 8.993423, 0.13108027, -0.019624472, 9.965702
256405040592129, -1.8340986, 3.9696927, 8.969496, 0.14367163, 0.049918175, 9.97753
256405050231504, -1.8795621, 3.9960139, 8.95155, 0.11768055, 0.09921026, 9.980351
256405059870879, -1.8915263, 3.9361932, 8.873783, 0.07863277, 0.09731269, 9.889381
256405069510254, -1.9322042, 3.7938204, 8.921639, -0.04649508, -0.0033419132, 9.885341
256405079149629, -1.98365, 3.6885362, 9.053245, -0.16099018, -0.10629177, 9.973173
256405088789004, -1.9824536, 3.650251, 9.103494, -0.17572421, -0.1527698, 10.003691
256405098428379, -1.98365, 3.6801612, 9.007781, -0.15138298, -0.09061599, 9.929121
256405108067858, -1.9680966, 3.7555351, 8.959925, -0.085852206, -0.023919106, 9.912102
256405117707233, -1.9800607, 3.8572302, 8.891729, -0.028399229, 0.08503389, 9.892103
