timestamp_acc,device_acc_x,device_acc_y,device_acc_z,earth_acc_x,earth_acc_y,earth_acc_z
271372711117550, -0.8219346, 5.1960144, 8.476574, 0.018668652, -0.05927241, 9.976102
271372720757446, -0.80997044, 5.2139606, 8.541181, 0.033908367, -0.039324522, 10.039448
271372730397342, -0.76689965, 5.2223353, 8.565108, 0.028432846, 0.004127264, 10.060875
271372740037238, -0.7800602, 5.2438707, 8.568698, 0.0145049095, -0.010953665, 10.076158
271372749677134, -0.7645068, 5.2366924, 8.513663, -0.010045052, -0.0038383007, 10.024458
271372759317029, -0.7812566, 5.2235317, 8.447861, -0.024397373, -0.0273031, 9.962963
271372768956925, -0.7728817, 5.204389, 8.361719, -0.05323887, -0.030279756, 9.879149
271372778596821, -0.76689965, 5.1852465, 8.27797, -0.072280884, -0.03425145, 9.797617
271372788236717, -0.7393822, 5.1589255, 8.188239, -0.10021734, -0.018109918, 9.705569
271372797876717, -0.72502524, 5.156533, 8.187042, -0.09799862, -0.0031878948, 9.702245
271372807516613, -0.6975078, 5.1529436, 8.230113, -0.075604916, 0.030082822, 9.734859
271372817156509, -0.70947194, 5.174479, 8.330612, -0.04319334, 0.029181719, 9.832343
271372826796404, -0.715454, 5.1673007, 8.41795, 0.008262634, 0.03600645, 9.9032
271372836436300, -0.71306115, 5.1852465, 8.482556, 0.0221529, 0.04578042, 9.967268
271372846076196, -0.72382885, 5.176872, 8.539984, 0.056759357, 0.044794798, 10.012493
271372855716092, -0.7393822, 5.1828537, 8.544769, 0.054041386, 0.031525016, 10.02087
271372865355988, -0.7298109, 5.168497, 8.492127, 0.036396503, 0.03744805, 9.967922
271372874995884, -0.76570326, 5.1661043, 8.456235, 0.025979519, 7.1406364E-5, 9.938922
271372884635779, -0.7728817, 5.17089, 8.465807, 0.027830124, -0.0028705597, 9.950104
271372894275675, -0.7501499, 5.194818, 8.4813595, 0.011183739, 0.019174337, 9.974059
271372903915571, -0.7728817, 5.2127643, 8.507681, 0.01107502, -7.1167946E-4, 10.007536
271372913555467, -0.7932207, 5.2307105, 8.537591, 0.013041496, -0.017720222, 10.043879
271372923195363, -0.86261255, 5.2438707, 8.532805, 0.011578083, -0.08802581, 10.052022
271372932835259, -0.8889336, 5.197211, 8.478967, 0.02944994, -0.1148473, 9.98399
271372942475154, -0.8362915, 5.2055855, 8.459825, 0.0025296211, -0.066771746, 9.968032
271372952115050, -0.802792, 5.2139606, 8.4813595, 1.745224E-4, -0.03145218, 9.988109
271372961754946, -0.7752745, 5.197211, 8.462217, 0.0012917519, -0.0074613094, 9.960979
271372971394842, -0.7788638, 5.1996036, 8.46102, -6.594658E-4, -0.01145494, 9.961489
271372981034842, -0.7501499, 5.209175, 8.482556, -0.0027375221, 0.017138004, 9.982569
271372990674738, -0.72382885, 5.191229, 8.474181, 0.0033664703, 0.041831255, 9.964075
271373000314634, -0.6999006, 5.1756754, 8.437093, -0.0067095757, 0.058586836, 9.922627
271373009954529, -0.7106683, 5.1696935, 8.392825, -0.019844055, 0.039396524, 9.882732
271373019594425, -0.7286145, 5.156533, 8.32463, -0.034939766, 0.01015687, 9.81931
271373029234321, -0.7477571, 5.1696935, 8.233703, -0.08492756, -0.024790168, 9.750431
271373038874217, -0.7178468, 5.194818, 8.175078, -0.14114332, -0.0073343515, 9.711508
271373048514113, -0.6879365, 5.2103715, 8.133204, -0.17746973, 0.014485598, 9.681866
271373058154009, -0.67836523, 5.2235317, 8.175078, -0.16716814, 0.03025031, 9.723606
271373067793904, -0.701097, 5.1900325, 8.254042, -0.094301224, 0.027229667, 9.774844
271373077433800, -0.7369894, 5.15414, 8.328219, -0.021557808, 0.010272145, 9.82176
271373087073696, -0.7298109, 5.1158547, 8.462217, 0.06833696, 0.043949127, 9.914995
271373096713592, -0.73579293, 5.1349974, 8.550752, 0.09150028, 0.048175693, 10.000713
271373106353488, -0.75972116, 5.15414, 8.580662, 0.094628334, 0.027350664, 10.037947
271373115993384, -0.7968099, 5.204389, 8.6345005, 0.079640865, -0.007902026, 10.112802
271373125633279, -0.8422736, 5.2342997, 8.676374, 0.07350969, -0.04979682, 10.1675415
271373135273175, -0.85902333, 5.241478, 8.679964, 0.071444035, -0.06699729, 10.175617
271373144913071, -0.83030945, 5.237889, 8.63809, 0.04694462, -0.04216039, 10.135952
271373154553071, -0.8243274, 5.2199426, 8.623733, 0.05438423, -0.033189893, 10.113951
271373164192967, -0.7896315, 5.17089, 8.569894, 0.06359196, -0.002869606, 10.039953
271373173832863, -0.7788638, 5.13739, 8.492127, 0.052859783, 6.1917305E-4, 9.955543
271373183472759, -0.74895346, 5.1122656, 8.414361, 0.03274393, 0.020565987, 9.874016
271373193112654, -0.7429714, 5.1421757, 8.333005, -0.03136444, 0.008399606, 9.819975
271373202752550, -0.75493556, 5.1649075, 8.330612, -0.04920149, -0.008062363, 9.830709
271373212392446, -0.7501499, 5.1720862, 8.353344, -0.04443121, -8.8214874E-4, 9.853405
271373222032342, -0.69152576, 5.2163534, 8.383254, -0.07523155, 0.05514908, 9.897414
271373231672238, -0.70947194, 5.215157, 8.372486, -0.07610226, 0.03135717, 9.889031
271373241312134, -0.7190432, 5.163711, 8.365308, -0.034080982, 0.024333358, 9.856852
271373250952029, -0.7405786, 5.163711, 8.356933, -0.03455448, 0.0014852285, 9.85137
271373260591925, -0.75613195, 5.160122, 8.322237, -0.046706676, -0.018446565, 9.821186
271373270231821, -0.7405786, 5.113462, 8.292327, -0.023730755, -0.0030403137, 9.770263
271373279871717, -0.79920274, 5.1086764, 8.297112, -0.006877899, -0.05638814, 9.776305
271373289511613, -0.78364944, 5.1349974, 8.312666, -0.025069714, -0.038793206, 9.802071
271373299151509, -0.78364944, 5.174479, 8.373683, -0.027493954, -0.03380692, 9.874513
271373308791404, -0.7932207, 5.197211, 8.445468, -0.013141632, -0.02910304, 9.948121
271373318431300, -0.77647096, 5.2283173, 8.534002, 0.0021500587, -0.0022668839, 10.038297
271373328071300, -0.8135597, 5.2486563, 8.632108, 0.037989616, -0.022437096, 10.135168
271373337711196, -0.8003992, 5.2307105, 8.665607, 0.065114975, 0.0029335022, 10.153298
271373347351092, -0.7609176, 5.218746, 8.6548395, 0.06298685, 0.040709138, 10.134836
271373356990988, -0.77647096, 5.1828537, 8.610572, 0.073886395, 0.023391247, 10.079722
271373366630884, -0.81595254, 5.144569, 8.541181, 0.07978058, -0.021421075, 10.003865
271373376270779, -0.8554341, 5.150551, 8.4909315, 0.05782318, -0.07173705, 9.967316
271373385910675, -0.849452, 5.174479, 8.451449, 0.016556263, -0.07552767, 9.945745
271373395550571, -0.7920243, 5.1828537, 8.438289, -0.008551598, -0.027272582, 9.934443
271373405190467, -0.7513463, 5.1996036, 8.403593, -0.047744274, 9.4401836E-4, 9.910525
271373414830363, -0.71306115, 5.2019963, 8.439486, -0.037718296, 0.040222526, 9.939372
271373424470259, -0.6723832, 5.2127643, 8.420342, -0.0639019, 0.07577467, 9.9255905
271373434110154, -0.64845496, 5.1696935, 8.330612, -0.07047081, 0.08446491, 9.825131
271373443750050, -0.6580262, 5.1409793, 8.254042, -0.08272743, 0.06614578, 9.745801
271373453389946, -0.6735796, 5.1122656, 8.203793, -0.07662439, 0.044935703, 9.689339
271373463029842, -0.6879365, 5.1146584, 8.1679, -0.088359356, 0.025383353, 9.661217
271373472669738, -0.7046863, 5.1182475, 8.178668, -0.082252026, 0.01135242, 9.673508
271373482309634, -0.7178468, 5.1589255, 8.218149, -0.09607983, 5.6004524E-4, 9.729264
271373491949529, -0.7405786, 5.1529436, 8.30788, -0.041593075, -0.0051785707, 9.804101
271373501589425, -0.78364944, 5.188836, 8.428718, -0.011411667, -0.02788341, 9.928772
271373511229321, -0.8063812, 5.178068, 8.529217, 0.047700405, -0.029973507, 10.010347
271373520869321, -0.8243274, 5.1828537, 8.644072, 0.103957176, -0.030553102, 10.111861
271373530509217, -0.8039884, 5.197211, 8.662018, 0.093112946, -0.008725405, 10.133074
271373540149113, -0.7788638, 5.198407, 8.639286, 0.07272053, 0.014390707, 10.11246
271373549789009, -0.77407813, 5.1996036, 8.590233, 0.046129227, 0.011626601, 10.070994
271373559428904, -0.7956135, 5.197211, 8.526823, 0.02255392, -0.015880466, 10.017483
271373569068800, -0.8135597, 5.1960144, 8.480164, 0.0039720535, -0.04100454, 9.978573
271373578708696, -0.8650054, 5.1960144, 8.457432, 0.004533291, -0.092938304, 9.963248
271373588348592, -0.8781659, 5.178068, 8.444271, 0.01689434, -0.10348618, 9.943754
271373597988488, -0.8243274, 5.1792645, 8.457432, 0.012121201, -0.046960235, 9.951387
271373607628384, -0.7680961, 5.1852465, 8.467003, -8.7070465E-4, 0.008084774, 9.958255
271373617268279, -0.7405786, 5.1696935, 8.495717, 0.020884514, 0.04199636, 9.972422
271373626908175, -0.7537391, 5.156533, 8.438289, 0.0062618256, 0.018581033, 9.917776
271373636548071, -0.70229346, 5.156533, 8.397611, -0.02359581, 0.058689, 9.879215
271373646187967, -0.64247286, 5.1696935, 8.34138, -0.071275234, 0.098202705, 9.833738
271373655827863, -0.62452674, 5.1385865, 8.316256, -0.05916071, 0.1115973, 9.794859
271373665467759, -0.6472585, 5.13739, 8.322237, -0.048739433, 0.091594934, 9.80105
271373675107654, -0.6987042, 5.1661043, 8.315059, -0.06644583, 0.03210318, 9.813847
271373684747550, -0.75493556, 5.176872, 8.333005, -0.056265354, -0.022137284, 9.838966
271373694387446, -0.7537391, 5.1529436, 8.361719, -0.022539139, -0.013153911, 9.850818
271373704027342, -0.76570326, 5.1469617, 8.383254, -0.004463196, -0.020827174, 9.866916
271373713667238, -0.77766734, 5.188836, 8.425129, -0.02066946, -0.02985859, 9.925233
271373723307134, -0.8039884, 5.2079782, 8.451449, -0.021022797, -0.053139806, 9.959578
271373732947029, -0.8255238, 5.237889, 8.495717, -0.020383835, -0.07071817, 10.014428
271373742586925, -0.8578269, 5.2283173, 8.518449, 0.003045559, -0.09655762, 10.03124
271373752226821, -0.7752745, 5.4520464, 8.58784, -0.16607714, -0.028021932, 10.200417
271373761866717, -0.90089774, 4.7952166, 8.373683, 0.31098676, -0.102166295, 9.685925
271373771506613, -0.6053841, 5.723632, 8.510074, -0.46587372, 0.09169567, 10.2626705
271373781146509, -0.82672024, 4.4482574, 8.169097, 0.4913416, -0.019236565, 9.325386
271373790786404, -0.56350976, 5.85763, 8.446664, -0.62108326, 0.09889555, 10.275212
271373800426300, -0.782453, 4.4207397, 8.22772, 0.53072786, 0.039530396, 9.357741
271373810066196, -0.6831509, 5.6279187, 8.477771, -0.39629793, -0.002765894, 10.190963
271373819706092, -0.73459655, 4.7748775, 8.46461, 0.32744384, 0.07352257, 9.740437
271373829345988, -0.8279166, 5.252246, 8.547162, -0.010334015, -0.07693505, 10.06576
271373838985884, -0.695115, 5.3096733, 8.606983, -0.0710454, 0.05320525, 10.136475
271373848625779, -0.8961121, 4.7605205, 8.385647, 0.32940698, -0.092781425, 9.678198
271373858265675, -0.5706882, 5.6997037, 8.609376, -0.4308262, 0.109870195, 10.331311
271373867905675, -0.8171489, 4.447061, 8.32463, 0.5392759, 0.026041985, 9.45791
271373877545571, -0.56470615, 5.8839507, 8.599805, -0.582222, 0.09040177, 10.418699
271373887185363, -0.81595254, 4.4410787, 8.304291, 0.53243876, 0.02141726, 9.437491
271373896825363, -0.70229346, 5.7152567, 8.517252, -0.4502387, -0.043795347, 10.271142
271373906465259, -0.7704889, 4.770092, 8.433503, 0.31294513, 0.026142597, 9.714565
271373916105154, -0.8386843, 5.3300123, 8.499306, -0.11649895, -0.11905575, 10.065927
271373925745050, -0.74177504, 5.2893343, 8.547162, -0.08102131, -0.009870052, 10.078423
271373935384842, -0.9595219, 4.8490553, 8.350951, 0.2468288, -0.18218744, 9.699396
271373945024738, -0.6723832, 5.704489, 8.571091, -0.4307437, -0.003380537, 10.3088
271373954664738, -0.91884387, 4.4889355, 8.295917, 0.5197418, -0.08879447, 9.462507
271373964304634, -0.59700924, 5.8887367, 8.609376, -0.58400583, 0.05063224, 10.431269
271373973944529, -0.8207382, 4.45065, 8.29113, 0.51989675, 0.013164997, 9.431557
271373983584425, -0.6879365, 5.7690954, 8.518449, -0.50338936, -0.037796855, 10.29878
271373993224217, -0.7920243, 4.7246284, 8.409575, 0.352561, 0.021637559, 9.671898
271374002864113, -0.8350951, 5.339584, 8.4813595, -0.12258625, -0.10769534, 10.055614
271374012504009, -0.6939186, 5.17089, 8.426325, -0.041468143, 0.046541452, 9.910535
271374022143904, -0.86979103, 4.8502517, 8.230113, 0.17699766, -0.105183005, 9.590301
271374031783800, -0.5814559, 5.6171513, 8.421539, -0.43963814, 0.079883695, 10.129814
271374041423696, -0.8554341, 4.473382, 8.232507, 0.4942658, -0.03751719, 9.395287
271374051063592, -0.61016977, 5.9066825, 8.60459, -0.59202576, 0.046992302, 10.437792
271374060703488, -0.83988076, 4.449454, 8.304291, 0.5366409, -0.011890411, 9.443313
271374070343384, -0.64965135, 5.8277197, 8.519645, -0.5600815, 0.0017356873, 10.327391
271374079983279, -0.6891329, 4.7246284, 8.355737, 0.29602528, 0.09952855, 9.618619
271374089623175, -0.6759724, 5.4484572, 8.438289, -0.26561117, 0.018855572, 10.06362
271374099263071, -0.55513483, 5.1122656, 8.419147, -0.020201206, 0.18680108, 9.863579
271374108902967, -0.73340017, 4.8490553, 8.263613, 0.16536665, 0.024296165, 9.60784
271374118542863, -0.50129634, 5.548956, 8.4705925, -0.37688112, 0.18368816, 10.130022
271374128182759, -0.8805587, 4.4434714, 8.26122, 0.53533125, -0.047493696, 9.406314
271374137822654, -0.6269195, 5.8013983, 8.585447, -0.49888277, 0.041376233, 10.368635
271374147462550, -0.89491564, 4.3788652, 8.372486, 0.6450591, -0.032256603, 9.468724
271374157102446, -0.7393822, 5.8241305, 8.679964, -0.45289135, -0.05771923, 10.469027
271374166742342, -0.8530413, 4.62413, 8.578269, 0.51549506, 0.0071507692, 9.7688875
271374176382238, -0.8386843, 5.4664035, 8.740981, -0.111750126, -0.08586264, 10.342625
271374186022134, -0.72382885, 5.089534, 8.73141, 0.1649909, 0.08602047, 10.130655
271374195662029, -0.8805587, 5.002196, 8.489735, 0.15913582, -0.09684062, 9.891322
271374205301925, -0.654437, 5.5669017, 8.5423765, -0.34293365, 0.03742218, 10.21136
271374214941821, -0.9451649, 4.57747, 8.250452, 0.42490816, -0.1229223, 9.47211
271374224581717, -0.6999006, 5.8839507, 8.545966, -0.58567905, -0.05853939, 10.382573
271374234221613, -0.92602235, 4.436293, 8.226524, 0.53466773, -0.078710556, 9.376665
271374243861509, -0.6628119, 5.8683977, 8.443074, -0.6306863, -0.045172572, 10.284119
271374253501404, -0.75493556, 4.5942197, 8.232507, 0.35505867, 0.05946946, 9.450998
271374263141300, -0.6987042, 5.4963136, 8.376076, -0.33232737, -0.023133397, 10.037195
271374272781196, -0.63170516, 5.029713, 8.366505, 0.03127289, 0.121490836, 9.781602
271374282421092, -0.8039884, 5.0333023, 8.29113, 0.036271572, -0.06149566, 9.73233
271374292060988, -0.6053841, 5.473582, 8.504091, -0.2806177, 0.0902797, 10.127154
271374301700779, -0.8745767, 4.549952, 8.300702, 0.4615202, -0.044114113, 9.494928
271374311340675, -0.5766702, 5.8037915, 8.675179, -0.47892332, 0.09472656, 10.442076
271374320980571, -0.8386843, 4.398008, 8.383254, 0.62009954, 0.02853918, 9.483643
271374330620467, -0.6053841, 5.84088, 8.610572, -0.54421234, 0.053126335, 10.407945
271374340260363, -0.7704889, 4.53081, 8.348558, 0.46626878, 0.06429207, 9.518339
271374349900259, -0.7429714, 5.562116, 8.487342, -0.32679033, -0.05826378, 10.169264
271374359540154, -0.721436, 4.9567323, 8.443074, 0.15038753, 0.06256676, 9.815735
271374369180050, -0.8997013, 5.083552, 8.368897, 0.048618317, -0.14553368, 9.831931
271374378819946, -0.6723832, 5.4759746, 8.502895, -0.27372694, 0.040026784, 10.132181
271374388459842, -0.9391829, 4.6600223, 8.347362, 0.39607692, -0.12196195, 9.597113
271374398099738, -0.64965135, 5.8301125, 8.682357, -0.49318886, 0.039881468, 10.46665
271374407739634, -0.951147, 4.408776, 8.422736, 0.64758205, -0.10389626, 9.531752
271374417379529, -0.7465607, 5.8767724, 8.669196, -0.5101681, -0.054542422, 10.487397
271374427019425, -0.9176475, 4.520042, 8.359326, 0.5073588, -0.08777726, 9.533419
271374436659321, -0.7788638, 5.582455, 8.458628, -0.36349535, -0.07613754, 10.1578
271374446299217, -0.67836523, 4.9196434, 8.359326, 0.13550138, 0.09453857, 9.721837
271374455939113, -0.7680961, 5.1493545, 8.348558, -0.04742956, -0.02566886, 9.838768
271374465578904, -0.54675996, 5.42094, 8.467003, -0.25946665, 0.17805576, 10.06363
271374475218800, -0.8111669, 4.648058, 8.287541, 0.35514355, -0.015719056, 9.529922
271374484858696, -0.55034924, 5.7870417, 8.608179, -0.49754286, 0.13575768, 10.374369
271374494498592, -0.87338024, 4.409972, 8.311469, 0.5783477, -0.038289666, 9.431608
271374504138488, -0.62452674, 5.864808, 8.550752, -0.5734949, 0.042443633, 10.371628
271374513778384, -0.83389866, 4.4721856, 8.260024, 0.49902177, -0.018707752, 9.416712
271374523418279, -0.73818576, 5.6685967, 8.482556, -0.42854834, -0.055687785, 10.21983
271374533058175, -0.7178468, 4.867001, 8.435896, 0.22599268, 0.0750674, 9.762717
271374542698071, -0.78723866, 5.1876397, 8.443074, -0.025586605, -0.03786981, 9.940562
271374552337967, -0.5946164, 5.2953167, 8.529217, -0.12068558, 0.14822721, 10.055097
271374561977863, -0.83988076, 4.6612186, 8.30788, 0.3668568, -0.025876999, 9.556044
271374571617759, -0.5587241, 5.706882, 8.534002, -0.46451664, 0.122265935, 10.270305
271374581257654, -0.8877372, 4.421936, 8.240881, 0.5514295, -0.036964893, 9.378074
271374590897446, -0.6520442, 5.9150577, 8.517252, -0.62039375, -0.0065732, 10.371677
271374600537342, -0.8757731, 4.506881, 8.258827, 0.4857912, -0.03171289, 9.436641
271374610177238, -0.7429714, 5.7379885, 8.514859, -0.45251942, -0.058907747, 10.284508
271374619817134, -0.79800636, 4.871787, 8.505288, 0.2753613, 0.020177603, 9.830301
271374629457029, -0.8877372, 5.328816, 8.603394, -0.040318012, -0.12120545, 10.158072
271374639096925, -0.7393822, 5.312066, 8.673982, -0.032813072, 0.03156674, 10.198069
271374648736821, -0.9523434, 4.741378, 8.447861, 0.3867061, -0.12679732, 9.725655
271374658376717, -0.64965135, 5.6709895, 8.652447, -0.36382818, 0.05561316, 10.359128
271374668016613, -0.8889336, 4.3848476, 8.297112, 0.59352326, -0.03534627, 9.407745
271374677656509, -0.59342, 5.8480587, 8.545966, -0.5728421, 0.060812593, 10.356334
271374687296404, -0.7968099, 4.4207397, 8.215756, 0.503119, 0.046548724, 9.34993
271374696936196, -0.64606214, 5.741578, 8.391629, -0.5479841, -0.010027647, 10.173601
271374706576092, -0.71665037, 4.792824, 8.270791, 0.21340203, 0.07062638, 9.58333
271374716215988, -0.77647096, 5.386244, 8.283952, -0.2643857, -0.09046614, 9.907588
271374725855884, -0.6436693, 5.2749777, 8.318648, -0.18759346, 0.060856223, 9.869179
271374735495779, -0.86979103, 4.8358946, 8.147561, 0.15877318, -0.11109781, 9.512498
271374745135675, -0.59342, 5.651847, 8.4502535, -0.44560385, 0.06862414, 10.173447
271374754775571, -0.8362915, 4.4458647, 8.267202, 0.53246427, 0.016758561, 9.408929
271374764415467, -0.5407779, 5.84088, 8.592627, -0.5606866, 0.11547291, 10.388159
271374774055363, -0.76689965, 4.358526, 8.352147, 0.62327003, 0.10798812, 9.430966
271374783695259, -0.6831509, 5.703293, 8.6345005, -0.39837456, 0.012604117, 10.362913
271374793335154, -0.80757767, 4.6612186, 8.568698, 0.4780016, 0.052269578, 9.776017
271374802975050, -0.84825563, 5.3479586, 8.644072, -0.061201096, -0.081831336, 10.199497
271374812614842, -0.7190432, 5.1852465, 8.663215, 0.055359364, 0.07271266, 10.121598
271374822254738, -0.9236295, 4.928018, 8.46102, 0.2235446, -0.11506319, 9.831792
271374831894634, -0.7070791, 5.7009, 8.626125, -0.39609385, -0.0038528442, 10.356321
271374841534529, -1.0516455, 4.534399, 8.367701, 0.5422404, -0.1878252, 9.558024
271374851174425, -0.7513463, 5.9342003, 8.68475, -0.5469203, -0.075494766, 10.530874
271374860814321, -0.99302137, 4.4243293, 8.350951, 0.616101, -0.103663564, 9.482029
271374870454217, -0.7501499, 5.782256, 8.565108, -0.48659897, -0.08075714, 10.349638
271374880094113, -0.78843504, 4.634897, 8.411968, 0.40754247, 0.06355643, 9.627824
271374889734009, -0.7800602, 5.4221363, 8.548359, -0.17764091, -0.048303485, 10.151286
271374899373800, -0.6963114, 5.130212, 8.550752, 0.040374756, 0.08532858, 9.995518
271374909013696, -0.85184485, 4.9375896, 8.343773, 0.14122868, -0.070894, 9.731342
271374918653592, -0.56111693, 5.651847, 8.438289, -0.48442078, 0.09603739, 10.159678
271374928293488, -0.8350951, 4.597809, 8.086544, 0.3018055, -0.060958505, 9.334593
271374937933384, -0.5623133, 5.8827543, 8.395218, -0.6978679, 0.039853215, 10.242758
271374947573279, -0.8243274, 4.3944187, 8.184649, 0.5168612, -0.01073873, 9.311911
271374957213175, -0.6305088, 5.804988, 8.535198, -0.54098177, -0.0045267344, 10.327263
271374966853071, -0.70947194, 4.5858445, 8.455039, 0.44718504, 0.110942006, 9.633727
271374976492967, -0.63529444, 5.4185467, 8.601001, -0.19289684, 0.064308524, 10.183327
271374986132863, -0.5347959, 4.985446, 8.508878, 0.09917927, 0.21242118, 9.873536
271374995772759, -0.7465607, 4.895715, 8.292327, 0.11930919, -0.016023874, 9.657825
271375005412550, -0.6041877, 5.416154, 8.35454, -0.32165527, 0.051596165, 9.969553
271375015052446, -0.96550393, 4.456632, 8.118847, 0.45421505, -0.18300974, 9.298905
271375024692342, -0.6664011, 5.79422, 8.4813595, -0.56706333, -0.037920356, 10.277527
271375034332238, -0.8709874, 4.3908296, 8.224132, 0.54042506, -0.047658205, 9.347727
271375043972134, -0.6197411, 5.8863435, 8.550752, -0.6150522, 0.007973671, 10.381238
271375053612029, -0.7501499, 4.6564326, 8.467003, 0.40003777, 0.06986463, 9.683509
271375063251925, -0.73100734, 5.6123657, 8.729017, -0.2796507, -0.020507097, 10.399528
271375072891821, -0.77407813, 5.0620165, 8.772088, 0.20529747, 0.036987424, 10.155256
271375082531717, -0.951147, 5.038088, 8.693125, 0.22271633, -0.14416718, 10.088956
271375092171509, -0.74416786, 5.4293146, 8.807981, -0.10086489, 0.019450068, 10.373101
271375101811404, -0.95832545, 4.4841495, 8.549556, 0.6178777, -0.086138844, 9.681514
271375111451300, -0.5814559, 5.729614, 8.837891, -0.38133192, 0.13710272, 10.540906
271375121091196, -0.80518484, 4.321438, 8.483752, 0.68222547, 0.08345032, 9.530205
271375130731092, -0.573081, 5.7655063, 8.657232, -0.49452066, 0.09236908, 10.405002
271375140370988, -0.7848458, 4.506881, 8.390432, 0.47557092, 0.05005014, 9.54456
271375150010884, -0.75254273, 5.5896335, 8.512466, -0.37110567, -0.08604491, 10.204277
271375159650779, -0.7405786, 5.003392, 8.4347, 0.073765755, 0.0121741295, 9.8346815
271375169290675, -0.8817552, 5.1696935, 8.321041, -0.07252455, -0.17925847, 9.833897
271375178930467, -0.6831509, 5.515456, 8.368897, -0.39100122, -0.049123287, 10.038431
271375188570363, -0.971486, 4.6600223, 8.149954, 0.3016131, -0.19640541, 9.431427
271375198210259, -0.613759, 5.791827, 8.443074, -0.5942817, -0.025866628, 10.239805
271375207850154, -0.82911307, 4.3872404, 8.153543, 0.4950087, -0.0043329, 9.282808
271375217490050, -0.5455636, 5.8265233, 8.400003, -0.65078354, 0.028884292, 10.216738
271375227129946, -0.701097, 4.4350967, 8.176275, 0.44353056, 0.114863634, 9.316822
271375236769842, -0.59700924, 5.541777, 8.397611, -0.39754105, 0.050515175, 10.071095
271375246409738, -0.60658056, 4.820341, 8.397611, 0.20156765, 0.16962242, 9.698149
271375256049634, -0.7513463, 5.0979085, 8.428718, 0.022146225, -0.01473701, 9.879057
271375265689529, -0.57906306, 5.334798, 8.526823, -0.1809845, 0.123119116, 10.072447
271375275329321, -0.8446664, 4.634897, 8.368897, 0.3971827, -0.030774117, 9.595596
271375284969217, -0.5766702, 5.7726846, 8.683554, -0.46966553, 0.074290395, 10.432375
271375294609113, -0.89013004, 4.442275, 8.407183, 0.5904145, -0.024636507, 9.531929
271375304249009, -0.6867401, 5.899504, 8.647661, -0.5738354, -0.051183343, 10.475015
271375313888904, -0.9379865, 4.508078, 8.382058, 0.5267143, -0.08204138, 9.548682
271375323528800, -0.8458628, 5.703293, 8.548359, -0.4050703, -0.1835829, 10.301441
271375333168696, -0.84347, 4.8885365, 8.451449, 0.21747231, -0.04135847, 9.797306
271375342808592, -0.8997013, 5.2259245, 8.432307, -0.057596207, -0.15385342, 9.959748
271375352448488, -0.65084773, 5.322834, 8.53161, -0.1543889, 0.09100902, 10.075336
271375362088384, -0.8458628, 4.723432, 8.394022, 0.32961297, -0.016977191, 9.663176
271375371728175, -0.5312066, 5.697311, 8.689535, -0.42091846, 0.17016077, 10.394393
271375381368071, -0.79920274, 4.348955, 8.432307, 0.64542437, 0.08942044, 9.499019
271375391007967, -0.54675996, 5.7786665, 8.671589, -0.5038538, 0.12470162, 10.422044
271375400647863, -0.75493556, 4.328616, 8.347362, 0.60578203, 0.12813687, 9.412858
271375410287759, -0.63170516, 5.619544, 8.547162, -0.3989048, 0.046242, 10.240655
271375419927654, -0.6652047, 4.7318068, 8.421539, 0.29119658, 0.14500725, 9.677241
271375429567550, -0.7860422, 5.2546387, 8.432307, -0.11186218, -0.06080365, 9.9657755
271375439207446, -0.6843473, 5.2809596, 8.458628, -0.15132046, 0.037202, 9.994045
271375448847342, -0.9343972, 4.773681, 8.251649, 0.23706627, -0.15584993, 9.574464
271375458487238, -0.6735796, 5.710471, 8.530413, -0.47556162, -0.014365792, 10.276419
271375468127134, -0.9296116, 4.4195433, 8.251649, 0.5363455, -0.08812964, 9.390997
271375477766925, -0.60059845, 5.8683977, 8.530413, -0.62352705, 0.031540513, 10.352632
271375487406821, -0.8219346, 4.4745784, 8.288737, 0.47975612, 0.02221489, 9.442984
271375497046717, -0.7680961, 5.7726846, 8.563912, -0.49767303, -0.11606419, 10.343756
271375506686613, -0.91405827, 4.7856455, 8.512466, 0.34594893, -0.074030995, 9.801778
271375516326509, -1.018146, 5.3826547, 8.571091, -0.09380293, -0.27668703, 10.167981
271375525966404, -0.8446664, 5.235496, 8.586644, -0.016222477, -0.0702095, 10.092033
271375535606300, -0.93559366, 4.813163, 8.40479, 0.2743504, -0.10583222, 9.726042
271375545246196, -0.5814559, 5.621937, 8.630911, -0.39192724, 0.111192346, 10.308778
271375554886092, -0.8063812, 4.3800616, 8.408379, 0.5960827, 0.10154259, 9.49581
271375564525988, -0.49172506, 5.7523456, 8.73141, -0.4839425, 0.19712102, 10.45446
271375574165884, -0.7322037, 4.284349, 8.465807, 0.68508315, 0.1886307, 9.489822
271375583805675, -0.6269195, 5.662615, 8.689535, -0.39989662, 0.06460357, 10.382784
271375593445571, -0.7190432, 4.631308, 8.534002, 0.4121065, 0.14344764, 9.726501
271375603085467, -0.75972116, 5.3300123, 8.577073, -0.13399601, -0.021729589, 10.125907
271375612725363, -0.6831509, 5.156533, 8.504091, -0.0491457, 0.06579387, 9.968419
271375622365259, -0.9391829, 4.8933225, 8.309076, 0.14510512, -0.17298508, 9.685888
271375632005154, -0.701097, 5.599205, 8.46461, -0.42764807, -0.030451298, 10.164077
271375641645050, -0.99661064, 4.4518466, 8.22772, 0.49435425, -0.16096091, 9.393469
271375651284946, -0.61854464, 5.8193445, 8.559127, -0.58619976, 0.038097143, 10.351857
271375660924842, -0.78364944, 4.368098, 8.287541, 0.5415201, 0.067133784, 9.385093
271375670564738, -0.59342, 5.757131, 8.56152, -0.540154, 0.07534397, 10.31983
271375680204634, -0.71665037, 4.619344, 8.419147, 0.37685347, 0.110161304, 9.6218405
271375689844529, -0.79441714, 5.4376893, 8.559127, -0.22015905, -0.070453405, 10.168816
271375699484425, -0.80159557, 5.081159, 8.589037, 0.090292454, -0.020336151, 10.011179
271375709124321, -1.0049855, 4.883751, 8.429914, 0.2246933, -0.21592629, 9.789147
271375718764113, -0.72382885, 5.5657053, 8.636893, -0.31755018, -0.007648945, 10.295439
271375728404009, -0.9607183, 4.5296135, 8.403593, 0.5043807, -0.110648155, 9.580924
271375738043904, -0.6556334, 5.8624153, 8.688339, -0.55075884, 0.017574191, 10.487201
271375747683800, -0.9379865, 4.3812585, 8.347362, 0.5907333, -0.06984699, 9.45515
271375757323696, -0.70348984, 5.8073807, 8.514859, -0.5703554, -0.05577779, 10.314795
271375766963592, -0.7968099, 4.5834517, 8.3174515, 0.38766408, 0.04242432, 9.522125
271375776603488, -0.73459655, 5.4759746, 8.462217, -0.30652523, -0.01913917, 10.101521
271375786243384, -0.6436693, 5.0440702, 8.458628, 0.02938795, 0.14149702, 9.868357
271375795883279, -0.8147561, 4.9722853, 8.359326, 0.086033344, -0.03144908, 9.759989
271375805523175, -0.6029913, 5.528617, 8.556734, -0.3395357, 0.11531198, 10.198938
271375815163071, -0.8817552, 4.5475593, 8.361719, 0.45891023, -0.03463769, 9.548002
271375824802967, -0.59581286, 5.832505, 8.720642, -0.5234251, 0.097996, 10.49472
271375834442863, -0.849452, 4.3441696, 8.441878, 0.65221, 0.030192018, 9.509597
271375844082759, -0.5982057, 5.7834525, 8.663215, -0.5138278, 0.08974171, 10.420433
271375853722654, -0.7262217, 4.49731, 8.403593, 0.48197532, 0.11480391, 9.5461035
271375863362550, -0.7070791, 5.473582, 8.499306, -0.30574942, 0.0012642145, 10.129402
271375873002446, -0.6939186, 4.918447, 8.438289, 0.1291821, 0.090714216, 9.790427
271375882642238, -0.8817552, 5.0009995, 8.318648, 0.049513817, -0.124807, 9.745224
271375892282134, -0.6975078, 5.424529, 8.435896, -0.29237986, 0.013272524, 10.049415
271375901922029, -0.951147, 4.564309, 8.202596, 0.37378216, -0.14591217, 9.426514
271375911561925, -0.62452674, 5.771488, 8.577073, -0.52822685, 0.062333822, 10.343277
271375921201821, -0.8554341, 4.3740797, 8.347362, 0.58104014, 0.015137315, 9.444839
271375930841717, -0.6149554, 5.879165, 8.630911, -0.6089053, 0.053539157, 10.443264
271375940481613, -0.8470592, 4.5523453, 8.386844, 0.4513626, 0.010014176, 9.569571
271375950121509, -0.8757731, 5.623133, 8.563912, -0.35332155, -0.17310762, 10.274843
271375959761404, -0.93320084, 4.959125, 8.590233, 0.2189765, -0.10535407, 9.959761
271375969401300, -1.052842, 5.111069, 8.573483, 0.115364075, -0.24657035, 10.033046
271375979041196, -0.7537391, 5.4185467, 8.713464, -0.15250158, 0.02041161, 10.28735
271375988681092, -0.8877372, 4.619344, 8.499306, 0.4455428, -0.019860268, 9.703902
271375998320988, -0.526421, 5.7260246, 8.800801, -0.42037106, 0.21011567, 10.502273
271376007960884, -0.79441714, 4.3178487, 8.492127, 0.6715517, 0.10412228, 9.535686
271376017600779, -0.57427746, 5.802595, 8.685946, -0.526587, 0.13226092, 10.447526
271376027240675, -0.7704889, 4.4195433, 8.318648, 0.5057883, 0.06457806, 9.437475
271376036880571, -0.7405786, 5.5836515, 8.4347, -0.43511152, -0.051062107, 10.133007
271376046520467, -0.76331043, 4.8586264, 8.360522, 0.15475869, 0.01750052, 9.698606
271376056160363, -0.84347, 5.186443, 8.299505, -0.13410997, -0.11959493, 9.821411
271376065800259, -0.6412765, 5.359923, 8.384451, -0.28620195, 0.064912796, 9.967592
271376075440154, -0.849452, 4.6396832, 8.191829, 0.27541995, -0.06471026, 9.448505
271376085080050, -0.55513483, 5.721239, 8.529217, -0.53775644, 0.12272513, 10.270543
271376094719946, -0.849452, 4.3501515, 8.327023, 0.5852494, 0.005525589, 9.414996
271376104359842, -0.5766702, 5.8061843, 8.672786, -0.52727985, 0.11007941, 10.438935
271376113999738, -0.81954175, 4.4051867, 8.453842, 0.5978658, 0.053052902, 9.549058
271376123639634, -0.76331043, 5.6470613, 8.609376, -0.38578176, -0.0576638, 10.317032
271376133279529, -0.8279166, 4.79402, 8.506484, 0.29458046, 0.0026940107, 9.794976
271376142919425, -0.93679005, 5.204389, 8.46102, -0.04887867, -0.17687428, 9.975893
271376152559321, -0.7788638, 5.312066, 8.5112705, -0.1558075, -0.02745676, 10.061877
271376162199217, -1.0109676, 4.727021, 8.356933, 0.3188157, -0.17932582, 9.6473465
271376171839113, -0.66759753, 5.73081, 8.670393, -0.46481466, 0.046904087, 10.404102
271376181479009, -0.9200403, 4.4135613, 8.482556, 0.61275816, -0.02329886, 9.586645
271376191118904, -0.6436693, 5.877969, 8.852247, -0.5006037, 0.0768348, 10.633467
271376200758800, -0.8853444, 4.4350967, 8.601001, 0.64566445, 0.024658918, 9.696063
271376210398696, -0.79920274, 5.6853466, 8.779266, -0.35153675, -0.053427696, 10.483843
271376220038592, -0.83030945, 4.7509494, 8.6141615, 0.37426424, 0.02894175, 9.865282
271376229678488, -0.8327023, 5.2809596, 8.551949, -0.10314226, -0.06368196, 10.084793
271376239318384, -0.6233303, 5.229514, 8.4909315, -0.13291597, 0.1417563, 9.989721
271376248958279, -0.81236327, 4.7282176, 8.191829, 0.1960833, -0.025873303, 9.491203
271376258598175, -0.54675996, 5.633901, 8.3784685, -0.53283167, 0.13926637, 10.096299
271376268238071, -0.8805587, 4.4135613, 8.0817585, 0.42219853, -0.07132077, 9.240477
271376277877967, -0.65324056, 5.851648, 8.403593, -0.6802225, 0.007839203, 10.238463
271376287517863, -0.8997013, 4.4207397, 8.142776, 0.45207858, -0.085244656, 9.297609
271376297157759, -0.72502524, 5.753542, 8.416754, -0.5793028, -0.043501258, 10.204566
271376306797654, -0.78723866, 4.743771, 8.364112, 0.26786518, 0.018356442, 9.644138
271376316437550, -0.8243274, 5.359923, 8.500503, -0.18583632, -0.08109152, 10.080958
271376326077446, -0.695115, 5.186443, 8.575876, -0.030241013, 0.08519459, 10.045887
271376335717342, -0.8961121, 4.7772703, 8.38804, 0.26580286, -0.08122587, 9.690578
271376345357238, -0.62811595, 5.5633125, 8.660822, -0.32438803, 0.10738313, 10.307185
271376354997134, -0.9200403, 4.4195433, 8.449057, 0.6013696, -0.035801888, 9.560465
271376364637029, -0.6197411, 5.814559, 8.770891, -0.48722172, 0.09112024, 10.529768
271376374276925, -0.8805587, 4.3704906, 8.487342, 0.648896, 0.028258681, 9.565025
271376383916821, -0.7298109, 5.743971, 8.729017, -0.4369974, -0.013964415, 10.465678
271376393556717, -0.79920274, 4.648058, 8.579466, 0.42790055, 0.08430052, 9.780602
271376403196613, -0.77407813, 5.377869, 8.658429, -0.14428139, -0.011755824, 10.220964
271376412836509, -0.6723832, 5.109873, 8.599805, 0.01944971, 0.12321675, 10.025168
271376422476404, -0.89013004, 4.867001, 8.4012, 0.18965411, -0.08266735, 9.747686
271376432116300, -0.65084773, 5.5872407, 8.560323, -0.4010396, 0.036222935, 10.2351265
271376441756196, -0.99302137, 4.4745784, 8.301898, 0.49638605, -0.1239717, 9.469303
271376451396092, -0.71665037, 5.875576, 8.630911, -0.58640194, -0.06011963, 10.4489765
271376461035988, -0.92482597, 4.421936, 8.303095, 0.51917386, -0.05991018, 9.4380665
271376470675884, -0.70947194, 5.7930236, 8.512466, -0.58533335, -0.055088043, 10.304314
271376480315779, -0.7788638, 4.6025944, 8.32463, 0.35145998, 0.041531205, 9.537544
271376489955779, -0.72382885, 5.4185467, 8.457432, -0.28991318, -0.0112288, 10.06621
271376499595675, -0.57906306, 5.002196, 8.46461, 0.031174183, 0.19536316, 9.847219
271376509235571, -0.7322037, 4.8323054, 8.279166, 0.12641406, 0.036139846, 9.613253
271376518875467, -0.49292147, 5.393422, 8.43111, -0.32141447, 0.21643794, 10.013266
271376528515363, -0.7728817, 4.3836513, 8.195417, 0.4734776, 0.045311928, 9.3140955
271376538155259, -0.54317075, 5.7343993, 8.541181, -0.5414629, 0.13471627, 10.286827
271376547795154, -0.89371926, 4.3154554, 8.285149, 0.60502386, -0.043313503, 9.364704
271376557435050, -0.7537391, 5.828916, 8.537591, -0.5808368, -0.07286322, 10.348536
271376567074946, -0.90807617, 4.6325045, 8.380861, 0.38121367, -0.07664597, 9.611053
271376576714842, -0.86859465, 5.5908303, 8.58784, -0.34927034, -0.1259458, 10.277402
271376586354738, -0.8650054, 5.1146584, 8.636893, 0.08172989, -0.05129993, 10.074451
271376595994634, -1.0755738, 5.069195, 8.585447, 0.14052391, -0.2583065, 10.023824
271376605634529, -0.8207382, 5.532206, 8.772088, -0.2196145, -0.04215908, 10.400887
271376615274425, -1.0360922, 4.566702, 8.575876, 0.543941, -0.14068055, 9.7549095
271376624914321, -0.6687939, 5.8193445, 8.9013, -0.44841862, 0.07636821, 10.646046
271376634554321, -0.9056834, 4.3645086, 8.60459, 0.6963432, 0.03357923, 9.665515
271376644194217, -0.67477596, 5.7870417, 8.857033, -0.43607283, 0.05241871, 10.592417
271376653834113, -0.8470592, 4.459025, 8.566305, 0.57943296, 0.07828772, 9.6767845
271376663474009, -0.7501499, 5.4628143, 8.62134, -0.25973797, -0.016583562, 10.230584
271376673113904, -0.6759724, 4.9064827, 8.440681, 0.09425044, 0.12356782, 9.785267
271376682753800, -0.802792, 5.002196, 8.232507, -0.042163134, -0.059666753, 9.666192
271376692393696, -0.567099, 5.375476, 8.27797, -0.3941207, 0.1012404, 9.878085
271376702033592, -0.8219346, 4.5152564, 8.029117, 0.28527784, -0.032470107, 9.243776
271376711673488, -0.51206404, 5.7200427, 8.366505, -0.6484089, 0.11133754, 10.1265335
271376721313384, -0.7680961, 4.278367, 8.126026, 0.51024723, 0.081439376, 9.201072
271376730953279, -0.5312066, 5.6913285, 8.477771, -0.5729451, 0.11180735, 10.208096
271376740593279, -0.6903293, 4.7078786, 8.366505, 0.24475169, 0.10711527, 9.621212
271376750233175, -0.6891329, 5.0823555, 8.549556, 0.016889095, 0.08000839, 9.969626
271376759873071, -0.72502524, 5.035695, 8.589037, 0.07007599, 0.057921648, 9.982343
271376769512967, -0.76689965, 5.119444, 8.629715, 0.028732777, 0.011285067, 10.063194
271376779152863, -0.8673982, 5.1158547, 8.628518, 0.05035734, -0.08405936, 10.068071
271376788792759, -0.90329057, 5.176872, 8.683554, 0.028510094, -0.11693394, 10.149166
271376798432654, -0.90329057, 5.15414, 8.708678, 0.055573463, -0.10586047, 10.159128
271376808072550, -0.90329057, 5.1182475, 8.705089, 0.08078909, -0.0990988, 10.137781
271376817712446, -0.8315059, 5.0847483, 8.623733, 0.055244923, -0.034986258, 10.045424
271376827352446, -0.802792, 5.0715876, 8.572288, 0.03596449, -0.011238217, 9.992406
271376836992342, -0.7800602, 5.048856, 8.539984, 0.035669327, 0.00795269, 9.951353
271376846632238, -0.82672024, 5.035695, 8.52802, 0.047993183, -0.03904617, 9.938058
271376856272134, -0.80997044, 5.070391, 8.543573, 0.021195412, -0.026886702, 9.967768
271376865912029, -0.78843504, 5.1050873, 8.547162, -0.009673595, -0.00788641, 9.986859
271376875551925, -0.7704889, 5.1361938, 8.5220375, -0.049770832, 0.002748847, 9.979818
271376885191821, -0.782453, 5.1290154, 8.489735, -0.05778551, -0.013730407, 9.949428
271376894831717, -0.79800636, 5.0979085, 8.420342, -0.05983591, -0.035122633, 9.875364
271376904471717, -0.7956135, 5.089534, 8.360522, -0.07423067, -0.037448764, 9.819764
271376914111613, -0.78364944, 5.1158547, 8.373683, -0.09218216, -0.027145028, 9.843546
271376923751509, -0.74895346, 5.117051, 8.349754, -0.10872698, 0.0048601627, 9.820982
271376933391404, -0.74895346, 5.099105, 8.385647, -0.074165344, 0.013346434, 9.842521
271376943031300, -0.7848458, 5.0715876, 8.425129, -0.024837494, -0.013044715, 9.865039
271376952671196, -0.75254273, 5.0476594, 8.472985, 0.011226177, 0.026901126, 9.891199
271376962311092, -0.7262217, 5.0177493, 8.5112705, 0.047947884, 0.060147524, 9.906614
271376971951092, -0.7118647, 5.0081778, 8.5220375, 0.05304718, 0.0737406, 9.909868
271376981590988, -0.6556334, 5.0081778, 8.486146, 0.024964333, 0.12301588, 9.874747
271376991230884, -0.65682983, 5.0069814, 8.476574, 0.019145489, 0.12094021, 9.866033
271377000870779, -0.6891329, 4.975875, 8.445468, 0.03471327, 0.09001458, 9.826028
271377010510675, -0.65084773, 5.026124, 8.402397, -0.038360596, 0.11315858, 9.811806
271377020150571, -0.701097, 5.0715876, 8.457432, -0.042871952, 0.06823778, 9.886062
271377029790467, -0.8063812, 5.0548377, 8.52443, 0.024167538, -0.019351482, 9.943167
271377039430467, -0.8578269, 5.0799623, 8.640483, 0.066381454, -0.05094862, 10.059465
271377049070363, -0.89730847, 5.1003013, 8.744571, 0.10243225, -0.07189357, 10.16219
271377058710259, -0.9164511, 5.1014977, 8.809176, 0.12945127, -0.07922912, 10.21977
271377068350154, -0.94755775, 5.113462, 8.8187475, 0.12346411, -0.10994661, 10.236617
271377077990050, -0.95473623, 5.0943193, 8.779266, 0.11828089, -0.118613124, 10.193679
271377087629946, -0.9726824, 5.1050873, 8.76491, 0.10391474, -0.13722193, 10.188328
271377097269946, -0.9284152, 5.1062837, 8.69791, 0.061757088, -0.10339856, 10.127942
271377106909842, -0.8422736, 5.063213, 8.623733, 0.04911089, -0.025939465, 10.035499
271377116549738, -0.8003992, 5.048856, 8.549556, 0.016262531, 0.0032583475, 9.961236
271377126189634, -0.73579293, 5.0213385, 8.467003, -0.006641388, 0.047748327, 9.871324
271377135829529, -0.7046863, 5.0141597, 8.43111, -0.02402544, 0.07313049, 9.834433
271377145469425, -0.67477596, 5.042874, 8.407183, -0.064804554, 0.084525704, 9.826255
271377155109425, -0.70348984, 5.076373, 8.389236, -0.091677666, 0.04710412, 9.8302145
271377164749321, -0.76570326, 5.0751767, 8.347362, -0.09377241, -0.021178722, 9.798618
271377174389217, -0.78364944, 5.0715876, 8.309076, -0.10258579, -0.044055104, 9.765418
271377184029113, -0.73459655, 5.072784, 8.269595, -0.1330638, -0.0032485723, 9.7283745
271377193669009, -0.7298109, 5.0536413, 8.275578, -0.11234617, 0.006241083, 9.723397
271377203309009, -0.73818576, 5.050052, 8.32463, -0.08212376, 0.0068377256, 9.764252
271377212948904, -0.7585248, 5.0883374, 8.4347, -0.05687952, -3.1530857E-4, 9.879649
271377222588800, -0.7537391, 5.1062837, 8.550752, -0.01776886, 0.022735119, 9.98783
271377232228696, -0.7477571, 5.1158547, 8.641679, 0.01670456, 0.044803858, 10.070126
271377241868592, -0.7537391, 5.109873, 8.683554, 0.04028797, 0.055003524, 10.103384
271377251508592, -0.7896315, 5.069195, 8.668, 0.07417107, 0.023148179, 10.072162
271377261148488, -0.83389866, 5.083552, 8.608179, 0.04189539, -0.02688384, 10.031757
271377270788384, -0.8709874, 5.063213, 8.510074, 0.021381855, -0.06812525, 9.940371
271377280428279, -0.89491564, 5.029713, 8.390432, -9.803772E-4, -0.105437756, 9.822784
271377290068175, -0.8422736, 5.0392847, 8.348558, -0.041298866, -0.062757015, 9.787574
271377299708175, -0.7645068, 5.056034, 8.338987, -0.076031685, 0.006463051, 9.78166
271377309348071, -0.6879365, 5.003392, 8.360522, -0.037409306, 0.091606975, 9.767075
271377318987967, -0.66161543, 4.9734817, 8.409575, 0.004998207, 0.12559044, 9.791754
271377328627863, -0.573081, 4.9866424, 8.459825, -0.0054917336, 0.2084657, 9.834642
271377338267759, -0.5982057, 4.9986067, 8.53161, 0.025408745, 0.19418824, 9.904238
271377347907759, -0.66759753, 4.9878387, 8.555537, 0.05511856, 0.12746465, 9.924826
271377357547654, -0.7513463, 5.0129633, 8.555537, 0.044891357, 0.041882515, 9.944233
271377367187550, -0.8578269, 5.076373, 8.55793, 0.005610466, -0.061180353, 9.986983
271377376827446, -0.93679005, 5.113462, 8.589037, 0.0042295456, -0.13791454, 10.038805
271377386467342, -1.0013963, 5.148158, 8.626125, 0.0024299622, -0.1904279, 10.093567
271377396107342, -1.0420742, 5.174479, 8.671589, 0.006937027, -0.21640563, 10.14942
271377405747238, -1.0600204, 5.1625147, 8.712267, 0.039176464, -0.2170384, 10.17989
271377415387134, -1.0648061, 5.1613183, 8.71466, 0.04100132, -0.21406245, 10.181887
271377425027029, -1.0444671, 5.131408, 8.683554, 0.04622841, -0.19204807, 10.13841
271377434667029, -0.9846465, 5.0955157, 8.657232, 0.049284935, -0.13591862, 10.092601
271377444306925, -0.9164511, 5.0775695, 8.652447, 0.050707817, -0.067830205, 10.073692
271377453946821, -0.84347, 5.0620165, 8.628518, 0.03684807, -0.009731412, 10.03919
271377463586717, -0.76331043, 5.0249276, 8.586644, 0.035253525, 0.060601473, 9.97788
271377473226613, -0.66999036, 5.005785, 8.523234, 0.005284786, 0.14456236, 9.906128
271377482866613, -0.6723832, 4.979464, 8.476574, 0.0029668808, 0.13331068, 9.853004
271377492506509, -0.63888365, 4.971089, 8.469396, 0.0062012672, 0.16121256, 9.839945
271377502146404, -0.5838487, 5.0009995, 8.445468, -0.03969097, 0.20600939, 9.830198
271377511786300, -0.5694918, 5.0189457, 8.380861, -0.08779907, 0.20718253, 9.782759
271377521426300, -0.6628119, 4.995017, 8.30788, -0.0810647, 0.10596156, 9.715586
271377531066196, -0.74895346, 4.9866424, 8.280363, -0.067622185, 0.016643167, 9.694694
271377540706092, -0.7537391, 5.003392, 8.300702, -0.071250916, 0.010345578, 9.721035
271377550345988, -0.75972116, 5.0165524, 8.374879, -0.04883051, 0.01460433, 9.791781
271377559985988, -0.8219346, 5.0739803, 8.475378, -0.03569603, -0.035694838, 9.912131
271377569625884, -0.9212367, 5.1206403, 8.585447, -0.011437416, -0.1204052, 10.038173
271377579265779, -0.9631111, 5.123033, 8.603394, 0.0040636063, -0.15832186, 10.058147
271377588905675, -0.99302137, 5.10748, 8.642876, 0.03558016, -0.17376184, 10.08664
271377598545675, -0.9774681, 5.13739, 8.658429, 0.012285233, -0.15636325, 10.113953
271377608185571, -0.9774681, 5.093123, 8.657232, 0.04894495, -0.14985967, 10.090498
271377617825467, -0.94636136, 5.0823555, 8.618947, 0.0295825, -0.11627281, 10.049767
271377627465363, -0.93559366, 5.072784, 8.641679, 0.045677185, -0.09700978, 10.063577
271377637105363, -0.92243314, 5.069195, 8.658429, 0.0546813, -0.08042574, 10.075047
271377646745259, -0.91166544, 5.063213, 8.639286, 0.046819687, -0.06873155, 10.054729
271377656385154, -0.88295156, 5.032106, 8.647661, 0.071472645, -0.035101295, 10.043775
271377666025050, -0.8279166, 5.0309095, 8.599805, 0.03734064, 0.005050659, 9.997536
271377675665050, -0.74536425, 4.9902315, 8.592627, 0.051983356, 0.089675665, 9.963959
271377685304946, -0.6556334, 4.979464, 8.555537, 0.025290012, 0.15914702, 9.919486
271377694944842, -0.5694918, 4.9603214, 8.532805, 0.011172295, 0.23563123, 9.883431
271377704584738, -0.53359944, 4.9603214, 8.52443, 0.0010080338, 0.26431882, 9.873478
