timestamp_acc,device_acc_x,device_acc_y,device_acc_z,earth_acc_x,earth_acc_y,earth_acc_z
264982767065654, 7.225128, -0.95832545, 6.910472, 0.0018863678, 0.008515, 10.043674
264982776705967, 7.2263246, -0.9595219, 6.8889365, -0.011475563, 0.012935221, 10.029836
264982786346279, 7.2526455, -0.9667004, 6.875776, -0.03551674, 0.021611154, 10.040416
264982795986592, 7.2622166, -0.95473623, 6.8781686, -0.039018154, 0.009253025, 10.047832
264982805626904, 7.26102, -0.96430755, 6.8913293, -0.026398182, 0.017109036, 10.056926
264982815267217, 7.2526455, -0.9451649, 6.879365, -0.031260967, -1.5461445E-4, 10.040861
264982824907634, 7.245467, -0.93679005, 6.882954, -0.02478218, -0.008982837, 10.037365
264982834547946, 7.2346992, -0.9212367, 6.8925257, -0.013205528, -0.024371982, 10.034725
264982844188259, 7.225128, -0.9296116, 6.9116683, 0.0070667267, -0.017589867, 10.041785
264982853828571, 7.2095747, -0.94277215, 6.9248285, 0.02841711, -0.006427884, 10.040876
264982863468884, 7.213164, -0.9738788, 6.9475603, 0.042527676, 0.021570206, 10.062033
264982873109196, 7.2323065, -0.9762716, 6.9499536, 0.03150034, 0.023497224, 10.0776825
264982882749509, 7.24786, -0.9631111, 6.940382, 0.011490345, 0.012005568, 10.081055
264982892389925, 7.2789664, -0.9523434, 6.906883, -0.034598827, 0.007076502, 10.07939
264982902030238, 7.2849483, -0.92243314, 6.8925257, -0.04958105, -0.020245075, 10.071018
264982911670550, 7.2658057, -0.91525465, 6.903293, -0.029510975, -0.030083895, 10.063961
264982921310863, 7.243074, -0.93559366, 6.890133, -0.018853188, -0.008211732, 10.040466
264982930951175, 7.216753, -0.94396853, 6.8817577, -0.0052256584, 0.0011096001, 10.016544
264982940591488, 7.2179494, -0.9415757, 6.8781686, -0.009707928, -3.335476E-4, 10.014713
264982950231904, 7.210771, -0.9667004, 6.897311, 0.011100769, 0.022038221, 10.025069
264982959872217, 7.210771, -0.9810573, 6.9152575, 0.025181293, 0.033382177, 10.038762
264982969512529, 7.2095747, -0.96909314, 6.899704, 0.013477325, 0.023913503, 10.026081
264982979152842, 7.243074, -0.94396853, 6.903293, -0.010056496, -0.0018209219, 10.050301
264982988793154, 7.274181, -0.92602235, 6.9044895, -0.031977177, -0.020339489, 10.07183
264982998433467, 7.253842, -0.9056834, 6.9152575, -0.010041714, -0.041492462, 10.062675
264983008073779, 7.257431, -0.90807617, 6.9355965, 0.0016326904, -0.040599227, 10.0794735
264983017714196, 7.2323065, -0.930808, 6.8913293, -0.012725353, -0.010984361, 10.033085
264983027354509, 7.2299137, -0.94396853, 6.8865438, -0.014775276, 0.0033872128, 10.029306
264983036994821, 7.2287173, -0.9403793, 6.906883, -2.0933151E-4, -0.0025462508, 10.042096
264983046635134, 7.223932, -0.9762716, 6.9044895, 0.0049176216, 0.03349924, 10.040375
264983056275446, 7.239485, -1.0049855, 6.926025, 0.012416363, 0.058404863, 10.069082
264983065915759, 7.220342, -0.991825, 6.9092755, 0.012933731, 0.04750496, 10.042547
264983075556071, 7.2215385, -0.9774681, 6.908079, 0.009554863, 0.032383025, 10.041239
264983085196488, 7.2215385, -0.9762716, 6.903293, 0.00628376, 0.029953301, 10.037841
264983094836800, 7.2323065, -0.94277215, 6.8949184, -0.01078558, -0.0019146204, 10.036676
264983104477113, 7.243074, -0.9176475, 6.920043, -0.0026888847, -0.031268775, 10.059333
264983114117425, 7.253842, -0.9092726, 6.916454, -0.012246609, -0.03906876, 10.063829
264983123757738, 7.292127, -0.9020941, 6.910472, -0.04355097, -0.044579446, 10.086607
264983133398050, 7.283752, -0.90448695, 6.8985076, -0.04578352, -0.040769756, 10.0725765
264983143038363, 7.259824, -0.9296116, 6.906883, -0.019797325, -0.016734064, 10.0634775
264983152678779, 7.253842, -0.9415757, 6.893722, -0.023071766, -0.0023434758, 10.05125
264983162319092, 7.2562346, -0.9798609, 6.8781686, -0.03188944, 0.038252592, 10.045885
264983171959404, 7.2466636, -0.9726824, 6.916454, 9.121895E-4, 0.025945008, 10.064636
264983181599717, 7.2263246, -0.98943216, 6.890133, -0.0025877953, 0.045777917, 10.033474
264983191240029, 7.2083783, -0.9738788, 6.9020967, 0.015157223, 0.02858758, 10.027315
264983200880342, 7.18445, -0.9774681, 6.9092755, 0.035586357, 0.030992389, 10.015371
264983210520654, 7.196414, -0.9391829, 6.9224358, 0.0313735, -0.00932014, 10.029431
264983220161071, 7.190432, -0.9415757, 6.927222, 0.038894176, -0.008705854, 10.028643
264983229801384, 7.2287173, -0.90089774, 6.920043, 0.002213955, -0.047213554, 10.047424
264983239441696, 7.259824, -0.9020941, 6.926025, -0.013215065, -0.04629779, 10.074041
264983249082009, 7.2873416, -0.91525465, 6.9128647, -0.039322853, -0.030439138, 10.086042
264983258722321, 7.2789664, -0.9379865, 6.8985076, -0.041049004, -0.0059393644, 10.072282
264983268362634, 7.245467, -0.9726824, 6.8817577, -0.026026249, 0.031684518, 10.039911
264983278002946, 7.2490563, -0.98584294, 6.91765, -0.0016493797, 0.039375067, 10.0684185
264983287643363, 7.2562346, -0.9774681, 6.9128647, -0.012771606, 0.03086543, 10.069508
264983297283675, 7.227521, -0.98584294, 6.9116683, 0.0071434975, 0.038784683, 10.048809
264983306923988, 7.203593, -0.97507524, 6.8853474, 0.0041623116, 0.031270325, 10.012467
264983316564300, 7.204789, -0.96430755, 6.916454, 0.024929047, 0.015446782, 10.0337105
264983326204613, 7.198807, -0.94636136, 6.875776, -0.0018048286, 0.0035645962, 9.999735
264983335844925, 7.243074, -0.9164511, 6.8709903, -0.039937496, -0.025117397, 10.025481
264983345485238, 7.2658057, -0.9020941, 6.8985076, -0.038163185, -0.0431, 10.059414
264983355125654, 7.2658057, -0.9068798, 6.942775, -0.004811287, -0.04525411, 10.090313
264983364765967, 7.2693954, -0.9236295, 6.9332037, -0.010674477, -0.026516557, 10.087899
264983374406279, 7.2490563, -0.94755775, 6.876972, -0.033559322, 0.00657928, 10.036845
264983384046592, 7.2287173, -0.95832545, 6.859026, -0.03145981, 0.020873666, 10.010871
264983393686904, 7.1976104, -0.96550393, 6.8745794, 0.0023021698, 0.025982857, 9.999847
264983403327217, 7.192825, -0.96789676, 6.9116683, 0.03235531, 0.022286654, 10.022136
264983412967529, 7.2059855, -0.97507524, 6.9320073, 0.037607193, 0.025717854, 10.046275
264983422607946, 7.2670026, -0.991825, 6.954739, 0.012506008, 0.038635254, 10.107412
264983432248259, 7.2909307, -0.9559326, 6.9332037, -0.02395773, 0.0049438477, 10.106443
264983441888571, 7.30768, -0.9379865, 6.8853474, -0.07180405, -0.004065275, 10.083892
264983451528884, 7.2765737, -0.910469, 6.847062, -0.07889652, -0.024282098, 10.032594
264983461169196, 7.2490563, -0.90807617, 6.818348, -0.07409477, -0.020246387, 9.992867
264983470809509, 7.2083783, -0.9272188, 6.815955, -0.044826984, -0.0024206638, 9.963717
264983480449821, 7.2011995, -0.9391829, 6.8578296, -0.0074911118, 0.003747344, 9.988448
264983490090134, 7.203593, -0.9559326, 6.920043, 0.036253452, 0.011188626, 10.034494
264983499730550, 7.192825, -0.9631111, 6.960721, 0.07084656, 0.011767626, 10.055387
264983509370863, 7.2179494, -0.951147, 6.9583282, 0.04606867, 0.0019278526, 10.070734
264983519011175, 7.2586274, -0.94396853, 6.9451675, 0.003583908, -2.5117397E-4, 10.090296
264983528651488, 7.243074, -0.9272188, 6.9116683, -0.013589859, -0.011296272, 10.054487
264983538291800, 7.2765737, -0.91405827, 6.9092755, -0.037849426, -0.022891402, 10.07572
264983547932113, 7.2909307, -0.9296116, 6.8853474, -0.05948019, -0.0034136772, 10.071064
264983557572425, 7.2622166, -0.90807617, 6.9044895, -0.029401302, -0.028673291, 10.061545
264983567212842, 7.245467, -0.90807617, 6.928418, 0.0025482178, -0.03386867, 10.065945
264983576853154, 7.222735, -0.9296116, 6.9044895, 0.0045228004, -0.0093820095, 10.035135
264983586493467, 7.194021, -0.930808, 6.9116683, 0.028548717, -0.009338021, 10.019511
264983596133779, 7.190432, -0.94396853, 6.8985076, 0.020478725, 0.006844163, 10.009111
264983605774092, 7.210771, -0.95353985, 6.8853474, -0.0019898415, 0.019014716, 10.015593
264983615414404, 7.2323065, -0.9882358, 6.869794, -0.025324821, 0.056223392, 10.02363
264983625054717, 7.2526455, -0.9834501, 6.8781686, -0.033651352, 0.049758792, 10.043586
264983634695029, 7.2263246, -0.97507524, 6.8949184, -0.004114628, 0.03788179, 10.035389
264983644335446, 7.225128, -0.9523434, 6.899704, -0.0021309853, 0.01472187, 10.035694
264983653975759, 7.23111, -0.93679005, 6.9128647, 0.0013489723, -0.0030528307, 10.047598
264983663616071, 7.210771, -0.90807617, 6.916454, 0.015095711, -0.032420874, 10.032742
264983673256384, 7.237092, -0.8817552, 6.927222, 0.001645565, -0.059362113, 10.056634
264983682896696, 7.2466636, -0.8673982, 6.893722, -0.03142357, -0.06728804, 10.0391445
264983692537009, 7.2765737, -0.8817552, 6.9020967, -0.044914722, -0.05358541, 10.067774
264983702177321, 7.2526455, -0.8997013, 6.9152575, -0.01651001, -0.0371418, 10.061285
264983711817634, 7.2346992, -0.9702896, 6.9152575, 0.0048737526, 0.0334599, 10.054949
264983721457946, 7.2083783, -1.0157533, 6.8985076, 0.014716625, 0.081318974, 10.028711
264983731098259, 7.2179494, -1.0049855, 6.9188466, 0.021091938, 0.067864895, 10.048591
264983740738675, 7.2119675, -0.9774681, 6.9020967, 0.009110451, 0.041502595, 10.030207
264983750378988, 7.2023964, -0.9667004, 6.9009004, 0.014474392, 0.028271198, 10.0215
264983760019300, 7.1976104, -0.92482597, 6.9128647, 0.023394585, -0.015940368, 10.022365
264983769659613, 7.227521, -0.89013004, 6.9044895, -0.006779194, -0.048872232, 10.034887
264983779299925, 7.243074, -0.8925229, 6.884151, -0.030064106, -0.04396373, 10.032318
264983788940238, 7.27777, -0.8853444, 6.8650084, -0.06548166, -0.047693193, 10.043482
264983798580550, 7.300502, -0.6364908, 6.920043, -0.06613493, -0.30087686, 10.07445
264983808220863, 7.2011995, -1.3674982, 6.780063, -0.02777958, 0.44196713, 9.974993
264983817861175, 7.318448, -0.2955136, 6.98106, -0.055337906, -0.6498698, 10.097367
264983827501488, 7.133004, -1.6510476, 6.8051877, 0.06096983, 0.7299489, 9.968941
264983837141904, 7.314859, -0.31585258, 6.9942207, -0.036762238, -0.620178, 10.106438
264983846782217, 7.1377897, -1.4464613, 6.8685975, 0.08008194, 0.5181167, 9.997153
264983856422529, 7.3268228, -0.6149554, 6.9009004, -0.09554434, -0.32122618, 10.078226
264983866062842, 7.2119675, -1.0444671, 6.95115, 0.052651405, 0.10121024, 10.070196
264983875703154, 7.227521, -1.0827522, 6.815955, -0.052243233, 0.15814584, 9.991941
264983885343467, 7.2466636, -0.59342, 7.0097737, 0.04503393, -0.34986255, 10.093502
264983894983779, 7.1784678, -1.5158532, 6.7908306, -0.017392635, 0.5888533, 9.979805
264983904624092, 7.288538, -0.28115666, 7.068398, 0.025674343, -0.67481077, 10.134499
264983914264404, 7.115058, -1.6211374, 6.808777, 0.041287422, 0.7018142, 9.95577
264983923904717, 7.3232336, -0.25244278, 6.9702926, -0.07070112, -0.69239914, 10.089305
264983933545029, 7.1485577, -1.4584254, 6.8255267, 0.021037102, 0.5370742, 9.976362
264983943185342, 7.2993054, -0.54436713, 6.920043, -0.063595295, -0.38574362, 10.065304
264983952825759, 7.198807, -1.0588241, 6.971489, 0.072566986, 0.11489552, 10.076067
264983962466071, 7.2753773, -1.026521, 6.8195443, -0.08702564, 0.1027329, 10.023619
264983972106384, 7.2693954, -0.62931234, 6.9822564, 0.011346817, -0.3139216, 10.094225
264983981746696, 7.1808605, -1.4703895, 6.754938, -0.04756832, 0.548217, 9.952547
264983991387009, 7.2933235, -0.30508488, 7.038488, 0.02045679, -0.63670063, 10.120285
264984001027321, 7.09113, -1.6713866, 6.786045, 0.04092598, 0.7549011, 9.927565
264984010667634, 7.2993054, -0.28594232, 6.98106, -0.023846626, -0.6494869, 10.083374
264984020307946, 7.143772, -1.5361922, 6.8949184, 0.06989956, 0.5955431, 10.028645
264984029948259, 7.3064837, -0.5623133, 6.9655066, -0.033230305, -0.38598454, 10.102926
264984039588571, 7.1688967, -1.1437693, 6.9595246, 0.08355284, 0.19879031, 10.05434
264984049228884, 7.243074, -0.9834501, 6.782456, -0.09660387, 0.05768764, 9.970875
264984058869196, 7.2658057, -0.66759753, 6.896115, -0.042546272, -0.27022085, 10.035894
264984068509509, 7.1784678, -1.410569, 6.745367, -0.06282616, 0.48480195, 9.9388685
264984078149821, 7.292127, -0.32303107, 7.0528445, 0.05337763, -0.6244793, 10.13061
264984087790134, 7.149754, -1.6510476, 6.8279195, 0.018764019, 0.7223859, 9.997162
264984097430446, 7.37109, -0.24047868, 7.036095, -0.028066158, -0.7231859, 10.167282
264984107070759, 7.1712894, -1.5302101, 6.8805614, 0.042795658, 0.5942758, 10.037733
264984116711175, 7.2861447, -0.46660042, 6.946364, -0.021905422, -0.48502418, 10.065876
264984126351488, 7.1545396, -1.1916257, 6.8865438, 0.047178745, 0.25576937, 9.998213
264984135991800, 7.2358956, -0.9164511, 6.7441707, -0.11552191, -0.010350168, 9.933201
264984145632113, 7.2382884, -0.73579293, 6.8913293, -0.022673607, -0.2068584, 10.019049
264984155272425, 7.207182, -1.4237294, 6.708278, -0.079841614, 0.49853086, 9.935621
264984164912738, 7.347162, -0.38763726, 7.0504518, 0.0013179779, -0.5824656, 10.173527
264984174553050, 7.159325, -1.6319051, 6.8111696, 0.043152332, 0.6848315, 9.992008
264984184193363, 7.3196445, -0.25603202, 7.0229344, 0.001718998, -0.7112086, 10.122181
264984193833675, 7.1007013, -1.5696917, 6.8458657, 0.09800482, 0.6191502, 9.96779
264984203473988, 7.26102, -0.39840496, 6.936793, -0.01100111, -0.54683614, 10.034992
264984213114300, 7.1389866, -1.2215359, 6.910472, 0.08744812, 0.26853067, 10.006607
264984222754613, 7.2765737, -0.83988076, 6.8410797, -0.07709122, -0.09990275, 10.021894
264984232394925, 7.2933235, -0.7704889, 6.9559355, -0.0056777, -0.18648413, 10.106258
264984242035238, 7.2658057, -1.3196417, 6.780063, -0.09127474, 0.3809123, 10.0174465
264984251675550, 7.332805, -0.39481574, 7.0432734, 0.025873184, -0.5727924, 10.158978
264984261315863, 7.1449685, -1.6438692, 6.8111696, 0.028466225, 0.7091867, 9.982042
264984270956175, 7.2873416, -0.23688944, 7.0169525, 0.026858807, -0.71516556, 10.0939045
264984280596488, 7.0492554, -1.6175481, 6.788438, 0.08254433, 0.6768192, 9.895781
264984290236800, 7.253842, -0.4354937, 6.890133, -0.04391575, -0.5151468, 10.000724
264984299877113, 7.1377897, -1.3244274, 6.867401, 0.059844494, 0.37546086, 9.985928
264984309517425, 7.301698, -0.82911307, 6.8279195, -0.1002965, -0.1212731, 10.029854
264984319157738, 7.27777, -0.87936234, 6.940382, -7.1525574E-5, -0.0815655, 10.094625
264984328798050, 7.2646093, -1.3256238, 6.786045, -0.07622433, 0.38003236, 10.021576
264984338438363, 7.3100734, -0.41994038, 7.04447, 0.03049469, -0.5563964, 10.145323
264984348078675, 7.1748786, -1.5672989, 6.8015985, -0.0017385483, 0.62370646, 9.990397
264984357718988, 7.335198, -0.17467605, 7.042077, -0.006340027, -0.8007674, 10.138304
264984367359300, 7.1425757, -1.558924, 6.8315086, 0.04456377, 0.6175366, 9.986631
264984376999613, 7.322037, -0.3469593, 6.966703, -0.03206873, -0.6173645, 10.09383
264984386639925, 7.166504, -1.3555341, 6.9009004, 0.057302475, 0.39950514, 10.032737
264984396280238, 7.301698, -0.7956135, 6.8781686, -0.07242823, -0.1501404, 10.061274
264984405920550, 7.200003, -0.9451649, 6.963114, 0.06524181, -0.009483725, 10.060516
264984415560863, 7.196414, -1.2897314, 6.780063, -0.060191154, 0.35161865, 9.964626
264984425201175, 7.26102, -0.47377887, 7.0301127, 0.065351486, -0.4886568, 10.105755
264984434841488, 7.131808, -1.5816557, 6.7908306, -0.01642561, 0.6396758, 9.953404
264984444481800, 7.3052874, -0.22971097, 7.001399, 0.02445364, -0.7311994, 10.094767
264984454122113, 7.1282187, -1.6462619, 6.7704916, -0.021193027, 0.71947783, 9.941988
264984463762425, 7.322037, -0.36729828, 6.928418, -0.05750847, -0.5876347, 10.06983
264984473402738, 7.1772714, -1.4177474, 6.903293, 0.035841465, 0.478148, 10.047327
264984483043050, 7.3160553, -0.70229346, 6.91765, -0.0533123, -0.24365088, 10.090073
264984492683363, 7.2358956, -0.9296116, 6.983453, 0.05058098, -0.026071966, 10.098898
264984502323675, 7.23111, -1.1449656, 6.800402, -0.07386589, 0.20780623, 9.989832
264984511963988, 7.2466636, -0.47736812, 7.015756, 0.05359125, -0.4758572, 10.086306
264984521604300, 7.109076, -1.5290136, 6.7848487, 0.006456375, 0.5974834, 9.927437
264984531244613, 7.2861447, -0.2739782, 6.98106, 0.0068411827, -0.66731495, 10.072378
264984540884925, 7.094719, -1.6941184, 6.748956, -0.024601936, 0.77554226, 9.907139
264984550525238, 7.3160553, -0.37806597, 6.926025, -0.04998684, -0.5743881, 10.065038
264984560165550, 7.159325, -1.4883357, 6.890133, 0.04480362, 0.5429855, 10.032355
264984569805863, 7.2957163, -0.65084773, 6.9559355, -0.011704922, -0.29596126, 10.09695
264984579446175, 7.2119675, -0.9619147, 6.9882383, 0.07543659, 0.0072995424, 10.087988
264984589086488, 7.239485, -1.099502, 6.8075805, -0.07131052, 0.15741974, 9.996616
264984598726800, 7.26102, -0.50009996, 6.9762745, 0.02713108, -0.45779616, 10.071276
264984608367113, 7.1413794, -1.4644074, 6.74776, -0.037152767, 0.5340509, 9.919146
264984618007425, 7.308877, -0.25004998, 6.987042, -0.017729282, -0.71267486, 10.089239
264984627647738, 7.1473613, -1.6749759, 6.7609205, -0.022033215, 0.7324024, 9.953064
264984637288050, 7.365108, -0.31106696, 6.9475603, -0.07331514, -0.65478075, 10.108217
264984646928363, 7.164111, -1.4931214, 6.869794, 0.02797699, 0.548427, 10.022296
264984656568675, 7.318448, -0.62452674, 6.9296145, -0.04082632, -0.34000218, 10.0921755
264984666208988, 7.192825, -1.0767702, 6.977471, 0.08518171, 0.11864495, 10.077694
264984675849300, 7.227521, -1.0636097, 6.8542404, -0.026414871, 0.11191404, 10.016771
264984685489613, 7.2418776, -0.57188463, 7.038488, 0.06851101, -0.3993451, 10.106829
264984695129925, 7.1485577, -1.4703895, 6.798009, 0.019383907, 0.52255744, 9.960092
264984704770238, 7.3064837, -0.29312077, 7.0432734, 0.010406971, -0.67964673, 10.129971
264984714410550, 7.1186476, -1.672583, 6.7429743, 0.015507221, 0.72891015, 9.920122
264984724050863, 7.3196445, -0.30867413, 6.9020967, -0.09252691, -0.6499754, 10.043922
264984733691175, 7.115058, -1.558924, 6.8195443, 0.073868275, 0.60627574, 9.95929
264984743331488, 7.2526455, -0.552742, 6.957132, -0.014245033, -0.39981085, 10.057238
264984752971800, 7.155736, -1.099502, 7.015756, 0.14013767, 0.12768078, 10.079599
264984762612113, 7.243074, -1.0049855, 6.896115, -0.01432991, 0.050390184, 10.051157
264984772252425, 7.3112698, -0.6149554, 7.055238, 0.029100418, -0.36021188, 10.172443
264984781892634, 7.2562346, -1.3950156, 6.835098, -0.044062614, 0.436603, 10.056093
264984791532946, 7.3974113, -0.28594232, 7.0408807, -0.04870367, -0.6949886, 10.192746
264984801173259, 7.1784678, -1.6546369, 6.7369924, -0.0187459, 0.70519805, 9.957792
264984810813571, 7.312466, -0.29072794, 6.8650084, -0.11490011, -0.65648973, 10.012033
264984820453884, 7.0636125, -1.5948163, 6.741778, 0.03299284, 0.64906996, 9.87255
264984830094196, 7.2490563, -0.5587241, 6.88774, -0.037559986, -0.4019245, 10.006948
264984839734509, 7.1282187, -1.2167503, 6.9523463, 0.12534618, 0.25076073, 10.027388
264984849374821, 7.227521, -0.9499506, 6.859026, -0.023394108, -0.0028571486, 10.0092535
264984859015134, 7.2550383, -0.67118675, 6.991828, 0.034039497, -0.29746914, 10.093666
264984868655134, 7.233503, -1.3615161, 6.789634, -0.06518555, 0.40976608, 10.005211
264984878295759, 7.3663044, -0.3182454, 7.0731835, 0.015286446, -0.6604936, 10.195938
264984887936071, 7.179664, -1.6618153, 6.8410797, 0.0026555061, 0.7176158, 10.029686
264984897576384, 7.3435726, -0.3062813, 7.048059, 0.0051054955, -0.66883206, 10.161182
264984907216696, 7.109076, -1.6402799, 6.8865438, 0.08349371, 0.6956065, 10.008153
264984916857009, 7.2729845, -0.51565325, 6.991828, 0.008129597, -0.45190752, 10.091758
264984926497321, 7.1042905, -1.2562319, 6.9523463, 0.11754084, 0.3059435, 10.013828
264984936137634, 7.2346992, -0.9128618, 6.8243303, -0.06930637, -0.038975924, 9.9869585
264984945777946, 7.216753, -0.7585248, 6.930811, 0.013592243, -0.19974971, 10.032594
264984955418259, 7.2179494, -1.3734802, 6.728617, -0.0951252, 0.43305445, 9.953037
264984965058467, 7.348358, -0.37208393, 7.015756, -0.04262781, -0.5936439, 10.14906
264984974698779, 7.192825, -1.6354942, 6.782456, -0.02539444, 0.68291944, 9.997313
264984984339092, 7.3627152, -0.25244278, 7.0133634, -0.054532528, -0.71107125, 10.146525
264984993979404, 7.133004, -1.6091732, 6.8195443, 0.0367918, 0.6534023, 9.977328
264985003619717, 7.292127, -0.39960137, 6.9535427, -0.038443565, -0.5560378, 10.06856
264985013260029, 7.109076, -1.2574283, 6.966703, 0.14015102, 0.29046613, 10.027513
264985022900342, 7.21436, -0.80159557, 6.903293, -0.0040369034, -0.14917439, 10.016125
264985032540654, 7.1916285, -0.7968099, 7.0097737, 0.08401108, -0.16823566, 10.072536
264985042180967, 7.194021, -1.3016955, 6.8171515, -0.0364542, 0.35506856, 9.989721
264985051821279, 7.2969127, -0.41515473, 7.0576305, 0.022315025, -0.55065274, 10.145132
264985061461592, 7.194021, -1.6151553, 6.8039913, -0.032238483, 0.6647089, 10.010699
264985071101904, 7.3926253, -0.26081768, 7.015756, -0.06622028, -0.70144403, 10.1707115
264985080742217, 7.152147, -1.6654046, 6.7968125, -0.009016991, 0.71455026, 9.980619
264985090382529, 7.3232336, -0.4354937, 6.9391856, -0.056553364, -0.5187294, 10.084613
264985100022842, 7.1210403, -1.3651053, 6.914061, 0.08639622, 0.4070235, 10.010187
264985109663154, 7.23111, -0.7860422, 6.899704, -0.014395237, -0.17218277, 10.024116
264985119303467, 7.1748786, -0.8781659, 6.969096, 0.07582855, -0.08225018, 10.040212
264985128943779, 7.1856465, -1.2610176, 6.775277, -0.06736517, 0.3143201, 9.951117
264985138583988, 7.259824, -0.44985065, 7.0396843, 0.06315994, -0.5219822, 10.108812
264985148224300, 7.155736, -1.5864414, 6.8195443, 0.0069699287, 0.6411751, 9.990816
264985157864613, 7.335198, -0.24885355, 7.0432734, -0.0036964417, -0.72910726, 10.146091
264985167504925, 7.152147, -1.6594225, 6.8279195, 0.034002304, 0.71319336, 10.000879
264985177145238, 7.37109, -0.3481557, 6.960721, -0.09642315, -0.6106185, 10.125398
264985186785550, 7.1653075, -1.3830515, 6.9009004, 0.051001072, 0.41972715, 10.034844
264985196425863, 7.268199, -0.73818576, 6.88774, -0.055637836, -0.22096074, 10.037962
264985206066175, 7.170093, -0.9798609, 6.940382, 0.06357002, 0.016264677, 10.026712
264985215706488, 7.170093, -1.2382857, 6.788438, -0.02941513, 0.29322237, 9.94684
264985225346800, 7.237092, -0.5096712, 7.0193453, 0.03937483, -0.45846698, 10.08438
264985234987113, 7.133004, -1.5816557, 6.8315086, 0.053324223, 0.62395275, 9.982922
264985244627425, 7.288538, -0.27158538, 7.0492554, -0.0010061264, -0.6976198, 10.11938
264985254267738, 7.1270223, -1.6546369, 6.8195443, 0.047313213, 0.70552385, 9.976896
264985263908050, 7.3495545, -0.30987054, 6.9786673, -0.09462309, -0.6642362, 10.117491
264985273548363, 7.1772714, -1.3842479, 6.8865438, 0.042307854, 0.41578048, 10.033901
264985283188675, 7.308877, -0.6125626, 6.9092755, -0.08600855, -0.34532952, 10.070072
264985292828884, 7.219146, -0.9284152, 6.9559355, 0.033639908, -0.04236883, 10.067778
264985302469196, 7.225128, -1.1006985, 6.799206, -0.06953287, 0.15347064, 9.980722
264985312109509, 7.26102, -0.53359944, 7.0396843, 0.041661263, -0.4386288, 10.117815
264985321749821, 7.143772, -1.564906, 6.8542404, 0.053878307, 0.60640204, 10.00462
264985331390134, 7.2861447, -0.32183465, 7.0803623, 0.037651062, -0.6487905, 10.143997
264985341030446, 7.1018977, -1.7336, 6.8255267, 0.062009335, 0.78755325, 9.970258
264985350670759, 7.2729845, -0.3900301, 6.9702926, -0.030774593, -0.56807727, 10.065273
264985360311071, 7.103094, -1.5457634, 6.896115, 0.100399494, 0.5800434, 10.002659
264985369951384, 7.298109, -0.6735796, 6.928418, -0.06286144, -0.2865367, 10.081322
264985379591696, 7.2011995, -1.0504491, 6.983453, 0.06304264, 0.07623196, 10.085611
264985389232009, 7.2287173, -1.0923235, 6.808777, -0.07604694, 0.13888055, 9.98909
264985398872321, 7.2849483, -0.5599205, 6.987042, -0.015511036, -0.41188863, 10.1011305
264985408512634, 7.2323065, -1.4297116, 6.8039913, -0.068659306, 0.47898006, 10.020504
264985418152946, 7.359126, -0.27756742, 7.0205417, -0.049863815, -0.7006841, 10.150287
264985427793259, 7.0899334, -1.692922, 6.8051877, 0.03662157, 0.75058883, 9.943792
264985437433571, 7.220342, -0.3062813, 7.025327, 0.050997734, -0.6687458, 10.056469
264985447073779, 7.056434, -1.5457634, 6.9535427, 0.1596179, 0.5868102, 10.008226
264985456714092, 7.253842, -0.61016977, 7.003792, 0.019978523, -0.3672025, 10.094969
264985466354404, 7.166504, -1.14018, 6.9858456, 0.08742905, 0.16479516, 10.071049
264985475994717, 7.2705917, -1.0779666, 6.8039913, -0.11625004, 0.12231618, 10.014457
264985485635029, 7.263413, -0.67477596, 6.960721, -0.017064571, -0.29656622, 10.078487
264985495275342, 7.1820574, -1.5038891, 6.7645097, -0.049774647, 0.55442834, 9.964556
264985504915654, 7.312466, -0.32063824, 7.0301127, -0.014223576, -0.65377754, 10.127677
264985514555967, 7.1365933, -1.6773686, 6.7836523, 0.015240669, 0.71662384, 9.962364
264985524196279, 7.332805, -0.276371, 6.991828, -0.057210445, -0.6926739, 10.111824
264985533836592, 7.0983086, -1.5553347, 6.867401, 0.090893745, 0.5973241, 9.98004
264985543476904, 7.268199, -0.506082, 6.960721, -0.029868603, -0.46843162, 10.065494
264985553117217, 7.1688967, -1.1413764, 6.984649, 0.08845043, 0.1640268, 10.0720625
264985562757529, 7.245467, -0.99661064, 6.8650084, -0.057659626, 0.037260592, 10.030636
264985572397842, 7.237092, -0.70348984, 7.036095, 0.05782461, -0.2733558, 10.114295
264985582038154, 7.18445, -1.4117653, 6.836294, -0.017224789, 0.45514446, 10.006842
264985591678467, 7.2969127, -0.3397808, 7.117451, 0.05282879, -0.6431929, 10.178508
264985601318779, 7.135397, -1.6893328, 6.855437, 0.05620241, 0.7314179, 10.011324
264985610959092, 7.304091, -0.29072794, 7.036095, -0.016468525, -0.68236005, 10.122995
264985620599404, 7.0695944, -1.6103697, 6.8518476, 0.09641838, 0.6524412, 9.954159
264985630239613, 7.2670026, -0.48933223, 6.9415784, -0.04635334, -0.47616202, 10.050144
264985639879925, 7.1509504, -1.2442678, 6.9559355, 0.085113525, 0.27201825, 10.049284
264985649520238, 7.263413, -0.94277215, 6.855437, -0.08239651, -0.024825096, 10.031731
264985659160550, 7.304091, -0.762114, 6.9798636, -0.030665398, -0.21849519, 10.129185
264985668800863, 7.200003, -1.3782659, 6.8255267, -0.03836584, 0.41381764, 10.007735
264985678441175, 7.233503, -0.37088752, 7.0372915, 0.04509878, -0.6047292, 10.080519
264985688081488, 7.117451, -1.6295122, 6.7812595, -0.013541222, 0.68109953, 9.94157
264985697721800, 7.322037, -0.22372891, 6.9894347, -0.05426216, -0.757576, 10.096416
264985707362113, 7.1018977, -1.5972091, 6.869794, 0.06596136, 0.64122146, 9.988321
264985717002425, 7.2933235, -0.43908295, 7.0289164, -0.00790453, -0.54414415, 10.123974
264985726642738, 7.186843, -1.2789637, 7.012167, 0.09385824, 0.30387372, 10.117104
264985736283050, 7.2622166, -0.8805587, 6.9296145, -0.040830135, -0.09034109, 10.075956
264985745923363, 7.1916285, -0.84825563, 6.99781, 0.057648182, -0.12613678, 10.06922
264985755563675, 7.1282187, -1.4045869, 6.778867, -0.03309822, 0.45528376, 9.926179
264985765203988, 7.2215385, -0.44985065, 7.02772, 0.040015697, -0.52978736, 10.072712
264985774844300, 7.0899334, -1.6594225, 6.789634, 0.014613628, 0.701523, 9.931144
264985784484613, 7.2873416, -0.24765715, 6.995417, -0.054234028, -0.7197487, 10.078768
264985794124925, 7.1270223, -1.6271194, 6.814759, 0.007941723, 0.6632575, 9.972107
264985803765238, 7.32443, -0.37447673, 6.9583282, -0.10364246, -0.589856, 10.091935
264985813405550, 7.164111, -1.3052847, 6.9966135, 0.09381533, 0.3229757, 10.092957
264985823045863, 7.304091, -0.8255238, 6.9344, -0.07778692, -0.1410749, 10.104019
264985832686175, 7.253842, -0.89730847, 7.003792, 0.004796982, -0.08087766, 10.122744
264985842326488, 7.2059855, -1.3483555, 6.7609205, -0.106692314, 0.39712632, 9.964198
264985851966800, 7.245467, -0.567099, 7.056434, 0.023147106, -0.4114974, 10.121354
264985861607113, 7.0815587, -1.727618, 6.8446693, 0.053804874, 0.7622097, 9.969894
264985871247425, 7.2646093, -0.31226337, 7.1102724, 0.03669834, -0.67285776, 10.147608
264985880887634, 7.09113, -1.6402799, 6.8853474, 0.058619976, 0.66347265, 9.996951
264985890528050, 7.27777, -0.35174492, 7.015756, -0.035650253, -0.63881105, 10.09461
264985900168259, 7.103094, -1.3256238, 6.95115, 0.079497814, 0.35427207, 10.019875
264985909808571, 7.2586274, -0.66041905, 6.9595246, -0.042133808, -0.31581342, 10.072601
264985919448884, 7.1784678, -0.86979103, 7.0396843, 0.072505, -0.11498231, 10.090866
264985929089196, 7.1772714, -1.2035898, 6.8578296, -0.05201578, 0.24248773, 9.996508
264985938729509, 7.227521, -0.47377887, 7.1078796, 0.06490517, -0.5088831, 10.135103
264985948369821, 7.0959153, -1.5840486, 6.897311, 0.047914505, 0.62641805, 10.001971
264985958010134, 7.2789664, -0.27876383, 7.1342006, 0.04356575, -0.70142514, 10.171726
264985967650446, 7.0983086, -1.6857436, 6.876972, 0.00860548, 0.73259616, 9.999184
264985977290759, 7.2753773, -0.3469593, 7.0025954, -0.04554701, -0.63052243, 10.084057
264985986931071, 7.062416, -1.4093726, 6.9212394, 0.06477404, 0.45710057, 9.9777
264985996571384, 7.200003, -0.6771688, 6.9499536, -0.020155907, -0.28208748, 10.025991
264986006211696, 7.1066833, -0.9846465, 7.001399, 0.08319759, 0.019670486, 10.024309
264986015852009, 7.1617184, -1.18684, 6.8458657, -0.0726037, 0.23662424, 9.97514
264986025492321, 7.2418776, -0.56590253, 7.092326, 0.034650326, -0.40523973, 10.143998
264986035132634, 7.1449685, -1.5804594, 6.8817577, -0.021956444, 0.62381375, 10.025837
264986044772946, 7.2969127, -0.29790643, 7.1485577, 0.029015541, -0.6745425, 10.197044
264986054413259, 7.112665, -1.6821543, 6.9020967, 0.025269508, 0.7223143, 10.026774
264986064053571, 7.2957163, -0.34576288, 7.051648, -0.053816795, -0.6292033, 10.132816
264986073693884, 7.0983086, -1.4679967, 6.9702926, 0.08168602, 0.5012021, 10.043312
264986083334196, 7.2299137, -0.64247286, 6.9786673, -0.052633286, -0.31383392, 10.064043
264986092974509, 7.1413794, -1.0277174, 7.024131, 0.065573215, 0.057476223, 10.0690775
264986102614821, 7.1808605, -1.1306087, 6.855437, -0.075960636, 0.180417, 9.990082
264986112255134, 7.198807, -0.6017949, 7.103094, 0.060608387, -0.37299842, 10.124037
264986121895446, 7.109076, -1.5457634, 6.876972, 0.007677555, 0.5865423, 9.993849
264986131535759, 7.2442703, -0.30388847, 7.143772, 0.049806118, -0.67349505, 10.1562395
264986141176071, 7.0396843, -1.6821543, 6.863812, 0.04483223, 0.7213451, 9.948687
264986150816384, 7.2526455, -0.31106696, 7.0289164, -0.03752613, -0.6674512, 10.0824795
264986160456696, 7.0899334, -1.5146568, 6.8949184, 0.023198605, 0.5608928, 9.9893
264986170097009, 7.263413, -0.6161518, 6.954739, -0.08394861, -0.34557918, 10.068702
264986179737321, 7.159325, -1.1138589, 7.0133634, 0.05374813, 0.13981348, 10.082729
264986189377634, 7.237092, -1.0911272, 6.873383, -0.095155716, 0.13312495, 10.039058
264986199017946, 7.253842, -0.64247286, 7.0636125, 0.017795563, -0.33615258, 10.13964
264986208658259, 7.1389866, -1.4847465, 6.8542404, -0.032371998, 0.5321026, 9.9932995
264986218298571, 7.2765737, -0.2955136, 7.1306114, 0.029300213, -0.6917531, 10.168682
264986227938884, 7.0983086, -1.6426728, 6.8805614, 0.022526741, 0.69068116, 9.997446
264986237579196, 7.2562346, -0.23688944, 7.071987, -0.010399818, -0.73219013, 10.108702
264986247219509, 7.055238, -1.5218352, 6.9475603, 0.089372635, 0.566336, 10.001612
264986256859821, 7.2502527, -0.552742, 7.045666, -0.007960796, -0.41558102, 10.116341
264986266500134, 7.1042905, -1.1844472, 7.0600233, 0.12529993, 0.21428716, 10.082468
264986276140446, 7.1629148, -1.0480564, 6.9056864, -0.029222488, 0.092508554, 10.004242
264986285780759, 7.1856465, -0.7286145, 7.031309, 0.018670082, -0.24289131, 10.076921
264986295421071, 7.135397, -1.5026926, 6.7932234, -0.06368685, 0.55196446, 9.950434
264986305061488, 7.26102, -0.3792624, 7.0983086, -0.0046463013, -0.60786116, 10.143112
264986314701800, 7.0935225, -1.672583, 6.8518476, 0.0083966255, 0.71893936, 9.977297
264986324342113, 7.2909307, -0.25603202, 7.0337024, -0.07024002, -0.7145861, 10.108442
264986333982425, 7.1018977, -1.5433706, 6.9152575, 0.04569149, 0.5715437, 10.015537
264986343622738, 7.227521, -0.45583272, 7.0193453, -0.035265446, -0.52011186, 10.071956
264986353263050, 7.082755, -1.1856437, 7.051648, 0.13112307, 0.2146911, 10.061493
264986362903363, 7.2011995, -0.93559366, 6.920043, -0.062616825, -0.025265455, 10.030706
264986372543675, 7.203593, -0.7286145, 7.0612197, 0.0259552, -0.24557847, 10.110512
264986382183988, 7.1617184, -1.3926228, 6.8518476, -0.059113503, 0.43765068, 9.999119
264986391824300, 7.2670026, -0.36251262, 7.112665, 4.506111E-4, -0.611154, 10.156634
264986401464613, 7.1306114, -1.666601, 6.869794, -0.020039082, 0.7073431, 10.015814
264986411104925, 7.2622166, -0.30987054, 7.07438, -0.007062912, -0.6683302, 10.121065
264986420745238, 7.0576305, -1.6570296, 6.9224358, 0.05707264, 0.6957162, 9.999437
264986430385550, 7.237092, -0.49292147, 7.0528445, -6.837845E-4, -0.47197437, 10.10635
264986440025863, 7.0839515, -1.268196, 7.0229344, 0.092391014, 0.30673218, 10.050358
264986449666175, 7.166504, -0.8985049, 6.9535427, -0.018921852, -0.06111461, 10.025655
264986459306488, 7.125826, -0.7956135, 7.0504518, 0.07621622, -0.17179194, 10.05405
264986468946800, 7.1270223, -1.3447664, 6.8709903, -0.053374767, 0.38710585, 9.983019
264986478587113, 7.2418776, -0.3804588, 7.1509504, 0.06792021, -0.6045326, 10.166394
264986488227425, 7.109076, -1.6618153, 6.897311, -0.002506256, 0.7069076, 10.018671
264986497867738, 7.3340015, -0.25004998, 7.0959153, -0.024908543, -0.7411073, 10.180975
264986507508050, 7.1389866, -1.6115661, 6.903293, -0.017784595, 0.6518704, 10.039545
264986517148467, 7.3064837, -0.40438703, 7.0133634, -0.07416201, -0.5679064, 10.1196575
264986526788779, 7.1342006, -1.2873386, 6.984649, 0.046029568, 0.3196121, 10.061567
264986536429092, 7.2059855, -0.82313097, 6.91765, -0.065161705, -0.14546132, 10.021589
264986546069404, 7.099505, -0.8458628, 7.012167, 0.07394457, -0.12534684, 10.01338
264986555709717, 7.0935225, -1.3519448, 6.8422766, -0.025193691, 0.3965932, 9.940052
264986565350029, 7.183254, -0.49052864, 7.1389866, 0.087216854, -0.496053, 10.126758
264986574990342, 7.0899334, -1.6390835, 6.9092755, 0.03692341, 0.67225236, 10.011921
264986584630654, 7.2909307, -0.25722843, 7.115058, -0.020219803, -0.7212198, 10.165005
264986594270967, 7.1389866, -1.6271194, 6.8781686, -0.021809578, 0.65851367, 10.024357
264986603911279, 7.3136625, -0.37208393, 7.0229344, -0.1098752, -0.5956651, 10.128319
264986613551592, 7.0863442, -1.3794622, 7.007381, 0.098908424, 0.41271722, 10.051988
264986623191904, 7.192825, -0.8003992, 7.012167, -0.003326416, -0.16746747, 10.075703
264986632832217, 7.140183, -0.910469, 7.0803623, 0.092671394, -0.06794453, 10.096014
264986642472529, 7.135397, -1.2358929, 6.8662047, -0.03651476, 0.27904105, 9.975314
264986652112946, 7.204789, -0.47258246, 7.0899334, 0.040936947, -0.5051051, 10.106564
264986661753259, 7.0899334, -1.6151553, 6.882954, 0.021345615, 0.6495664, 9.991425
264986671393571, 7.2693954, -0.28713873, 7.1007013, 0.0066990852, -0.69114435, 10.142426
264986681033884, 7.1018977, -1.692922, 6.862615, -0.018440723, 0.7245849, 9.993651
264986690674196, 7.29452, -0.38883367, 7.0061846, -0.07214689, -0.5839369, 10.104536
264986700314509, 7.135397, -1.4596218, 6.9535427, 0.016591072, 0.48283225, 10.057969
264986709954821, 7.2179494, -0.71665037, 6.923632, -0.07178211, -0.24854618, 10.024077
264986719595134, 7.1222367, -0.9212367, 7.012167, 0.06173086, -0.053569376, 10.036869
264986729235446, 7.1617184, -1.1688938, 6.829116, -0.09058714, 0.2108007, 9.961964
264986738875759, 7.2215385, -0.4953143, 7.1078796, 0.053498745, -0.4877597, 10.132974
264986748516071, 7.1066833, -1.5170496, 6.910472, 0.0025763512, 0.5590923, 10.012415
264986758156488, 7.2969127, -0.2620141, 7.192825, 0.04255867, -0.7343185, 10.222979
264986767796800, 7.1425757, -1.6821543, 6.9583282, 0.020208359, 0.71870714, 10.086992
264986777437113, 7.30768, -0.34576288, 7.099505, -0.020133495, -0.6436963, 10.173985
264986787077425, 7.129415, -1.3160524, 6.942775, 0.013224602, 0.35563964, 10.031751
264986796717738, 7.1545396, -0.9415757, 6.936793, -0.016258717, -0.023000836, 10.00961
264986806358050, 7.1389866, -1.0432707, 6.916454, -0.01667881, 0.08149618, 9.994196
264986815998363, 7.109076, -1.0097711, 6.946364, 0.026028156, 0.044542253, 9.990391
264986825638675, 7.1282187, -1.0289137, 6.957132, 0.021299362, 0.06023562, 10.01338
264986835278988, 7.173682, -0.9559326, 6.966703, -0.01115942, -0.015625596, 10.045403
264986844919404, 7.2215385, -0.91166544, 6.96431, -0.05013466, -0.059698045, 10.073593
264986854559717, 7.223932, -0.89730847, 6.9595246, -0.058695793, -0.07236183, 10.070583
264986864200029, 7.2119675, -0.86979103, 6.9858456, -0.035377502, -0.10051978, 10.077684
264986873840342, 7.2059855, -0.89371926, 7.025327, -4.992485E-4, -0.08292061, 10.103134
264986883480654, 7.233503, -0.9702896, 7.0229344, -0.014138222, -0.0047239065, 10.128496
264986893120967, 7.1473613, -1.032503, 7.04447, 0.06465101, 0.05389738, 10.088028
264986902761279, 7.082755, -1.0360922, 7.0348988, 0.10100269, 0.056598186, 10.035702
264986912401592, 7.117451, -1.0348958, 7.0133634, 0.06189251, 0.0590111, 10.045351
264986922042009, 7.1066833, -1.0097711, 7.0229344, 0.06896305, 0.029058814, 10.041943
264986931682321, 7.125826, -0.9595219, 6.99781, 0.031049252, -0.01577735, 10.033256
264986941322634, 7.1629148, -0.97507524, 7.001399, 0.0069446564, -7.6019764E-4, 10.06368
264986950962946, 7.190432, -0.94396853, 6.9762745, -0.034324646, -0.026350498, 10.062799
264986960603259, 7.1449685, -0.951147, 6.977471, -0.001791954, -0.020687222, 10.031946
264986970243571, 7.143772, -0.9667004, 6.943971, -0.023938179, 0.0018885136, 10.009303
264986979883884, 7.166504, -0.9834501, 6.957132, -0.02848339, 0.016730309, 10.036262
264986989524196, 7.1653075, -0.9726824, 6.9906316, -0.0052833557, 9.536743E-4, 10.057666
264986999164613, 7.179664, -0.97507524, 7.0348988, 0.01614523, -0.0040854216, 10.098905
264987008804925, 7.183254, -0.96430755, 7.031309, 0.007851601, -0.013848901, 10.097923
264987018445238, 7.1784678, -0.93559366, 6.9966135, -0.016898155, -0.036640644, 10.067606
264987028085550, 7.146165, -0.94396853, 6.9942207, 0.002325058, -0.027245522, 10.043758
264987037725863, 7.131808, -0.9822537, 7.018149, 0.034813404, 0.0057891607, 10.053888
264987047366175, 7.131808, -0.9846465, 7.0468626, 0.05492592, 0.0027394295, 10.074099
264987057006488, 7.1677003, -0.9762716, 7.045666, 0.026901722, -0.0047626495, 10.098006
264987066646904, 7.183254, -0.9882358, 7.021738, 0.0015645027, 0.011253476, 10.093584
264987076287217, 7.159325, -1.0025927, 6.9858456, -0.0047917366, 0.030707836, 10.05297
264987085927529, 7.149754, -1.006182, 6.983453, 0.0025372505, 0.033997416, 10.044842
264987095567842, 7.140183, -0.9798609, 6.984649, 0.014474869, 0.006297469, 10.036305
264987105208154, 7.146165, -0.96430755, 6.991828, 0.013641834, -0.009949207, 10.04405
264987114848467, 7.1712894, -0.96550393, 6.946364, -0.035013676, -0.002367258, 10.030471
264987124488884, 7.1880393, -0.9810573, 6.9451675, -0.046055317, 0.012694299, 10.043079
264987134129196, 7.1808605, -0.96430755, 6.9942207, -0.008214951, -0.010577679, 10.070431
264987143769509, 7.198807, -0.9702896, 6.995417, -0.0197649, -0.0052177906, 10.084628
264987153409821, 7.200003, -0.95712906, 7.0145597, -0.008848667, -0.021007061, 10.097508
264987163050134, 7.1617184, -0.9774681, 7.003792, 0.011986256, 6.7460537E-4, 10.064721
264987172690446, 7.149754, -0.9954142, 7.0002027, 0.019325733, 0.019331336, 10.055444
264987182330863, 7.140183, -1.0001999, 7.0372915, 0.051803112, 0.01814735, 10.074873
264987191971175, 7.143772, -0.9822537, 7.0265236, 0.037978172, 0.0011093616, 10.0682125
264987201611488, 7.1509504, -0.9798609, 6.9942207, 0.009991646, 0.0043839216, 10.050634
264987211251800, 7.1581287, -0.9559326, 6.984649, -0.0048480034, -0.017750502, 10.046772
264987220892113, 7.172486, -0.96430755, 6.995417, -0.0048332214, -0.011210799, 10.065296
264987230532529, 7.1880393, -0.971486, 6.9762745, -0.026414394, -8.2468987E-4, 10.063767
264987240172842, 7.1712894, -0.9607183, 6.963114, -0.023432732, -0.0094999075, 10.041647
264987249813154, 7.166504, -0.9595219, 6.96431, -0.01657772, -0.010665894, 10.038959
264987259453467, 7.1820574, -0.951147, 6.9523463, -0.036889076, -0.016886353, 10.04092
264987269093779, 7.18445, -0.9738788, 6.963114, -0.02808094, 0.004085541, 10.052309
264987278734092, 7.198807, -0.9774681, 6.98106, -0.025239944, 0.005592227, 10.0753565
264987288374509, 7.1820574, -0.9846465, 6.966703, -0.025378227, 0.015803933, 10.054131
264987298014821, 7.155736, -0.95473623, 6.969096, -0.010991573, -0.013562918, 10.034144
264987307655134, 7.131808, -0.9870393, 7.003792, 0.032131195, 0.013729095, 10.044344
264987317295446, 7.0935225, -0.9738788, 7.012167, 0.061069965, -0.0011918545, 10.021639
264987326935759, 7.115058, -0.95712906, 7.036095, 0.058538914, -0.020384908, 10.0520115
264987336576175, 7.1677003, -0.9798609, 7.0372915, 0.024318218, 0.0041662455, 10.092518
264987346216488, 7.186843, -0.9487542, 7.0348988, 0.004221916, -0.025317669, 10.101484
264987355856800, 7.173682, -0.95832545, 6.9930243, -0.014595985, -0.009444356, 10.063906
264987365497113, 7.196414, -0.9798609, 6.9559355, -0.0543375, 0.018921137, 10.056353
264987375137425, 7.1808605, -0.9822537, 6.9523463, -0.04553175, 0.021689653, 10.043016
264987384777842, 7.152147, -0.9798609, 7.004988, 0.01241684, 0.009510756, 10.058973
264987394418154, 7.1270223, -1.0001999, 7.0396843, 0.058799744, 0.021797776, 10.067177
264987404058467, 7.125826, -1.0025927, 7.0492554, 0.06697512, 0.022392869, 10.073213
264987413698779, 7.1629148, -0.9870393, 7.018149, 0.016910076, 0.011375785, 10.076487
264987423339092, 7.170093, -0.9762716, 6.977471, -0.01593113, 0.0032217503, 10.052273
264987432979509, 7.1653075, -0.9499506, 7.0002027, 0.002717495, -0.029049873, 10.062106
264987442619821, 7.2059855, -0.9487542, 6.9762745, -0.042808056, -0.024389267, 10.07434
264987452260134, 7.219146, -0.96789676, 6.940382, -0.07051325, -0.0012521744, 10.0606575
264987461900446, 7.2023964, -0.9870393, 6.948757, -0.04592991, 0.013730288, 10.056426
264987471540863, 7.1880393, -0.9762716, 6.9535427, -0.02963543, 8.9120865E-4, 10.048477
264987481181175, 7.1772714, -0.9726824, 6.9451675, -0.02647543, -0.0019651651, 10.034639
264987490821488, 7.166504, -0.9870393, 6.975078, 0.0036725998, 0.007412195, 10.049113
264987500461800, 7.1246295, -0.9726824, 6.9966135, 0.04116869, -0.008843422, 10.03281
264987510102113, 7.115058, -0.9774681, 6.977471, 0.03152895, 7.059574E-4, 10.01317
264987519742529, 7.123433, -0.9798609, 6.983453, 0.027420998, 0.0031534433, 10.023537
264987529382842, 7.1509504, -0.9810573, 7.004988, 0.023347378, 0.0016121864, 10.058226
264987539023154, 7.1545396, -0.9559326, 7.0289164, 0.032484055, -0.02675414, 10.074975
264987548663467, 7.1772714, -0.96789676, 7.0301127, 0.01872015, -0.015280604, 10.0931635
264987558303779, 7.1856465, -0.94277215, 7.0408807, 0.018618584, -0.04276383, 10.104166
264987567944196, 7.2215385, -0.9487542, 7.038488, -0.005338192, -0.036586165, 10.128656
264987577584509, 7.196414, -0.96789676, 6.9882383, -0.020384312, -0.010350108, 10.077705
264987587224821, 7.198807, -0.95473623, 6.9499536, -0.047935486, -0.018176556, 10.051546
264987596865134, 7.1820574, -0.9762716, 6.927222, -0.043905735, 0.0046331882, 10.025942
264987606505550, 7.160522, -0.9834501, 6.942775, -0.014816761, 0.008472085, 10.022079
264987616145863, 7.1509504, -0.9846465, 6.9655066, 0.008096695, 0.0061309338, 10.031141
264987625786175, 7.166504, -0.9822537, 6.969096, -4.2533875E-4, 0.003207326, 10.044497
264987635426488, 7.18445, -0.9834501, 6.9583282, -0.022341251, 0.0068104267, 10.04994
264987645066904, 7.1569324, -0.99302137, 6.9583282, -0.0036215782, 0.017112732, 10.03124
264987654707217, 7.1617184, -0.997807, 6.9858456, 0.009402752, 0.020086288, 10.054222
264987664347529, 7.1569324, -0.9942178, 6.9942207, 0.015688896, 0.016628146, 10.056279
264987673987842, 7.149754, -0.9702896, 6.9786673, 0.0067458153, -0.004617095, 10.038036
264987683628259, 7.172486, -0.9559326, 6.9858456, -0.008472919, -0.01807332, 10.057834
264987693268571, 7.183254, -0.95832545, 7.0205417, 0.006766796, -0.01911664, 10.089853
264987702908884, 7.1820574, -0.9726824, 7.0325055, 0.014920235, -0.0040370226, 10.098711
264987712549196, 7.170093, -0.9738788, 7.0265236, 0.01726818, -0.0016652346, 10.086149
264987722189613, 7.179664, -0.96909314, 7.007381, -0.0034308434, -0.0029813051, 10.079191
264987731829925, 7.176075, -0.96789676, 6.971489, -0.028290272, 0.0013972521, 10.051554
264987741470238, 7.1413794, -0.9870393, 6.991828, 0.012289524, 0.017016292, 10.042847
264987751110550, 7.133004, -0.991825, 7.004988, 0.030642033, 0.01984471, 10.046492