timestamp_acc,device_acc_x,device_acc_y,device_acc_z,earth_acc_x,earth_acc_y,earth_acc_z
1196193086071452, -0.04426722, 4.6552362, 8.819944, 0.17801285, 0.08130717, 9.971273
1196193095711660, 0.0023928226, 4.6552362, 8.562716, 0.28342533, 0.14667416, 9.741123
1196193105351869, -0.02871387, 4.5595236, 8.309076, 0.27846408, 0.17317033, 9.4722395
1196193114992077, -0.1591227, 4.4434714, 8.145168, 0.18167758, 0.20313978, 9.275734
1196193124632181, -0.2656033, 4.338187, 8.082955, 0.067107916, 0.20968461, 9.174754
1196193134272389, -0.31585258, 4.3405805, 8.190632, 8.480549E-4, 0.20215368, 9.272864
1196193143912598, -0.27756742, 4.4315076, 8.40479, 0.030947924, 0.1594832, 9.504178
1196193153552806, -0.2321038, 4.4913282, 8.641679, 0.02735591, 0.08849859, 9.741454
1196193163192910, -0.2105684, 4.517649, 8.833105, -0.002108097, 0.027068615, 9.9235325
1196193172833119, -0.20219351, 4.470989, 9.072387, -0.08528924, -0.098528385, 10.115427
1196193182473327, -0.20578274, 4.418347, 9.253045, -0.17568636, -0.19303226, 10.252554
1196193192113535, -0.22971097, 4.4398823, 9.473185, -0.23727942, -0.2340746, 10.4592285
1196193201753639, -0.20817557, 4.4674, 9.55813, -0.22346592, -0.2629478, 10.547027
1196193211393848, -0.22372891, 4.4913282, 9.439685, -0.18047047, -0.1909895, 10.452783
1196193221034056, -0.20338993, 4.499703, 9.221938, -0.08964419, -0.119904995, 10.262086
1196193230674264, -0.24885355, 4.476971, 8.989835, -0.059206486, -0.04324007, 10.045743
1196193240314369, -0.2835495, 4.4781675, 8.687142, -0.0044329166, 0.07788372, 9.777258
1196193249954577, -0.276371, 4.508078, 8.428718, 0.08485079, 0.17846298, 9.560511
1196193259594785, -0.2727818, 4.5415773, 8.244471, 0.15090299, 0.25882697, 9.411794
1196193269234994, -0.24047868, 4.57747, 8.191829, 0.20780492, 0.27785945, 9.380657
1196193278875098, -0.21296121, 4.5894337, 8.254042, 0.21993947, 0.2432456, 9.440865
1196193288515306, -0.15553348, 4.5822554, 8.415557, 0.22199297, 0.14263248, 9.579834
1196193298155514, -0.13758731, 4.5475593, 8.6548395, 0.15717053, 0.016569614, 9.776527
1196193307795723, -0.13040884, 4.546363, 8.928818, 0.09060264, -0.07723594, 10.019783
1196193317435931, -0.08015956, 4.6097727, 9.21476, 0.09320283, -0.16157293, 10.302108
1196193327076035, -0.032303106, 4.599005, 9.370294, 0.085980415, -0.2517779, 10.434726
1196193336716244, -0.08733802, 4.5690947, 9.381062, 0.022493362, -0.24407983, 10.432091
1196193346356452, -0.21535404, 4.53081, 9.495916, -0.13009906, -0.2407217, 10.520084
1196193355996660, -0.3278167, 4.4315076, 9.641879, -0.30619144, -0.3130331, 10.607536
1196193365636764, -0.37328035, 4.35733, 9.619147, -0.36867166, -0.3447466, 10.554568
1196193375276973, -0.3684947, 4.322634, 9.436096, -0.3387189, -0.30143785, 10.375707
1196193384917181, -0.39481574, 4.3932223, 9.205189, -0.25554752, -0.16529083, 10.202898
1196193394557389, -0.36610186, 4.51406, 8.9826565, -0.10283756, -0.033546925, 10.059184
1196193404197494, -0.27517462, 4.599005, 8.804391, 0.06666803, 0.01703167, 9.936758
1196193413837702, -0.17347965, 4.7042894, 7.9429746, 0.41305983, 0.3169632, 9.218472
1196193423477910, -0.37088752, 4.843073, 7.0265236, 0.5398469, 0.89745903, 8.477504
1196193433118119, -0.4235296, 4.9028935, 7.2155566, 0.47833407, 0.8711283, 8.677231
1196193442758223, -0.05623133, 4.7832522, 8.036295, 0.50579226, 0.24359274, 9.335392
1196193452398431, 0.0526421, 4.5918264, 8.49452, 0.3747785, -0.12971592, 9.648174
1196193462038639, -0.08135597, 4.621737, 8.734999, 0.21941376, -0.117978096, 9.879535
1196193471678848, -0.31465617, 4.5894337, 8.776874, 0.003018856, -0.020012379, 9.909341
1196193481319056, -0.4031906, 4.546363, 8.952746, -0.13665247, -0.057653427, 10.047967
1196193490959160, -0.43908295, 4.540381, 9.249456, -0.24443126, -0.14698672, 10.30917
1196193500599369, -0.5132605, 4.5738807, 9.366704, -0.3151064, -0.114188194, 10.431042
1196193510239577, -0.5371887, 4.6037908, 9.253045, -0.28552485, -0.03119731, 10.345038
1196193519879785, -0.54436713, 4.601398, 9.111869, -0.25261974, 0.026469946, 10.219142
1196193529519889, -0.53599226, 4.575077, 9.044869, -0.23941946, 0.0245018, 10.147432
1196193539160098, -0.5383851, 4.551149, 8.98146, -0.22942615, 0.027603626, 10.080477
1196193548800306, -0.5455636, 4.540381, 8.822337, -0.18171847, 0.0718081, 9.935198
1196193558440514, -0.506082, 4.5284166, 8.650054, -0.11420727, 0.1074028, 9.775558
1196193568080619, -0.424726, 4.4985065, 8.532805, -0.021918774, 0.07245636, 9.65505
1196193577720827, -0.38165522, 4.5332026, 8.569894, 0.022731066, 0.057288885, 9.702314
1196193587361035, -0.3290131, 4.5655055, 8.669196, 0.05913949, 0.0069465637, 9.80324
1196193597001244, -0.3074777, 4.638487, 8.736196, 0.090838194, 0.016323805, 9.89559
1196193606641348, -0.33379877, 4.662415, 8.7266245, 0.07798886, 0.050359964, 9.899237
1196193616281556, -0.29312077, 4.644469, 8.800801, 0.07531381, -0.016766787, 9.955158
1196193625921764, -0.26799613, 4.666004, 8.88455, 0.078962564, -0.050281048, 10.038423
1196193635561973, -0.2440679, 4.705486, 8.9013, 0.10959983, -0.04507518, 10.070763
1196193645202077, -0.22731815, 4.7198424, 8.883354, 0.1355927, -0.03733158, 10.060953
1196193654842285, -0.20697916, 4.7892346, 9.008977, 0.15292811, -0.053076744, 10.20368
1196193664482494, -0.22851457, 4.867001, 9.068798, 0.15809703, -0.01269722, 10.293581
1196193674122702, -0.28594232, 4.861019, 9.001799, 0.12027621, 0.03972578, 10.233651
1196193683762910, -0.3924229, 4.8119664, 8.914461, 0.02551508, 0.09407449, 10.137413
1196193693403014, -0.46301118, 4.7174497, 8.967103, -0.0987916, 0.0383358, 10.142308
1196193703043223, -0.4989035, 4.6025944, 8.921639, -0.17772913, -0.014228821, 10.049709
1196193712683431, -0.50129634, 4.5726843, 8.925228, -0.1913085, -0.046658993, 10.039007
1196193722323535, -0.5192425, 4.581059, 8.950353, -0.1977458, -0.049576044, 10.065933
1196193731963744, -0.49172506, 4.6061835, 8.920443, -0.14203548, -0.045805216, 10.050412
1196193741603952, -0.49052864, 4.601398, 8.788837, -0.085870504, -0.021914959, 9.932236
1196193751244160, -0.5371887, 4.6229334, 8.6141615, -0.061407804, 0.077907324, 9.790507
1196193760884369, -0.51206404, 4.6085763, 8.4909315, -0.018486023, 0.10252428, 9.673999
1196193770524473, -0.526421, 4.558327, 8.394022, -0.030737638, 0.101419926, 9.565765
1196193780164681, -0.5084748, 4.584648, 8.349754, 0.0037469864, 0.1029439, 9.538624
1196193789804889, -0.4833502, 4.6301117, 8.397611, 0.036648512, 0.09991336, 9.601047
1196193799445098, -0.4881358, 4.6552362, 8.471788, 0.017057896, 0.07444835, 9.678577
1196193809085202, -0.506082, 4.6971107, 8.476574, 0.020564318, 0.10743117, 9.703571
1196193818725410, -0.5132605, 4.6767716, 8.478967, 0.0031847954, 0.09662914, 9.696347
1196193828365619, -0.5168497, 4.6229334, 8.507681, -0.03834176, 0.046374798, 9.696168
1196193838005827, -0.5132605, 4.5942197, 8.568698, -0.06701398, -0.0015728474, 9.735932
1196193847645931, -0.5563313, 4.578666, 8.640483, -0.12676287, -0.011507511, 9.793642
1196193857286139, -0.5180461, 4.636094, 8.738588, -0.089490175, -0.03444338, 9.905325
1196193866926348, -0.45942193, 4.703093, 8.8187475, -0.024820328, -0.050234318, 10.004865
1196193876566556, -0.4642076, 4.759324, 8.796016, 0.00750041, 7.534027E-4, 10.011817
1196193886206660, -0.47138608, 4.786842, 8.740981, 0.026875734, 0.04867935, 9.97686
1196193895846869, -0.46301118, 4.786842, 8.724232, 0.037430525, 0.05069375, 9.961753
1196193905487077, -0.42711884, 4.779663, 8.689535, 0.06285524, 0.03799987, 9.926241
1196193915127285, -0.39361933, 4.790431, 8.699107, 0.08789301, 0.021377087, 9.938282
1196193924767389, -0.35533416, 4.8299127, 8.720642, 0.12981439, 0.018270493, 9.974302
1196193934407598, -0.36251262, 4.8490553, 8.784052, 0.11470795, 0.010030508, 10.039474
1196193944047806, -0.3290131, 4.861019, 8.8701935, 0.1262765, -0.034823656, 10.119334
1196193953688014, -0.36490545, 4.846662, 8.916854, 0.07652235, -0.041968584, 10.155095
1196193963328119, -0.4331009, 4.8047876, 8.891729, 0.005232334, -0.021772861, 10.116122
1196193972968327, -0.45822555, 4.7377887, 8.852247, -0.037052155, -0.043628454, 10.050653
1196193982608535, -0.46301118, 4.6839504, 8.809176, -0.05864525, -0.06109786, 9.987402
1196193992248744, -0.485743, 4.679165, 8.785249, -0.07340217, -0.049544096, 9.965103
1196194001888848, -0.47377887, 4.679165, 8.71466, -0.045987606, -0.027943611, 9.902598
1196194011529056, -0.49172506, 4.7377887, 8.566305, -0.0010752678, 0.07358909, 9.801256
1196194021169264, -0.485743, 4.813163, 8.425129, 0.07409668, 0.17402649, 9.713367
1196194030809473, -0.46779683, 4.749753, 8.514859, 0.030673742, 0.08315158, 9.760838
1196194040449577, -0.46301118, 4.706682, 8.664411, -0.037609816, -0.014285326, 9.871051
1196194050089785, -0.5180461, 4.6767716, 8.63809, -0.11225295, 0.007032156, 9.83588
1196194059729994, -0.526421, 4.658826, 8.610572, -0.121575594, 0.0104494095, 9.803513
1196194069370202, -0.506082, 4.6600223, 8.641679, -0.12282205, -0.014713526, 9.830323
1196194079010306, -0.50009996, 4.6875396, 8.700303, -0.12669301, -0.025093555, 9.894528
1196194088650514, -0.45942193, 4.7174497, 8.740981, -0.09575868, -0.0445776, 9.942786
1196194098290723, -0.38404804, 4.7988057, 8.769695, 0.0028603077, -0.042987347, 10.004086
1196194107930931, -0.38404804, 4.8562336, 8.763713, 0.034376383, 1.5377998E-4, 10.026564
1196194117571035, -0.37686956, 4.861019, 8.740981, 0.051666737, 0.010416985, 10.008672
1196194127211244, -0.37088752, 4.8502517, 8.699107, 0.061271906, 0.01693058, 9.966592
1196194136851452, -0.38165522, 4.910072, 8.608179, 0.10394335, 0.10266256, 9.916344
1196194146491660, -0.43908295, 4.597809, 8.57468, -0.10029888, -0.07315421, 9.738706
1196194156131764, -0.27756742, 5.2773705, 8.664411, 0.34719992, 0.2744174, 10.139225
1196194165771973, -0.4642076, 4.226921, 8.46461, -0.32123244, -0.2731328, 9.463306
1196194175412181, -0.32422748, 5.4999027, 8.670393, 0.41149235, 0.44727135, 10.254775
1196194185052389, -0.44147578, 4.0845485, 8.374879, -0.369936, -0.33366346, 9.3149805
1196194194692494, -0.357727, 5.3503513, 8.785249, 0.26196766, 0.3049469, 10.284611
1196194204332702, -0.39601216, 4.341777, 8.56152, -0.2973063, -0.25352907, 9.59973
1196194213972910, -0.38763726, 5.0177493, 8.859426, 6.580353E-5, 0.078855276, 10.188782
1196194223613119, -0.23569304, 4.8215375, 8.732606, 0.016663313, -0.08907962, 9.977624
1196194233253223, -0.45583272, 4.584648, 8.8187475, -0.32387757, -0.1465702, 9.943375
1196194242893431, -0.2321038, 5.339584, 8.88814, 0.2435832, 0.20420456, 10.366438
1196194252533639, -0.36729828, 4.314259, 8.705089, -0.38139558, -0.34083915, 9.709
1196194262173848, -0.18544376, 5.663811, 8.874979, 0.44263577, 0.4137485, 10.512436
1196194271813952, -0.32183465, 4.2041893, 8.435896, -0.33716178, -0.33985972, 9.418808
1196194281454160, -0.21894327, 5.505885, 8.725428, 0.36285686, 0.37851858, 10.30635
1196194291094369, -0.19381863, 4.4171505, 8.423932, -0.12376332, -0.25740647, 9.509461
1196194300734577, -0.22372891, 5.1696935, 8.560323, 0.20745587, 0.20969915, 9.998394
1196194310374681, -0.08853444, 4.875376, 8.340183, 0.200912, 0.018855572, 9.658937
1196194320014889, -0.19980069, 4.7078786, 8.523234, -0.052205563, -0.09680247, 9.738453
1196194329655098, -0.009571291, 5.3922257, 8.62134, 0.4245193, 0.21436119, 10.157635
1196194339295306, -0.22731815, 4.3836513, 8.578269, -0.2914865, -0.3184724, 9.626442
1196194348935410, -0.038285162, 5.6997037, 8.837891, 0.48500752, 0.35903454, 10.499155
1196194358575619, -0.19740787, 4.2628136, 8.446664, -0.30378175, -0.36305928, 9.4515915
1196194368215827, -0.0849452, 5.649454, 8.717052, 0.44350624, 0.40589237, 10.370588
1196194377856035, -0.07537391, 4.4339004, 8.37129, -0.08806157, -0.28563905, 9.468597
1196194387496139, -0.11485548, 5.278567, 8.752945, 0.21625662, 0.17129397, 10.218335
1196194397136348, -0.058624156, 4.8035913, 8.520842, 0.06797314, -0.09711242, 9.7810335
1196194406776556, -0.25004998, 4.662415, 8.572288, -0.17341065, -0.10244942, 9.759314
1196194416416660, -0.10049855, 5.231907, 8.666803, 0.19986463, 0.16937995, 10.120661
1196194426056869, -0.26679972, 4.316652, 8.632108, -0.4277711, -0.34869123, 9.639158
1196194435697077, -0.009571291, 5.6267223, 8.85464, 0.40364194, 0.31133437, 10.478783
1196194445337285, -0.1902294, 4.2652063, 8.4909315, -0.38769245, -0.3653288, 9.488958
1196194454977389, -0.06699903, 5.6614184, 8.751749, 0.3805828, 0.4071455, 10.4085865
1196194464617598, -0.11844472, 4.3740797, 8.462217, -0.26752853, -0.31969595, 9.517455
1196194474257806, -0.1902294, 5.304888, 8.873783, 0.06289029, 0.2029438, 10.338127
1196194483898014, -0.14596218, 4.770092, 8.606983, -0.109232426, -0.08217788, 9.840557
1196194493538119, -0.2835495, 4.7605205, 8.664411, -0.23572183, -0.025269032, 9.887303
1196194503178327, -0.0741775, 5.21755, 8.605786, 0.1995256, 0.1760068, 10.060671
1196194512818535, -0.20578274, 4.3537407, 8.409575, -0.33279634, -0.2429409, 9.463012
1196194522458744, 0.009571291, 5.611169, 8.4705925, 0.5075493, 0.4393294, 10.138326
1196194532098848, -0.15792629, 4.1814575, 8.216953, -0.33955002, -0.30668616, 9.209697
1196194541739056, -0.014356935, 5.6123657, 8.786445, 0.3548696, 0.3376217, 10.414439
1196194551379264, -0.13040884, 4.3274198, 8.537591, -0.3795743, -0.33714724, 9.559093
1196194561019473, -0.12323037, 5.416154, 8.822337, 0.12052107, 0.26368618, 10.348888
1196194570659577, 0.016749758, 4.8119664, 8.640483, -0.06276393, -0.14748216, 9.88876
1196194580299785, -0.04426722, 5.0333023, 8.852247, -0.06747699, -0.043201685, 10.182924
1196194589939994, 0.18185452, 5.4221363, 8.754142, 0.35394883, 0.1068809, 10.292275
1196194599580202, -0.01794617, 4.631308, 8.590233, -0.18914461, -0.21944594, 9.754871
1196194609220306, 0.1902294, 5.7224355, 8.774481, 0.5311742, 0.2923286, 10.459749
1196194618860514, -0.022731815, 4.2711883, 8.453842, -0.3498981, -0.39487743, 9.456883
1196194628500723, 0.1052842, 5.7009, 8.6345005, 0.48797226, 0.38359356, 10.328635
1196194638140931, 0.047856454, 4.319045, 8.216953, -0.19232965, -0.32553482, 9.275333
1196194647781035, 0.0526421, 5.4436717, 8.554341, 0.30528855, 0.28557205, 10.131059
1196194657421244, 0.104087785, 4.773681, 8.305488, 0.03522277, -0.09643054, 9.579638
1196194667061452, -0.01794617, 4.989035, 8.567501, -0.02475357, 0.023227215, 9.914219
1196194676701556, 0.13160525, 5.1673007, 8.5112705, 0.19833446, 0.077441216, 9.955638
1196194686341764, -0.10049855, 4.476971, 8.507681, -0.355443, -0.24012208, 9.604688
1196194695981973, 0.08015956, 5.564509, 8.772088, 0.28920174, 0.28084445, 10.380617
1196194705622181, -0.13399807, 4.2257247, 8.550752, -0.5126617, -0.4029572, 9.516558
1196194715262285, 0.031106694, 5.68415, 8.908479, 0.3016858, 0.34916258, 10.557396
1196194724902494, -0.03589234, 4.336991, 8.507681, -0.35773993, -0.3594613, 9.535944
1196194734542702, -0.0011964113, 5.5190454, 8.755338, 0.21873784, 0.31714034, 10.3425045
1196194744182910, 0.101694964, 4.733003, 8.465807, -0.046995163, -0.16548729, 9.69804
1196194753823014, 0.016749758, 5.1457653, 8.65125, 0.050616264, 0.09430218, 10.06538
1196194763463223, 0.17228323, 5.215157, 8.529217, 0.23947692, 0.10173249, 9.995368
1196194773103431, -0.046660043, 4.5355954, 8.495717, -0.28964305, -0.21886921, 9.623887
1196194782743535, 0.11485548, 5.4867425, 8.578269, 0.32677054, 0.29968572, 10.173871
1196194792383744, -0.1268196, 4.191029, 8.37129, -0.48643756, -0.35596704, 9.343232
1196194802023952, 0.041874398, 5.6482577, 8.787642, 0.2861426, 0.3709929, 10.435884
1196194811664160, -0.029910283, 4.269992, 8.518449, -0.4137063, -0.40606976, 9.511132
1196194821304264, 0.032303106, 5.5573306, 8.867801, 0.21453738, 0.28567076, 10.459217
1196194830944473, 0.083748795, 4.6552362, 8.489735, -0.11217642, -0.19787669, 9.679985
1196194840584681, -0.025124637, 5.1361938, 8.706285, -0.0042624474, 0.11014986, 10.107838
1196194850224889, 0.15553348, 5.123033, 8.55793, 0.17377591, 0.03862953, 9.973774
1196194859864994, -0.022731815, 4.627719, 8.513663, -0.22908163, -0.15555382, 9.68618
1196194869505202, 0.17706887, 5.5310097, 8.612965, 0.39420462, 0.2752607, 10.226212
1196194879145410, -0.020338992, 4.28076, 8.414361, -0.38544893, -0.34486842, 9.426521
1196194888785619, 0.15194423, 5.690132, 8.815159, 0.39504027, 0.33339143, 10.480482
1196194898425723, 0.02632105, 4.2831526, 8.4347, -0.35764408, -0.3873, 9.4452305
1196194908065931, 0.10049855, 5.5860443, 8.737391, 0.3080244, 0.32881045, 10.361132
1196194917706139, 0.14596218, 4.581059, 8.457432, -0.09833336, -0.2671318, 9.615327
1196194927346348, 0.049052864, 5.2008, 8.773284, 0.04923749, 0.08924413, 10.198571
1196194936986452, 0.15433706, 5.0955157, 8.575876, 0.14094162, 0.034507513, 9.975605
1196194946626660, -0.078963146, 4.6755753, 8.579466, -0.26913548, -0.109327555, 9.766785
1196194956266869, 0.14237295, 5.4664035, 8.627322, 0.3139434, 0.2737639, 10.205833
1196194965906973, -0.03589234, 4.321438, 8.421539, -0.37807918, -0.3088951, 9.453046
1196194975547181, 0.1268196, 5.761917, 8.734999, 0.41816854, 0.43971372, 10.447382
1196194985187389, 0.021535404, 4.2927237, 8.423932, -0.35562634, -0.3581047, 9.44118
1196194994827598, 0.076570325, 5.605187, 8.823533, 0.27181005, 0.34023476, 10.4445715
1196195004467702, 0.021535404, 4.473382, 8.537591, -0.29141188, -0.28590703, 9.629921
1196195014107910, -0.051445685, 5.178068, 8.879765, -0.07565284, 0.103042364, 10.278564
1196195023748119, 0.11964113, 4.983053, 8.664411, 0.028418541, -0.04675269, 9.9957075
1196195033388327, -0.05383851, 4.7365923, 8.650054, -0.23305607, -0.10688448, 9.858799
1196195043028431, 0.2213361, 5.45085, 8.620144, 0.37099195, 0.2266066, 10.192087
1196195052668639, 0.038285162, 4.369294, 8.390432, -0.28762197, -0.3086269, 9.450586
1196195062308848, 0.20219351, 5.7284174, 8.639286, 0.4978733, 0.40833545, 10.347865
1196195071949056, 0.058624156, 4.2568316, 8.407183, -0.3431878, -0.39199233, 9.409216
1196195081589160, 0.14476576, 5.639883, 8.792427, 0.35448456, 0.3195033, 10.435911
1196195091229369, 0.10767702, 4.53081, 8.446664, -0.17015028, -0.2554245, 9.580803
1196195100869577, 0.069391854, 5.3072805, 8.790034, 0.11922169, 0.15502238, 10.266378
1196195110509785, 0.19142582, 4.942375, 8.575876, 0.079524994, -0.08811116, 9.899257
1196195120149889, 0.01794617, 4.82752, 8.580662, -0.11791539, -0.053135872, 9.844608
1196195129790098, 0.19501504, 5.432904, 8.592627, 0.34899187, 0.2389965, 10.159172
1196195139430306, -0.020338992, 4.35733, 8.537591, -0.3864057, -0.33746266, 9.571521
1196195149070514, 0.12083755, 5.643472, 8.835498, 0.32560587, 0.33813334, 10.474209
1196195158710619, -0.07537391, 4.1694937, 8.488539, -0.50939417, -0.4065132, 9.435089
1196195168350827, 0.02751746, 5.556134, 8.825927, 0.2107768, 0.3407054, 10.42151
1196195177991035, 0.010767702, 4.354937, 8.438289, -0.3261342, -0.32192373, 9.484741
1196195187631244, -0.010767702, 5.2977095, 8.720642, 0.078668356, 0.22820902, 10.200842
1196195197271348, 0.08853444, 4.875376, 8.499306, 7.3194504E-5, -0.035051107, 9.798679
1196195206911556, -0.1160519, 4.814359, 8.598608, -0.22519302, 0.007017374, 9.8527565
1196195216551764, 0.096909314, 5.300102, 8.640483, 0.19749594, 0.18968058, 10.133284
1196195226191973, -0.11365908, 4.3872404, 8.596215, -0.45198536, -0.27550364, 9.637197
1196195235832077, 0.09212367, 5.660222, 8.782856, 0.3375988, 0.38244534, 10.436711
1196195245472285, -0.01794617, 4.2281175, 8.459825, -0.40605092, -0.40165114, 9.440325
1196195255112494, 0.12203395, 5.645865, 8.809176, 0.3521092, 0.34174132, 10.452345
1196195264752702, 0.096909314, 4.354937, 8.462217, -0.24172783, -0.3791294, 9.506935
1196195274392806, 0.032303106, 5.3276196, 8.785249, 0.12172222, 0.19247937, 10.271967
1196195284033014, 0.15433706, 4.813163, 8.553144, 0.011958122, -0.14036036, 9.814623
1196195293673223, 0.02632105, 4.9363933, 8.699107, -0.06622696, -0.033222914, 10.001883
1196195303313431, 0.2117648, 5.3479586, 8.577073, 0.33981752, 0.17807055, 10.102699
1196195312953535, 0.014356935, 4.490132, 8.452646, -0.24263167, -0.22635818, 9.565492
1196195322593744, 0.20697916, 5.639883, 8.663215, 0.47843218, 0.32797432, 10.32308
1196195332233952, 0.02751746, 4.26401, 8.3581295, -0.3269546, -0.35059118, 9.370754
1196195341874160, 0.13519448, 5.7547383, 8.575876, 0.5074315, 0.47876287, 10.305059
1196195351514264, 0.09810573, 4.4051867, 8.306684, -0.17882442, -0.28359962, 9.397014
1196195361154473, 0.09930214, 5.4592247, 8.886943, 0.20986676, 0.20237231, 10.426206
1196195370794681, 0.10049855, 4.7688956, 8.615358, -0.08001065, -0.15784335, 9.846093
1196195380434889, -0.12323037, 4.9136615, 8.721839, -0.20481801, 0.03986621, 10.009306
1196195390074994, 0.0059820567, 5.12423, 8.616554, 0.04637599, 0.14013839, 10.024021
1196195399715202, -0.28594232, 4.301099, 8.459825, -0.57480645, -0.1772809, 9.475655
1196195409355410, -0.12921242, 5.42094, 8.438289, 0.16465068, 0.48870993, 10.017088
1196195418995619, -0.27756742, 4.0797625, 8.039884, -0.5463419, -0.1677208, 9.001923
1196195428635723, -0.0526421, 5.5369916, 8.3581295, 0.32313156, 0.5472646, 10.005772
1196195438275931, -0.11246266, 4.188636, 7.921439, -0.3066473, -0.14759779, 8.954927
1196195447916139, -0.08015956, 5.3383875, 8.22772, 0.24785042, 0.49056768, 9.792758
1196195457556348, 0.02751746, 4.53081, 8.0614195, -0.045353174, -0.04469776, 9.247238
1196195467196556, -0.020338992, 4.82752, 8.46102, -0.046947956, 0.032821655, 9.741199
1196195476836660, 0.2620141, 5.035695, 8.553144, 0.26149726, -0.010312557, 9.925455
1196195486476869, 0.08973085, 4.469793, 8.717052, -0.22963858, -0.35020423, 9.787683
1196195496117077, 0.39840496, 5.5716877, 8.959925, 0.525172, 0.14366126, 10.54449
1196195505757285, 0.2943172, 4.2915273, 8.819944, -0.19745803, -0.59590626, 9.792913
1196195515397389, 0.47018966, 5.7523456, 9.285348, 0.576319, 0.14945626, 10.916673
1196195525037598, 0.36011982, 4.368098, 9.083155, -0.20472503, -0.6520002, 10.062139
1196195534677806, 0.32303107, 5.5226345, 9.51147, 0.25556183, 0.001488924, 11.000302
1196195544318014, 0.28115666, 4.642076, 9.241081, -0.16344428, -0.45721292, 10.333912
1196195553958223, 0.07178468, 5.1182475, 9.506684, -0.15578794, -0.08282447, 10.795719
1196195563598327, 0.2105684, 5.191229, 9.317652, 0.05671072, -0.051260233, 10.66799
1196195573238535, -0.0023928226, 4.6289153, 9.217153, -0.38685203, -0.25881124, 10.303697
1196195582878744, 0.19860429, 5.5369916, 9.183653, 0.2918856, 0.2308495, 10.719081
1196195592518952, -0.009571291, 4.214957, 8.812766, -0.49246836, -0.3974719, 9.748348
1196195602159056, 0.15194423, 5.5908303, 9.081959, 0.32226467, 0.31677198, 10.656372
1196195611799264, 0.061016977, 4.1647077, 8.623733, -0.40441966, -0.4055066, 9.559774
1196195621439473, 0.09451649, 5.4436717, 8.857033, 0.2696662, 0.31421685, 10.388364
1196195631079681, 0.13519448, 4.510471, 8.489735, -0.104466915, -0.19872117, 9.611859
1196195640719889, 0.032303106, 5.058427, 8.58784, 0.097404, 0.17190814, 9.9649725
1196195650359994, 0.22731815, 5.005785, 8.338987, 0.29547548, 0.0990746, 9.723742
1196195660000202, 0.086141616, 4.6169515, 8.193025, 0.015319347, -0.031990767, 9.404683
1196195669640410, 0.3469593, 5.508278, 8.210971, 0.70755434, 0.38832283, 9.860534
1196195679280619, 0.17587246, 4.2711883, 8.051848, -0.06267023, -0.2733059, 9.111949
1196195688920827, 0.35174492, 5.6554365, 8.382058, 0.72649693, 0.40927863, 10.083218
1196195698560931, 0.18664017, 4.2006, 8.076973, -0.105834246, -0.34877086, 9.0986
1196195708201139, 0.20338993, 5.49751, 8.469396, 0.49020743, 0.35175705, 10.081201
1196195717841348, 0.148355, 4.4051867, 8.149954, -0.055574894, -0.22298813, 9.262646
1196195727481556, -0.025124637, 5.058427, 8.595019, 0.032458544, 0.15756297, 9.971799
1196195737121764, 0.020338992, 4.8861437, 8.539984, 0.0040454865, 0.04077339, 9.838925
1196195746761869, -0.26679972, 4.549952, 8.723035, -0.45595765, -0.066607475, 9.831188
1196195756402077, -0.09451649, 5.3036914, 8.913264, 0.03656006, 0.25613165, 10.369061
1196195766042285, -0.34097722, 4.1467614, 8.841479, -0.7655835, -0.3307836, 9.73592
1196195775682494, -0.16749759, 5.5369916, 9.12503, 0.050499916, 0.38218212, 10.667892
1196195785322702, -0.30029923, 4.080959, 8.724232, -0.74131536, -0.35033178, 9.601269
1196195794962910, -0.19980069, 5.454439, 8.992228, 0.010307074, 0.39939713, 10.511489
1196195804603014, -0.14117654, 4.3238306, 8.55793, -0.44214368, -0.22736478, 9.576347
1196195814243223, -0.19262223, 5.103891, 8.817552, -0.12572384, 0.22549248, 10.186725
1196195823883431, -0.04426722, 4.8562336, 8.635697, -0.0940423, 0.031601906, 9.907088
1196195833523639, -0.17706887, 4.666004, 8.781659, -0.349442, -0.066257, 9.939516
1196195843163848, 0.13280165, 5.3910294, 8.840283, 0.27333474, 0.19737029, 10.3497715
1196195852803952, -0.009571291, 4.3764725, 8.659625, -0.34200478, -0.32193494, 9.691341
1196195862444160, 0.23449662, 5.733203, 8.843872, 0.5380392, 0.3601575, 10.522331
1196195872084369, 0.11365908, 4.28076, 8.426325, -0.22739744, -0.3793242, 9.441673
1196195881724577, 0.24765715, 5.6386867, 8.694321, 0.54062295, 0.34376192, 10.345861
1196195891364785, 0.28594232, 4.453043, 8.222935, 0.065710545, -0.30353832, 9.350484
1196195901004994, 0.23090738, 5.279763, 8.487342, 0.3946252, 0.18428254, 9.988718
1196195910645098, 0.36131623, 4.834698, 8.251649, 0.32455134, -0.110519886, 9.564362
1196195920285306, 0.14476576, 4.7162533, 8.385647, 0.049146414, -0.10211539, 9.621343
1196195929925514, 0.28713873, 5.231907, 8.405986, 0.43914104, 0.15156507, 9.894447
1196195939565723, -0.0071784677, 4.220939, 8.37129, -0.34091806, -0.32416773, 9.363419
1196195949205931, 0.11964113, 5.5657053, 8.774481, 0.3806393, 0.35473228, 10.3784485
1196195958846139, -0.08853444, 4.1754756, 8.609376, -0.49827003, -0.38690424, 9.5480795
1196195968486348, -0.016749758, 5.6470613, 9.081959, 0.22147703, 0.38569617, 10.685211
1196195978126452, -0.096909314, 4.4135613, 8.845069, -0.4525416, -0.2934203, 9.870831
1196195987766660, -0.18185452, 5.3826547, 9.257831, -0.10615802, 0.25016332, 10.706989
1196195997406869, -0.061016977, 4.8191447, 9.0436735, -0.25521016, -0.12181139, 10.243825
1196196007047077, -0.19980069, 4.8191447, 9.140582, -0.394763, -0.06543851, 10.327351
1196196016687285, 0.039481573, 5.245067, 8.991031, 0.08147216, 0.11706591, 10.408198
1196196026327494, -0.11724831, 4.3465624, 8.751749, -0.45700932, -0.3110981, 9.756732
1196196035967702, 0.11724831, 5.5513487, 8.851051, 0.34737515, 0.3254006, 10.437708
1196196045607806, 0.02632105, 4.0833516, 8.482556, -0.3993497, -0.47539592, 9.393761
1196196055248014, 0.14356937, 5.5106707, 8.671589, 0.41340327, 0.33751345, 10.261565
1196196064888223, 0.12203395, 4.206582, 8.209774, -0.1716857, -0.3560915, 9.217066
1196196074528431, 0.13998012, 5.2426744, 8.567501, 0.2946694, 0.18486953, 10.039237
1196196084168639, 0.24885355, 4.6576295, 8.325827, 0.120458364, -0.18730712, 9.540714
1196196093808848, 0.09332009, 4.8993044, 8.578269, 0.05513835, -0.021863937, 9.879021
1196196103449056, 0.25603202, 5.279763, 8.573483, 0.39372683, 0.12095809, 10.06362
1196196113089264, 0.0, 4.496114, 8.547162, -0.25161862, -0.206604, 9.6521
1196196122729369, 0.1363909, 5.633901, 8.734999, 0.4544177, 0.36048484, 10.37898
1196196132369577, -0.0849452, 4.1718864, 8.4502535, -0.4636104, -0.33484483, 9.406996
1196196142009785, 0.0035892338, 5.6470613, 8.7577305, 0.3552897, 0.46334505, 10.404145
1196196151649994, -0.07058827, 4.249653, 8.303095, -0.3520429, -0.24519801, 9.317825
1196196161290202, -0.078963146, 5.3718867, 8.653643, 0.1613884, 0.3698914, 10.177725
1196196170930410, -0.0059820567, 4.6528435, 8.425129, -0.10787296, -0.06382275, 9.623725
1196196180570619, -0.16749759, 4.922036, 8.702696, -0.17476225, 0.11593485, 9.997371
1196196190210827, 0.0059820567, 5.150551, 8.668, 0.09679055, 0.16980433, 10.080887
1196196199851035, -0.23090738, 4.408776, 8.703893, -0.5125661, -0.18759131, 9.744253
1196196209491139, -0.0023928226, 5.4987063, 8.85823, 0.22177243, 0.3456297, 10.418029
1196196219131348, -0.08135597, 4.1922255, 8.668, -0.49566984, -0.41844726, 9.607019
1196196228771556, 0.08973085, 5.672186, 9.078369, 0.31818175, 0.31649733, 10.69566
1196196238411764, 0.029910283, 4.2759743, 8.702696, -0.36255145, -0.4462037, 9.679423
1196196248051973, 0.02632105, 5.4520464, 9.05803, 0.16682458, 0.22776961, 10.568523
1196196257692181, 0.05742774, 4.6121655, 8.705089, -0.15380096, -0.22895408, 9.847734
1196196267332389, -0.086141616, 4.930411, 8.8187475, -0.13482833, 0.027717113, 10.102857
1196196276972598, 0.08973085, 5.020142, 8.538788, 0.1362586, 0.08410978, 9.904299
1196196286612806, -0.05383851, 4.4949174, 8.471788, -0.2448349, -0.16016579, 9.586073
1196196296253014, 0.21774685, 5.552545, 8.553144, 0.51924276, 0.35156965, 10.180435
1196196305893223, 0.047856454, 4.287938, 8.32463, -0.22874403, -0.30743384, 9.356354
1196196315533327, 0.22971097, 5.703293, 8.784052, 0.5358908, 0.3510089, 10.456076
1196196325173535, 0.08015956, 4.241278, 8.538788, -0.30629587, -0.44278073, 9.519238
1196196334813744, 0.01794617, 5.4436717, 8.941978, 0.18222833, 0.26343322, 10.463758
1196196344453952, 0.061016977, 4.5212383, 8.606983, -0.18400145, -0.26642132, 9.71703
1196196354094160, -0.0059820567, 5.0536413, 8.834301, -0.01655674, 0.049363613, 10.1775
1196196363734369, 0.2117648, 5.076373, 8.626125, 0.23189831, 0.010202646, 10.008526
1196196373374577, 0.021535404, 4.5858445, 8.603394, -0.17737961, -0.19678307, 9.745698
1196196383014785, 0.21296121, 5.5310097, 8.691928, 0.4550507, 0.28527093, 10.290704
1196196392654994, -0.041874398, 4.281956, 8.512466, -0.3650999, -0.32860017, 9.516182
1196196402295202, 0.05503492, 5.636294, 8.836694, 0.34867, 0.4005854, 10.467854
1196196411935410, -0.09092726, 4.1407795, 8.446664, -0.47349524, -0.36574006, 9.388425
1196196421575619, -0.050249275, 5.4460645, 8.780462, 0.18885446, 0.35536242, 10.324569
1196196431215827, -0.020338992, 4.4889355, 8.439486, -0.21206021, -0.17424846, 9.555132
1196196440856035, -0.08015956, 5.1146584, 8.772088, -0.017105103, 0.15053177, 10.15346
1196196450496244, 0.101694964, 4.989035, 8.612965, 0.11185837, 0.009754181, 9.953459
1196196460136452, -0.12323037, 4.62413, 8.665607, -0.28260493, -0.10309625, 9.818351
1196196469776660, 0.07178468, 5.38744, 8.766106, 0.2672155, 0.23835373, 10.283291
1196196479416869, -0.15792629, 4.174279, 8.623733, -0.5507753, -0.36699724, 9.559304
1196196489057077, 0.019142581, 5.575277, 8.841479, 0.30527878, 0.36089683, 10.441859
1196196498697181, -0.0526421, 4.145565, 8.433503, -0.41416216, -0.3837428, 9.380495
1196196508337494, 0.047856454, 5.528617, 8.784052, 0.32327724, 0.34121156, 10.368535
1196196517977598, 0.0526421, 4.4578285, 8.403593, -0.15121698, -0.23107839, 9.508896
1196196527617806, -0.041874398, 5.157729, 8.762517, 0.0547266, 0.15816855, 10.166494
1196196537258014, 0.104087785, 4.918447, 8.563912, 0.09537244, -0.019919634, 9.875883
1196196546898223, -0.09212367, 4.6695933, 8.647661, -0.22250748, -0.08996916, 9.825375
1196196556538431, 0.13280165, 5.3718867, 8.719446, 0.3220706, 0.20059896, 10.23521
1196196566178639, -0.08853444, 4.2831526, 8.580662, -0.406451, -0.32920623, 9.576399
1196196575818848, 0.1052842, 5.656633, 8.898908, 0.40450597, 0.3509462, 10.531494
1196196585459056, -0.02632105, 4.202993, 8.530413, -0.3895228, -0.3962524, 9.493423
1196196595099264, 0.023928227, 5.588437, 8.803194, 0.33368635, 0.39663815, 10.414352
1196196604739473, 0.0634098, 4.4398823, 8.40479, -0.1401608, -0.25192285, 9.50126
1196196614379681, -0.011964113, 5.271388, 8.6548395, 0.17407489, 0.25460315, 10.1291065
1196196624019889, 0.16151553, 4.9268217, 8.5112705, 0.1613431, -0.034012794, 9.834336
1196196633660098, -0.043070808, 4.7449675, 8.685946, -0.15410662, -0.088710785, 9.89599
1196196643300306, 0.15553348, 5.3312087, 8.699107, 0.32375193, 0.1718359, 10.197358
1196196652940514, -0.07298109, 4.31067, 8.636893, -0.39993858, -0.33924985, 9.638884
1196196662580723, 0.062213387, 5.599205, 8.932407, 0.33157992, 0.3304069, 10.532035
1196196672220931, -0.11365908, 4.1036906, 8.622537, -0.5317311, -0.4519105, 9.52441
1196196681861139, -0.059820566, 5.505885, 8.9013, 0.20231462, 0.34732127, 10.458965
1196196691501348, -0.09810573, 4.287938, 8.420342, -0.33951592, -0.25570512, 9.440209
1196196701141660, -0.1363909, 5.1936216, 8.787642, 0.015054226, 0.23470807, 10.205863
1196196710781869, 0.011964113, 4.7282176, 8.523234, -0.033667803, -0.0675621, 9.74659
1196196720422077, -0.17467605, 4.746164, 8.681161, -0.21423745, 4.7540665E-4, 9.893091
1196196730062285, 0.040677983, 5.265406, 8.657232, 0.24616957, 0.22592759, 10.127298
1196196739702494, -0.1591227, 4.319045, 8.568698, -0.40288496, -0.25156593, 9.58522
1196196749342702, 0.06699903, 5.581259, 8.806784, 0.39169908, 0.36271, 10.412945
1196196758982910, -0.049052864, 4.1671004, 8.463413, -0.37827992, -0.3919661, 9.418055
1196196768623119, 0.10887343, 5.619544, 8.809176, 0.43487525, 0.3728757, 10.433818
1196196778263327, 0.08135597, 4.334598, 8.447861, -0.1754539, -0.35063815, 9.487253
1196196787903535, 0.038285162, 5.3443694, 8.879765, 0.20293641, 0.20017457, 10.36015
1196196797543744, 0.15433706, 4.79402, 8.641679, 0.077978134, -0.15003967, 9.882129
1196196807183952, -0.0047856453, 4.8729835, 8.835498, -0.06390524, -0.0703485, 10.089746
1196196816824160, 0.2105684, 5.2534423, 8.76491, 0.32987761, 0.09113026, 10.215161
1196196826464369, -0.033499517, 4.4243293, 8.606983, -0.25482798, -0.2739141, 9.670368
1196196836104577, 0.17467605, 5.584848, 8.803194, 0.45594215, 0.3377738, 10.411306
1196196845744785, -0.02632105, 4.156333, 8.534002, -0.3660879, -0.43842244, 9.475165
1196196855384994, 0.078963146, 5.6171513, 8.830712, 0.3881309, 0.3914194, 10.451615
1196196865025202, -0.013160525, 4.290331, 8.407183, -0.2559259, -0.29653573, 9.430504
1196196874665410, -0.062213387, 5.3312087, 8.729017, 0.15599751, 0.31869745, 10.222305
1196196884305619, 0.033499517, 4.633701, 8.423932, -0.04396987, -0.097028494, 9.613719
1196196893945827, -0.11006984, 4.8502517, 8.672786, -0.11602974, 0.042696476, 9.936749
1196196903586139, 0.086141616, 5.139783, 8.636893, 0.20770025, 0.13529229, 10.04785
1196196913226348, -0.15553348, 4.4051867, 8.648857, -0.38390613, -0.21834183, 9.697295
1196196922866556, 0.047856454, 5.4891353, 8.946764, 0.28234172, 0.28104568, 10.488985
1196196932506764, -0.14117654, 4.1228333, 8.700303, -0.5305104, -0.43984342, 9.604067
1196196942146973, -0.0047856453, 5.575277, 8.997013, 0.2678988, 0.34895396, 10.575275
1196196951787181, -0.046660043, 4.1982074, 8.519645, -0.3661561, -0.37800145, 9.483381
1196196961427389, -0.02751746, 5.35753, 8.787642, 0.19660497, 0.2964127, 10.285913
1196196971067598, 0.07058827, 4.601398, 8.421539, -0.022710562, -0.1401, 9.595835
1196196980707806, -0.0741775, 4.938786, 8.6345005, -0.019735575, 0.09834242, 9.946942
1196196990348014, 0.12562318, 5.1158547, 8.517252, 0.271178, 0.1394105, 9.9316845
1196196999988223, -0.09212367, 4.4434714, 8.586644, -0.29180098, -0.199857, 9.6622095
1196197009628535, 0.13280165, 5.4783673, 8.792427, 0.38972497, 0.27116752, 10.349469
1196197019268744, -0.061016977, 4.1814575, 8.644072, -0.43111324, -0.41801882, 9.583719
1196197028908952, 0.086141616, 5.636294, 9.0341015, 0.3642435, 0.32202387, 10.637381
1196197038549160, -0.040677983, 4.2053857, 8.626125, -0.39135838, -0.39666772, 9.580526
1196197048189369, -0.041874398, 5.432904, 8.958728, 0.19136024, 0.3027017, 10.47133
1196197057829577, 0.05503492, 4.558327, 8.596215, -0.110111475, -0.20848513, 9.727316
1196197067469785, -0.10767702, 5.0129633, 8.738588, -0.03113246, 0.14005661, 10.073913
1196197077109994, 0.11844472, 5.048856, 8.475378, 0.24683237, 0.12369418, 9.862089
1196197086750202, -0.101694964, 4.4674, 8.449057, -0.23773599, -0.12584782, 9.554172
1196197096390514, 0.11844472, 5.395815, 8.572288, 0.4061029, 0.32321548, 10.1165
1196197106030723, -0.07178468, 4.133601, 8.480164, -0.40746927, -0.3756609, 9.417953
1196197115670931, 0.11006984, 5.2905307, 8.787642, 0.27074122, 0.1663549, 10.252975
1196197125311139, 0.04426722, 4.8287163, 8.744571, -0.017974377, -0.075277805, 9.988993
1196197134951348, 0.08853444, 4.9375896, 8.847462, 0.03859496, -0.0677166, 10.132084
1196197144591556, 0.07178468, 4.9088755, 8.872586, 0.0026829243, -0.0809114, 10.139945
1196197154231764, 0.062213387, 4.9459643, 8.852247, 0.021106243, -0.04166293, 10.140343
1196197163872077, 0.05503492, 4.9196434, 8.737391, 0.037980795, -0.009742737, 10.027283
1196197173512285, 0.025124637, 4.8646083, 8.660822, 0.009546518, -2.0217896E-4, 9.93352
1196197183152494, 0.015553347, 4.871787, 8.644072, 0.011054277, 0.015979767, 9.922407
1196197192792702, 0.062213387, 4.87418, 8.677571, 0.04025793, -0.023036003, 9.952868
1196197202432910, 0.05742774, 4.9112687, 8.682357, 0.050778627, 0.0025262833, 9.975199
1196197212073119, 0.04426722, 4.9052863, 8.605786, 0.059577942, 0.036038876, 9.905478
1196197221713327, 0.031106694, 4.88734, 8.642876, 0.027974844, 0.015581846, 9.929015
1196197231353639, 0.0035892338, 4.883751, 8.7015, -0.012656689, 0.006394863, 9.978324
1196197240993848, 0.0035892338, 4.8729835, 8.730213, -0.024430752, -0.011718512, 9.998094
1196197250634056, 0.0023928226, 4.8454657, 8.770891, -0.04833579, -0.04459071, 10.020118
1196197260274264, -0.019142581, 4.84068, 8.782856, -0.07157254, -0.03934598, 10.028183
1196197269914473, -0.025124637, 4.8418765, 8.738588, -0.063052654, -0.017652512, 9.990149
1196197279554681, -0.03589234, 4.867001, 8.630911, -0.027002335, 0.047214985, 9.908514
1196197289194994, -0.025124637, 4.875376, 8.55793, 0.008501053, 0.07331133, 9.848992
1196197298835202, -0.011964113, 4.846662, 8.583055, 2.8920174E-4, 0.03500867, 9.85687
1196197308475410, -0.021535404, 4.820341, 8.635697, -0.03722024, 0.0024814606, 9.889895
1196197318115619, -0.019142581, 4.82752, 8.678768, -0.04017496, -0.010509729, 9.930993
1196197327755827, 0.020338992, 4.8622155, 8.740981, -0.004961252, -0.030855417, 10.002265
1196197337396139, 0.040677983, 4.875376, 8.76132, 0.010009527, -0.040845394, 10.02646
1196197347036348, 0.039481573, 4.883751, 8.718249, 0.022989988, -0.016985893, 9.992981
1196197356676556, 0.038285162, 4.914858, 8.659625, 0.05291915, 0.028849363, 9.957048
1196197366316764, 0.046660043, 4.8909297, 8.632108, 0.055407047, 0.017905235, 9.921356
1196197375956973, 0.02632105, 4.881358, 8.60459, 0.041728497, 0.034007788, 9.892645
1196197385597285, -0.031106694, 4.8454657, 8.563912, -0.0100700855, 0.0586915, 9.83954
1196197395237494, -0.07058827, 4.8011985, 8.5938225, -0.07135391, 0.04011631, 9.843963
1196197404877702, -0.06580263, 4.761717, 8.595019, -0.08727002, 0.011270285, 9.825726
1196197414517910, -0.08015956, 4.74736, 8.547162, -0.09136438, 0.02980113, 9.776941
1196197424158119, -0.07178468, 4.76411, 8.506484, -0.063284636, 0.053896427, 9.749628
1196197433798431, -0.03708875, 4.746164, 8.592627, -0.06960344, -0.0067048073, 9.816099
1196197443438639, -0.02632105, 4.773681, 8.709874, -0.07924986, -0.035586357, 9.931922
1196197453078848, 0.0023928226, 4.8215375, 8.76132, -0.044293404, -0.03334737, 10.000245
1196197462719056, 0.022731815, 4.8765726, 8.82114, -0.01670909, -0.03021717, 10.079325
1196197472359369, 0.06580263, 4.941179, 8.895318, 0.031130314, -0.028620243, 10.17568
1196197481999577, 0.11724831, 4.9902315, 8.916854, 0.09021044, -0.029752254, 10.218486
1196197491639785, 0.124426775, 5.003392, 8.898908, 0.10794711, -0.018219948, 10.209213
1196197501279994, 0.11485548, 4.968696, 8.883354, 0.08416486, -0.029697895, 10.17876
1196197510920202, 0.11006984, 4.9196434, 8.874979, 0.05421877, -0.05673027, 10.147615
1196197520560514, 0.058624156, 4.889733, 8.786445, 0.02274084, -0.012176037, 10.055538
1196197530200723, 0.047856454, 4.8681974, 8.645268, 0.047879696, 0.03180504, 9.921643
1196197539840931, 0.040677983, 4.85743, 8.568698, 0.062972784, 0.056635857, 9.849452
1196197549481139, 0.02751746, 4.8885365, 8.4909315, 0.09770584, 0.114332914, 9.796523
1196197559121452, 0.0011964113, 4.880162, 8.394022, 0.10438323, 0.1615355, 9.707656
1196197568761660, -0.021535404, 4.85743, 8.384451, 0.07713199, 0.1635952, 9.688209
1196197578401869, -0.047856454, 4.8095737, 8.420342, 0.025874853, 0.1324153, 9.696302
1196197588042077, -0.07298109, 4.7688956, 8.49452, -0.03801489, 0.09151244, 9.741394
1196197597682389, -0.06819545, 4.727021, 8.622537, -0.0923996, 0.013295889, 9.833046
1196197607322598, -0.014356935, 4.6672006, 8.773284, -0.123609304, -0.11605811, 9.936033
1196197616962806, 0.038285162, 4.65404, 8.837891, -0.10035825, -0.16892815, 9.986554
1196197626603014, 0.0634098, 4.638487, 8.82832, -0.08575535, -0.19129276, 9.9707
1196197636243327, 0.050249275, 4.6528435, 8.861818, -0.09060669, -0.16922903, 10.007319
1196197645883535, 0.039481573, 4.65404, 8.927621, -0.117097855, -0.18753242, 10.065543
1196197655523744, 0.061016977, 4.733003, 8.9312105, -0.056406498, -0.13855815, 10.106888
1196197665164056, 0.06819545, 4.833502, 8.99462, -0.012045383, -0.082736015, 10.210955
1196197674804264, 0.09212367, 4.941179, 9.079565, 0.039602757, -0.04907322, 10.337227
1196197684444473, 0.106480606, 5.0452666, 9.105886, 0.09769273, 0.005200863, 10.410267
1196197694084681, 0.14117654, 5.070391, 9.114262, 0.1347425, -5.502701E-4, 10.429785
1196197703724994, 0.12921242, 5.0476594, 9.042477, 0.13417268, 0.01730752, 10.355851
1196197713365202, 0.09810573, 4.9842496, 8.902496, 0.11602473, 0.035017014, 10.202556
1196197723005410, 0.11006984, 4.8789654, 8.785249, 0.10426974, -0.007486105, 10.049184
1196197732645723, 0.09451649, 4.814359, 8.721839, 0.07661629, -0.02434063, 9.96248
1196197742285931, 0.05503492, 4.7712884, 8.659625, 0.04209733, -0.010791063, 9.8871355
1196197751926139, -0.009571291, 4.753342, 8.602198, -6.9975853E-4, 0.038826227, 9.828054
1196197761566348, -0.05383851, 4.7306104, 8.525627, -0.022324562, 0.074831486, 9.749965
1196197771206660, -0.06580263, 4.7581277, 8.569894, -0.027366638, 0.07927966, 9.802049
1196197780846869, -0.09930214, 4.7605205, 8.606983, -0.060378075, 0.082975864, 9.835753
1196197790487077, -0.11006984, 4.7545385, 8.595019, -0.06434107, 0.08594799, 9.822453
1196197800127389, -0.09930214, 4.7282176, 8.616554, -0.07215333, 0.04952526, 9.828696
1196197809767598, -0.07178468, 4.706682, 8.572288, -0.04599738, 0.03122735, 9.779521
1196197819407806, -0.05742774, 4.671986, 8.535198, -0.040833235, 0.009381294, 9.730293
1196197829048014, 0.0023928226, 4.6636114, 8.550752, -0.0031883717, -0.039441347, 9.739767
1196197838688327, 0.0035892338, 4.668397, 8.543573, -1.7404556E-4, -0.032327652, 9.735788
1196197848328535, -0.025124637, 4.6695933, 8.583055, -0.033443928, -0.02897191, 9.7710085
1196197857968744, -0.031106694, 4.733003, 8.642876, -0.02221489, 0.0020759106, 9.853991
1196197867609056, -0.02751746, 4.816752, 8.71466, 0.005453348, 0.03001833, 9.95722
1196197877249264, -0.014356935, 4.8849473, 8.849854, 0.0142428875, 0.021169424, 10.108521
1196197886889473, -0.059820566, 4.918447, 8.933603, -0.0233531, 0.047897577, 10.198093
1196197896529785, -0.05383851, 4.9399824, 8.902496, 0.0029752254, 0.06996584, 10.181151
1196197906169994, 0.0059820567, 4.9160542, 8.909675, 0.034528255, 0.0142765045, 10.175881
1196197915810202, 0.016749758, 4.87418, 8.874979, 0.028684855, -0.009064913, 10.125328
1196197925450514, 0.025124637, 4.8083773, 8.859426, 0.003348112, -0.053559303, 10.080063
1196197935090723, 0.04426722, 4.7569313, 8.780462, 0.011155844, -0.073323965, 9.986059
1196197944730931, 0.038285162, 4.7341995, 8.760123, 3.3807755E-4, -0.07741547, 9.957303
1196197954371244, 0.07537391, 4.755735, 8.827123, 0.02239418, -0.11125946, 10.026361
1196197964011452, 0.06819545, 4.8047876, 8.876176, 0.030732155, -0.09121871, 10.09296
1196197973651660, 0.02632105, 4.847859, 8.861818, 0.025210857, -0.030233145, 10.101126
1196197983291973, 0.02751746, 4.871787, 8.914461, 0.023793697, -0.035778284, 10.158782
1196197992932181, 0.034695927, 4.932804, 8.904889, 0.06433368, 0.003690958, 10.179718
1196198002572389, 0.04546363, 4.974678, 8.82114, 0.119719744, 0.05024934, 10.126456
1196198012212702, 0.025124637, 4.9722853, 8.696713, 0.13840032, 0.10219169, 10.01636
1196198021852910, -0.011964113, 4.95075, 8.476574, 0.15948057, 0.19530892, 9.813194
1196198031493119, -0.0071784677, 4.880162, 8.340183, 0.16455102, 0.1902337, 9.659785
1196198041133431, 0.01794617, 4.782056, 8.282756, 0.154078, 0.118881226, 9.562142
1196198050773639, 0.031106694, 4.7007003, 8.246863, 0.13641572, 0.059024572, 9.491376
1196198060413848, 0.029910283, 4.5966125, 8.276773, 0.071639776, -0.025372982, 9.467257
1196198070054160, -0.041874398, 4.5020957, 8.389236, -0.06782436, -0.09042907, 9.520355
1196198079694369, -0.08973085, 4.5044885, 8.545966, -0.14945316, -0.11676526, 9.658987
