timestamp_acc,device_acc_x,device_acc_y,device_acc_z,earth_acc_x,earth_acc_y,earth_acc_z
1195451096761801, -0.15314065, 4.948357, 8.683554, 0.010092258, -0.0090351105, 9.995679
1195451106401281, -0.17467605, 4.935197, 8.647661, -0.008483171, 0.006630659, 9.9583435
1195451116040760, -0.16510476, 4.9399824, 8.6548395, -9.635687E-4, 0.0016291142, 9.966792
1195451125680135, -0.15194423, 4.9698925, 8.656036, 0.026144862, 0.016360521, 9.982432
1195451135319614, -0.14356937, 4.975875, 8.669196, 0.034472346, 0.010719061, 9.996679
1195451144959093, -0.12921242, 4.959125, 8.693125, 0.034825444, -0.019034147, 10.008921
1195451154598572, -0.14237295, 4.9495535, 8.657232, 0.02702713, -0.0064201355, 9.973227
1195451164237947, -0.14356937, 4.944768, 8.560323, 0.044334173, 0.03161359, 9.886734
1195451173877426, -0.12203395, 4.9435716, 8.548359, 0.063913584, 0.024733543, 9.875401
1195451183516906, -0.09930214, 4.9567323, 8.624929, 0.07206833, -0.010955811, 9.948023
1195451193156385, -0.09930214, 4.995017, 8.642876, 0.083554626, 0.010782957, 9.982598
1195451202795760, -0.13399807, 4.968696, 8.690732, 0.0322119, -0.016254663, 10.011663
1195451212435239, -0.15672988, 4.95075, 8.738588, -0.0054442883, -0.04278946, 10.044678
1195451222074718, -0.20697916, 4.9531426, 8.675179, -0.03360784, 0.0073421, 9.991697
1195451231714197, -0.24765715, 4.92084, 8.572288, -0.060176373, 0.04772544, 9.887075
1195451241353572, -0.2656033, 4.892126, 8.475378, -0.06650567, 0.07091665, 9.789078
1195451250993051, -0.21894327, 4.894519, 8.46461, -0.022037983, 0.055309772, 9.780099
1195451260632531, -0.22013968, 4.9052863, 8.4705925, -0.020370841, 0.058568716, 9.790678
1195451270272010, -0.2213361, 4.92084, 8.476574, -0.015385151, 0.066981554, 9.803634
1195451279911489, -0.21415763, 4.90409, 8.568698, -0.034343123, 0.009627581, 9.875085
1195451289550864, -0.20578274, 4.930411, 8.6548395, -0.026818752, -0.010320902, 9.962768
1195451299190343, -0.20937198, 4.965107, 8.688339, -0.019294262, 0.0045297146, 10.009146
1195451308829822, -0.20697916, 4.955536, 8.677571, -0.017053127, 0.0016231537, 9.995005
1195451318469301, -0.19381863, 4.974678, 8.71466, -0.005612254, -0.006100893, 10.036445
1195451328108676, -0.16749759, 4.9926243, 8.754142, 0.015597224, -0.021984816, 10.07912
1195451337748156, -0.15314065, 4.9782677, 8.756535, 0.020310402, -0.041401148, 10.073795
1195451347387635, -0.18065812, 4.9459643, 8.729017, -0.011673689, -0.040949345, 10.034397
1195451357027114, -0.23090738, 4.88734, 8.65125, -0.06433153, -0.028482676, 9.938742
1195451366666489, -0.23808585, 4.90409, 8.59143, -0.050614476, 0.012778282, 9.895287
1195451376305968, -0.20817557, 4.889733, 8.554341, -0.021184444, 0.0027492046, 9.855411
1195451385945447, -0.17826529, 4.932804, 8.530413, 0.028891802, 0.028331041, 9.85549
1195451395584926, -0.13758731, 4.968696, 8.541181, 0.07639706, 0.030047655, 9.881897
1195451405224301, -0.10887343, 5.003392, 8.535198, 0.11780834, 0.044804335, 9.893408
1195451414863781, -0.12083755, 5.0344987, 8.560323, 0.113198996, 0.062381268, 9.930922
1195451424503260, -0.10767702, 5.023731, 8.57468, 0.116209745, 0.040543318, 9.93778
1195451434142739, -0.1471586, 4.9782677, 8.563912, 0.064653516, 0.029020548, 9.906583
1195451443782218, -0.22612174, 4.9375896, 8.553144, -0.019298673, 0.037410736, 9.878533
1195451453421593, -0.25722843, 4.892126, 8.584251, -0.07169759, 0.0024578571, 9.883486
1195451463061072, -0.27038896, 4.8729835, 8.609376, -0.09476495, -0.016562223, 9.896017
1195451472700551, -0.23808585, 4.898108, 8.653643, -0.065410495, -0.03172064, 9.946275
1195451482340031, -0.20219351, 4.9375896, 8.659625, -0.015207648, -0.019231796, 9.970416
1195451491979406, -0.21894327, 4.9663033, 8.642876, -0.015479922, 0.018052578, 9.9705
1195451501618885, -0.21655045, 4.9567323, 8.647661, -0.013343215, 0.007941246, 9.96985
1195451511258364, -0.24047868, 4.9471607, 8.608179, -0.028469205, 0.029071808, 9.931331
1195451520897843, -0.23928227, 4.9232326, 8.569894, -0.028852463, 0.027568579, 9.8862
1195451530537218, -0.18424734, 4.9292145, 8.585447, 0.016783357, -0.0016458035, 9.901551
1195451540176697, -0.16510476, 4.9782677, 8.580662, 0.051545978, 0.028651476, 9.921427
1195451549816176, -0.15672988, 4.999803, 8.543573, 0.07384348, 0.055916548, 9.899833
1195451559455656, -0.1471586, 4.9579287, 8.569894, 0.057052135, 0.0056614876, 9.901643
1195451569095031, -0.15553348, 4.9399824, 8.579466, 0.039601088, -0.0069639683, 9.901175
1195451578734510, -0.20578274, 4.928018, 8.544769, -9.338856E-4, 0.02464366, 9.866115
1195451588373989, -0.2213361, 4.9256253, 8.584251, -0.024048805, 0.014225721, 9.899463
1195451598013468, -0.20578274, 4.948357, 8.665607, -0.018784761, -0.0113527775, 9.981025
1195451607652947, -0.18544376, 4.9674997, 8.713464, -0.0021153688, -0.025301456, 10.031663
1195451617292322, -0.19501504, 4.965107, 8.729017, -0.014541388, -0.028580189, 10.044155
1195451626931801, -0.20458634, 4.9579287, 8.681161, -0.014765143, -0.008293152, 9.999258
1195451636571281, -0.22851457, 4.9375896, 8.617751, -0.030691743, 0.015259266, 9.93461
1195451646210760, -0.22731815, 4.944768, 8.596215, -0.022796392, 0.027884245, 9.919477
1195451655850135, -0.20697916, 4.9459643, 8.547162, 0.005390644, 0.040324926, 9.8771305
1195451665489614, -0.20458634, 4.8969116, 8.518449, -0.007798314, 0.013685465, 9.827783
1195451675129093, -0.18903299, 4.9363933, 8.547162, 0.016070604, 0.023749352, 9.872025
1195451684768572, -0.17467605, 4.9782677, 8.592627, 0.036150813, 0.02849269, 9.932009
1195451694407947, -0.15314065, 4.9902315, 8.660822, 0.044249892, -0.0024459362, 9.996686
1195451704047426, -0.16390835, 4.9698925, 8.65125, 0.028341055, -0.008060694, 9.978474
1195451713686906, -0.17706887, 4.959125, 8.629715, 0.017068863, -1.7166138E-4, 9.954695
1195451723326385, -0.2009971, 4.9639106, 8.602198, 0.004225731, 0.027077198, 9.933674
1195451732965760, -0.2009971, 4.974678, 8.578269, 0.012248039, 0.04520607, 9.918282
1195451742605239, -0.19142582, 4.935197, 8.603394, -0.0037368536, -6.082058E-4, 9.920242
1195451752244718, -0.1794617, 4.938786, 8.630911, 0.0019959211, -0.015927553, 9.9456625
1195451761884197, -0.20458634, 4.914858, 8.573483, -0.01756668, 0.0039799213, 9.884432
1195451771523572, -0.21296121, 4.92084, 8.526823, -0.009716272, 0.033949137, 9.847104
1195451781163051, -0.19740787, 4.928018, 8.569894, -0.0016083717, 0.013367891, 9.887732
1195451790802531, -0.18783657, 4.9603214, 8.639286, 0.0047848225, 0.0022511482, 9.9638
1195451800442010, -0.18305093, 4.991428, 8.633304, 0.023063898, 0.026914835, 9.973993
1195451810081385, -0.17228323, 4.9770713, 8.63809, 0.023949027, 0.009264708, 9.9708
1195451819720864, -0.17826529, 4.9603214, 8.666803, 0.0032355785, -0.012526512, 9.987486
1195451829360343, -0.16390835, 4.941179, 8.693125, 7.1406364E-4, -0.045581102, 10.000522
1195451838999822, -0.1698904, 4.9399824, 8.658429, 0.0054740906, -0.027332783, 9.96995
1195451848639197, -0.18185452, 4.9531426, 8.5938225, 0.017083049, 0.016859055, 9.92068
1195451858278676, -0.18065812, 4.9543395, 8.577073, 0.022544146, 0.024528265, 9.906725
1195451867918156, -0.17467605, 4.961518, 8.590233, 0.027207375, 0.020498037, 9.921598
1195451877557635, -0.19262223, 4.955536, 8.579466, 0.010667682, 0.028789282, 9.909628
1195451887197010, -0.1902294, 4.9698925, 8.544769, 0.027020216, 0.053678274, 9.886631
1195451896836489, -0.19262223, 4.9459643, 8.538788, 0.015157938, 0.037847757, 9.869595
1195451906475968, -0.18305093, 4.9136615, 8.534002, 0.010384679, 0.011187792, 9.84919
1195451916115447, -0.19621146, 4.9292145, 8.52802, 0.0065443516, 0.031867266, 9.851993
1195451925754822, -0.17228323, 4.9603214, 8.599805, 0.027778149, 0.014545441, 9.929257
1195451935394301, -0.17467605, 4.9782677, 8.691928, 0.01367867, -0.009950876, 10.018133
1195451945033781, -0.1698904, 4.961518, 8.719446, 0.005354047, -0.03712678, 10.033586
1195451954673260, -0.18903299, 4.9172506, 8.703893, -0.025835514, -0.053854942, 9.998465
1195451964312635, -0.21774685, 4.9292145, 8.656036, -0.037106752, -0.010022163, 9.963436
1195451973952114, -0.25124636, 4.92084, 8.578269, -0.05458045, 0.032443047, 9.892445
1195451983591593, -0.23330021, 4.9232326, 8.526823, -0.026483655, 0.048811674, 9.848669
1195451993231072, -0.22851457, 4.9471607, 8.544769, -0.016493797, 0.05703497, 9.876041
1195452002870447, -0.21774685, 4.979464, 8.565108, 0.0024878979, 0.0669961, 9.909543
1195452012509926, -0.19621146, 4.968696, 8.658429, -0.002105832, 0.0066826344, 9.984728
1195452022149406, -0.2117648, 4.9459643, 8.695518, -0.033180237, -0.02001214, 10.005895
1195452031788781, -0.19980069, 4.9316072, 8.656036, -0.019453764, -0.01871705, 9.964281
1195452041428260, -0.19860429, 4.9256253, 8.618947, -0.013337016, -0.0077092648, 9.9291115
1195452051067739, -0.17347965, 4.9519463, 8.562716, 0.032416105, 0.025242567, 9.892942
1195452060707218, -0.17467605, 4.9292145, 8.543573, 0.024965882, 0.01696682, 9.865059
1195452070346593, -0.16151553, 4.9579287, 8.55793, 0.043747187, 0.02505374, 9.89155
1195452079986072, -0.1698904, 4.9806604, 8.567501, 0.04377067, 0.042102337, 9.911318
1195452089625551, -0.16630118, 4.965107, 8.608179, 0.030488968, 0.010569572, 9.938797
1195452099264926, -0.13998012, 4.9782677, 8.639286, 0.051240444, -0.0058710575, 9.9718275
1195452108904406, -0.13998012, 4.9806604, 8.623733, 0.054935455, 0.003113985, 9.959534
1195452118543885, -0.16390835, 4.95075, 8.597412, 0.027279735, 0.0033390522, 9.922274
1195452128183364, -0.18903299, 4.922036, 8.562716, 0.0014234781, 0.008617401, 9.878368
1195452137822739, -0.21774685, 5.069195, 8.56152, 0.036109805, 0.13544011, 9.951086
1195452147462218, -0.21296121, 4.4685965, 8.49452, -0.19033337, -0.29735017, 9.594059
1195452157101697, -0.11246266, 5.3850474, 8.641679, 0.24051023, 0.29244304, 10.175787
1195452166741072, -0.14117654, 4.7449675, 8.612965, -0.036746383, -0.16642761, 9.833045
1195452176380551, -0.2428715, 4.8909297, 8.608179, -0.06792629, -0.009366512, 9.903345
1195452186020031, -0.14356937, 5.174479, 8.703893, 0.11907768, 0.11900258, 10.125477
1195452195659510, -0.34456646, 4.426722, 8.520842, -0.33307576, -0.26957607, 9.598736
1195452205298885, -0.13280165, 5.6386867, 8.766106, 0.31306684, 0.43919826, 10.409905
1195452214938364, -0.30029923, 4.2628136, 8.584251, -0.3817035, -0.43720865, 9.571535
1195452224577843, -0.07178468, 5.7224355, 8.833105, 0.39566112, 0.43975353, 10.508341
1195452234217218, -0.29192436, 4.26401, 8.52802, -0.35446298, -0.4284966, 9.522861
1195452243856697, -0.2117648, 5.4089756, 8.678768, 0.181602, 0.33621883, 10.221393
1195452253496176, -0.22612174, 4.6301117, 8.567501, -0.14528918, -0.1922555, 9.738228
1195452263135551, -0.23688944, 4.941179, 8.560323, -0.021776438, 0.04467988, 9.88676
1195452272775031, -0.09571291, 5.1649075, 8.584251, 0.19607925, 0.12416291, 10.016035
1195452282414510, -0.22731815, 4.4889355, 8.400003, -0.18815255, -0.21877265, 9.522554
1195452292053989, -0.0023928226, 5.65424, 8.682357, 0.48216176, 0.3789587, 10.343001
1195452301693364, -0.21296121, 4.237689, 8.46461, -0.31614888, -0.4321928, 9.453371
1195452311332843, -0.039481573, 5.751149, 8.718249, 0.49231339, 0.4442768, 10.423311
1195452320972322, -0.24765715, 4.261617, 8.440681, -0.3322729, -0.3959, 9.44461
1195452330611697, -0.15553348, 5.487939, 8.633304, 0.27884412, 0.36129212, 10.220923
1195452340251176, -0.20937198, 4.631308, 8.538788, -0.14277375, -0.18634295, 9.713322
1195452349890656, -0.23569304, 5.056034, 8.636893, 0.0039494038, 0.094397545, 10.010296
1195452359530031, -0.15314065, 5.12423, 8.695518, 0.09080148, 0.07863593, 10.093502
1195452369169510, -0.3589234, 4.4805603, 8.52443, -0.32598102, -0.22769547, 9.628709
1195452378808989, -0.16869399, 5.495117, 8.720642, 0.25100207, 0.35081553, 10.299917
1195452388448364, -0.3912265, 4.132405, 8.510074, -0.50420105, -0.46514034, 9.443549
1195452398087843, -0.15314065, 5.6877394, 8.801998, 0.32210445, 0.4469843, 10.466397
1195452407727322, -0.29312077, 4.194618, 8.517252, -0.40119278, -0.46698904, 9.478675
1195452417366697, -0.17587246, 5.5022955, 8.702696, 0.25603104, 0.36465502, 10.28808
1195452427006176, -0.21296121, 4.5595236, 8.560323, -0.17574322, -0.24694514, 9.696488
1195452436645656, -0.2440679, 5.1062837, 8.544769, 0.04797554, 0.1721766, 9.955644
1195452446285031, -0.124426775, 5.109873, 8.550752, 0.15626788, 0.11366844, 9.960136
1195452455924510, -0.2620141, 4.5858445, 8.427522, -0.17413294, -0.15029645, 9.595251
1195452465563989, -0.02751746, 5.588437, 8.636893, 0.4366107, 0.38037324, 10.270931
1195452475203364, -0.21774685, 4.29392, 8.438289, -0.27448976, -0.39558268, 9.458227
1195452484842843, -0.010767702, 5.7547383, 8.770891, 0.48574424, 0.43310118, 10.47006
1195452494482322, -0.22851457, 4.237689, 8.508878, -0.3258494, -0.46229458, 9.491645
1195452504121697, -0.11485548, 5.5980086, 8.733803, 0.3340838, 0.40116906, 10.361353
1195452513761176, -0.21655045, 4.5092745, 8.567501, -0.208197, -0.29040933, 9.677544
1195452523400656, -0.24646074, 5.083552, 8.640483, 0.011634588, 0.1157949, 10.027346
1195452533040031, -0.2117648, 4.9974103, 8.55793, 0.026988268, 0.07351518, 9.912165
1195452542679510, -0.36251262, 4.587041, 8.447861, -0.26707911, -0.103016615, 9.615446
1195452552318989, -0.1268196, 5.456832, 8.694321, 0.27854037, 0.30143642, 10.257479
1195452561958364, -0.37088752, 4.193422, 8.459825, -0.45402122, -0.3913691, 9.43036
1195452571597843, -0.14117654, 5.6937213, 8.719446, 0.37151217, 0.47080493, 10.397473
1195452581237322, -0.3278167, 4.186243, 8.449057, -0.41511965, -0.40838814, 9.416981
1195452590876697, -0.13758731, 5.613562, 8.665607, 0.34801435, 0.43942213, 10.310652
1195452600516176, -0.19381863, 4.499703, 8.543573, -0.17876732, -0.28803968, 9.652079
1195452610155656, -0.17587246, 5.235496, 8.669196, 0.14475465, 0.1850431, 10.126258
1195452619795031, -0.07776674, 5.0392847, 8.738588, 0.117673874, -0.03989601, 10.087019
1195452629434510, -0.20697916, 4.7018967, 8.668, -0.13668776, -0.18820739, 9.860569
1195452639073989, -0.04426722, 5.456832, 8.786445, 0.32489324, 0.23396969, 10.33539
1195452648713364, -0.28713873, 4.2520456, 8.52443, -0.3755566, -0.4183426, 9.51379
1195452658352843, -0.09212367, 5.6506505, 8.734999, 0.3826027, 0.43010497, 10.387838
1195452667992218, -0.28713873, 4.152744, 8.411968, -0.38815975, -0.4498167, 9.366745
1195452677631697, -0.086141616, 5.615955, 8.615358, 0.39835668, 0.45209312, 10.266825
1195452687271176, -0.20817557, 4.432704, 8.425129, -0.20063424, -0.28974462, 9.515818
1195452696910551, -0.16031912, 5.2486563, 8.571091, 0.16786659, 0.23063302, 10.047703
1195452706550031, -0.12801601, 4.9268217, 8.569894, 0.05798626, -0.021670103, 9.885809
1195452716189510, -0.25004998, 4.727021, 8.502895, -0.123958826, -0.08273935, 9.730585
1195452725828885, -0.09092726, 5.4149575, 8.672786, 0.27689946, 0.28511524, 10.217108
1195452735468364, -0.31465617, 4.284349, 8.518449, -0.3678249, -0.39148688, 9.525233
1195452745107739, -0.10049855, 5.690132, 8.860622, 0.35332966, 0.41491318, 10.516718
1195452754747218, -0.31106696, 4.173083, 8.595019, -0.42014098, -0.51107883, 9.536667
1195452764386697, -0.12801601, 5.6350975, 8.775677, 0.30720913, 0.42695117, 10.416649
1195452774026072, -0.26679972, 4.358526, 8.516056, -0.27749205, -0.35934186, 9.559551
1195452783665551, -0.19621146, 5.259424, 8.639286, 0.12181556, 0.23482251, 10.11273
1195452793305031, -0.16390835, 4.8263235, 8.57468, -0.0067623854, -0.07716441, 9.840703
1195452802944406, -0.29790643, 4.7425747, 8.475378, -0.1414051, -0.037770033, 9.715523
1195452812583885, -0.10887343, 5.349155, 8.63809, 0.2516389, 0.25518298, 10.154482
1195452822223260, -0.30269206, 4.336991, 8.508878, -0.33681417, -0.35112667, 9.542819
1195452831862739, -0.07178468, 5.6913285, 8.780462, 0.4023409, 0.42106938, 10.447666
1195452841502218, -0.29312077, 4.17069, 8.447861, -0.39015305, -0.4418192, 9.407417
1195452851141593, -0.096909314, 5.6614184, 8.660822, 0.39913845, 0.45806503, 10.329654
1195452860781072, -0.21655045, 4.3501515, 8.486146, -0.25204098, -0.37338376, 9.527981
1195452870420447, -0.15672988, 5.355137, 8.706285, 0.19519353, 0.24803042, 10.217723
1195452880059926, -0.15792629, 4.8059845, 8.62134, -0.028165698, -0.11968708, 9.870908
1195452889699406, -0.2536392, 4.8119664, 8.569894, -0.097733736, -0.04519987, 9.831116
1195452899338781, -0.09810573, 5.3096733, 8.685946, 0.22246027, 0.20695448, 10.176228
1195452908978260, -0.28713873, 4.347759, 8.484949, -0.3092426, -0.3388548, 9.527296
1195452918617739, -0.08015956, 5.6482577, 8.724232, 0.37161016, 0.4308374, 10.377751
1195452928257114, -0.33020952, 4.145565, 8.432307, -0.41918898, -0.44767094, 9.382026
1195452937896593, -0.11964113, 5.6781683, 8.687142, 0.3722036, 0.48973632, 10.360694
1195452947535968, -0.26679972, 4.3070807, 8.504091, -0.31723368, -0.3813007, 9.523428
1195452957175447, -0.1794617, 5.375476, 8.688339, 0.18911338, 0.29063797, 10.212491
1195452966814926, -0.18305093, 4.755735, 8.618947, -0.07720351, -0.14157557, 9.844328
1195452976454301, -0.22731815, 4.8969116, 8.611769, -0.050682306, -0.011341095, 9.909152
1195452986093781, -0.06580263, 5.2486563, 8.709874, 0.22476268, 0.13117981, 10.165968
1195452995733156, -0.2656033, 4.3872404, 8.512466, -0.28001726, -0.3259399, 9.570573
1195453005372635, -0.047856454, 5.6614184, 8.754142, 0.40787935, 0.4136951, 10.409201
1195453015012114, -0.28594232, 4.194618, 8.518449, -0.3886248, -0.46489978, 9.480158
1195453024651489, -0.08733802, 5.71765, 8.781659, 0.3947804, 0.45748973, 10.461908
1195453034290968, -0.25962126, 4.2771707, 8.488539, -0.32373142, -0.4054351, 9.494615
1195453043930343, -0.1902294, 5.40419, 8.6548395, 0.20092463, 0.33299184, 10.1978655
1195453053569822, -0.21415763, 4.664808, 8.53161, -0.12116659, -0.15098691, 9.724051
1195453063209197, -0.2440679, 4.9232326, 8.516056, -0.03230691, 0.057268143, 9.839546
1195453072848676, -0.09571291, 5.2019963, 8.650054, 0.19007087, 0.13466549, 10.091537
1195453082488156, -0.26081768, 4.4685965, 8.541181, -0.25356698, -0.28098154, 9.635606
1195453092127531, -0.050249275, 5.623133, 8.79123, 0.3777535, 0.36659384, 10.422609
1195453101767010, -0.28115666, 4.186243, 8.500503, -0.3746115, -0.4663608, 9.460676
1195453111406385, -0.09810573, 5.7152567, 8.671589, 0.40799713, 0.50795984, 10.365604
1195453121045864, -0.30987054, 4.214957, 8.432307, -0.36197543, -0.40606833, 9.416462
1195453130685343, -0.20578274, 5.3970113, 8.599805, 0.18633664, 0.36596584, 10.146826
1195453140324718, -0.26799613, 4.5559344, 8.4909315, -0.1931597, -0.19764733, 9.635763
1195453149964197, -0.32422748, 4.9531426, 8.566305, -0.09757984, 0.09331393, 9.8996
1195453159603572, -0.19980069, 5.0955157, 8.677571, 0.049602985, 0.09615278, 10.06443
1195453169243051, -0.38165522, 4.4279184, 8.53161, -0.36525202, -0.249583, 9.609619
1195453178882531, -0.16869399, 5.501099, 8.733803, 0.24786472, 0.3652041, 10.313829
1195453188521906, -0.38165522, 4.1694937, 8.475378, -0.45703542, -0.41733313, 9.432886
1195453198161385, -0.14117654, 5.710471, 8.742178, 0.3683412, 0.5065174, 10.424149
1195453207800760, -0.2727818, 4.23051, 8.537591, -0.37828052, -0.43518567, 9.514705
1195453217440239, -0.0849452, 5.548956, 8.743374, 0.34464765, 0.3433578, 10.344468
1195453227079614, -0.12083755, 4.633701, 8.665607, -0.090589285, -0.2764697, 9.82313
1195453236719093, -0.124426775, 5.10748, 8.723035, 0.11130571, 0.048606873, 10.108334
1195453246358468, -0.061016977, 5.130212, 8.665607, 0.19113398, 0.06127405, 10.068528
1195453255997947, -0.22013968, 4.5523453, 8.440681, -0.15866137, -0.1868205, 9.589438
1195453265637426, -0.041874398, 5.5298133, 8.598608, 0.40961194, 0.37163877, 10.208366
1195453275276801, -0.27517462, 4.219743, 8.41795, -0.35457408, -0.38678575, 9.405769
1195453284916281, -0.023928227, 5.7355957, 8.702696, 0.4981215, 0.46421838, 10.400526
1195453294555656, -0.20697916, 4.249653, 8.467003, -0.29006898, -0.43695545, 9.461366
1195453304195135, -0.086141616, 5.5537415, 8.683554, 0.3423581, 0.37920237, 10.295366
1195453313834614, -0.20817557, 4.503292, 8.563912, -0.19717145, -0.28781843, 9.671705
1195453323473989, -0.25722843, 5.0548377, 8.646464, -0.013082266, 0.11937928, 10.0182085
1195453333113468, -0.1794617, 4.989035, 8.681161, 0.018508792, 0.01658535, 10.014221
1195453342752843, -0.3074777, 4.5559344, 8.608179, -0.2605375, -0.21650887, 9.738433
1195453352392322, -0.09092726, 5.4927244, 8.835498, 0.27901697, 0.28567338, 10.396387
1195453362031697, -0.317049, 4.223332, 8.618947, -0.4008844, -0.4713204, 9.583342
1195453371671176, -0.09810573, 5.727221, 8.851051, 0.36902952, 0.45876503, 10.526403
1195453381310551, -0.3074777, 4.1671004, 8.499306, -0.41378832, -0.45474648, 9.450899
1195453390950031, -0.12921242, 5.5453663, 8.675179, 0.31401086, 0.40447164, 10.284179
1195453400589510, -0.20697916, 4.456632, 8.459825, -0.1912458, -0.27174687, 9.558379
1195453410228885, -0.19860429, 5.1661043, 8.520842, 0.12196326, 0.22313261, 9.963339
1195453419868364, -0.08135597, 4.983053, 8.580662, 0.12971997, 0.0062203407, 9.922113
1195453429507739, -0.19381863, 4.6636114, 8.495717, -0.08967376, -0.14148235, 9.6920595
1195453439147218, -0.01794617, 5.4795637, 8.718249, 0.37330747, 0.2873578, 10.286491
1195453448786593, -0.2835495, 4.278367, 8.493324, -0.3322276, -0.381958, 9.500795
1195453458426072, -0.08853444, 5.6961145, 8.775677, 0.38475394, 0.47397828, 10.444777
1195453468065551, -0.32662028, 4.1491547, 8.541181, -0.42230988, -0.48600245, 9.47942
1195453477704926, -0.13998012, 5.584848, 8.7673025, 0.29812348, 0.41686487, 10.383306
1195453487344406, -0.2548356, 4.429115, 8.601001, -0.25628614, -0.33051276, 9.668726
1195453496983781, -0.24526432, 5.197211, 8.687142, 0.061849117, 0.20636797, 10.123794
1195453506623260, -0.20937198, 4.8693943, 8.624929, -0.034942865, -0.030176401, 9.906672
1195453516262635, -0.33499518, 4.638487, 8.508878, -0.21735227, -0.09645939, 9.693928
1195453525902114, -0.15553348, 5.377869, 8.65125, 0.23562169, 0.30971527, 10.180292
1195453535541489, -0.3792624, 4.2424746, 8.439486, -0.4088987, -0.33716202, 9.438563
1195453545180968, -0.11485548, 5.6614184, 8.732606, 0.3797915, 0.46697545, 10.390426
1195453554820447, -0.3182454, 4.1347976, 8.486146, -0.4138353, -0.46581674, 9.424664
1195453564459822, -0.096909314, 5.6183476, 8.725428, 0.36211097, 0.44474173, 10.362404
1195453574099301, -0.21415763, 4.35733, 8.523234, -0.23095322, -0.37673974, 9.564645
1195453583738676, -0.15074782, 5.2510495, 8.635697, 0.17772675, 0.22119689, 10.10401
1195453593378156, -0.11844472, 4.8586264, 8.640483, 0.039792776, -0.08984351, 9.913051
1195453603017531, -0.24526432, 4.735396, 8.590233, -0.114561796, -0.095235586, 9.810915
1195453612657010, -0.07776674, 5.365905, 8.749356, 0.27332544, 0.22685742, 10.257876
1195453622296489, -0.28115666, 4.331009, 8.541181, -0.30921042, -0.35760403, 9.568957
1195453631935864, -0.06460621, 5.686543, 8.801998, 0.40848398, 0.43522835, 10.462306
1195453641575343, -0.2847459, 4.1383867, 8.507681, -0.39623666, -0.4754002, 9.444839
1195453651214718, -0.12921242, 5.611169, 8.708678, 0.34517074, 0.44688773, 10.345248
1195453660854197, -0.2656033, 4.29392, 8.455039, -0.28913677, -0.35176134, 9.475688
1195453670493572, -0.19621146, 5.2689953, 8.615358, 0.16019154, 0.2747152, 10.095746
1195453680133051, -0.20458634, 4.7676992, 8.598608, -0.067513585, -0.092779875, 9.833398
1195453689772426, -0.2835495, 4.792824, 8.57468, -0.118134856, -0.021396875, 9.826611
1195453699411906, -0.12801601, 5.3479586, 8.718249, 0.22956061, 0.25642514, 10.222839
1195453709051385, -0.31226337, 4.3441696, 8.592627, -0.345757, -0.35307097, 9.620725
1195453718690760, -0.07058827, 5.6470613, 8.8905325, 0.37090802, 0.37020874, 10.519563
1195453728330239, -0.29072794, 4.1371903, 8.59143, -0.417189, -0.51991796, 9.516784
1195453737969614, -0.069391854, 5.6578293, 8.813962, 0.39486504, 0.424623, 10.457799
1195453747609093, -0.22612174, 4.3034916, 8.529217, -0.27936566, -0.39517713, 9.543818
1195453757248468, -0.1471586, 5.3443694, 8.645268, 0.22975934, 0.29833436, 10.157895
1195453766887947, -0.1794617, 4.7042894, 8.560323, -0.06269145, -0.13359904, 9.768311
1195453776527426, -0.25962126, 4.834698, 8.5016985, -0.06283605, 0.029618025, 9.783443
1195453786166801, -0.13280165, 5.2307105, 8.550752, 0.21714687, 0.24097061, 10.019386
1195453795806281, -0.28235307, 4.35733, 8.395218, -0.26977444, -0.2697549, 9.455168
1195453805445656, -0.05503492, 5.623133, 8.748159, 0.4055581, 0.40864682, 10.383713
1195453815085135, -0.2656033, 4.1838503, 8.547162, -0.36706328, -0.46620727, 9.501423
1195453824724510, -0.08015956, 5.7009, 8.82832, 0.394583, 0.44585848, 10.492448
1195453834363989, -0.27517462, 4.2520456, 8.612965, -0.36104286, -0.44578433, 9.59217
1195453844003468, -0.20458634, 5.3814583, 8.796016, 0.15598094, 0.2981975, 10.308182
1195453853642843, -0.23090738, 4.6576295, 8.711071, -0.1609714, -0.19732976, 9.877487
1195453863282322, -0.28235307, 4.880162, 8.683554, -0.10057938, 0.0040740967, 9.96442
1195453872921697, -0.15672988, 5.150551, 8.743374, 0.112650275, 0.121793985, 10.147504
1195453882561176, -0.31944183, 4.389633, 8.56152, -0.31774437, -0.29150844, 9.616891
1195453892200551, -0.069391854, 5.552545, 8.758927, 0.3607173, 0.37048507, 10.3579445
1195453901840031, -0.27876383, 4.1312084, 8.4909315, -0.37057126, -0.47846723, 9.427316
1195453911479510, -0.0526421, 5.680561, 8.689535, 0.43918288, 0.48996353, 10.360823
1195453921118885, -0.24526432, 4.2723846, 8.359326, -0.249812, -0.33288002, 9.381821
1195453930758364, -0.11844472, 5.4676, 8.56152, 0.30860126, 0.42106748, 10.145725
1195453940397739, -0.14596218, 4.6576295, 8.5220375, -0.042663097, -0.15893126, 9.711482
1195453950037218, -0.17347965, 4.991428, 8.659625, 0.039474487, 0.04149556, 9.996513
1195453959676593, -0.07058827, 5.1625147, 8.785249, 0.17740023, 0.0708549, 10.18826
1195453969316072, -0.2727818, 4.4554358, 8.6548395, -0.2707368, -0.3090031, 9.729481
1195453978955551, -0.1471586, 5.5298133, 8.823533, 0.26780725, 0.3724563, 10.404076
1195453988594926, -0.4211368, 4.1240296, 8.517252, -0.5142611, -0.41623378, 9.449384
1195453998234406, -0.17108682, 5.629115, 8.776874, 0.30276537, 0.46760798, 10.413424
1195454007873781, -0.32063824, 4.115655, 8.535198, -0.4447341, -0.46958256, 9.459003
1195454017513260, -0.12083755, 5.407779, 8.751749, 0.25619555, 0.29513526, 10.281004
1195454027152635, -0.104087785, 4.587041, 8.636893, -0.0790149, -0.27908134, 9.775662
1195454036792114, -0.09930214, 5.0512486, 8.635697, 0.13410425, 0.06930375, 10.003872
1195454046431593, 0.04546363, 5.1026945, 8.635697, 0.2775309, 0.031587124, 10.026804
1195454056070968, -0.09930214, 4.53081, 8.5016985, -0.06682277, -0.26372814, 9.630314
1195454065710447, 0.0741775, 5.5704913, 8.717052, 0.47838604, 0.34090257, 10.328493
1195454075349822, -0.2117648, 4.2424746, 8.495717, -0.29328537, -0.4214158, 9.484568
1195454084989301, -0.06699903, 5.7726846, 8.807981, 0.42801976, 0.5082934, 10.510344
1195454094628676, -0.31226337, 4.278367, 8.545966, -0.37856662, -0.3651533, 9.547713
1195454104268156, -0.20817557, 5.5980086, 8.766106, 0.24305868, 0.4789908, 10.38928
1195454113907635, -0.32303107, 4.5355954, 8.592627, -0.2776662, -0.20061064, 9.715548
1195454123547010, -0.40079778, 5.058427, 8.586644, -0.114479065, 0.23976755, 9.970366
1195454133186489, -0.37447673, 4.941179, 8.482556, -0.121855974, 0.18183494, 9.821473
1195454142825864, -0.5491528, 4.395615, 8.282756, -0.4584688, -0.06085372, 9.381533
1195454152465343, -0.36131623, 5.215157, 8.553144, -0.0060533285, 0.35105944, 10.018054
1195454162104822, -0.53240305, 3.9338005, 8.476574, -0.66940224, -0.51862097, 9.321666
1195454171744197, -0.24526432, 5.4759746, 8.895318, 0.13128507, 0.34033012, 10.442227
1195454181383676, -0.39601216, 4.0366917, 8.695518, -0.5648407, -0.5723424, 9.56123
1195454191023051, -0.17467605, 5.5334024, 8.995817, 0.20905495, 0.31432724, 10.556102
1195454200662531, -0.1902294, 4.551149, 8.9312105, -0.21443164, -0.37554836, 10.016419
1195454210302010, -0.12083755, 5.259424, 9.035298, 0.13544273, 0.07305384, 10.454143
1195454219941385, -0.01794617, 5.096712, 8.968299, 0.16863847, -0.062209845, 10.31382
1195454229580864, -0.12083755, 4.725825, 8.739784, -0.045021296, -0.19397306, 9.934395
1195454239220239, 0.12083755, 5.538188, 8.7577305, 0.52515626, 0.2744758, 10.345668
1195454248859718, -0.096909314, 4.321438, 8.410771, -0.1353941, -0.37544274, 9.44807
1195454258499197, 0.18664017, 5.727221, 8.586644, 0.69197774, 0.45803618, 10.289691
1195454268138572, -0.043070808, 4.2006, 8.3377905, -0.11353314, -0.46035337, 9.324206
1195454277778051, 0.09930214, 5.6614184, 8.495717, 0.600898, 0.48459268, 10.180513
1195454287417426, -0.0023928226, 4.496114, 8.331808, 0.037103295, -0.25849414, 9.463924
1195454297056906, 0.023928227, 5.218746, 8.496913, 0.3277954, 0.19384885, 9.964355
1195454306696385, 0.05383851, 4.9459643, 8.567501, 0.2165358, -0.058941603, 9.890258
1195454316335760, -0.11006984, 4.685147, 8.601001, -0.046062946, -0.18391061, 9.793058
1195454325975239, -0.0035892338, 5.3742795, 8.8701935, 0.292516, 0.17092729, 10.365734
1195454335614614, -0.30269206, 4.2125645, 8.737391, -0.44270563, -0.49844837, 9.681679
1195454345254093, -0.13519448, 5.6374903, 9.032906, 0.26152182, 0.35749388, 10.639397
1195454354893572, -0.3589234, 4.119244, 8.781659, -0.52537465, -0.5564716, 9.6762
1195454364532947, -0.2321038, 5.538188, 8.946764, 0.1638726, 0.38095593, 10.51656
1195454374172426, -0.41635114, 4.269992, 8.656036, -0.46562743, -0.3850081, 9.641997
1195454383811801, -0.41994038, 5.139783, 8.6548395, -0.11099231, 0.2811284, 10.070185
1195454393451281, -0.4211368, 4.738985, 8.549556, -0.24382901, 0.013443708, 9.781135
1195454403090760, -0.48215377, 4.6025944, 8.437093, -0.32991397, -0.013214827, 9.617269
1195454412730135, -0.26081768, 5.298906, 8.569894, 0.13326669, 0.3563869, 10.071978
1195454422369614, -0.4211368, 4.258028, 8.446664, -0.41006374, -0.30896425, 9.454665
1195454432009093, -0.13878371, 5.611169, 8.740981, 0.32940733, 0.4617803, 10.372438
1195454441648468, -0.31226337, 4.1144586, 8.502895, -0.39290464, -0.5001347, 9.429793
1195454451287947, -0.06460621, 5.6386867, 8.766106, 0.41699946, 0.4179325, 10.40649
1195454460927322, -0.16151553, 4.395615, 8.523234, -0.16107881, -0.3654213, 9.582983
1195454470566801, -0.07776674, 5.3886366, 8.616554, 0.31943393, 0.3093784, 10.153359
1195454480206281, -0.062213387, 4.875376, 8.584251, 0.12203908, -0.07347822, 9.871283
1195454489845656, -0.1698904, 4.8681974, 8.53161, 0.032784224, -0.0063335896, 9.824228
1195454499485135, -0.015553347, 5.349155, 8.629715, 0.34956264, 0.24546218, 10.144123
1195454509124510, -0.2739782, 4.322634, 8.419147, -0.27232492, -0.31992936, 9.458633
1195454518763989, -0.08733802, 5.6075797, 8.65125, 0.39737713, 0.45211458, 10.292443
1195454528403468, -0.3361916, 4.113262, 8.428718, -0.40556264, -0.45424533, 9.365063
1195454538042843, -0.148355, 5.660222, 8.696713, 0.35081387, 0.50377274, 10.359346
1195454547682322, -0.32542387, 4.2915273, 8.469396, -0.3382504, -0.3321488, 9.488363
1195454557321801, -0.24646074, 5.325227, 8.687142, 0.12972963, 0.3113351, 10.186829
1195454566961176, -0.25244278, 4.7174497, 8.663215, -0.13473666, -0.13249826, 9.865782
1195454576600656, -0.33379877, 4.8035913, 8.656036, -0.16902018, -0.018507957, 9.903734
1195454586240135, -0.14476576, 5.2139606, 8.738588, 0.15902972, 0.1536045, 10.174497
1195454595879510, -0.31465617, 4.339384, 8.597412, -0.34274602, -0.35419512, 9.622985
1195454605518989, -0.059820566, 5.6099725, 8.878569, 0.36854005, 0.35322165, 10.490175
1195454615158364, -0.24765715, 4.139583, 8.65125, -0.39268327, -0.55205226, 9.569882
1195454624797843, -0.076570325, 5.6685967, 8.883354, 0.37564445, 0.40870047, 10.52353
1195454634437322, -0.22372891, 4.2867417, 8.618947, -0.29324687, -0.4412551, 9.614143
1195454644076697, -0.13040884, 5.4412785, 8.772088, 0.26268005, 0.3091836, 10.3154955
1195454653716176, -0.16869399, 4.7138605, 8.628518, -0.058142066, -0.1446755, 9.832395
1195454663355656, -0.24526432, 4.9136615, 8.554341, -0.027290225, 0.07057309, 9.867891
1195454672995031, -0.09451649, 5.2199426, 8.592627, 0.22526205, 0.21143603, 10.049602
1195454682634510, -0.25722843, 4.4434714, 8.458628, -0.223611, -0.24138546, 9.552525
1195454692273989, -0.015553347, 5.5896335, 8.781659, 0.40792513, 0.37271142, 10.395021
1195454701913364, -0.27517462, 4.135994, 8.5220375, -0.3833847, -0.49906063, 9.455753
1195454711552843, -0.029910283, 5.682954, 8.755338, 0.4364729, 0.4689095, 10.418369
1195454721192322, -0.19740787, 4.2664027, 8.510074, -0.24069524, -0.42909455, 9.508968
1195454730831697, -0.05742774, 5.4664035, 8.751749, 0.3126949, 0.31397963, 10.309298
1195454740471176, -0.1160519, 4.688736, 8.65125, -0.032871008, -0.20232534, 9.838691
1195454750110551, -0.1591227, 5.023731, 8.678768, 0.058938622, 0.05941224, 10.028819
1195454759750031, -0.0634098, 5.1816573, 8.709874, 0.20462942, 0.114625216, 10.132151
1195454769389510, -0.25004998, 4.453043, 8.493324, -0.23129904, -0.24106169, 9.587339
1195454779028989, -0.040677983, 5.558527, 8.676374, 0.41433, 0.378623, 10.288991
1195454788668364, -0.3062813, 4.1515474, 8.405986, -0.4074924, -0.39555573, 9.36308
1195454798307843, -0.11485548, 5.6614184, 8.65125, 0.4027624, 0.50191975, 10.319635
1195454807947218, -0.32303107, 4.1635113, 8.425129, -0.4199885, -0.38890195, 9.385858
1195454817586697, -0.17706887, 5.454439, 8.725428, 0.22621822, 0.356148, 10.2828665
1195454827226176, -0.21774685, 4.5738807, 8.71466, -0.19885719, -0.26298523, 9.8389225
1195454836865656, -0.26799613, 5.0069814, 8.784052, -0.06875634, 0.05129695, 10.114044
1195454846505031, -0.19262223, 5.0656056, 8.804391, 0.021707296, 0.054215908, 10.159299
1195454856144510, -0.3684947, 4.4207397, 8.622537, -0.36568487, -0.26932883, 9.686104
1195454865783989, -0.16390835, 5.4556355, 8.787642, 0.21599793, 0.34356952, 10.336768
1195454875423364, -0.3505485, 4.141976, 8.544769, -0.44772375, -0.45246148, 9.480862
1195454885062843, -0.096909314, 5.6781683, 8.769695, 0.37357843, 0.4841261, 10.429985
1195454894702322, -0.276371, 4.159922, 8.476574, -0.36316943, -0.44208884, 9.429012
1195454904341697, -0.12083755, 5.4987063, 8.658429, 0.29805863, 0.40741134, 10.245191
1195454913981176, -0.19262223, 4.5272202, 8.456235, -0.1333735, -0.19404507, 9.590897
1195454923620656, -0.17587246, 5.09073, 8.525627, 0.106622815, 0.18432522, 9.929121
1195454933260031, -0.096909314, 5.052445, 8.612965, 0.14209783, 0.08253932, 9.984627
1195454942899510, -0.20458634, 4.5714874, 8.563912, -0.15175569, -0.20657063, 9.706453
1195454952538989, -0.01794617, 5.5226345, 8.79123, 0.36970806, 0.3191278, 10.370489
1195454962178364, -0.2620141, 4.219743, 8.62134, -0.37496722, -0.46356273, 9.58368
1195454971817843, -0.049052864, 5.682954, 8.946764, 0.3812852, 0.39891505, 10.584822
1195454981457322, -0.26919255, 4.159922, 8.626125, -0.41274917, -0.5009768, 9.558562
1195454991096801, -0.14476576, 5.5166526, 8.734999, 0.26058292, 0.41122198, 10.320736
1195455000736176, -0.26081768, 4.430311, 8.535198, -0.25994265, -0.25472283, 9.613159
1195455010375656, -0.22731815, 5.1086764, 8.633304, 0.050508022, 0.19006991, 10.032223
1195455020015135, -0.1591227, 4.985446, 8.641679, 0.04951477, 0.059746742, 9.977605
1195455029654510, -0.2727818, 4.581059, 8.553144, -0.21298468, -0.14288616, 9.703146
1195455039293989, -0.08015956, 5.416154, 8.718249, 0.29981017, 0.306767, 10.254999
1195455048933468, -0.30029923, 4.1874394, 8.545966, -0.41711843, -0.4138012, 9.503324
1195455058572843, -0.069391854, 5.669793, 8.885747, 0.38258147, 0.41154408, 10.5257845
1195455068212322, -0.2727818, 4.1383867, 8.645268, -0.4333793, -0.49976373, 9.565758
1195455077851801, -0.09451649, 5.572884, 8.833105, 0.31822205, 0.3862698, 10.432605
1195455087491281, -0.1698904, 4.453043, 8.658429, -0.20577824, -0.3347454, 9.729977
1195455097130656, -0.13160525, 5.2008, 8.737391, 0.14198613, 0.17858624, 10.166397
1195455106770135, -0.08015956, 4.928018, 8.642876, 0.09061456, -0.011711359, 9.949008
1195455116409614, -0.1902294, 4.7748775, 8.519645, -0.045965552, -0.022830248, 9.768181
1195455126048989, -0.1268196, 4.9292145, 8.616554, 0.053228974, 0.021904707, 9.9274845
1195455135688468, -0.13280165, 4.971089, 8.650054, 0.058098078, 0.041914225, 9.977358
1195455145327947, -0.11485548, 4.9567323, 8.671589, 0.06248653, 0.011684179, 9.988733
1195455154967426, -0.1363909, 4.95075, 8.707481, 0.033145785, 0.0024642944, 10.017368
1195455164606801, -0.18544376, 4.900501, 8.676374, -0.024245143, 0.0013654232, 9.966353
1195455174246281, -0.18903299, 4.863412, 8.648857, -0.0356704, -0.013665915, 9.924201
1195455183885760, -0.18903299, 4.807181, 8.658429, -0.05816269, -0.06149912, 9.904846
1195455193525239, -0.17228323, 4.85743, 8.669196, -0.024652243, -0.035723448, 9.9386835
1195455203164614, -0.16151553, 4.8993044, 8.681161, 0.001067996, -0.012331009, 9.969538
1195455212804093, -0.13998012, 4.9292145, 8.749356, 0.018474221, -0.029437304, 10.043245
1195455222443572, -0.12323037, 4.962714, 8.751749, 0.04650259, -0.012543201, 10.061537
1195455232082947, -0.1268196, 4.95075, 8.711071, 0.047317863, -0.004359722, 10.020305
1195455241722426, -0.13878371, 4.9375896, 8.687142, 0.03562212, -3.0350685E-4, 9.99321
1195455251361906, -0.16510476, 4.9064827, 8.665607, 0.0036555529, -0.0044472218, 9.959596
1195455261001385, -0.18305093, 4.8993044, 8.626125, -0.005566478, 0.014264107, 9.92202
1195455270640760, -0.18783657, 4.8789654, 8.56152, -0.0040860176, 0.029481173, 9.855876
1195455280280239, -0.19262223, 4.8729835, 8.535198, -0.0038951635, 0.037019253, 9.830122
1195455289919718, -0.20937198, 4.881358, 8.500503, -0.0065693855, 0.06404877, 9.804381
1195455299559197, -0.16630118, 4.88734, 8.496913, 0.034446, 0.049904585, 9.803449
1195455309198676, -0.13998012, 4.892126, 8.484949, 0.061763763, 0.045203447, 9.794948
1195455318838051, -0.14955142, 4.9256253, 8.548359, 0.053421378, 0.047181606, 9.866789
1195455328477531, -0.17587246, 4.9268217, 8.648857, 0.008782387, 0.016413927, 9.955244
1195455338117010, -0.22731815, 4.895715, 8.743374, -0.06853807, -0.02392006, 10.0230255
1195455347756385, -0.25603202, 4.894519, 8.811569, -0.10948193, -0.040826082, 10.082261
1195455357395864, -0.2620141, 4.892126, 8.825927, -0.11765003, -0.0430727, 10.093702
1195455367035343, -0.2644069, 4.8705907, 8.744571, -0.10566366, -0.02114153, 10.012416
1195455376674822, -0.2955136, 4.8394837, 8.646464, -0.1243906, 0.014135838, 9.912295
1195455386314301, -0.28594232, 4.8047876, 8.581859, -0.11171007, 0.011251211, 9.838876
1195455395953676, -0.29072794, 4.814359, 8.543573, -0.10286808, 0.03788972, 9.810364
1195455405593156, -0.23569304, 4.8442693, 8.569894, -0.049093127, 0.02268362, 9.846962
1195455415232635, -0.18544376, 4.912465, 8.585447, 0.020884037, 0.042546034, 9.893148
1195455424872114, -0.13519448, 4.961518, 8.635697, 0.07136881, 0.033512115, 9.96012
1195455434511489, -0.078963146, 4.959125, 8.685946, 0.1031152, -0.017825365, 10.001693
1195455444150968, -0.07058827, 4.9770713, 8.687142, 0.11290848, -0.0076372623, 10.011486
1195455453790447, -0.07178468, 5.0333023, 8.737391, 0.120568156, 0.015547752, 10.082981
1195455463429926, -0.0071784677, 4.965107, 8.644072, 0.16780913, -0.023958445, 9.967125
1195455473069301, 0.0071784677, 4.9902315, 8.670393, 0.18581986, -0.021802187, 10.002159
1195455482708781, -0.033499517, 4.9663033, 8.707481, 0.13182414, -0.036871433, 10.023312
1195455492348260, -0.0741775, 4.914858, 8.7015, 0.07565498, -0.05157423, 9.99345
1195455501987739, -0.13399807, 4.910072, 8.635697, 0.03387034, 0.0028386116, 9.934832
1195455511627218, -0.17228323, 4.8825545, 8.639286, -0.013029814, -0.0025427341, 9.925024
1195455521266593, -0.19501504, 4.8849473, 8.630911, -0.028643608, 0.013509989, 9.9192915
1195455530906072, -0.2428715, 4.9028935, 8.612965, -0.058943868, 0.058203936, 9.913306
1195455540545551, -0.2739782, 4.8526444, 8.694321, -0.12018752, -9.4747543E-4, 9.959918
1195455550185031, -0.27756742, 4.861019, 8.774481, -0.13740611, -0.029307365, 10.033858
1195455559824510, -0.26679972, 4.8646083, 8.7673025, -0.11746967, -0.028794765, 10.029287
1195455569463885, -0.26799613, 4.8598228, 8.709874, -0.105742574, -0.005007744, 9.976995
1195455579103364, -0.24765715, 4.846662, 8.694321, -0.08830047, -0.018148422, 9.956634
1195455588742843, -0.21894327, 4.861019, 8.679964, -0.052456856, -0.01523757, 9.950689
1195455598382322, -0.16510476, 4.9028935, 8.642876, 0.021322489, 0.0074603558, 9.938028
1195455608021697, -0.13758731, 4.92084, 8.644072, 0.05284977, 0.007896662, 9.947397
1195455617661176, -0.1268196, 4.9435716, 8.641679, 0.072140455, 0.019921541, 9.956305
1195455627300656, -0.10767702, 4.930411, 8.636893, 0.082723856, 0.001395464, 9.9453335
1195455636940135, -0.09092726, 4.9316072, 8.596215, 0.10702908, 0.0111374855, 9.910215
1195455646579614, -0.12323037, 4.8969116, 8.530413, 0.0776335, 0.0284276, 9.836466
1195455656218989, -0.13519448, 4.889733, 8.545966, 0.059369564, 0.02123189, 9.846691
1195455665858468, -0.15194423, 4.898108, 8.605786, 0.03443551, 0.009381294, 9.903174
1195455675497947, -0.14955142, 4.924429, 8.691928, 0.029004931, -0.009124279, 9.991049
1195455685137426, -0.1902294, 4.9232326, 8.730213, -0.012254238, -0.004796982, 10.024513
1195455694776906, -0.22253251, 4.8885365, 8.739784, -0.057554007, -0.019618273, 10.016359
1195455704416385, -0.22372891, 4.871787, 8.717052, -0.059318542, -0.02180314, 9.988361
1195455714055760, -0.22372891, 4.880162, 8.660822, -0.042529225, 0.008915424, 9.943541
1195455723695239, -0.21774685, 4.8825545, 8.626125, -0.028991938, 0.022253036, 9.914408
1195455733334718, -0.23569304, 4.871787, 8.60459, -0.044990897, 0.03135109, 9.890695
1195455742974197, -0.2428715, 4.843073, 8.6345005, -0.07040858, -9.3603134E-4, 9.902726
1195455752613676, -0.23090738, 4.846662, 8.672786, -0.06375778, -0.021872044, 9.937613
1195455762253051, -0.2213361, 4.8681974, 8.715857, -0.055842996, -0.028487206, 9.9855175
1195455771892531, -0.20697916, 4.901697, 8.707481, -0.02590561, -0.0051596165, 9.994449
1195455781532010, -0.17228323, 4.9292145, 8.646464, 0.030280352, 0.026092768, 9.954226
1195455791171489, -0.15792629, 4.965107, 8.599805, 0.0657984, 0.06493759, 9.931029
1195455800810968, -0.16031912, 4.9567323, 8.608179, 0.058587432, 0.05572653, 9.93424
1195455810450343, -0.1471586, 4.948357, 8.63809, 0.05706179, 0.028689623, 9.955925
1195455820089822, -0.13399807, 4.942375, 8.670393, 0.059189677, 0.0040831566, 9.980844
1195455829729301, -0.1698904, 4.8933225, 8.685946, 0.006275654, -0.02383995, 9.970884
1195455839368781, -0.19142582, 4.8598228, 8.688339, -0.024685144, -0.040831804, 9.956882
1195455849008260, -0.20697916, 4.847859, 8.648857, -0.03407204, -0.02584052, 9.916928
1195455858647739, -0.23688944, 4.8622155, 8.605786, -0.0465616, 0.017849684, 9.887078
1195455868287114, -0.23330021, 4.877769, 8.5938225, -0.035674214, 0.03291869, 9.884254
1195455877926593, -0.19621146, 4.9136615, 8.585447, 0.010793328, 0.04753542, 9.893944
1195455887566072, -0.17706887, 4.8885365, 8.623733, 0.010968447, 0.0023553371, 9.914524
1195455897205551, -0.17228323, 4.9268217, 8.633304, 0.026568294, 0.026051283, 9.94162
1195455906845031, -0.16031912, 4.907679, 8.632108, 0.030629039, 0.006009817, 9.930929
1195455916484510, -0.15792629, 4.8693943, 8.666803, 0.010159969, -0.04008746, 9.942221
1195455926123989, -0.15314065, 4.90409, 8.673982, 0.02661252, -0.018288136, 9.965464
1195455935763364, -0.16390835, 4.9340005, 8.648857, 0.034620166, 0.02190876, 9.958527
1195455945402843, -0.18903299, 4.941179, 8.706285, 0.003394723, 0.013845444, 10.012503
1195455955042322, -0.20578274, 4.932804, 8.749356, -0.023535252, -0.0037891865, 10.046174
1195455964681801, -0.17108682, 4.910072, 8.790034, -0.008850932, -0.054977655, 10.069739
1195455974321281, -0.18185452, 4.8861437, 8.744571, -0.01535666, -0.048499107, 10.018602
1195455983960656, -0.19860429, 4.8705907, 8.691928, -0.025260568, -0.029612064, 9.96545
1195455993600135, -0.20458634, 4.863412, 8.617751, -0.020185947, -0.0016031265, 9.897467
1195456003239614, -0.17706887, 4.9136615, 8.60459, 0.027457952, 0.030452728, 9.9102335
1195456012879093, -0.1698904, 4.9603214, 8.6141615, 0.04894364, 0.05740404, 9.941416
1195456022518572, -0.16390835, 4.9495535, 8.636893, 0.043909788, 0.03281212, 9.955795
1195456032158051, -0.15553348, 4.95075, 8.629715, 0.05339861, 0.03299737, 9.949983
1195456041797531, -0.18185452, 4.930411, 8.610572, 0.028024673, 0.036810398, 9.923801
1195456051436906, -0.17467605, 4.8933225, 8.633304, 0.016664267, -0.0059809685, 9.925156
1195456061076385, -0.21535404, 4.889733, 8.590233, -0.0088220835, 0.027542591, 9.886714
1195456070715864, -0.2440679, 4.8789654, 8.567501, -0.034304142, 0.042182922, 9.8622
1195456080355343, -0.2213361, 4.8885365, 8.5938225, -0.015479684, 0.025574446, 9.889372
1195456089994822, -0.21655045, 4.900501, 8.585447, -0.0041931868, 0.03619647, 9.88789
