timestamp_acc,device_acc_x,device_acc_y,device_acc_z,earth_acc_x,earth_acc_y,earth_acc_z
1134744815341675, -1.5290136, 6.9619174, 6.4618177, 0.29881525, 0.13143301, 9.615337
1134744824981050, -1.5158532, 6.9523463, 6.4175506, 0.31556928, 0.14743137, 9.575832
1134744834620425, -1.5038891, 6.98106, 6.37089, 0.3450812, 0.18837881, 9.561932
1134744844259800, -1.4919249, 7.0025954, 6.4259253, 0.34579265, 0.1600585, 9.6129875
1134744853899175, -1.4811572, 7.0432734, 6.556334, 0.33643794, 0.08894062, 9.729643
1134744863538550, -1.5122639, 7.0540414, 6.74776, 0.26192904, -0.018257141, 9.874702
1134744873177820, -1.5672989, 7.082755, 6.910472, 0.18399227, -0.08205557, 10.016779
1134744882817195, -1.5900307, 7.1222367, 6.9822564, 0.16337276, -0.094109535, 10.09806
1134744892456570, -1.6749759, 7.1018977, 7.004988, 0.0770601, -0.0762105, 10.114376
1134744902095945, -1.7670995, 7.0432734, 7.0145597, -0.025293946, -0.06801844, 10.095994
1134744911735320, -1.841277, 7.001399, 6.977471, -0.09351766, -0.02841711, 10.054126
1134744921374695, -1.8508483, 6.977471, 6.946364, -0.10532951, -0.015978336, 10.017553
1134744931014070, -1.8221345, 6.983453, 6.940382, -0.07131171, -0.020068169, 10.012602
1134744940653445, -1.7659031, 7.0265236, 6.875776, 0.01328814, 0.022813797, 9.988295
1134744950292820, -1.7587247, 7.0348988, 6.829116, 0.033351064, 0.05328703, 9.960713
1134744959932195, -1.7551354, 6.991828, 6.8458657, 0.013643742, 0.015956402, 9.941409
1134744969571570, -1.7599211, 6.920043, 6.9188466, -0.0409528, -0.07310438, 9.94222
1134744979210945, -1.7455641, 6.876972, 7.0504518, -0.074385166, -0.19440031, 10.000263
1134744988850320, -1.7670995, 6.8410797, 7.0695944, -0.11495757, -0.21628332, 9.9921055
1134744998489695, -1.7778672, 6.826723, 7.02772, -0.11634803, -0.1890111, 9.955126
1134745008129070, -1.8113668, 6.843473, 6.966703, -0.118697524, -0.12093973, 9.930782
1134745017768445, -1.8065811, 6.8650084, 6.9224358, -0.09181738, -0.080666065, 9.914498
1134745027407820, -1.7383857, 6.897311, 6.8243303, 0.010145187, -0.03553152, 9.857233
1134745037047195, -1.68694, 6.9415784, 6.7130637, 0.10236275, 0.03653717, 9.80228
1134745046686599, -1.6510476, 6.9942207, 6.5754766, 0.19020593, 0.14157724, 9.737852
1134745056325870, -1.692922, 6.983453, 6.4606214, 0.17728758, 0.23022556, 9.658665
1134745065965245, -1.7551354, 6.9152575, 6.471389, 0.09219289, 0.20955944, 9.629524
1134745075604620, -1.814956, 6.8518476, 6.5515485, -0.0037335157, 0.14270067, 9.65113
1134745085243995, -1.8771694, 6.788438, 6.617351, -0.096509576, 0.08848047, 9.663273
1134745094883370, -1.8891335, 6.739385, 6.674779, -0.13853133, 0.024664402, 9.670627
1134745104522745, -1.9298115, 6.7298136, 6.7226353, -0.18255341, 0.0041418076, 9.704384
1134745114162016, -1.9764715, 6.7645097, 6.7058854, -0.20085335, 0.055993557, 9.725762
1134745123801391, -1.9657038, 6.859026, 6.6687965, -0.13956344, 0.12960148, 9.764568
1134745133440766, -1.9178474, 6.9296145, 6.6592255, -0.061814547, 0.15169525, 9.798783
1134745143080141, -1.8711873, 6.975078, 6.7011, -0.008394718, 0.1251421, 9.850994
1134745152719516, -1.8257236, 6.9726853, 6.754938, 0.015485883, 0.06450081, 9.878077
1134745162358891, -1.8340986, 6.9188466, 6.814759, -0.03157282, -8.134842E-4, 9.883031
1134745171998266, -1.8305093, 6.879365, 6.916454, -0.07059348, -0.09402752, 9.924713
1134745181637641, -1.8640088, 6.823134, 6.9738817, -0.1393162, -0.14504385, 9.930975
1134745191277016, -1.9286151, 6.751349, 6.936793, -0.2157569, -0.12611246, 9.866961
1134745200916391, -1.9573289, 6.7704916, 6.8949184, -0.21428835, -0.06809759, 9.856981
1134745210555766, -1.9824536, 6.7872415, 6.812366, -0.20880127, 0.005628586, 9.816389
1134745220195141, -1.9944177, 6.7872415, 6.6711893, -0.18193626, 0.10824919, 9.721333
1134745229834516, -1.9740787, 6.838687, 6.5084777, -0.10714209, 0.2395153, 9.641373
1134745239473891, -1.9310079, 6.862615, 6.3888364, -0.031800985, 0.31224298, 9.56781
1134745249113266, -1.9094725, 6.855437, 6.3517475, -0.008369684, 0.32170725, 9.533323
1134745258752641, -1.9549361, 6.8410797, 6.410372, -0.064829946, 0.29475546, 9.57204
1134745268392016, -2.024328, 6.818348, 6.626922, -0.18724298, 0.16515827, 9.718105
1134745278031391, -1.975275, 6.8075805, 6.8721867, -0.21024275, -0.028586388, 9.870502
1134745287670766, -1.9274186, 6.8602223, 7.085148, -0.20621598, -0.15517235, 10.045412
1134745297310141, -1.8855443, 6.9499536, 7.2861447, -0.18050063, -0.262609, 10.239311
1134745306949516, -1.8388842, 6.975078, 7.3830543, -0.15775847, -0.3301897, 10.315464
1134745316588891, -1.814956, 7.0229344, 7.3639116, -0.1147064, -0.29544258, 10.331622
1134745326228162, -1.68694, 7.0983086, 7.2670026, 0.04900205, -0.24518728, 10.294589
1134745335867537, -1.5146568, 7.149754, 7.152147, 0.24406779, -0.21798944, 10.220533
1134745345506912, -1.3686945, 7.2083783, 7.0085773, 0.4230162, -0.1546669, 10.136633
1134745355146287, -1.2466606, 7.2622166, 6.923632, 0.54743266, -0.1246748, 10.095316
1134745364785662, -1.119841, 7.2550383, 6.942775, 0.6495886, -0.19970703, 10.081165
1134745374425037, -1.1006985, 7.198807, 6.8853474, 0.6235994, -0.21435738, 10.000378
1134745384064412, -1.160519, 7.1485577, 6.8542404, 0.5452548, -0.19724083, 9.954551
1134745393703787, -1.2646067, 7.0636125, 6.829116, 0.42417812, -0.17471886, 9.895465
1134745403343162, -1.3890336, 7.0396843, 6.7429743, 0.31941926, -0.07141733, 9.841095
1134745412982537, -1.4883357, 7.0348988, 6.678368, 0.24684238, 0.012833118, 9.810426
1134745422621912, -1.5302101, 7.0695944, 6.6185474, 0.241745, 0.086625576, 9.801018
1134745432261287, -1.5469599, 7.111469, 6.5288167, 0.27096224, 0.16869402, 9.77188
1134745441900662, -1.5493526, 7.111469, 6.4558353, 0.28780437, 0.2120204, 9.722321
1134745451540037, -1.6414764, 7.066005, 6.3720865, 0.2095244, 0.28966522, 9.64876
1134745461179412, -1.7826529, 6.9762745, 6.317052, 0.060997248, 0.33999538, 9.572465
1134745470818787, -1.869991, 6.908079, 6.355337, -0.047462225, 0.31067848, 9.566085
1134745480458162, -1.9764715, 6.8506513, 6.437889, -0.1630733, 0.2632122, 9.6014805
1134745490097537, -2.1128623, 6.734599, 6.576673, -0.36422825, 0.1743722, 9.63891
1134745499736808, -2.2205393, 6.6257257, 6.745367, -0.53473926, 0.052333355, 9.697543
1134745509376183, -2.2911277, 6.5682983, 6.8506513, -0.6338376, -0.018835068, 9.742749
1134745519015558, -2.2875385, 6.593423, 6.9152575, -0.621714, -0.048889637, 9.804995
1134745528654933, -2.2265215, 6.6556363, 6.8781686, -0.51957834, -0.017754555, 9.8129425
1134745538294308, -2.1212373, 6.771688, 6.869794, -0.35667276, -6.8616867E-4, 9.870271
1134745547933683, -2.0685952, 6.8339014, 6.9248285, -0.29595017, -0.033818245, 9.942123
1134745557573058, -2.0350957, 6.8602223, 6.940382, -0.2534045, -0.047821045, 9.965274
1134745567212433, -2.003989, 6.8195443, 6.9188466, -0.2354685, -0.0695076, 9.9162655
1134745576851808, -1.9920249, 6.786045, 6.836294, -0.21783292, -0.03765154, 9.833851
1134745586491183, -1.9776679, 6.762117, 6.7585278, -0.19618177, -0.0046195984, 9.760974
1134745596130558, -1.9214365, 6.751349, 6.6711893, -0.13184011, 0.02204895, 9.68295
1134745605769933, -1.8711873, 6.74776, 6.600601, -0.0748359, 0.04506588, 9.622574
1134745615409308, -1.8065811, 6.792027, 6.5958157, 6.222725E-5, 0.04275751, 9.638378
1134745625048683, -1.7120646, 6.8865438, 6.5946193, 0.11448026, 0.050714493, 9.686535
1134745634687954, -1.5840486, 7.0205417, 6.6101727, 0.2747798, 0.051756382, 9.767981
1134745644327329, -1.5278172, 7.131808, 6.606583, 0.3745067, 0.08821535, 9.833405
1134745653966704, -1.4967105, 7.1820574, 6.619744, 0.40591037, 0.09126425, 9.87269
1134745663606079, -1.5601203, 7.160522, 6.623333, 0.33621502, 0.10675001, 9.871735
1134745673245454, -1.6163517, 7.131808, 6.6999035, 0.2530384, 0.06868124, 9.914397
1134745682884829, -1.6115661, 7.0839515, 6.7704916, 0.21604896, -0.002769947, 9.928363
1134745692524204, -1.6175481, 7.0612197, 6.788438, 0.19631839, -0.024646759, 9.925776
1134745702163579, -1.5816557, 7.045666, 6.8398833, 0.20609272, -0.08120346, 9.943741
1134745711802954, -1.5110675, 7.0337024, 6.8949184, 0.24609578, -0.15441751, 9.960512
1134745721442329, -1.4883357, 7.0325055, 6.930811, 0.24713719, -0.18255615, 9.980633
1134745731081704, -1.4883357, 7.09113, 6.9966135, 0.25396645, -0.1915307, 10.067307
1134745740721079, -1.5409778, 7.068398, 7.0779696, 0.17629123, -0.23304892, 10.116774
1134745750360350, -1.6211374, 7.062416, 7.160522, 0.08592248, -0.25206518, 10.183712
1134745759999725, -1.7336, 7.09113, 7.160522, 0.0020042658, -0.18294382, 10.223947
1134745769639100, -1.847259, 7.0636125, 7.0983086, -0.09022403, -0.09879494, 10.1820965
1134745779278475, -1.8855443, 7.021738, 7.0803623, -0.13344121, -0.0898056, 10.147205
1134745788917850, -1.8747765, 7.0301127, 7.018149, -0.10044241, -0.050453663, 10.108366
1134745798557225, -1.8460627, 6.9930243, 6.8446693, -0.045231223, 0.028576374, 9.95776
1134745808196600, -1.8580267, 6.908079, 6.587441, -0.025250435, 0.15652084, 9.723326
1134745817835975, -1.9286151, 6.786045, 6.3768725, -0.08811188, 0.26012564, 9.505737
1134745827475350, -1.9477576, 6.68435, 6.2644095, -0.12145734, 0.281322, 9.360729
1134745837114725, -1.9369899, 6.65444, 6.2524457, -0.11820793, 0.25905657, 9.329817
1134745846753995, -1.9621146, 6.629315, 6.2584276, -0.14612377, 0.24708176, 9.321117
1134745856393370, -2.0877378, 6.6819572, 6.306284, -0.23289752, 0.30081034, 9.414442
1134745866032745, -2.0614166, 6.390033, 6.2775702, -0.3344128, 0.14848661, 9.184551
1134745875672120, -2.251646, 6.890133, 6.5491557, -0.3241824, 0.32162333, 9.758419
1134745885311495, -2.0051854, 6.829116, 6.6735826, -0.16655886, 0.08467865, 9.754967
1134745894950870, -2.2875385, 6.5407805, 6.7011, -0.53749347, 0.0682044, 9.624231
1134745904590245, -1.9082761, 7.3064837, 7.1569324, 0.034205317, -0.03109169, 10.404122
1134745914229620, -2.065006, 6.2237315, 6.707082, -0.5018101, -0.20627403, 9.364275
1134745923868995, -1.753939, 7.600801, 7.314859, 0.264292, -0.05186081, 10.690329
1134745933508266, -1.8388842, 6.1902323, 6.658029, -0.3114351, -0.3033023, 9.265035
1134745943147641, -1.7527425, 7.5146594, 7.192825, 0.25216246, 0.0047073364, 10.545867
1134745952787016, -1.6390835, 6.5575304, 6.611369, 0.044258833, -0.16978025, 9.453423
1134745962426391, -1.7635103, 7.312466, 6.8339014, 0.23057461, 0.15493822, 10.159094
1134745972065766, -1.5074782, 7.1078796, 6.698707, 0.38247526, 0.015753746, 9.875252
1134745981705141, -1.8496519, 6.789634, 6.649654, -0.052896023, 0.037216663, 9.681636
1134745991344516, -1.5864414, 7.4416785, 7.07438, 0.3716284, -0.016563416, 10.382864
1134746000983891, -1.8424734, 6.3589263, 6.6891356, -0.25517106, -0.22752428, 9.405228
1134746010623266, -1.5517455, 7.737192, 7.2789664, 0.4731344, -0.017305374, 10.725262
1134746020262537, -1.707279, 6.346962, 6.538388, -0.12439704, -0.19364595, 9.268024
1134746029901912, -1.6271194, 7.726424, 7.1617184, 0.42288888, 0.092345715, 10.651197
1134746039541287, -1.5816557, 6.6257257, 6.7238317, 0.0617553, -0.2246499, 9.568569
1134746049180662, -1.8185452, 7.314859, 7.1377897, 0.07010496, -0.019473076, 10.380609
1134746058820037, -1.6761723, 6.8985076, 6.948757, 0.041048765, -0.18480873, 9.932187
1134746068459412, -1.989632, 6.698707, 6.7728844, -0.2729888, -0.012942791, 9.727723
1134746078098787, -1.6642082, 7.3196445, 6.9248285, 0.2573477, 0.047847748, 10.209385
1134746087738058, -1.8999012, 6.3050876, 6.4498534, -0.2953701, -0.059653282, 9.212685
1134746097377433, -1.6534405, 7.598408, 6.940382, 0.3958, 0.17497587, 10.413996
1134746107016808, -1.8723837, 6.192625, 6.2117677, -0.26214397, 0.021573544, 8.965004
1134746116656183, -1.8436699, 7.5314093, 6.882954, 0.21467745, 0.26622057, 10.362401
1134746126295558, -1.9190438, 6.2488565, 6.4881387, -0.34127414, -0.115695, 9.203098
1134746135934933, -2.152344, 7.056434, 6.8482585, -0.25278616, 0.18414927, 10.061147
1134746145574308, -1.98365, 6.695118, 6.5898337, -0.20811212, 0.080078125, 9.598733
1134746155213579, -2.1631117, 6.672386, 6.541977, -0.35287642, 0.19347668, 9.583075
1134746164852954, -1.7611175, 7.26102, 6.8255267, 0.19282365, 0.10054541, 10.117533
1134746174492329, -1.9884356, 6.35773, 6.4199433, -0.32745504, 0.020263195, 9.245683
1134746184131704, -1.6618153, 7.628319, 6.9678993, 0.40922618, 0.14017248, 10.455496
1134746193771079, -1.8197416, 6.2380886, 6.343373, -0.22854781, -0.082057, 9.077701
1134746203410454, -1.7108682, 7.6067834, 6.983453, 0.35039175, 0.14753866, 10.460131
1134746213049725, -1.7228323, 6.37089, 6.4761744, -0.12345517, -0.15136194, 9.244408
1134746222689100, -1.8508483, 7.2861447, 6.9116683, 0.09206164, 0.10424662, 10.211042
1134746232328475, -1.6953149, 6.7848487, 6.6855464, 0.039008737, -0.086640835, 9.67449
1134746241967850, -1.9704895, 6.855437, 6.708278, -0.16358268, 0.08045483, 9.79018
1134746251607225, -1.6630118, 7.332805, 6.923632, 0.26419997, 0.028069496, 10.217718
1134746261246600, -1.9214365, 6.4977098, 6.5814586, -0.2665125, -0.04564953, 9.442174
1134746270885870, -1.6271194, 7.706085, 7.153343, 0.40293336, 0.054943085, 10.631847
1134746280525245, -1.7659031, 6.32423, 6.5635123, -0.2128774, -0.20397282, 9.27939
1134746290164620, -1.6462619, 7.776674, 7.1581287, 0.40481305, 0.10949373, 10.688768
1134746299803995, -1.7096717, 6.483353, 6.5072813, -0.08454311, -0.107949734, 9.342524
1134746309443370, -1.847259, 7.4380894, 6.983453, 0.11607599, 0.14757156, 10.366817
1134746319082745, -1.6833507, 6.7669024, 6.739385, 0.0063660145, -0.12807178, 9.696779
1134746328722016, -1.9154545, 6.8949184, 6.8339014, -0.15490341, -0.006731987, 9.893787
1134746338361391, -1.6809579, 7.1808605, 7.0839515, 0.11429846, -0.14123821, 10.224466
1134746348000766, -1.9884356, 6.283552, 6.725028, -0.46838152, -0.23037338, 9.401619
1134746357640141, -1.707279, 7.456035, 7.0875406, 0.22542918, 0.017895222, 10.425419
1134746367279516, -1.9441684, 6.1184473, 6.290731, -0.39694703, -0.026372433, 8.979435
1134746376918787, -1.753939, 7.564909, 6.893722, 0.28247976, 0.22603178, 10.377701
1134746386558162, -1.7754744, 6.2512493, 6.334998, -0.20179546, -0.082849026, 9.072764
1134746396197537, -1.8448663, 7.3304124, 6.8602223, 0.103045225, 0.16625929, 10.20602
1134746405836912, -1.747957, 6.6364937, 6.5778694, -0.05993271, -0.061075687, 9.505758
1134746415476287, -2.0350957, 6.8614187, 6.660422, -0.22109616, 0.1403842, 9.77309
1134746425115558, -1.7395821, 7.133004, 6.762117, 0.13794208, 0.07379818, 9.980363
1134746434754933, -2.0398812, 6.4594245, 6.4462643, -0.35019374, 0.07316637, 9.344069
1134746444394308, -1.7443677, 7.5529447, 6.9535427, 0.27786458, 0.17734432, 10.40831
1134746454033683, -1.9441684, 6.209375, 6.3924255, -0.3687333, -0.06969595, 9.11364
1134746463673058, -1.6438692, 7.6893353, 6.9786673, 0.42929208, 0.18166637, 10.502985
1134746473312329, -1.6642082, 6.361319, 6.2883377, -0.031974077, -0.05174017, 9.098103
1134746482951704, -1.6749759, 7.4907312, 6.826723, 0.33391273, 0.19296503, 10.265087
1134746492591079, -1.5302101, 6.7022963, 6.580262, 0.15277243, -0.13377666, 9.51425
1134746502230454, -1.7886349, 7.0540414, 6.8662047, 0.014754653, -0.012306213, 10.005156
1134746511869829, -1.5493526, 7.1617184, 7.021738, 0.22480798, -0.17234421, 10.144715
1134746521509100, -1.847259, 6.5575304, 6.8949184, -0.2790979, -0.25381422, 9.685617
1134746531148475, -1.5625132, 7.5996046, 7.3806615, 0.32414496, -0.1708169, 10.70212
1134746540787850, -1.814956, 6.3541408, 6.7728844, -0.3160596, -0.2845192, 9.453056
1134746550427225, -1.6139588, 7.84128, 7.298109, 0.41591465, 0.04653597, 10.824869
1134746560066600, -1.7395821, 6.4259253, 6.5228343, -0.14993834, -0.112318516, 9.318312
1134746569705870, -1.7838492, 7.580462, 6.946364, 0.24412882, 0.2309866, 10.429983
1134746579345245, -1.7096717, 6.6424756, 6.4821568, -0.0136199, 0.009296417, 9.437349
1134746588984620, -1.9417756, 7.0085773, 6.6795645, -0.08394027, 0.18092251, 9.87256
1134746598623995, -1.68694, 6.9702926, 6.7202425, 0.101714134, 0.003396988, 9.827616
1134746608263266, -2.0135603, 6.373283, 6.4881387, -0.39000762, 0.0063552856, 9.306824
1134746617902641, -1.7240287, 7.2861447, 6.9128647, 0.17346728, 0.055583477, 10.18895
1134746627542016, -1.9645073, 6.084948, 6.326623, -0.43599498, -0.07625055, 8.984217
1134746637181391, -1.8029919, 7.560123, 6.916454, 0.2350986, 0.23948479, 10.398605
1134746646820662, -1.9848464, 6.1507506, 6.3290157, -0.41911948, -0.032861233, 9.036097
1134746656460037, -1.9788643, 7.4177504, 7.024131, -0.00141716, 0.17528105, 10.404163
1134746666099412, -1.8855443, 6.5108705, 6.7226353, -0.261508, -0.14645576, 9.542048
1134746675738787, -1.9824536, 7.099505, 7.02772, -0.14824677, 0.008497715, 10.183315
1134746685378058, -1.6402799, 7.1282187, 6.940382, 0.17914844, -0.08050108, 10.081287
1134746695017433, -1.8687944, 6.775277, 6.6963143, -0.1222384, 0.0076565742, 9.706821
1134746704656808, -1.5098711, 7.6067834, 7.105487, 0.45734847, -0.00906086, 10.508166
1134746714296183, -1.7706888, 6.384051, 6.5946193, -0.21006846, -0.18075228, 9.343642
1134746723935558, -1.599602, 7.745567, 7.2299137, 0.41323423, 0.027281284, 10.7076
1134746733574829, -1.7431713, 6.273981, 6.524031, -0.21850657, -0.20540762, 9.212736
1134746743214204, -1.727618, 7.5385876, 7.038488, 0.25309217, 0.12437391, 10.453505
1134746752853579, -1.6522441, 6.559923, 6.6556363, -0.04233086, -0.18781042, 9.488043
1134746762492954, -1.7491534, 7.2526455, 6.977471, 0.112746716, 0.013443947, 10.2143345
1134746772132225, -1.550549, 7.0672016, 6.8446693, 0.22439432, -0.09441328, 9.956897
1134746781771600, -1.8640088, 6.7166533, 6.6041903, -0.14489067, 0.032093525, 9.601108
1134746791410975, -1.5194423, 7.5086775, 6.957132, 0.42416906, 0.04363489, 10.339672
1134746801050350, -1.7826529, 6.3768725, 6.5479593, -0.21594632, -0.15366983, 9.308484
1134746810689620, -1.6151553, 7.6534433, 7.149754, 0.37403142, 0.03307581, 10.590652
1134746820328995, -1.8293129, 6.151947, 6.4366927, -0.32729006, -0.18085623, 9.082072
1134746829968370, -1.8113668, 7.4787674, 6.9116683, 0.18585145, 0.19509697, 10.339806
1134746839607745, -1.7706888, 6.3720865, 6.3720865, -0.15071356, -0.04950714, 9.182436
1134746849247016, -1.9202402, 7.1282187, 6.6771717, -0.004765868, 0.21340036, 9.951778
1134746858886391, -1.6821543, 6.8745794, 6.4666033, 0.13576674, 0.10368538, 9.585263
1134746868525766, -1.9800607, 6.698707, 6.3517475, -0.17310262, 0.22762775, 9.436962
1134746878165037, -1.6582261, 7.379465, 6.7501526, 0.3197348, 0.1626463, 10.131245
1134746887804412, -1.9250258, 6.337391, 6.3696938, -0.29285443, -0.010761738, 9.184518
1134746897443787, -1.7204394, 7.68455, 6.991828, 0.347399, 0.18258524, 10.523491
1134746907083162, -1.9465612, 6.2440705, 6.3625154, -0.3500651, -0.04389429, 9.11782
1134746916722537, -1.8735801, 7.5720873, 7.04447, 0.15382922, 0.16335535, 10.508141
1134746926361808, -1.8568304, 6.3792653, 6.573084, -0.2617215, -0.15578079, 9.341066
1134746936001183, -2.0171494, 7.2059855, 6.9858456, -0.107788086, 0.08686781, 10.236113
1134746945640558, -1.8281165, 6.812366, 6.835098, -0.09934187, -0.11445379, 9.82069
1134746955279829, -2.12363, 6.647261, 6.7298136, -0.39165556, 0.02187109, 9.686713
1134746964919204, -1.8137596, 7.239485, 6.928418, 0.09815085, 0.03909254, 10.182911
1134746974558579, -2.0901306, 6.2691956, 6.4905314, -0.47476947, -0.032061577, 9.250515
1134746984197954, -1.7503498, 7.5936227, 7.119844, 0.28241527, 0.06607723, 10.551535
1134746993837225, -1.8783658, 6.239285, 6.478567, -0.30825388, -0.14448738, 9.182204
1134747003476600, -1.7216359, 7.649854, 7.111469, 0.3347615, 0.088959694, 10.580044
1134747013115975, -1.7204394, 6.4343, 6.530013, -0.094081044, -0.16083765, 9.3255825
1134747022755350, -1.8376877, 7.3567333, 6.906883, 0.14400768, 0.13212776, 10.25502
1134747032394620, -1.6498512, 6.869794, 6.768099, 0.10700405, -0.12502384, 9.782442
1134747042033995, -1.9657038, 6.806384, 6.775277, -0.19129753, -0.0072522163, 9.800947
1134747051673370, -1.7024933, 7.283752, 6.9523463, 0.21072698, 0.0032043457, 10.209909
1134747061312641, -1.9788643, 6.3696938, 6.5001025, -0.33229256, -0.0483346, 9.307387
1134747070952016, -1.5984055, 7.6031938, 7.079166, 0.42248428, 0.039273262, 10.502286
1134747080591391, -1.719243, 6.2404814, 6.442675, -0.1570121, -0.20874977, 9.129034
1134747090230766, -1.585245, 7.696514, 7.0085773, 0.4838767, 0.13561344, 10.51746
1134747099870037, -1.678565, 6.401997, 6.381658, -0.040764928, -0.09749842, 9.193342
1134747109509412, -1.948954, 7.3268228, 6.765706, 0.052265167, 0.27296066, 10.157672
1134747119148787, -1.7814565, 6.782456, 6.7118673, -0.031892896, -0.06841421, 9.7066345
1134747128788162, -1.9262222, 6.923632, 6.8985076, -0.13722908, -0.051513672, 9.96067
1134747138427433, -1.6390835, 7.348358, 7.1473613, 0.24273586, -0.123325825, 10.37765
1134747148066808, -1.8771694, 6.4941206, 6.7633133, -0.26593137, -0.20785475, 9.556456
1134747157706183, -1.6043876, 7.6737823, 7.280163, 0.38109303, -0.06162882, 10.691713
1134747167345454, -1.855634, 6.2608204, 6.6759753, -0.339455, -0.28019857, 9.328245
1134747176984829, -1.7467605, 7.649854, 7.210771, 0.2646668, 0.043893814, 10.653389
1134747186624204, -1.7946169, 6.344569, 6.485746, -0.19583583, -0.13694572, 9.245648
1134747196263579, -1.8604196, 7.416554, 6.897311, 0.15091288, 0.18347168, 10.2948
1134747205902850, -1.7168503, 6.734599, 6.652047, 0.018475056, -0.08862591, 9.619977
1134747215542225, -1.995614, 6.899704, 6.7322063, -0.15831852, 0.086181164, 9.842688
1134747225181600, -1.7886349, 7.1365933, 6.8243303, 0.11412549, 0.038721085, 10.034298
1134747234820870, -2.0781665, 6.38764, 6.465407, -0.39196098, 0.025569916, 9.31493
1134747244460245, -1.7838492, 7.4823565, 6.914061, 0.26502264, 0.15479183, 10.338173
1134747254099620, -2.0003998, 6.1603217, 6.306284, -0.38497007, -0.028622627, 9.031687
1134747263738891, -1.7551354, 7.6031938, 6.9044895, 0.35192466, 0.20275259, 10.411345
1134747273378266, -1.7838492, 6.282356, 6.270392, -0.13987708, -0.055220127, 9.052366
1134747283017641, -1.867598, 7.365108, 6.7968125, 0.16779757, 0.19927406, 10.191248
1134747292657016, -1.8113668, 6.5312095, 6.4821568, -0.09725118, -0.05784273, 9.37781
1134747302296287, -2.0781665, 6.8482585, 6.6352973, -0.21133757, 0.13983774, 9.7560425
1134747311935662, -1.8257236, 7.021738, 6.734599, 0.06712425, 0.037635326, 9.898838
1134747321575037, -2.1332014, 6.3864436, 6.478567, -0.4274261, 0.03295088, 9.334091
1134747331214308, -1.8592232, 7.4823565, 7.018149, 0.1839099, 0.105900764, 10.4236145
1134747340853683, -2.0889342, 6.236892, 6.5001025, -0.46425033, -0.07481384, 9.235405
1134747350493058, -1.8305093, 7.7312098, 7.18445, 0.2852106, 0.11473751, 10.707203
1134747360132433, -1.847259, 6.4008007, 6.567102, -0.20068061, -0.16146517, 9.351101
1134747369771704, -1.8293129, 7.5625157, 7.0528445, 0.2335664, 0.108753204, 10.4983
1134747379411079, -1.7826529, 6.65444, 6.678368, -0.06262493, -0.13204288, 9.593678
1134747389050454, -2.070988, 7.0193453, 6.9020967, -0.19012463, 0.062030315, 10.057791
1134747398689829, -1.7826529, 7.062416, 6.984649, 0.0473212, -0.12478256, 10.090743
1134747408329100, -2.0171494, 6.558727, 6.8051877, -0.34404898, -0.13921738, 9.657049
1134747417968475, -1.6354942, 7.585248, 7.26102, 0.3497336, -0.09991026, 10.620779
1134747427607850, -1.8664017, 6.3457656, 6.7022963, -0.28900206, -0.26540232, 9.408455
1134747437247120, -1.6558332, 7.771888, 7.34118, 0.38965178, -0.050026417, 10.811226
1134747446886495, -1.7623138, 6.3517475, 6.6568327, -0.18894613, -0.2844267, 9.362013
1134747456525870, -1.7264216, 7.6163545, 7.1748786, 0.2948656, 0.019711971, 10.600989
1134747466165141, -1.6354942, 6.6221366, 6.68435, 0.039606452, -0.22236586, 9.547621
1134747475804516, -1.8484555, 7.076773, 6.7908306, 0.034729123, 0.047822952, 9.980452
1134747485443891, -1.5984055, 6.9894347, 6.6101727, 0.254318, 0.0015287399, 9.748682
1134747495083266, -1.875973, 6.485746, 6.236892, -0.1201005, 0.118085384, 9.18992
1134747504722537, -1.5182459, 7.359126, 6.4761744, 0.5348265, 0.22307587, 9.90287
1134747514361912, -1.6953149, 6.218946, 5.8157554, 0.01075542, 0.15760255, 8.68029
1134747524001287, -1.4285151, 7.725228, 6.3960147, 0.7994398, 0.40957165, 10.090687
1134747533640558, -1.5541383, 6.3828545, 5.8277197, 0.1940912, 0.15283895, 8.778237
1134747543279933, -1.5780666, 7.7407813, 6.5718875, 0.61751807, 0.3727212, 10.250826
1134747552919308, -1.6618153, 6.7728844, 6.4701924, 0.11434972, -0.021674633, 9.512278
1134747562558683, -1.9310079, 7.3603225, 7.064809, 0.0031841993, 0.022794724, 10.383358
1134747572197954, -1.7946169, 7.146165, 7.2670026, -0.041330814, -0.29161167, 10.344607
1134747581837329, -2.1260228, 6.7525454, 7.2119675, -0.48891425, -0.2696004, 10.090471
1134747591476704, -1.8293129, 7.513463, 7.5122666, 0.04420352, -0.24398184, 10.778275
1134747601115975, -2.1499512, 6.3278193, 6.9355965, -0.62622213, -0.28620243, 9.606874
1134747610755350, -1.9740787, 7.57448, 7.3986077, 0.017140627, -0.052353382, 10.770613
1134747620394725, -2.2157538, 6.050252, 6.532406, -0.68611336, -0.13472891, 9.148691
1134747630034100, -2.254039, 7.3567333, 6.948757, -0.19613564, 0.2825241, 10.36191
1134747639673370, -2.204986, 6.2751775, 6.45105, -0.54741704, 0.0222435, 9.249632
1134747649312745, -2.271985, 7.0085773, 6.7238317, -0.328614, 0.2443285, 9.966158
1134747658952120, -1.9154545, 6.8195443, 6.5288167, -0.07001841, 0.095831394, 9.632576
1134747668591391, -2.1020947, 6.5922265, 6.334998, -0.28942823, 0.18677378, 9.374956
1134747678230766, -1.6965113, 7.2466636, 6.5922265, 0.2984376, 0.16590977, 9.936455
1134747687870141, -1.9357935, 6.096912, 6.064609, -0.30487227, 0.021272182, 8.80941
1134747697509516, -1.6522441, 7.3746796, 6.6795645, 0.37500894, 0.14400053, 10.078246
1134747707148787, -1.861616, 5.9473605, 6.1603217, -0.3365345, -0.15565729, 8.75493
1134747716788162, -1.8987048, 7.3292155, 6.863812, 0.10021806, 0.11979675, 10.218121
1134747726427537, -2.0051854, 6.2524457, 6.5682983, -0.42127717, -0.1860261, 9.276007
1134747736066808, -2.181058, 7.216753, 7.1916285, -0.2814201, -0.0023322105, 10.415319
1134747745706183, -1.881955, 7.0695944, 7.2993054, -0.13092911, -0.30381012, 10.32915
1134747755345558, -2.012364, 7.103094, 7.3399835, -0.24020696, -0.24369097, 10.404894
1134747764984933, -1.5696917, 7.82453, 7.611569, 0.38683867, -0.28161573, 11.017906
1134747774624204, -1.8340986, 6.7812595, 7.064809, -0.19625473, -0.311697, 9.956167
1134747784263579, -1.5290136, 7.9657063, 7.4356966, 0.52694345, -0.11608696, 10.9903965
1134747793902954, -1.6821543, 6.430711, 6.465407, -0.07259631, -0.17868567, 9.270813
1134747803542329, -1.5696917, 7.739585, 6.768099, 0.5781454, 0.22365999, 10.382099
1134747813181600, -1.5672989, 6.4642105, 6.0801625, 0.15543604, 0.026352882, 9.010325
1134747822820975, -1.7001005, 7.283752, 6.4008007, 0.3548553, 0.29927015, 9.833523
1134747832460350, -1.5421742, 6.8243303, 6.2309103, 0.3132999, 0.09109926, 9.363096
1134747842099620, -1.8915263, 6.7501526, 6.2787666, -0.028732061, 0.2014041, 9.408716
1134747851738995, -1.6295122, 7.2490563, 6.6819572, 0.32336056, 0.045904636, 9.987291
1134747861378370, -1.9549361, 6.352944, 6.4366927, -0.31448948, -0.0814805, 9.247007
1134747871017745, -1.719243, 7.6307116, 7.1210403, 0.30792868, -0.004971981, 10.573455
1134747880657016, -1.9728823, 6.273981, 6.5515485, -0.39829874, -0.19638681, 9.272577
1134747890296391, -1.9262222, 7.716853, 7.153343, 0.16574156, 0.12585163, 10.695194
1134747899935766, -2.036292, 6.40439, 6.558727, -0.39009213, -0.09588432, 9.3818035
1134747909575037, -2.1667008, 7.3160553, 6.8709903, -0.14410102, 0.22738028, 10.26437
1134747919214412, -2.0147567, 6.698707, 6.5228343, -0.20632803, 0.061193466, 9.562059
1134747928853787, -2.2827528, 6.68435, 6.40439, -0.40822327, 0.2705903, 9.521966
1134747938493162, -1.9800607, 7.024131, 6.4821568, -0.010237694, 0.24120331, 9.758029
1134747948132433, -2.231307, 6.134001, 6.0227346, -0.52559614, 0.2093029, 8.863294
1134747957771808, -1.9274186, 7.361519, 6.5479593, 0.17539084, 0.34602594, 10.031559
1134747967411183, -2.158326, 6.0430737, 6.078966, -0.5285896, 0.10252142, 8.822756
1134747977050558, -1.9944177, 7.5026956, 7.007381, 0.061310172, 0.14470577, 10.456903
1134747986689829, -1.9764715, 6.303891, 6.762117, -0.44713497, -0.30373192, 9.438196
1134747996329204, -1.9908284, 7.4823565, 7.4536424, -0.08140731, -0.15399313, 10.745953
1134748005968579, -1.7706888, 6.940382, 7.3603225, -0.14501119, -0.47715807, 10.2581625
1134748015607954, -1.9274186, 7.153343, 7.452446, -0.20622718, -0.34246254, 10.500686
1134748025247225, -1.6091732, 7.4536424, 7.347162, 0.2242446, -0.28295374, 10.582846
1134748034886600, -1.8281165, 6.6999035, 6.9320073, -0.21261895, -0.2741747, 9.806276
1134748044525975, -1.4129617, 7.8173513, 7.271788, 0.5655476, -0.14891052, 10.753805
1134748054165350, -1.6007984, 6.391229, 6.3565335, -0.022085309, -0.17051315, 9.153487
1134748063804620, -1.422533, 7.8017983, 6.686743, 0.70559955, 0.223948, 10.346794
1134748073443995, -1.4847465, 6.3924255, 5.928218, 0.1855315, 0.047177315, 8.841645
1134748083083370, -1.5756737, 7.446464, 6.390033, 0.4837246, 0.33023024, 9.92079
1134748092722641, -1.4380864, 6.7238317, 6.155536, 0.32280505, 0.041728497, 9.222943
1134748102362016, -1.7312071, 7.0432734, 6.34098, 0.17754853, 0.23076439, 9.629541
1134748112001391, -1.4991034, 7.2526455, 6.538388, 0.42178702, 0.10062218, 9.869683
1134748121640766, -1.8221345, 6.5742803, 6.350551, -0.11753607, 0.025540829, 9.319675
1134748131280037, -1.5421742, 7.655836, 6.940382, 0.47137213, 0.056860447, 10.437126
1134748140919412, -1.8687944, 6.3122663, 6.430711, -0.2919649, -0.14803457, 9.196955
1134748150558787, -1.7551354, 7.7108707, 7.1186476, 0.27349734, 0.08795309, 10.63629
1134748160198162, -1.8855443, 6.2931237, 6.5144596, -0.3354572, -0.19953299, 9.24362
1134748169837433, -1.9166509, 7.479964, 6.9702926, 0.07087147, 0.14085245, 10.401132
1134748179476808, -1.7862421, 6.664011, 6.552745, -0.089414, -0.06855631, 9.514488
1134748189116183, -2.0267208, 7.0672016, 6.62094, -0.12206626, 0.22005272, 9.890726
1134748198755558, -1.7886349, 7.1377897, 6.7118673, 0.09224248, 0.07653284, 9.95902
1134748208394829, -2.1284158, 6.5515485, 6.5982084, -0.44107616, 0.026725292, 9.528591
1134748218034204, -1.8340986, 7.548159, 7.2562346, 0.10301471, -0.053678513, 10.629114
1134748227673579, -2.085345, 6.24766, 6.875776, -0.63385856, -0.31746292, 9.495033
1134748237312954, -1.9130617, 7.6103725, 7.5720873, -0.023956776, -0.18437195, 10.903191
1134748246952225, -2.024328, 6.1854467, 6.8853474, -0.61430776, -0.392097, 9.446404
1134748256591600, -2.0195422, 7.4213395, 7.2789664, -0.12016773, -0.030399323, 10.588806
1134748266230975, -1.8891335, 6.5455666, 6.7501526, -0.2865969, -0.19484901, 9.584244
1134748275870350, -2.036292, 7.0432734, 6.8279195, -0.19058251, 0.080420494, 10.016581
1134748285509725, -1.7144574, 7.055238, 6.666404, 0.1283896, 0.02692175, 9.855936
1134748295148995, -1.9477576, 6.6077795, 6.3086767, -0.18088019, 0.16159916, 9.337936
1134748304788370, -1.5876378, 7.5122666, 6.6687965, 0.44792056, 0.19372654, 10.15822
1134748314427745, -1.7958134, 6.314659, 6.1627145, -0.16622555, 0.020515442, 9.002825
1134748324067120, -1.5696917, 7.7551384, 6.882954, 0.51191306, 0.15961218, 10.473473
1134748333706391, -1.7012969, 6.3720865, 6.3122663, -0.104726195, -0.09846163, 9.128086
1134748343345766, -1.7096717, 7.641479, 6.8925257, 0.3408209, 0.16390657, 10.424927
1134748352985141, -1.666601, 6.641279, 6.5252275, -0.0059438944, -0.12209749, 9.457685
1134748362624516, -1.8891335, 7.213164, 6.8662047, -0.0034089088, 0.061552525, 10.136051
1134748372263787, -1.6905292, 7.070791, 6.88774, 0.088379264, -0.12769556, 10.013531
1134748381903162, -1.9573289, 6.6735826, 6.6915283, -0.27192903, -0.064528465, 9.647087
1134748391542537, -1.6235301, 7.5182486, 7.045666, 0.30749178, -0.037632465, 10.426186
1134748401181912, -1.867598, 6.343373, 6.485746, -0.3066082, -0.13638592, 9.256272
1134748410821287, -1.6247265, 7.732406, 7.07438, 0.39856625, 0.038440228, 10.59794
1134748420460558, -1.8017955, 6.3326054, 6.40439, -0.23773742, -0.12546635, 9.181084
1134748430099933, -1.7922242, 7.6402826, 6.9966135, 0.2442553, 0.13266754, 10.510059
1134748439739308, -1.7754744, 6.5718875, 6.62094, -0.16121495, -0.15903378, 9.493554
1134748449378683, -1.9274186, 7.2323065, 6.954739, -0.052459717, 0.03304243, 10.216935
1134748459017954, -1.7060826, 7.0169525, 6.8506513, 0.055609226, -0.12867689, 9.952894
1134748468657329, -2.0063818, 6.7405815, 6.680761, -0.2735021, 0.012263298, 9.69632
1134748478296704, -1.7180467, 7.4189467, 6.966703, 0.21415544, 0.0067272186, 10.318987
1134748487936079, -2.0195422, 6.259624, 6.4462643, -0.45084727, -0.080654144, 9.198153
1134748497575454, -1.7647067, 7.62114, 6.9822564, 0.27494454, 0.12140131, 10.481293
1134748507214725, -1.8687944, 6.196214, 6.259624, -0.29625154, -0.07654381, 8.998596
1134748516854100, -1.7922242, 7.5433736, 6.8243303, 0.24691892, 0.20538712, 10.323898
1134748526493475, -1.7371893, 6.4462643, 6.35773, -0.09084737, -0.08542156, 9.218315
1134748536132850, -1.9142581, 7.251449, 6.7381887, 0.028049111, 0.17035961, 10.080739
1134748545772225, -1.7084754, 6.96431, 6.6676, 0.09428811, -0.033294678, 9.791191
1134748555411495, -1.9740787, 6.8135624, 6.6221366, -0.19229841, 0.042116642, 9.702349
1134748565050870, -1.6761723, 7.4476604, 6.966703, 0.26835406, 0.013907909, 10.331502
1134748574690245, -1.963311, 6.4271216, 6.5754766, -0.34393024, -0.14841652, 9.394629
1134748584329620, -1.68694, 7.7276206, 7.1856465, 0.3360392, 0.022630692, 10.680915
1134748593968995, -1.8364913, 6.3086767, 6.530013, -0.28431857, -0.22847795, 9.256356
1134748603608266, -1.7144574, 7.676175, 7.079166, 0.3135457, 0.07479477, 10.577038
1134748613247641, -1.6881363, 6.4965134, 6.498906, -0.06435394, -0.17230844, 9.341117
1134748622887016, -1.82692, 7.351948, 6.8243303, 0.13505685, 0.12257767, 10.194459
1134748632526391, -1.6546369, 6.890133, 6.641279, 0.10825825, -0.08346176, 9.710801
1134748642165766, -1.9585253, 6.789634, 6.6053867, -0.18450868, 0.04073286, 9.671111
1134748651805037, -1.6893328, 7.3459654, 6.843473, 0.24671483, 0.037525654, 10.1778145
1134748661444412, -2.0051854, 6.391229, 6.4331036, -0.36200583, -0.032841206, 9.280155
1134748671083787, -1.774278, 7.6390862, 7.079166, 0.2565621, 0.07506466, 10.561573
1134748680723162, -1.9944177, 6.2117677, 6.512067, -0.4476843, -0.19189739, 9.205081
1134748690362537, -1.8795621, 7.628319, 7.075577, 0.16459918, 0.12367773, 10.570969
1134748700001912, -1.9106688, 6.378069, 6.378069, -0.26411426, -0.051917553, 9.216167
1134748709641183, -1.9812572, 7.3052874, 6.745367, 0.0022529364, 0.22224474, 10.136232
1134748719280558, -1.747957, 6.815955, 6.567102, 0.029695034, -0.030471802, 9.624844
1134748728919933, -1.9740787, 6.856633, 6.6305118, -0.16229022, 0.05544758, 9.738824
1134748738559308, -1.6797615, 7.2789664, 6.859026, 0.22579825, -0.02697134, 10.139008
1134748748198683, -1.995614, 6.3768725, 6.550352, -0.38431, -0.12866402, 9.348253
1134748757838058, -1.68694, 7.6259255, 7.133004, 0.30776405, -0.026863098, 10.572833
1134748767477329, -1.8951155, 6.2847486, 6.5276203, -0.34676635, -0.19637871, 9.248814
1134748777116704, -1.7754744, 7.7312098, 7.1617184, 0.2775706, 0.051085472, 10.683374
1134748786756079, -1.8293129, 6.4498534, 6.6305118, -0.23860824, -0.20956993, 9.423897
1134748796395454, -1.881955, 7.475178, 7.07438, 0.0911839, 0.035091877, 10.462187
1134748806034829, -1.7060826, 6.856633, 6.6975107, 0.039153576, -0.11679506, 9.734762
1134748815674204, -1.9334008, 6.9762745, 6.599405, -0.062669754, 0.12989044, 9.794784
1134748825313475, -1.5876378, 7.3052874, 6.6771717, 0.36164403, 0.05496502, 10.016918
1134748834952850, -1.8460627, 6.6568327, 6.3768725, -0.084218025, 0.0680294, 9.400753
1134748844592225, -1.7371893, 7.1007013, 6.7298136, 0.11691213, -0.0030202866, 9.935516
1134748854231600, -1.7706888, 6.9583282, 6.6448684, 0.043926477, -0.0023026466, 9.782945
1134748863870975, -1.7635103, 6.9990063, 6.68435, 0.057684183, -0.010769844, 9.837335
1134748873510350, -1.7754744, 7.0193453, 6.7226353, 0.04775238, -0.01904583, 9.880014
1134748883149725, -1.8173488, 6.9990063, 6.7369924, -4.8732758E-4, -0.019451141, 9.883095
1134748892789100, -1.7994026, 7.0193453, 6.7166533, 0.029134393, -0.0017871857, 9.880367
1134748902428370, -1.8436699, 7.0025954, 6.680761, -0.008813381, 0.033950806, 9.852249
1134748912067745, -1.861616, 7.0002027, 6.71426, -0.03284502, 0.016286373, 9.876659
1134748921707120, -1.8640088, 6.957132, 6.7465634, -0.058593154, -0.030255795, 9.868535
1134748931346495, -1.8664017, 6.9152575, 6.7178497, -0.07242668, -0.030944347, 9.819754
1134748940985870, -1.9178474, 6.9092755, 6.6831536, -0.110824466, 0.014000893, 9.801443
1134748950625245, -1.8975084, 6.8781686, 6.6831536, -0.106508136, -0.010751247, 9.775624
1134748960264620, -1.8891335, 6.9020967, 6.7094746, -0.09432995, -0.020094872, 9.80895
1134748969903995, -1.8628124, 6.942775, 6.7262244, -0.05761695, -0.020991802, 9.844314
1134748979543370, -1.8496519, 6.9858456, 6.7118673, -0.022818565, 0.0068006516, 9.86265
1134748989182641, -1.8747765, 6.9822564, 6.7226353, -0.04804194, 0.0108428, 9.8720875
1134748998822016, -1.8783658, 6.9930243, 6.734599, -0.048354745, 0.010913372, 9.888531
1134749008461391, -1.8723837, 6.9858456, 6.7381887, -0.046040177, 0.0031328201, 9.884783
1134749018100766, -1.8723837, 6.975078, 6.728617, -0.047373414, 0.0050444603, 9.870641
1134749027740141, -1.875973, 6.971489, 6.7441707, -0.05516243, -0.005794525, 9.879358
1134749037379516, -1.8735801, 6.954739, 6.778867, -0.069140196, -0.038609028, 9.890675
1134749047018891, -1.841277, 6.9523463, 6.8075805, -0.050709367, -0.07390261, 9.902554
1134749056658266, -1.7994026, 6.960721, 6.7405815, 0.0062874556, -0.043591022, 9.855101
1134749066297641, -1.8041883, 6.9762745, 6.704689, 0.014152169, -0.005446911, 9.8425665
1134749075937016, -1.7814565, 6.987042, 6.707082, 0.03812754, -0.0116381645, 9.847624
1134749085576391, -1.7503498, 7.024131, 6.6999035, 0.08129132, 8.840561E-4, 9.863277
1134749095215766, -1.7503498, 7.02772, 6.68435, 0.08471036, 0.014507294, 9.855239
1134749104855141, -1.7814565, 7.0097737, 6.7501526, 0.030357003, -0.024697304, 9.893106
1134749114494516, -1.7934206, 7.004988, 6.814759, 2.3531914E-4, -0.064837456, 9.935942
1134749124133891, -1.8029919, 7.0229344, 6.8255267, -0.002367735, -0.05796957, 9.957752
1134749133773266, -1.7934206, 7.0085773, 6.7848487, 0.007623911, -0.040063858, 9.918117
1134749143412537, -1.7958134, 7.0205417, 6.708278, 0.02922678, 0.020205498, 9.874851
1134749153051912, -1.7850457, 6.991828, 6.6975107, 0.027091384, 0.006047249, 9.8452
1134749162691287, -1.7850457, 6.98106, 6.6939216, 0.022714257, 0.003077507, 9.835125
1134749172330662, -1.7970098, 6.969096, 6.6831536, 0.009835601, 0.010481358, 9.821501
1134749181970037, -1.7910278, 6.9523463, 6.6759753, 0.009164333, 0.0041942596, 9.803644
1134749191609412, -1.7994026, 6.957132, 6.7166533, -0.00571537, -0.016047955, 9.836293
1134749201248787, -1.7922242, 6.966703, 6.7537417, -0.0039469004, -0.03716278, 9.867048
1134749210888162, -1.8065811, 6.9559355, 6.780063, -0.028041363, -0.05349064, 9.879999
1134749220527537, -1.835295, 6.9523463, 6.782456, -0.053553104, -0.037814617, 9.884374
1134749230166912, -1.8281165, 6.9702926, 6.826723, -0.051005363, -0.062182903, 9.92596
1134749239806287, -1.8113668, 7.018149, 6.8410797, -0.016736746, -0.05415106, 9.966576
1134749249445662, -1.7754744, 7.079166, 6.838687, 0.04221368, -0.035954952, 10.001574
1134749259085037, -1.7874385, 7.076773, 6.8195443, 0.034188747, -0.017511845, 9.989013
1134749268724412, -1.7910278, 7.056434, 6.8099732, 0.02315712, -0.019207954, 9.968746
1134749278363787, -1.8257236, 7.0372915, 6.768099, -0.0053117275, 0.015570164, 9.932957
1134749288003162, -1.8281165, 6.95115, 6.7429743, -0.03901577, -0.013370514, 9.855278
1134749297642537, -1.8340986, 6.8925257, 6.735796, -0.066161275, -0.039174557, 9.809988
1134749307281912, -1.8520447, 6.8889365, 6.672386, -0.066728234, 0.010993004, 9.767481
1134749316921287, -1.8664017, 6.873383, 6.626922, -0.072963595, 0.042161465, 9.728096
1134749326560766, -1.8831514, 6.8889365, 6.626922, -0.078412294, 0.05937195, 9.742183
1134749336200141, -1.8664017, 6.9116683, 6.7322063, -0.07935059, -0.009940624, 9.827045
1134749345839516, -1.855634, 6.948757, 6.8303123, -0.07937026, -0.06044531, 9.918257
1134749355478891, -1.8221345, 6.9906316, 6.9056864, -0.053654194, -0.104397774, 9.993189
1134749365118266, -1.7898313, 7.0372915, 6.9451675, -0.018564463, -0.12093973, 10.047256
1134749374757641, -1.7814565, 7.0396843, 6.8865438, 0.0030965805, -0.081456184, 10.007425
1134749384397016, -1.8041883, 7.062416, 6.786045, 0.022287607, 0.01009655, 9.959047
1134749394036391, -1.7958134, 7.0372915, 6.7058854, 0.037932992, 0.04574871, 9.88503
1134749403675766, -1.7300107, 7.018149, 6.6364937, 0.10074413, 0.05194378, 9.812114
1134749413315141, -1.7060826, 7.025327, 6.586244, 0.1331538, 0.075443745, 9.778606
1134749422954516, -1.6689938, 7.0504518, 6.573084, 0.17784238, 0.07645464, 9.780714
1134749432593891, -1.6618153, 7.0265236, 6.5611196, 0.17225361, 0.07153177, 9.754341
1134749442233266, -1.7036897, 7.0097737, 6.5694947, 0.12673175, 0.07698965, 9.755807
1134749451872641, -1.753939, 6.9738817, 6.661618, 0.044083, 0.018942833, 9.802356
1134749461512016, -1.7790636, 6.969096, 6.799206, -0.011686444, -0.06551266, 9.897381
1134749471151495, -1.835295, 6.9702926, 6.9128647, -0.086084485, -0.11058855, 9.986057
1134749480790870, -1.8771694, 6.963114, 6.991828, -0.14451206, -0.14862919, 10.04248
1134749490430245, -1.8532411, 6.9822564, 6.971489, -0.11038387, -0.13154888, 10.037858
1134749500069620, -1.8161523, 7.038488, 6.9212394, -0.041483045, -0.0840888, 10.036607
1134749509708995, -1.7886349, 7.0600233, 6.818348, 0.0170573, -0.0146102905, 9.976597
1134749519348370, -1.7898313, 7.04447, 6.7561345, 0.024063945, 0.019473076, 9.923329
1134749528987745, -1.7850457, 6.9894347, 6.7226353, 0.013664842, 0.0075945854, 9.860638
1134749538627120, -1.774278, 6.9726853, 6.7178497, 0.01797223, -0.004205227, 9.843557
1134749548266495, -1.7826529, 6.9523463, 6.652047, 0.017971396, 0.034000874, 9.785767
1134749557905870, -1.7958134, 6.923632, 6.6053867, 0.006093383, 0.05472374, 9.736002
1134749567545350, -1.820938, 6.9020967, 6.5922265, -0.022491932, 0.06421518, 9.716356
1134749577184725, -1.8496519, 6.940382, 6.63769, -0.040534854, 0.0662508, 9.779724
1134749586824100, -1.8364913, 6.991828, 6.7202425, -0.024757385, 0.030968666, 9.870079
1134749596463475, -1.8329022, 6.9942207, 6.769295, -0.03156054, -0.0029716492, 9.904594
1134749606102850, -1.8855443, 7.003792, 6.765706, -0.07177496, 0.029323101, 9.918525
1134749615742225, -1.9010975, 6.9499536, 6.8051877, -0.11834836, -0.017068863, 9.910212
1134749625381704, -1.8400806, 6.9523463, 6.862615, -0.07886624, -0.08451939, 9.939978
1134749635021079, -1.7790636, 6.9858456, 6.836294, -0.0042220354, -0.07719374, 9.934588
1134749644660454, -1.7635103, 7.003792, 6.782456, 0.028895855, -0.036153316, 9.907706
1134749654299829, -1.753939, 7.007381, 6.734599, 0.05069506, -0.005376339, 9.875826
1134749663939204, -1.7407784, 7.0193453, 6.7238317, 0.07116079, 0.0026631355, 9.874531
1134749673578579, -1.7551354, 7.0325055, 6.7166533, 0.06781435, 0.021844864, 9.881548
1134749683218058, -1.7814565, 7.0145597, 6.7369924, 0.033534884, 0.009777546, 9.887543
1134749692857433, -1.7982062, 6.9930243, 6.721439, 0.013269186, 0.017121792, 9.864746
1134749702496808, -1.7934206, 7.0002027, 6.7381887, 0.016216397, 0.0065312386, 9.880388
1134749712136183, -1.7635103, 7.007381, 6.741778, 0.042803645, -0.007358551, 9.882463
1134749721775558, -1.7778672, 7.021738, 6.74776, 0.035768628, 0.002863884, 9.899324
1134749731414933, -1.7850457, 6.99781, 6.759724, 0.012767673, -0.014829636, 9.891878
1134749741054412, -1.7838492, 6.966703, 6.812366, -0.014882326, -0.06762934, 9.905586
1134749750693787, -1.7814565, 6.9798636, 6.800402, -0.00393939, -0.053311348, 9.906296
1134749760333162, -1.8137596, 6.9906316, 6.759724, -0.014912486, -0.0035095215, 9.892031
1134749769972537, -1.8233309, 6.991828, 6.7537417, -0.019994378, 0.0057811737, 9.89054
1134749779612016, -1.820938, 6.984649, 6.769295, -0.022570848, -0.0111756325, 9.895649
1134749789251391, -1.841277, 6.9966135, 6.719046, -0.02026987, 0.03902054, 9.873528
1134749798890766, -1.8101703, 7.001399, 6.6999035, 0.012657523, 0.039652824, 9.858158
1134749808530141, -1.8041883, 6.99781, 6.6975107, 0.017189384, 0.035360813, 9.852895
