timestamp_acc,device_acc_x,device_acc_y,device_acc_z,earth_acc_x,earth_acc_y,earth_acc_z
1134674096098311, -1.0097711, 6.6711893, 7.780263, -0.21227586, -0.27474022, 10.29254
1134674105737686, -0.9822537, 6.6711893, 7.60439, -0.1446352, -0.1660943, 10.161095
1134674115377061, -0.9020941, 6.7166533, 7.4883385, -0.029582381, -0.09811211, 10.099104
1134674125016436, -0.82911307, 6.6927247, 7.4883385, 0.021550179, -0.14655066, 10.076371
1134674134655811, -0.78364944, 6.629315, 7.5314093, 0.021156073, -0.23793888, 10.061163
1134674144295186, -0.7728817, 6.576673, 7.550552, -0.0042176247, -0.29050684, 10.038744
1134674153934561, -0.82911307, 6.5682983, 7.6199436, -0.07788658, -0.31616974, 10.08898
1134674163573936, -0.86979103, 6.5778694, 7.5517483, -0.08896279, -0.24828005, 10.049093
1134674173213311, -0.9284152, 6.6281185, 7.347162, -0.07174277, -0.08300352, 9.937941
1134674182852582, -0.9607183, 6.6963143, 7.1677003, -0.01849699, 0.0853281, 9.855553
1134674192491957, -0.96550393, 6.74776, 7.0169525, 0.027160168, 0.17626572, 9.781119
1134674202131332, -0.93320084, 6.754938, 6.856633, 0.087635994, 0.24855518, 9.666644
1134674211770707, -0.8817552, 6.739385, 6.7740808, 0.15000439, 0.2655077, 9.591246
1134674221410082, -0.8817552, 6.728617, 6.6831536, 0.15994811, 0.30268478, 9.518358
1134674231049457, -0.9619147, 6.721439, 6.6364937, 0.09727597, 0.34458303, 9.487775
1134674240688832, -1.0313065, 6.7262244, 6.7166533, 0.014514685, 0.32988882, 9.55563
1134674250328207, -1.0743774, 6.728617, 6.843473, -0.057133794, 0.2652092, 9.6533985
1134674259967582, -1.0372887, 6.6975107, 6.9296145, -0.056272626, 0.17223024, 9.6912
1134674269606957, -1.0169497, 6.704689, 7.0133634, -0.053571463, 0.1147809, 9.7549095
1134674279246332, -0.95712906, 6.768099, 7.021738, 0.024969101, 0.12526464, 9.798559
1134674288885707, -0.8961121, 6.771688, 7.0468626, 0.08177173, 0.094397545, 9.81333
1134674298524978, -0.8566305, 6.7465634, 7.173682, 0.07671058, -0.01984644, 9.884603
1134674308164353, -0.85184485, 6.6819572, 7.3112698, 0.021340728, -0.14587927, 9.940177
1134674317803728, -0.84825563, 6.6676, 7.402197, -0.0072666407, -0.20828867, 9.996275
1134674327443103, -0.79800636, 6.727421, 7.4979095, 0.027905226, -0.24161625, 10.102203
1134674337082478, -0.7405786, 6.7465634, 7.5816584, 0.058323383, -0.30553436, 10.171006
1134674346721853, -0.71665037, 6.762117, 7.548159, 0.09551108, -0.282485, 10.155078
1134674356361228, -0.7728817, 6.734599, 7.4919276, 0.048725367, -0.23753595, 10.100613
1134674366000603, -0.89491564, 6.7166533, 7.4823565, -0.060795307, -0.18328428, 10.092705
1134674375639978, -0.9738788, 6.725028, 7.4847493, -0.124004364, -0.14333057, 10.107424
1134674385279353, -1.0348958, 6.7011, 7.466803, -0.17071116, -0.1316824, 10.08377
1134674394918728, -1.0492527, 6.6891356, 7.331609, -0.15283239, -0.04797077, 9.978592
1134674404558103, -1.0037891, 6.6687965, 7.253842, -0.0956645, -0.039887905, 9.9039345
1134674414197374, -0.97507524, 6.674779, 7.23111, -0.057771206, -0.046191692, 9.888727
1134674423836749, -1.0001999, 6.661618, 7.109076, -0.049927354, 0.023889065, 9.793541
1134674433476124, -1.0719845, 6.6831536, 7.012167, -0.07411146, 0.12070274, 9.744953
1134674443115499, -1.1162517, 6.6891356, 6.9188466, -0.08167696, 0.19221687, 9.685938
1134674452754874, -1.1724831, 6.6568327, 6.9128647, -0.13574934, 0.18989468, 9.665472
1134674462394249, -1.1760724, 6.8015985, 6.7764735, -0.036355138, 0.33944798, 9.666899
1134674472033624, -1.2047862, 6.765706, 6.07418, 0.10495794, 0.7815511, 9.137839
1134674481672999, -1.2382857, 6.7322063, 6.59103, -0.079343796, 0.4181323, 9.492971
1134674491312374, -1.166501, 6.674779, 6.6221366, -0.051077843, 0.32656145, 9.468731
1134674500951749, -1.0767702, 6.7011, 6.533602, 0.063774705, 0.35822535, 9.413805
1134674510591020, -1.0360922, 6.7118673, 6.721439, 0.060634613, 0.23597813, 9.552016
1134674520230395, -1.0157533, 6.707082, 6.9415784, 0.020705938, 0.081805706, 9.705416
1134674529869770, -0.9559326, 6.7034926, 7.129415, 0.025131106, -0.05565691, 9.832367
1134674539509145, -0.91525465, 6.698707, 7.318448, 0.014634609, -0.1812644, 9.961777
1134674549148520, -0.92482597, 6.6963143, 7.4548388, -0.020160437, -0.22594023, 10.060772
1134674558787895, -0.92482597, 6.7501526, 7.564909, -0.024405003, -0.24416876, 10.1777935
1134674568427270, -0.86979103, 6.775277, 7.6031938, 0.02414465, -0.27904797, 10.217192
1134674578066645, -0.84107715, 6.7501526, 7.580462, 0.049012184, -0.27797318, 10.181145
1134674587706020, -0.8255238, 6.748956, 7.585248, 0.060620427, -0.27769375, 10.182589
1134674597345395, -0.85064846, 6.707082, 7.5960155, 0.015177727, -0.29038572, 10.164814
1134674606984666, -0.94755775, 6.658029, 7.554141, -0.08300388, -0.24175787, 10.110733
1134674616624041, -1.0648061, 6.6711893, 7.48116, -0.16232562, -0.12668467, 10.077893
1134674626263416, -1.0899308, 6.6927247, 7.3627152, -0.14317393, -0.030548096, 10.008429
1134674635902791, -1.0624132, 6.6963143, 7.298109, -0.10132718, -0.00530529, 9.960996
1134674645542166, -0.9738788, 6.735796, 7.2323065, 0.009004593, 0.00892067, 9.931038
1134674655181541, -0.9092726, 6.7525454, 7.1569324, 0.091338634, 0.028087616, 9.8811035
1134674664820916, -0.87338024, 6.7561345, 7.09113, 0.13991976, 0.05036974, 9.832098
1134674674460291, -0.8805587, 6.741778, 7.0540414, 0.1368699, 0.07047987, 9.796059
1134674684099666, -0.9200403, 6.698707, 7.0372915, 0.08579576, 0.066298485, 9.758631
1134674693739041, -0.97507524, 6.7322063, 7.0432734, 0.04791546, 0.10606098, 9.791197
1134674703378311, -1.0241281, 6.715457, 7.015756, 0.00493145, 0.13552237, 9.764664
1134674713017686, -1.0348958, 6.68435, 6.983453, -0.0081425905, 0.13834047, 9.721159
1134674722657061, -1.0013963, 6.6927247, 7.025327, 0.011766553, 0.0969677, 9.754026
1134674732296436, -0.96430755, 6.7058854, 7.0169525, 0.049586415, 0.09392071, 9.753211
1134674741935811, -0.92482597, 6.7298136, 7.038488, 0.09013283, 0.07632208, 9.78121
1134674751575186, -0.8865408, 6.7669024, 7.0492554, 0.1323229, 0.07684469, 9.81048
1134674761214561, -0.89730847, 6.734599, 7.094719, 0.09901774, 0.03308201, 9.822634
1134674770853936, -0.95712906, 6.6424756, 7.2346992, -0.029067516, -0.08343935, 9.867708
1134674780493311, -1.0767702, 6.6041903, 7.375876, -0.18534732, -0.13255024, 9.9562235
1134674790132582, -1.1880364, 6.599405, 7.4775705, -0.2996118, -0.13453102, 10.038414
1134674799771957, -1.2263216, 6.593423, 7.503892, -0.34304845, -0.13444567, 10.057322
1134674809411332, -1.1365907, 6.6089764, 7.452446, -0.2385093, -0.13606548, 10.021674
1134674819050707, -1.0205388, 6.641279, 7.361519, -0.099529505, -0.11893082, 9.965742
1134674828690082, -0.90448695, 6.7178497, 7.27777, 0.05526793, -0.0746994, 9.945095
1134674838329457, -0.86141616, 6.73101, 7.140183, 0.12866724, -0.0029549599, 9.849579
1134674847968832, -0.8913264, 6.7058854, 7.111469, 0.08436668, 0.0020394325, 9.814745
1134674857608207, -0.97507524, 6.6592255, 7.1222367, -0.017808795, 0.0012159348, 9.799083
1134674867247582, -1.0301101, 6.664011, 7.1246295, -0.07049155, 0.02347231, 9.809432
1134674876886853, -1.0133604, 6.71426, 7.094719, -0.033134937, 0.060673714, 9.820309
1134674886526228, -0.9499506, 6.769295, 7.007381, 0.06193912, 0.11560631, 9.788359
1134674896165603, -0.8757731, 6.769295, 6.927222, 0.14999914, 0.12977028, 9.723034
1134674905804978, -0.87936234, 6.74776, 6.856633, 0.15238333, 0.15681744, 9.6577
1134674915444353, -0.95712906, 6.7633133, 6.873383, 0.083709955, 0.18896341, 9.688095
1134674925083728, -0.96550393, 6.800402, 6.937989, 0.06578624, 0.17416334, 9.761082
1134674934723103, -0.91405827, 6.79442, 6.9762745, 0.09134507, 0.12295246, 9.779804
1134674944362478, -0.83988076, 6.7669024, 7.066005, 0.11846256, 0.018157959, 9.818882
1134674954001853, -0.8255238, 6.7334027, 7.2263246, 0.07547188, -0.111189365, 9.910698
1134674963641124, -0.86859465, 6.7034926, 7.3292155, -0.0024846792, -0.16454744, 9.969031
1134674973280499, -0.9128618, 6.725028, 7.3627152, -0.038806915, -0.15288353, 10.012194
1134674982919874, -0.8877372, 6.7585278, 7.3663044, -0.0032869577, -0.14083624, 10.035356
1134674992559249, -0.8650054, 6.802795, 7.2897344, 0.058226943, -0.06877613, 10.0079155
1134675002198624, -0.8865408, 6.799206, 7.225128, 0.054216266, -0.019424915, 9.960639
1134675011837999, -0.94755775, 6.7764735, 7.24786, -0.014261723, -0.023532867, 9.967405
1134675021477374, -1.0001999, 6.7202425, 7.2789664, -0.08928597, -0.057527065, 9.956612
1134675031116749, -1.0253245, 6.68435, 7.268199, -0.12855041, -0.063008785, 9.926634
1134675040756020, -1.0133604, 6.7022963, 7.288538, -0.116007805, -0.070287704, 9.95249
1134675050395395, -0.9667004, 6.728617, 7.2849483, -0.06894374, -0.075284004, 9.963375
1134675060034770, -0.93320084, 6.7704916, 7.1413794, 0.009228706, 0.022271633, 9.884794
1134675069674145, -0.90089774, 6.814759, 7.031309, 0.08044219, 0.0998044, 9.832366
1134675079313520, -0.8889336, 6.8339014, 7.0372915, 0.094715714, 0.09623337, 9.848739
1134675088952895, -0.88295156, 6.818348, 7.0169525, 0.09430981, 0.085999966, 9.822973
1134675098592270, -0.89730847, 6.780063, 6.983453, 0.0736171, 0.084382534, 9.773972
1134675108231645, -0.9164511, 6.778867, 7.012167, 0.046650887, 0.07589674, 9.795687
1134675117870916, -0.91405827, 6.7669024, 7.062416, 0.02650249, 0.030403614, 9.823571
1134675127510291, -0.94396853, 6.7465634, 7.1413794, -0.037419677, -0.02541542, 9.8693695
1134675137149666, -0.9702896, 6.7728844, 7.1892357, -0.062657356, -0.027797699, 9.924406
1134675146789041, -0.991825, 6.74776, 7.1880393, -0.09299064, -0.03233719, 9.90829
1134675156428416, -0.95832545, 6.799206, 7.225128, -0.05262816, -0.042376995, 9.967221
1134675166067791, -0.9667004, 6.3888364, 7.0863442, -0.19117427, -0.19450045, 9.586117
1134675175707166, -0.7812566, 7.479964, 7.292127, 0.36813545, 0.23199892, 10.466423
1134675185346541, -0.9846465, 6.020342, 6.9320073, -0.3154006, -0.30734062, 9.223494
1134675194985811, -0.87338024, 7.6307116, 7.099505, 0.3988986, 0.4788947, 10.440549
1134675204625186, -1.0253245, 6.114858, 6.8446693, -0.29706287, -0.1933899, 9.228577
1134675214264561, -0.9822537, 7.3639116, 7.0002027, 0.22190332, 0.42460918, 10.196339
1134675223903936, -0.9200403, 6.5168524, 6.977471, -0.070406675, -0.09507418, 9.590982
1134675233543311, -1.0037891, 6.771688, 6.916454, -0.024555087, 0.1282692, 9.730553
1134675243182686, -0.8650054, 7.0372915, 7.1425757, 0.14072871, 0.07344723, 10.062946
1134675252822061, -1.0899308, 6.1710896, 6.930811, -0.36020994, -0.19246101, 9.334862
1134675262461436, -0.8566305, 7.460821, 7.251449, 0.29919505, 0.24626637, 10.432211
1134675272100707, -1.0109676, 5.907879, 6.873383, -0.39093447, -0.34400606, 9.104796
1134675281740082, -0.81595254, 7.664211, 7.1449685, 0.44850373, 0.40871382, 10.492296
1134675291379457, -0.88295156, 6.0801625, 6.9451675, -0.22584927, -0.34626126, 9.2635
1134675301018832, -0.84825563, 7.408179, 7.1425757, 0.3266816, 0.28498268, 10.316448
1134675310658207, -0.91525465, 6.428318, 7.2155566, -0.17526698, -0.2972598, 9.700831
1134675320297582, -1.0935199, 6.7381887, 7.190432, -0.18892407, -0.006070614, 9.912899
1134675329936957, -0.9954142, 6.9966135, 7.2957163, -0.025936365, 0.027050495, 10.15724
1134675339576228, -1.1641082, 6.2416778, 7.0205417, -0.41062355, -0.16823149, 9.45541
1134675349215603, -0.86859465, 7.524231, 7.347162, 0.28510833, 0.24035549, 10.545626
1134675358854978, -0.99302137, 5.983253, 7.0337024, -0.37818944, -0.40643024, 9.270931
1134675368494353, -0.7716853, 7.7407813, 7.27777, 0.47974658, 0.354774, 10.636028
1134675378133728, -0.9272188, 6.0729837, 6.98106, -0.2709906, -0.3612628, 9.288279
1134675387773103, -0.91884387, 7.4584284, 7.204789, 0.2554314, 0.309556, 10.402901
1134675397412478, -1.0073783, 6.4235325, 7.2095747, -0.25623488, -0.2601633, 9.701608
1134675407051749, -1.1437693, 6.873383, 7.192825, -0.1737566, 0.08608389, 10.012529
1134675416691124, -1.0348958, 6.99781, 7.30768, -0.06073475, 0.027544498, 10.170452
1134675426330499, -1.146162, 6.3361945, 7.0289164, -0.35620832, -0.12692547, 9.5249
1134675435969874, -0.77647096, 7.5828547, 7.2550383, 0.42455506, 0.26186228, 10.511391
1134675445609249, -0.9068798, 6.04427, 6.8817577, -0.22931647, -0.33859062, 9.194943
1134675455248624, -0.6759724, 7.786245, 7.119844, 0.6135832, 0.42142868, 10.546119
1134675464887999, -0.8554341, 6.0394845, 6.710671, -0.16066408, -0.2784958, 9.062941
1134675474527270, -0.8147561, 7.496713, 6.859026, 0.4436599, 0.46453524, 10.173405
1134675484166645, -0.91166544, 6.3960147, 6.859026, -0.108351946, -0.1446824, 9.4209175
1134675493806020, -1.0444671, 6.9738817, 6.9559355, -0.009591818, 0.19956207, 9.903084
1134675503445395, -0.91405827, 6.99781, 7.068398, 0.08388662, 0.076104164, 9.987707
1134675513084770, -1.0935199, 6.4354963, 6.814759, -0.23296928, -0.008528709, 9.433874
1134675522724145, -0.8805587, 7.5182486, 7.1772714, 0.2948141, 0.29548788, 10.422977
1134675532363520, -1.1030912, 6.0311093, 6.890133, -0.4241271, -0.298316, 9.208483
1134675542002791, -0.88295156, 7.746763, 7.213164, 0.37992048, 0.40485954, 10.607235
1134675551642166, -0.991825, 6.003592, 6.946364, -0.3469839, -0.39884424, 9.219508
1134675561281541, -0.863809, 7.539784, 7.1820574, 0.31952047, 0.29578257, 10.439678
1134675570920916, -0.8877372, 6.279963, 7.0863442, -0.18685734, -0.37718105, 9.500795
1134675580560291, -1.0085747, 6.9822564, 7.119844, -0.016452193, 0.077744484, 10.022724
1134675590199666, -0.8961121, 6.8614187, 7.183254, 0.021694303, -0.08246946, 9.973662
1134675599839041, -1.0719845, 6.4402823, 6.948757, -0.2389307, -0.093957424, 9.531301
1134675609478311, -0.8386843, 7.457232, 7.2442703, 0.30547, 0.19426441, 10.424112
1134675619117686, -1.1030912, 6.013163, 6.9320073, -0.4354589, -0.31778955, 9.2269745
1134675628757061, -0.8961121, 7.696514, 7.2789664, 0.34257865, 0.34546423, 10.620075
1134675638396436, -1.0456635, 5.922236, 6.995417, -0.45789385, -0.431463, 9.203604
1134675648035811, -0.930808, 7.5385876, 7.251449, 0.25943756, 0.28284836, 10.494423
1134675657675186, -0.8913264, 6.2883377, 7.1342006, -0.20636702, -0.3914194, 9.541419
1134675667314457, -0.8470592, 7.172486, 7.1677003, 0.19613886, 0.08117628, 10.173149
1134675676953832, -0.66999036, 6.9332037, 7.196414, 0.23667574, -0.16388226, 10.011179
1134675686593207, -0.8219346, 6.6281185, 6.8985076, 0.058465242, -0.081035614, 9.601404
1134675696232582, -0.64606214, 7.501499, 7.051648, 0.5276036, 0.23929262, 10.299517
1134675705871957, -0.9834501, 6.1244297, 6.708278, -0.24409664, -0.17750645, 9.131578
1134675715511332, -0.8997013, 7.722835, 6.9966135, 0.4184134, 0.51389074, 10.438635
1134675725150603, -1.174876, 5.922236, 6.6831536, -0.48903215, -0.18365955, 8.991379
1134675734789978, -1.0743774, 7.63789, 6.9858456, 0.24676728, 0.54568577, 10.389178
1134675744429353, -1.0229317, 6.3074803, 6.856633, -0.26225233, -0.15564728, 9.367557
1134675754068728, -0.98943216, 7.281359, 6.95115, 0.16513371, 0.31948614, 10.108724
1134675763708103, -0.78364944, 6.928418, 7.01097, 0.1624353, -0.025773048, 9.886543
1134675773347478, -0.90448695, 6.7034926, 6.8255267, 0.015818357, 0.02209568, 9.609476
1134675782986853, -0.6687939, 7.4273214, 7.164111, 0.41856337, 0.117274284, 10.33189
1134675792626124, -0.9391829, 6.067002, 6.890133, -0.30380034, -0.36984062, 9.2160425
1134675802265499, -0.85184485, 7.60798, 7.2215385, 0.31800723, 0.292809, 10.515264
1134675811904874, -1.1820544, 5.8193445, 6.9595246, -0.6158519, -0.4546647, 9.116524
1134675821544249, -1.1593226, 7.493124, 7.367501, -0.045037746, 0.27644682, 10.56847
1134675831183624, -1.1820544, 6.0957155, 7.213164, -0.5727079, -0.4464121, 9.489859
1134675840822999, -1.1018949, 7.239485, 7.2933235, -0.07163274, 0.15161848, 10.333864
1134675850462270, -0.90089774, 6.798009, 7.332805, -0.08466482, -0.22908449, 10.036679
1134675860101645, -0.9834501, 6.7202425, 7.1688967, -0.14611936, -0.12755346, 9.873413
1134675869741020, -0.7477571, 7.367501, 7.3639116, 0.2626996, 0.0129675865, 10.440172
1134675879380395, -1.0552348, 6.1471615, 6.9858456, -0.39643562, -0.3136692, 9.351341
1134675889019770, -1.0073783, 7.6713896, 7.251449, 0.1896615, 0.38323498, 10.595551
1134675898659145, -1.2586247, 5.8731833, 6.8051877, -0.64605844, -0.255723, 9.050203
1134675908298520, -1.0935199, 7.628319, 6.987042, 0.17949891, 0.5569706, 10.385728
1134675917937791, -1.1006985, 6.087341, 6.735796, -0.4084096, -0.18234587, 9.134449
1134675927577166, -1.0277174, 7.2693954, 6.863812, 0.100390196, 0.38849592, 10.042471
1134675937216541, -0.86979103, 6.6364937, 6.940382, -0.05283451, -0.10838032, 9.641263
1134675946855916, -0.9595219, 6.6831536, 6.8015985, -0.069696665, 0.05617857, 9.583265
1134675956495291, -0.75972116, 7.222735, 6.957132, 0.28255677, 0.1663847, 10.051828
1134675966134666, -1.0516455, 6.0717874, 6.780063, -0.39864612, -0.23249388, 9.150347
1134675975773936, -0.8662018, 7.5553374, 7.18445, 0.2670195, 0.2869544, 10.454479
1134675985413311, -1.0049855, 5.905486, 6.896115, -0.4643476, -0.41465354, 9.113375
1134675995052686, -0.72502524, 7.745567, 7.312466, 0.4261849, 0.24410486, 10.665382
1134676004692061, -0.75972116, 6.2105713, 7.160522, -0.22361398, -0.5200956, 9.492151
1134676014331436, -0.7429714, 7.4823565, 7.2442703, 0.3012371, 0.16073847, 10.435541
1134676023970811, -0.72502524, 6.73101, 7.159325, 0.023356438, -0.23538113, 9.850491
1134676033610082, -0.88414794, 6.8650084, 6.9559355, 0.0020318031, 0.052322388, 9.812867
1134676043249457, -0.72263247, 7.1653075, 7.119844, 0.21530223, 0.041573048, 10.124621
1134676052888832, -0.9702896, 6.1208405, 6.815955, -0.341869, -0.25397205, 9.202284
1134676062528207, -0.7645068, 7.550552, 7.1078796, 0.33804202, 0.2950716, 10.388258
1134676072167582, -0.9559326, 5.925825, 6.735796, -0.3891282, -0.3221774, 9.008049
1134676081806957, -0.7573284, 7.7204423, 7.0229344, 0.43925905, 0.44021416, 10.445749
1134676091446332, -0.83389866, 6.1208405, 6.855437, -0.25397158, -0.3411417, 9.218254
1134676101085603, -0.76331043, 7.5756764, 7.042077, 0.36296725, 0.3396964, 10.359402
1134676110724978, -0.6831509, 6.7118673, 6.9930243, 0.06786299, -0.16623354, 9.715246
1134676120364353, -0.85184485, 6.9702926, 6.899704, 0.055217505, 0.12880087, 9.843622
1134676130003728, -0.72263247, 7.243074, 7.058827, 0.22564554, 0.116772175, 10.13641
1134676139643103, -0.991825, 6.3397837, 6.79442, -0.30384684, -0.09294796, 9.340223
1134676149282478, -0.79800636, 7.623533, 7.1820574, 0.27795935, 0.29981947, 10.496183
1134676158921749, -1.0109676, 5.938986, 6.8721867, -0.5258596, -0.35989666, 9.116716
1134676168561124, -0.79800636, 7.716853, 7.172486, 0.31660247, 0.35963964, 10.554696
1134676178200499, -0.8530413, 6.0861444, 6.908079, -0.34024024, -0.38215876, 9.231932
1134676187839874, -0.79441714, 7.5182486, 7.021738, 0.27800655, 0.34124947, 10.308552
1134676197479249, -0.8147561, 6.582655, 6.8685975, -0.08548021, -0.09103918, 9.547628
1134676207118624, -0.971486, 7.0612197, 7.0193453, -0.067397356, 0.17504692, 10.002031
1134676216757895, -0.8350951, 7.1186476, 7.3304124, -0.030292988, -0.05516386, 10.252001
1134676226397270, -1.0169497, 6.2979093, 6.943971, -0.41206455, -0.185215, 9.41873
1134676236036645, -0.78843504, 7.5349984, 7.0959153, 0.2655015, 0.3134756, 10.3721285
1134676245676020, -1.026521, 5.9270215, 6.6759753, -0.483464, -0.22744513, 8.970312
1134676255315395, -0.87218386, 7.7012997, 7.036095, 0.26948142, 0.48733044, 10.453097
1134676264954770, -0.9607183, 5.9449677, 6.704689, -0.44043708, -0.27844548, 8.997053
1134676274594145, -0.8530413, 7.5230346, 6.820741, 0.26706314, 0.5024605, 10.174598
1134676284233416, -0.8386843, 6.530013, 6.7369924, -0.119443655, -0.022005081, 9.418959
1134676293872791, -0.8817552, 7.166504, 6.79442, 0.08259082, 0.33459854, 9.908665
1134676303512166, -0.7046863, 7.1688967, 7.051648, 0.1439178, 0.09629202, 10.07896
1134676313151541, -0.9272188, 6.468996, 6.9009004, -0.2896949, -0.09812546, 9.49929
1134676322790916, -0.78364944, 7.648658, 7.281359, 0.20831347, 0.2776227, 10.583656
1134676332430291, -1.052842, 6.0717874, 7.075577, -0.61214304, -0.34850788, 9.356424
1134676342069561, -0.83988076, 7.746763, 7.556534, 0.11983919, 0.2219367, 10.851515
1134676351708936, -0.9451649, 5.948557, 7.359126, -0.65060925, -0.6487622, 9.465263
1134676361348311, -0.78843504, 7.5756764, 7.5349984, 0.09632087, 0.12547302, 10.712781
1134676370987686, -0.7118647, 6.398408, 7.353144, -0.28078222, -0.4829421, 9.757204
1134676380627061, -0.73340017, 7.1270223, 7.292127, 0.021505833, -0.008627892, 10.222862
1134676390266436, -0.5395815, 7.1270223, 7.350751, 0.15857267, -0.14581251, 10.2505
1134676399905811, -0.6053841, 6.6819572, 7.1138616, -0.016231537, -0.2267251, 9.776012
1134676409545082, -0.24646074, 7.745567, 7.361519, 0.652225, 0.04663372, 10.668598
1134676419184457, -0.45583272, 6.24766, 7.0325055, -0.058848858, -0.5061276, 9.404124
1134676428823832, -0.31585258, 7.88794, 7.4249287, 0.6139612, 0.11047268, 10.819416
1134676438463207, -0.6053841, 5.983253, 7.0899334, -0.34676218, -0.6237838, 9.269499
1134676448102582, -0.6472585, 7.539784, 7.2215385, 0.24652791, 0.20292282, 10.455427
1134676457741957, -0.7848458, 6.3218374, 6.9523463, -0.303118, -0.2646742, 9.420976
1134676467381332, -0.7896315, 7.243074, 6.754938, 0.1585393, 0.3826251, 9.926897
1134676477020603, -0.5084748, 7.0576305, 6.6795645, 0.33780408, 0.15987492, 9.723457
1134676486659978, -0.5910272, 6.6388865, 6.3948183, 0.1751287, 0.13978648, 9.234047
1134676496299353, -0.39960137, 7.52782, 6.687939, 0.60828686, 0.35177708, 10.052986
1134676505938728, -0.6879365, 6.0753765, 6.384051, -0.16694164, -0.14103532, 8.836957
1134676515578103, -0.58624154, 7.6426754, 6.741778, 0.45974255, 0.4750557, 10.186692
1134676525217478, -0.8315059, 5.8468623, 6.3924255, -0.3895135, -0.20158195, 8.691832
1134676534856853, -0.7513463, 7.5613194, 6.687939, 0.3033781, 0.55104494, 10.103016
1134676544496124, -0.75493556, 6.235696, 6.6927247, -0.26158786, -0.20516396, 9.172562
1134676554135499, -0.73340017, 7.2646093, 6.908079, 0.11562705, 0.24502707, 10.0479145
1134676563774874, -0.44147578, 7.068398, 7.001399, 0.255265, -0.07094002, 9.955227
1134676573414249, -0.47736812, 6.914061, 6.8542404, 0.2153132, -0.02602768, 9.745036
1134676583053624, -0.29192436, 7.6953177, 7.304091, 0.54891634, 0.05299902, 10.599471
1134676592692999, -0.6687939, 6.2979093, 7.225128, -0.32144046, -0.50414896, 9.589366
1134676602332374, -0.6269195, 7.87119, 7.672586, 0.21654391, 0.12208462, 11.007063
1134676611971749, -0.92602235, 6.0634127, 7.361519, -0.66993296, -0.58772373, 9.540452
1134676621611020, -0.80518484, 7.8077803, 7.594819, 0.06424713, 0.2327776, 10.919374
1134676631250395, -0.73340017, 6.346962, 7.3746796, -0.4162228, -0.5090313, 9.735263
1134676640889770, -0.62811595, 7.4033933, 7.429714, 0.09645772, -0.002913475, 10.506954
1134676650529145, -0.5024927, 6.8709903, 7.342376, 0.004938841, -0.3314762, 10.062981
1134676660168520, -0.75493556, 6.6759753, 6.9894347, -0.17270494, -0.091014385, 9.692919
1134676669807895, -0.6723832, 7.3172517, 7.0576305, 0.13894129, 0.18205929, 10.185871
1134676679447270, -1.0612168, 6.0430737, 6.6939216, -0.6085954, -0.14112043, 9.058874
1134676689086645, -0.9320044, 7.594819, 7.0169525, 0.03691697, 0.47037554, 10.371349
1134676698726020, -1.1581261, 5.851648, 6.7011, -0.7812356, -0.1973486, 8.93524
1134676708365291, -0.9056834, 7.739585, 7.0396843, 0.10638571, 0.5177841, 10.488049
1134676718004666, -0.8207382, 6.3290157, 6.926025, -0.37298894, -0.274518, 9.406668
1134676727644041, -0.7369894, 7.530213, 7.1509504, 0.115305185, 0.23812771, 10.4073715
1134676737283416, -0.6963114, 6.9020967, 7.233503, -0.1325953, -0.18818808, 10.019698
1134676746922791, -0.92482597, 6.916454, 7.1413794, -0.27920508, 0.010345936, 9.980676
1134676756562166, -0.7393822, 7.489535, 7.393822, 0.034338236, 0.07204485, 10.549978
1134676766201541, -0.89730847, 6.3517475, 7.1186476, -0.49187756, -0.30310535, 9.565101
1134676775840916, -0.57188463, 7.847262, 7.3746796, 0.34508324, 0.1849308, 10.77679
1134676785480291, -0.67836523, 6.1005015, 6.9523463, -0.3595841, -0.46984196, 9.2553425
1134676795119561, -0.44985065, 7.899904, 7.1545396, 0.5431366, 0.2677312, 10.650427
1134676804758936, -0.424726, 6.3122663, 6.838687, -0.030459642, -0.43742704, 9.305938
1134676814398311, -0.29790643, 7.585248, 6.8518476, 0.6151662, 0.17777634, 10.206003
1134676824037686, -0.17706887, 6.899704, 6.759724, 0.4329555, -0.22370052, 9.648506
1134676833677061, -0.3684947, 7.062416, 6.597012, 0.39931607, 0.06566477, 9.662834
1134676843316436, -0.32063824, 7.5385876, 6.7298136, 0.59383535, 0.20920563, 10.09094
1134676852955811, -0.7322037, 6.5371914, 6.474978, -0.09060025, 0.030078888, 9.229692
1134676862595186, -0.58265233, 7.972885, 6.937989, 0.50860333, 0.4411831, 10.563559
1134676872234561, -0.82313097, 6.186643, 6.6915283, -0.3733158, -0.25827408, 9.139069
1134676881873936, -0.6891329, 7.8604226, 7.085148, 0.33002114, 0.34428072, 10.594009
1134676891513311, -0.7704889, 6.174679, 6.8339014, -0.37481284, -0.383919, 9.226843
1134676901152582, -0.73100734, 7.483553, 6.9248285, 0.20955563, 0.25362158, 10.216798
1134676910791957, -0.695115, 6.617351, 6.754938, -0.072095394, -0.15184069, 9.480162
1134676920431332, -0.8470592, 6.9009004, 6.541977, -0.006708145, 0.2225771, 9.543994
1134676930070707, -0.6891329, 7.2909307, 6.6329045, 0.26474, 0.28753805, 9.872954
1134676939710082, -0.8458628, 6.4677997, 6.302695, -0.111083746, 0.11377692, 9.068991
1134676949349457, -0.5515456, 7.795816, 6.5515485, 0.6103246, 0.54267883, 10.165369
1134676958988832, -0.782453, 6.020342, 6.2691956, -0.22594023, -0.1606648, 8.72254
1134676968628207, -0.7118647, 7.756335, 6.7118673, 0.41197014, 0.5025773, 10.261303
1134676978267582, -0.94277215, 6.023931, 6.599405, -0.46522808, -0.27303648, 8.968708
1134676987906957, -0.9595219, 7.389036, 6.9224358, 5.145073E-4, 0.30418158, 10.16593
1134676997546332, -0.93320084, 6.4127645, 6.9930243, -0.41359782, -0.27200174, 9.521122
1134677007185707, -1.0336994, 6.9224358, 6.966703, -0.26126027, 0.07804632, 9.871639
1134677016825082, -0.7908279, 7.2287173, 7.1222367, 0.03267765, 0.034590244, 10.178593
1134677026464457, -0.9403793, 6.4965134, 6.855437, -0.31288862, -0.12106705, 9.485435
1134677036103728, -0.6197411, 7.8424764, 7.159325, 0.4353912, 0.26585484, 10.624699
1134677045743103, -0.7573284, 6.276374, 6.8482585, -0.25105953, -0.32524204, 9.311082
1134677055382478, -0.52283174, 8.005188, 7.237092, 0.56618786, 0.26544762, 10.786142
1134677065021853, -0.7286145, 6.1160545, 6.9942207, -0.35304308, -0.51057935, 9.298968
1134677074661228, -0.8243274, 7.4823565, 7.3052874, 0.0650537, 0.109834194, 10.488856
1134677084300603, -0.9822537, 6.3541408, 7.2658057, -0.5534544, -0.39468765, 9.678314
1134677093939978, -1.1916257, 6.847062, 7.196414, -0.4800346, 0.04057789, 9.992924
1134677103579353, -1.0468599, 6.9128647, 7.23111, -0.34950423, -0.022017479, 10.05236
1134677113218728, -1.2299109, 6.326623, 7.0133634, -0.6861687, -0.09919262, 9.499761
1134677122858103, -0.9212367, 7.628319, 7.396215, 0.013357639, 0.1929903, 10.663324
1134677132497478, -0.99900347, 6.1902323, 7.09113, -0.5999639, -0.35072708, 9.440241
1134677142136853, -0.721436, 7.9920278, 7.4141607, 0.32743168, 0.27181435, 10.917034
1134677151776228, -0.8470592, 6.2608204, 7.07438, -0.43734646, -0.391567, 9.4666605
1134677161415603, -0.7968099, 7.8173513, 7.2179494, 0.25218415, 0.346148, 10.661205
1134677171054978, -0.7573284, 6.617351, 7.076773, -0.19907928, -0.25261927, 9.712887
1134677180694353, -0.77766734, 7.2753773, 7.092326, 0.0647006, 0.110189915, 10.189241
1134677190333728, -0.60059845, 7.1916285, 7.186843, 0.13438106, -0.09683895, 10.183493
1134677199973103, -0.79800636, 6.6161547, 7.003792, -0.21815324, -0.19051933, 9.663309
1134677209612478, -0.567099, 7.629515, 7.2011995, 0.3518746, 0.1072464, 10.500147
1134677219251853, -0.81236327, 6.07418, 6.8315086, -0.4169712, -0.378978, 9.1601095
1134677228891228, -0.61016977, 7.812566, 7.1748786, 0.4191723, 0.22874022, 10.614112
1134677238530603, -0.76331043, 5.9784675, 6.8135624, -0.4123764, -0.4540031, 9.075967
1134677248169978, -0.66759753, 7.6223364, 6.977471, 0.36640143, 0.26628828, 10.345321
1134677257809353, -0.6412765, 6.410372, 6.8015985, -0.10444784, -0.29170084, 9.363216
1134677267448728, -0.6843473, 7.2179494, 6.7561345, 0.24339795, 0.19142294, 9.905384
1134677277088103, -0.5623133, 7.0229344, 6.7130637, 0.26989532, 0.03742361, 9.727734
1134677286727478, -0.8602197, 6.573084, 6.4331036, -0.075063705, 0.13367367, 9.236164
1134677296366853, -0.80159557, 7.5182486, 6.7405815, 0.28763103, 0.42390442, 10.116306
1134677306006228, -1.1688938, 6.056234, 6.5958157, -0.61580086, -0.07636428, 9.009108
1134677315645603, -1.0253245, 7.783852, 7.082755, 0.097507, 0.4874258, 10.562101
1134677325284978, -1.1330016, 6.07418, 6.8709903, -0.66602874, -0.27170277, 9.212625
1134677334924353, -0.9284152, 7.8077803, 7.1820574, 0.16729665, 0.39349794, 10.640608
1134677344563728, -0.92602235, 6.4941206, 7.1306114, -0.3979001, -0.27982378, 9.676782
1134677354203103, -0.96430755, 7.355537, 7.3495545, -0.088653564, 0.088932514, 10.441936
1134677363842478, -0.84107715, 6.9738817, 7.5146594, -0.21514654, -0.2847705, 10.28033
1134677373481853, -1.0671989, 6.6257257, 7.393822, -0.50732636, -0.26748133, 9.968893
1134677383121228, -0.9164511, 7.4010005, 7.708478, -0.14064455, -0.12971258, 10.723745
1134677392760603, -1.1856437, 6.013163, 7.372287, -0.87986493, -0.527374, 9.532167
1134677402399978, -0.930808, 7.6749787, 7.6366935, -0.014233589, 0.058534145, 10.866793
1134677412039353, -0.98584294, 5.9497533, 7.21436, -0.69503856, -0.5900924, 9.358803
1134677421678728, -0.7178468, 7.786245, 7.30768, 0.30696416, 0.17862892, 10.696587
1134677431318103, -0.63529444, 6.418747, 6.954739, -0.12165308, -0.4131298, 9.475592
1134677440957478, -0.6628119, 7.4213395, 6.937989, 0.3126161, 0.14733744, 10.17506
1134677450596853, -0.6556334, 6.923632, 6.8171515, 0.13725996, -0.065555096, 9.7374
1134677460236228, -0.9272188, 6.7238317, 6.4618177, -0.0519464, 0.19643211, 9.369282
1134677469875603, -0.77766734, 7.4141607, 6.521638, 0.35488367, 0.44271994, 9.8885975
1134677479514978, -0.9738788, 6.175875, 6.142376, -0.22469056, 0.09582758, 8.761221
1134677489154353, -0.6891329, 7.8496547, 6.393622, 0.6414726, 0.70323896, 10.102691
1134677498793728, -0.85064846, 6.084948, 6.087341, -0.15276873, -5.2428246E-4, 8.647692
1134677508433103, -0.7118647, 7.8723865, 6.5886374, 0.57133603, 0.58473635, 10.257828
1134677518072478, -0.74895346, 6.393622, 6.6795645, -0.15115428, -0.24716425, 9.272108
1134677527711853, -0.73818576, 7.475178, 7.092326, 0.18888426, 0.08279371, 10.328688
1134677537351228, -0.66400826, 6.882954, 7.2358956, -0.05262065, -0.3566923, 10.002207
1134677546990603, -0.87338024, 6.847062, 7.1138616, -0.1889441, -0.17557526, 9.908861
1134677556629978, -0.7369894, 7.4153576, 7.308877, 0.109648705, -0.065822124, 10.437145
1134677566269353, -0.9822537, 6.2344995, 6.957132, -0.47994804, -0.3506875, 9.374548
1134677575908728, -0.721436, 7.7850485, 7.223932, 0.33277082, 0.18553448, 10.63802
1134677585548103, -0.87338024, 6.0394845, 6.853044, -0.43202186, -0.4659376, 9.154161
1134677595187478, -0.70229346, 7.8664045, 7.07438, 0.4342332, 0.3131628, 10.589323
1134677604826853, -0.7968099, 6.300302, 6.798009, -0.23643494, -0.33258867, 9.293822
1134677614466332, -0.86141616, 7.4979095, 7.0337024, 0.1381681, 0.21530437, 10.313496
1134677624105707, -0.8279166, 6.7381887, 7.146165, -0.19886923, -0.29730415, 9.850298
1134677633745082, -0.95832545, 6.8913293, 7.055238, -0.21776175, -0.08507967, 9.906085
1134677643384457, -0.68195444, 7.440482, 7.143772, 0.21749711, 0.005207062, 10.334989
1134677653023832, -0.8650054, 6.445068, 6.741778, -0.23516512, -0.19039154, 9.362005
1134677662663207, -0.6305088, 7.972885, 6.9882383, 0.5532501, 0.34623003, 10.600658
1134677672302582, -0.78723866, 6.2811594, 6.606583, -0.20160866, -0.24074125, 9.144455
1134677681941957, -0.58265233, 8.0614195, 6.8685975, 0.68535733, 0.42297697, 10.576151
1134677691581332, -0.72382885, 6.3744793, 6.593423, -0.103853464, -0.22464108, 9.196189
1134677701220707, -0.7704889, 7.68455, 6.7298136, 0.42095518, 0.40133524, 10.227321
1134677710860082, -0.80757767, 6.7812595, 6.7178497, -0.029534101, -0.04927349, 9.579346
1134677720499457, -0.997807, 6.948757, 6.7848487, -0.13424802, 0.10643196, 9.761438
1134677730138832, -0.83389866, 7.2861447, 7.007381, 0.06569195, 0.053542614, 10.142953
1134677739778311, -1.0289137, 6.390033, 6.7369924, -0.39847898, -0.15129185, 9.332555
1134677749417686, -0.762114, 7.7587276, 7.071987, 0.30970383, 0.2272768, 10.518749
1134677759057061, -0.9774681, 6.07418, 6.6484575, -0.46918058, -0.29745507, 9.0412655
1134677768696436, -0.80757767, 7.9022965, 6.8817577, 0.4160924, 0.43894577, 10.492437
1134677778335811, -0.8781659, 6.204589, 6.5431733, -0.28744006, -0.21775937, 9.0526905
1134677787975186, -0.7932207, 7.623533, 6.698707, 0.37627816, 0.3883381, 10.165026
1134677797614561, -0.6867401, 6.7226353, 6.634101, 0.07546663, -0.10674691, 9.468878
1134677807253936, -0.78364944, 7.1365933, 6.6628146, 0.18099833, 0.15432692, 9.791914
1134677816893311, -0.66400826, 7.348358, 6.826723, 0.3138988, 0.09622669, 10.046674
1134677826532686, -1.0253245, 6.5108705, 6.6652074, -0.29492164, -0.037634373, 9.369062
1134677836172166, -0.8673982, 7.752745, 7.105487, 0.23261523, 0.27227545, 10.545953
1134677845811541, -1.1042876, 6.0801625, 6.8985076, -0.62021446, -0.3759663, 9.23316
1134677855450916, -0.91525465, 7.8496547, 7.220342, 0.20298362, 0.29989243, 10.698456
1134677865090291, -1.006182, 6.0981083, 6.943971, -0.5322666, -0.45205545, 9.269867
1134677874729666, -0.9870393, 7.5900335, 7.0779696, 0.08844662, 0.28520632, 10.420715
1134677884369041, -0.9906286, 6.535995, 6.914061, -0.3244543, -0.18514872, 9.558517
1134677894008416, -1.052842, 7.0875406, 6.855437, -0.109990835, 0.18578672, 9.914238
1134677903647791, -0.7908279, 7.2299137, 6.963114, 0.13226414, 0.045217514, 10.067894
1134677913287270, -0.96430755, 6.5539412, 6.806384, -0.2652743, -0.1154995, 9.493535
1134677922926645, -0.76331043, 7.7479596, 7.160522, 0.3156445, 0.19355154, 10.571163
1134677932566020, -1.0336994, 6.141179, 6.8685975, -0.52731144, -0.33430243, 9.250429
1134677942205395, -0.8673982, 7.861619, 7.1916285, 0.28361177, 0.29753637, 10.682133
1134677951844770, -1.0348958, 6.033502, 6.9152575, -0.5854837, -0.42291784, 9.207241
1134677961484145, -0.97507524, 7.584051, 7.071987, 0.10886097, 0.29322195, 10.410752
1134677971123520, -0.910469, 6.3972116, 6.8602223, -0.295758, -0.25943756, 9.416004
1134677980762999, -0.9667004, 7.0540414, 6.765706, -0.02413845, 0.19049263, 9.819976
1134677990402374, -0.7190432, 7.1138616, 6.79442, 0.19742441, 0.06756973, 9.861271
1134678000041749, -0.7896315, 6.631708, 6.617351, -0.019392014, -0.046372414, 9.401588
1134678009681124, -0.52283174, 7.7647095, 6.9523463, 0.58385396, 0.21095991, 10.416994
1134678019320499, -0.76689965, 6.216553, 6.6963143, -0.21726441, -0.3274994, 9.160778
1134678028959874, -0.62811595, 7.9968133, 7.076773, 0.56428456, 0.31747198, 10.677317
1134678038599353, -0.8602197, 6.1854467, 6.843473, -0.36400843, -0.368181, 9.250124
1134678048238728, -0.89491564, 7.733603, 7.2095747, 0.19281244, 0.27522326, 10.605402
1134678057878103, -0.9906286, 6.4606214, 7.133004, -0.4241073, -0.3168726, 9.660253
1134678067517478, -1.1126626, 7.220342, 7.0875406, -0.16164684, 0.19938087, 10.175398
1134678077156853, -0.95712906, 7.0695944, 7.082755, -0.10245752, 0.034867764, 10.052312
1134678086796228, -1.1162517, 6.6221366, 6.847062, -0.35196972, 0.0216465, 9.584187
1134678096435707, -0.8362915, 7.6570325, 7.055238, 0.26356196, 0.305768, 10.437574
1134678106075082, -1.0073783, 6.198607, 6.7298136, -0.41737938, -0.20005584, 9.193133
1134678115714457, -0.77407813, 7.8867435, 7.094719, 0.3886578, 0.3768177, 10.622707
1134678125353832, -0.9020941, 6.099305, 6.77767, -0.40150118, -0.34035826, 9.147409
1134678134993207, -0.7752745, 7.3112698, 7.131808, 0.11464143, 0.037052155, 10.24226
1134678144632582, -0.8147561, 6.8099732, 7.140183, -0.15053248, -0.2126975, 9.897165
1134678154272061, -0.8219346, 6.963114, 7.176075, -0.09389925, -0.14628363, 10.031269
1134678163911436, -0.849452, 6.8865438, 7.1653075, -0.14797425, -0.15869474, 9.971991
1134678173550811, -0.8578269, 6.9344, 7.194021, -0.14313078, -0.14549446, 10.026666
1134678183190186, -0.8279166, 6.946364, 7.222735, -0.120021105, -0.16992426, 10.052961
1134678192829561, -0.7812566, 6.9762745, 7.173682, -0.049167156, -0.14702034, 10.035759
1134678202469041, -0.7106683, 7.025327, 7.1210403, 0.04980302, -0.12980413, 10.02747
1134678212108416, -0.6269195, 7.0492554, 7.0325055, 0.15884328, -0.1084466, 9.975178
1134678221747791, -0.5706882, 7.051648, 6.9128647, 0.23859763, -0.06379509, 9.888284
1134678231387166, -0.60777694, 7.036095, 6.7932234, 0.24124241, 0.023405552, 9.796182
1134678241026541, -0.6867401, 6.9882383, 6.708278, 0.17326784, 0.08414364, 9.709326
1134678250666020, -0.78364944, 6.977471, 6.6652074, 0.09741759, 0.1533184, 9.679422
1134678260305395, -0.8386843, 6.9894347, 6.674779, 0.05150199, 0.17916107, 9.69915
1134678269944770, -0.89371926, 6.983453, 6.754938, -0.022412777, 0.15358257, 9.755636
1134678279584145, -0.8877372, 6.9906316, 6.855437, -0.046807528, 0.0887866, 9.830765
1134678289223520, -0.8650054, 6.9726853, 6.920043, -0.0509696, 0.026884556, 9.861555
1134678298862999, -0.84825563, 6.975078, 6.928418, -0.03439045, 0.01641941, 9.867765
1134678308502374, -0.84825563, 6.9762745, 6.893722, -0.022849083, 0.039140224, 9.844254
1134678318141749, -0.8554341, 6.9320073, 6.867401, -0.035536528, 0.036229134, 9.795056
1134678327781124, -0.849452, 6.9128647, 6.8219376, -0.022576332, 0.05160904, 9.749098
1134678337420603, -0.8757731, 6.9523463, 6.802795, -0.024554968, 0.09984779, 9.765735
1134678347059978, -0.87218386, 6.9702926, 6.8709903, -0.036456585, 0.064804554, 9.826021
1134678356699353, -0.8889336, 6.954739, 6.9702926, -0.09192443, 0.0046749115, 9.8861065
1134678366338728, -0.94755775, 6.9415784, 7.0935225, -0.18736649, -0.049666405, 9.968143
1134678375978207, -1.0372887, 6.9415784, 7.186843, -0.28116822, -0.049647808, 10.041449
1134678385617582, -1.0695918, 6.928418, 7.271788, -0.33177376, -0.085217, 10.094977
1134678395256957, -1.0025927, 6.9451675, 7.3292155, -0.28706527, -0.14793539, 10.141679
1134678404896332, -0.89013004, 6.9523463, 7.348358, -0.18313551, -0.20388746, 10.15139
1134678414535811, -0.8362915, 6.930811, 7.2729845, -0.121421576, -0.1983738, 10.078579
1134678424175186, -0.82911307, 6.920043, 7.1018977, -0.06408143, -0.099068165, 9.949747
1134678433814561, -0.81834537, 6.946364, 6.9116683, 0.015208006, 0.027423382, 9.8332
1134678443453936, -0.7728817, 6.991828, 6.745367, 0.11984134, 0.1285553, 9.744337
1134678453093416, -0.6939186, 7.0289164, 6.6424756, 0.21643448, 0.15800667, 9.692156
1134678462732791, -0.6448657, 7.0432734, 6.5958157, 0.27296472, 0.1607542, 9.665815
1134678472372166, -0.7106683, 7.0097737, 6.6676, 0.17845511, 0.13378334, 9.697893
1134678482011541, -0.79800636, 6.9786673, 6.890133, 0.011053801, 0.022372246, 9.839306
1134678491651020, -0.8003992, 6.9475603, 7.135397, -0.08205056, -0.14185381, 9.989809
1134678501290395, -0.75613195, 6.936793, 7.140183, -0.05050993, -0.17427254, 9.981991
1134678510929770, -0.70348984, 6.966703, 7.088737, 0.037288904, -0.13917637, 9.962896
1134678520569249, -0.6329016, 7.0097737, 7.056434, 0.12564969, -0.13081884, 9.964832
1134678530208624, -0.59700924, 7.021738, 7.003792, 0.17664528, -0.10548401, 9.933376
1134678539847999, -0.60777694, 7.0576305, 6.9523463, 0.1995852, -0.047469616, 9.923334
1134678549487374, -0.64845496, 7.117451, 6.920043, 0.19607139, 0.027527332, 9.946175
1134678559126853, -0.63888365, 7.1653075, 6.8805614, 0.22540236, 0.06664753, 9.951717
1134678568766228, -0.6652047, 7.146165, 6.9009004, 0.18867254, 0.056090355, 9.954589
1134678578405603, -0.7645068, 7.066005, 6.897311, 0.068220854, 0.064441204, 9.903383
1134678588044978, -0.92602235, 6.9942207, 6.9296145, -0.10515213, 0.09044695, 9.888225
1134678597684457, -1.0408778, 6.9044895, 7.007381, -0.25967336, 0.05629635, 9.888791
1134678607323832, -1.0456635, 6.847062, 7.051648, -0.3046012, -0.0010137558, 9.879708
1134678616963207, -1.018146, 6.876972, 7.062416, -0.25496697, -0.0029273033, 9.906668
1134678626602686, -0.930808, 6.914061, 7.0779696, -0.16621566, -0.041569233, 9.9367485
1134678636242061, -0.79920274, 6.9702926, 7.055238, -0.022330761, -0.06705284, 9.949628
1134678645881436, -0.74416786, 6.9822564, 7.1066833, 0.012594938, -0.122456074, 9.989769
1134678655520916, -0.7429714, 7.007381, 7.1569324, 0.006393194, -0.13726997, 10.042817
1134678665160291, -0.7645068, 7.0301127, 7.176075, -0.0076458454, -0.12503576, 10.074093
1134678674799666, -0.7680961, 7.056434, 7.1222367, 0.01859045, -0.0735693, 10.055035
1134678684439041, -0.79441714, 7.0289164, 7.131808, -0.016726017, -0.08228016, 10.044521
1134678694078520, -0.81954175, 6.9702926, 7.117451, -0.053678274, -0.10010719, 9.99509
1134678703717895, -0.8745767, 6.927222, 7.036095, -0.092695, -0.04519558, 9.911976
1134678713357270, -0.8781659, 6.9009004, 6.9188466, -0.06733465, 0.0038204193, 9.811193
1134678722996749, -0.8781659, 6.893722, 6.8075805, -0.037426233, 0.06313515, 9.727917
1134678732636124, -0.84825563, 6.9128647, 6.7034926, 0.02614808, 0.117383, 9.665897
1134678742275499, -0.8458628, 6.9738817, 6.6305118, 0.074668884, 0.18913555, 9.657786
1134678751914978, -0.83030945, 7.0205417, 6.652047, 0.102226734, 0.19281483, 9.704615
1134678761554353, -0.8327023, 7.012167, 6.7058854, 0.072387695, 0.14455748, 9.73687
1134678771193728, -0.863809, 7.0097737, 6.77767, 0.021445274, 0.114397526, 9.788073
1134678780833207, -0.8817552, 7.025327, 6.814759, 0.0091872215, 0.106220245, 9.826611
1134678790472582, -0.87338024, 7.0432734, 6.8650084, 0.008559942, 0.07992554, 9.873821
1134678800111957, -0.83389866, 6.987042, 6.8913293, 0.014424324, 0.010714531, 9.8490715
1134678809751436, -0.8865408, 6.9224358, 6.928418, -0.064306736, -0.018308163, 9.833849
1134678819390811, -0.9882358, 6.875776, 6.923632, -0.16358805, 0.01500988, 9.806253
1134678829030186, -1.0516455, 6.8745794, 6.896115, -0.2048223, 0.06712675, 9.7916155
1134678838669666, -1.0468599, 6.9056864, 6.8171515, -0.15867996, 0.13000154, 9.757863
1134678848309041, -0.997807, 6.9296145, 6.7645097, -0.089360714, 0.14717674, 9.73366
1134678857948416, -0.9451649, 6.96431, 6.7812595, -0.034730434, 0.12567568, 9.765421
1134678867587895, -0.89371926, 6.96431, 6.8542404, -0.018892288, 0.05086994, 9.812136
1134678877227270, -0.8422736, 6.9882383, 6.910472, 0.015399456, 0.004152298, 9.864038
1134678886866645, -0.7848458, 6.9894347, 7.0133634, 0.028748274, -0.090918064, 9.932087
1134678896506124, -0.7812566, 6.9655066, 7.0863442, -0.0016710758, -0.14435625, 9.966146
1134678906145499, -0.8135597, 6.9822564, 7.003792, 0.008601427, -0.061984062, 9.922851
1134678915784874, -0.85064846, 6.969096, 6.940382, -0.005339861, -0.0070881844, 9.872222
1134678925424353, -0.85902333, 6.9966135, 6.926025, 0.0039839745, 0.023917198, 9.882296
1134678935063728, -0.82911307, 7.01097, 6.9355965, 0.03086567, 0.012011528, 9.896591
1134678944703207, -0.7956135, 7.036095, 6.9786673, 0.05599475, -0.018288612, 9.941729
1134678954342582, -0.7322037, 7.0839515, 6.971489, 0.13053107, -0.017459393, 9.965078
1134678963981957, -0.7106683, 7.092326, 6.984649, 0.14661479, -0.027430534, 9.978437
1134678973621436, -0.7262217, 7.070791, 7.1473613, 0.07207084, -0.13065434, 10.078988
1134678983260811, -0.74177504, 7.0265236, 7.251449, 0.0058386326, -0.21337795, 10.122264
1134678992900186, -0.7704889, 7.0265236, 7.1952176, 0.0024180412, -0.15962315, 10.085205
1134679002539666, -0.80757767, 6.9966135, 7.0815587, -2.8777122E-4, -0.08563423, 9.987288
1134679012179041, -0.84347, 6.9738817, 6.9559355, 2.8157234E-4, -0.0047016144, 9.885923
1134679021818416, -0.849452, 6.9595246, 6.818348, 0.031047583, 0.07107735, 9.7795925
1134679031457895, -0.85184485, 6.957132, 6.725028, 0.05875826, 0.12984276, 9.712519
1134679041097270, -0.85184485, 6.943971, 6.6652074, 0.06673789, 0.15489006, 9.66131
1134679050736749, -0.8470592, 6.9583282, 6.63769, 0.081860065, 0.17333889, 9.65184
1134679060376124, -0.8219346, 6.9726853, 6.695118, 0.08951473, 0.12921476, 9.700196
1134679070015499, -0.8422736, 6.96431, 6.903293, 0.004405737, 0.006140232, 9.842077
1134679079654978, -0.8243274, 6.9942207, 7.09113, -0.02210927, -0.100765705, 9.993605
1134679089294353, -0.85902333, 6.9822564, 7.1712894, -0.08293533, -0.14027596, 10.0444355
1134679098933728, -0.92602235, 6.9762745, 7.1509504, -0.12887883, -0.09093475, 10.031806
