timestamp_acc,device_acc_x,device_acc_y,device_acc_z,earth_acc_x,earth_acc_y,earth_acc_z
699575167937452, 0.22612174, 4.4745784, 8.841479, -0.013362408, 0.04865575, 9.91172
699575177575681, 0.1591227, 4.5224347, 8.85823, -0.085789114, 0.07445574, 9.946511
699575187213806, 0.18305093, 4.5020957, 8.9108715, -0.0654569, 0.026857615, 9.985039
699575196852035, 0.24526432, 4.453043, 8.9013, 3.8024783E-4, -0.013381004, 9.956039
699575206490264, 0.276371, 4.438686, 8.891729, 0.031589687, -0.022623539, 9.941814
699575216128494, 0.27158538, 4.421936, 8.9312105, 0.028776228, -0.05026436, 9.969476
699575225766619, 0.31944183, 4.4458647, 9.010174, 0.076829016, -0.05952382, 10.051942
699575235404848, 0.34576288, 4.4985065, 9.029316, 0.10424039, -0.016345024, 10.093242
699575245043077, 0.2955136, 4.5296135, 9.036494, 0.05293627, 0.010165691, 10.112371
699575254681306, 0.23569304, 4.516453, 8.991031, -0.007875845, 0.017350197, 10.064401
699575264319431, 0.14955142, 4.475775, 8.88455, -0.09185916, 0.020696163, 9.9489355
699575273957660, 0.13519448, 4.436293, 8.768498, -0.10074918, 0.032910347, 9.827225
699575283595889, 0.17228323, 4.4075794, 8.650054, -0.05790779, 0.05675721, 9.709444
699575293234119, 0.24885355, 4.371687, 8.584251, 0.020387635, 0.053232193, 9.6363735
699575302872244, 0.32542387, 4.3669014, 8.549556, 0.1006728, 0.06587744, 9.605008
699575312510473, 0.32063824, 4.4039903, 8.567501, 0.094462454, 0.0936389, 9.637548
699575322148702, 0.3278167, 4.4685965, 8.695518, 0.09855926, 0.0935998, 9.781071
699575331786931, 0.32422748, 4.5296135, 8.841479, 0.08377582, 0.0878253, 9.938789
699575341425056, 0.29910284, 4.540381, 8.941978, 0.05100271, 0.052838087, 10.032852
699575351063285, 0.2440679, 4.4949174, 9.012567, -0.010995507, -0.019227028, 10.074209
699575360701514, 0.2213361, 4.430311, 9.026923, -0.037191868, -0.083738804, 10.057514
699575370339744, 0.24765715, 4.395615, 8.967103, -0.009998679, -0.087969065, 9.989187
699575379977869, 0.32063824, 4.4279184, 8.896515, 0.06553179, -0.028942585, 9.94244
699575389616098, 0.40797627, 4.5044885, 8.807981, 0.15594545, 0.080559015, 9.899828
699575399254327, 0.43429732, 4.5487556, 8.825927, 0.18353632, 0.11751628, 9.936261
699575408892556, 0.47138608, 4.668397, 8.940782, 0.21731931, 0.17512083, 10.093355
699575418530681, 0.5838487, 4.82752, 9.170493, 0.32257864, 0.21428442, 10.372744
699575428168910, 0.64965135, 4.8693943, 9.347562, 0.38291925, 0.17403173, 10.55145
699575437807139, 0.58504516, 4.772485, 9.523434, 0.32033998, -0.001080513, 10.663586
699575447445369, 0.4139583, 4.5966125, 9.355937, 0.15418147, -0.081754684, 10.430884
699575457083494, 0.08853444, 4.4243293, 9.177671, -0.14346075, -0.16942668, 10.186407
699575466721723, -0.11485548, 4.2664027, 8.939586, -0.3426159, -0.19799447, 9.8982315
699575476359952, -0.15553348, 4.182654, 8.723035, -0.33357027, -0.1969018, 9.667477
699575485998181, -0.124426775, 4.152744, 8.532805, -0.29944628, -0.13637853, 9.484792
699575495636306, -0.41754755, 4.0307097, 7.463214, -0.54959166, 0.23678827, 8.47127
699575505274535, -0.52522457, 4.1635113, 7.6869426, -0.6426111, 0.25863504, 8.730403
699575514912764, -0.18664017, 4.336991, 8.864211, -0.31037292, -0.11014128, 9.86459
699575524550994, 0.15314065, 4.430311, 9.38465, 0.018809617, -0.2259388, 10.376482
699575534189119, 0.23569304, 4.3764725, 9.35474, 0.10002516, -0.24580097, 10.327139
699575543827348, 0.124426775, 4.395615, 9.262616, -0.010166541, -0.18570161, 10.25175
699575553465577, 0.013160525, 4.3836513, 9.09153, -0.12328482, -0.108190775, 10.091858
699575563103806, 0.03708875, 4.2963133, 8.94796, -0.09555423, -0.119712114, 9.9248295
699575572741931, 0.07298109, 4.2664027, 8.796016, -0.05667509, -0.08010793, 9.775879
699575582380160, 0.09212367, 4.319045, 8.785249, -0.03655073, -0.028121948, 9.789848
699575592018389, 0.09930214, 4.432704, 8.87139, -0.032170445, 0.035223484, 9.91756
699575601656619, 0.14237295, 4.493721, 9.017352, 0.0039602965, 0.022274494, 10.07601
699575611294744, 0.21415763, 4.5152564, 9.12144, 0.0671048, -0.009418011, 10.179856
699575620932973, 0.19860429, 4.517649, 9.09153, 0.045622557, 0.002231598, 10.153935
699575630571202, 0.11844472, 4.476971, 8.970692, -0.036785543, 0.017805338, 10.026413
699575640209327, 0.13040884, 4.432704, 8.900104, -0.02556768, 0.007826805, 9.943691
699575649847556, 0.18065812, 4.4075794, 8.860622, 0.025290325, 0.0018250942, 9.897948
699575659485785, 0.23330021, 4.4195433, 8.790034, 0.0804366, 0.049332857, 9.840863
699575669124014, 0.24765715, 4.421936, 8.725428, 0.09582794, 0.08049345, 9.784287
699575678762139, 0.276371, 4.487739, 8.7780695, 0.12366745, 0.1225698, 9.861054
699575688400369, 0.2943172, 4.4781675, 8.866604, 0.13927901, 0.0813179, 9.936361
699575698038598, 0.2620141, 4.453043, 8.896515, 0.10096115, 0.05342555, 9.951541
699575707676827, 0.23569304, 4.429115, 8.836694, 0.075638965, 0.058566093, 9.88689
699575717314952, 0.25842485, 4.430311, 8.709874, 0.09409852, 0.11376047, 9.7741785
699575726953181, 0.2847459, 4.4315076, 8.646464, 0.12157054, 0.14274001, 9.71831
699575736591410, 0.36011982, 4.429115, 8.670393, 0.19223449, 0.12800074, 9.740079
699575746229535, 0.41156548, 4.485346, 8.793623, 0.23109403, 0.1207726, 9.876616
699575755867764, 0.4223332, 4.5391846, 8.928818, 0.24004452, 0.10684657, 10.021842
699575765505994, 0.29312077, 4.517649, 8.989835, 0.10291812, 0.06185627, 10.064679
699575775144223, 0.15553348, 4.4339004, 8.968299, -0.043376893, -0.0026938915, 10.005607
699575784782348, 0.02632105, 4.3274198, 8.85464, -0.17149612, -0.041971684, 9.853971
699575794420577, -0.039481573, 4.28076, 8.742178, -0.23312819, -0.03397727, 9.731221
699575804058806, 0.016749758, 4.301099, 8.754142, -0.17205961, -0.015888453, 9.752174
699575813697035, 0.09571291, 4.328616, 8.898908, -0.09814721, -0.051012516, 9.895676
699575823335160, 0.14237295, 4.371687, 9.08794, -0.05674997, -0.097788095, 10.085128
699575832973389, 0.19142582, 4.415954, 9.15494, -0.015968919, -0.074456215, 10.165847
699575842611619, 0.18185452, 4.4243293, 9.113065, -0.02332279, -0.048454285, 10.131773
699575852249744, 0.17347965, 4.398008, 9.077172, -0.038237378, -0.050627947, 10.087796
699575861887973, 0.16271193, 4.3298125, 9.042477, -0.04977466, -0.09547877, 10.026394
699575871526202, 0.19860429, 4.2759743, 8.987442, -0.012478396, -0.1183722, 9.9540615
699575881164431, 0.19980069, 4.2855453, 8.971889, -0.009532556, -0.10000205, 9.944371
699575890802556, 0.15672988, 4.3034916, 9.017352, -0.053753585, -0.10326004, 9.992182
699575900440785, 0.148355, 4.371687, 8.989835, -0.058663785, -0.0245471, 9.997338
699575910079014, 0.12562318, 4.4374895, 8.991031, -0.08141063, 0.033858538, 10.026864
699575919717244, 0.18903299, 4.4602213, 8.950353, -0.016750187, 0.070064306, 10.001647
699575929355369, 0.25603202, 4.465007, 8.967103, 0.04902923, 0.06528306, 10.0201845
699575938993598, 0.31944183, 4.4578285, 9.044869, 0.1105507, 0.025510073, 10.088166
699575948631827, 0.36131623, 4.45065, 9.089137, 0.1454468, -0.004395008, 10.125714
699575958269952, 0.31106696, 4.426722, 9.093923, 0.09227876, -0.030240774, 10.118429
699575967908181, 0.18185452, 4.392026, 9.02453, -0.03503591, -0.029808521, 10.038078
699575977546410, 0.08733802, 4.334598, 9.0233345, -0.13009742, -0.08093834, 10.009668
699575987184639, 0.083748795, 4.2867417, 9.000603, -0.12610494, -0.114061356, 9.968204
699575996822764, 0.1052842, 4.2245283, 8.969496, -0.10416637, -0.15599847, 9.913344
699576006460994, 0.1363909, 4.2771707, 8.916854, -0.06784308, -0.08506322, 9.889955
699576016099223, 0.16271193, 4.3334017, 8.835498, -0.036843672, 0.0022671223, 9.842231
699576025737348, 0.23449662, 4.3788652, 8.827123, 0.036814407, 0.0455842, 9.856172
699576035375577, 0.276371, 4.429115, 8.823533, 0.07789704, 0.09047747, 9.875927
699576045013806, 0.37208393, 4.499703, 8.839087, 0.17107424, 0.14226198, 9.922989
699576054652035, 0.43788654, 4.558327, 8.853444, 0.22857186, 0.1769464, 9.963433
699576064290160, 0.4534399, 4.5714874, 8.865408, 0.2452355, 0.18139672, 9.980308
699576073928389, 0.3684947, 4.5092745, 8.88455, 0.15480751, 0.11359763, 9.968336
699576083566619, 0.24885355, 4.4135613, 8.891729, 0.032364517, 0.021235943, 9.929895
699576093204744, 0.09930214, 4.281956, 8.853444, -0.11211185, -0.08057952, 9.834095
699576102842973, 0.046660043, 4.2364926, 8.834301, -0.16558494, -0.11031246, 9.79568
699576112481202, 0.0011964113, 4.2185464, 8.830712, -0.19976935, -0.117944, 9.783855
699576122119431, 0.03589234, 4.2664027, 8.7984085, -0.15890159, -0.05771017, 9.7768545
699576131757556, 0.13998012, 4.3501515, 8.768498, -0.04992476, 0.02852416, 9.789109
699576141395785, 0.19740787, 4.429115, 8.700303, 0.010160565, 0.12706852, 9.763966
699576151034014, 0.22851457, 4.453043, 8.676374, 0.040220022, 0.15613842, 9.753734
699576160672139, 0.21415763, 4.4350967, 8.711071, 0.023128927, 0.12544441, 9.776627
699576170310369, 0.19501504, 4.4446683, 8.760123, -0.006833315, 0.11326885, 9.824459
699576179948598, 0.18783657, 4.456632, 8.863015, -0.022534698, 0.08256364, 9.9218235
699576189586827, 0.19621146, 4.442275, 9.052048, -0.026132226, -0.00863409, 10.085194
699576199224952, 0.22372891, 4.406383, 9.284152, -0.010997385, -0.1383233, 10.278254
699576208863181, 0.29910284, 4.4458647, 9.487542, 0.059589118, -0.19379163, 10.479863
699576218501410, 0.2835495, 4.133601, 9.408579, 0.04292305, -0.43599582, 10.271148
699576228139535, 0.38524446, 4.7952166, 9.333204, 0.14814289, 0.18806076, 10.49733
699576237777764, 0.15792629, 3.7830527, 8.835498, -0.06499426, -0.49919963, 9.599429
699576247415994, 0.3684947, 5.069195, 8.997013, 0.14720826, 0.5690222, 10.316654
699576257054223, 0.2009971, 3.830909, 8.737391, -0.011272237, -0.42364502, 9.533031
699576266692348, 0.25004998, 5.022535, 8.919247, 0.034650072, 0.5501032, 10.22436
699576276330577, 0.16151553, 4.0570307, 8.825927, -0.044207335, -0.268723, 9.711251
699576285968806, 0.10049855, 4.5882373, 8.813962, -0.093878604, 0.20864582, 9.9345665
699576295606931, 0.2416751, 4.3728833, 8.9108715, 0.04441324, -0.029411793, 9.928811
699576305245160, 0.078963146, 4.082155, 8.7015, -0.107278764, -0.19442296, 9.609217
699576314883389, 0.3278167, 4.8693943, 8.980264, 0.14595395, 0.38752913, 10.212352
699576324521514, 0.20338993, 3.8775692, 8.682357, 0.010427713, -0.37241197, 9.503759
699576334159744, 0.34097722, 5.123033, 8.962317, 0.1635007, 0.6162162, 10.309141
699576343797973, 0.13399807, 3.7076788, 8.715857, -0.07372695, -0.53008413, 9.457514
699576353436202, 0.23569304, 4.968696, 8.874979, 0.062571675, 0.51954603, 10.160459
699576363074327, 0.1471586, 3.9625144, 8.718249, -0.0585427, -0.3183267, 9.572162
699576372712556, 0.09332009, 4.610969, 8.705089, -0.082913786, 0.27588606, 9.847097
699576382350785, 0.23330021, 4.371687, 8.82832, 0.04129383, -0.003494501, 9.854115
699576391988910, 0.1268196, 4.133601, 8.675179, -0.06987479, -0.13826156, 9.609239
699576401627139, 0.31106696, 4.8047876, 8.946764, 0.1327261, 0.3394854, 10.153545
699576411265369, -0.0047856453, 3.711268, 8.723035, -0.22006784, -0.52401733, 9.462657
699576420903494, 0.16869399, 4.9567323, 9.096315, -0.005645275, 0.43009663, 10.3516
699576430541723, 0.013160525, 3.5389848, 8.88455, -0.20847562, -0.73951674, 9.532549
699576440179952, 0.14356937, 4.8658047, 9.107083, -0.036883384, 0.3403015, 10.320778
699576449818181, 0.06699903, 3.8285162, 8.99462, -0.14032567, -0.5311134, 9.760301
699576459456306, 0.07178468, 4.621737, 9.040084, -0.11729972, 0.1609602, 10.15131
699576469094535, 0.16151553, 4.386044, 9.073584, -0.036347926, -0.06726456, 10.079065
699576478732764, 0.014356935, 4.182654, 8.841479, -0.17647095, -0.1474526, 9.778225
699576488370889, 0.25722843, 4.8011985, 8.989835, 0.06806925, 0.33887744, 10.188981
699576498009119, 0.09092726, 3.8057845, 8.669196, -0.09527424, -0.40748477, 9.458969
699576507647348, 0.3589234, 5.099105, 9.071191, 0.1725525, 0.5681567, 10.395366
699576517285473, 0.19740787, 3.7160535, 8.900104, 0.007223353, -0.5820625, 9.629175
699576526923702, 0.36251262, 5.1062837, 9.12503, 0.18316329, 0.5577798, 10.446389
699576536561931, 0.24885355, 3.9756749, 8.88455, 0.057562396, -0.3322866, 9.730848
699576546200160, 0.16869399, 4.706682, 8.812766, -0.007440418, 0.35166192, 9.986112
699576555838285, 0.22731815, 4.260421, 8.792427, 0.04553601, -0.03888583, 9.772719
699576565476514, 0.106480606, 4.104887, 8.6548395, -0.07419112, -0.113511086, 9.578585
699576575114744, 0.33738798, 4.7377887, 9.007781, 0.16305217, 0.29228473, 10.177847
699576584752869, 0.14117654, 3.8177485, 8.868998, -0.06134367, -0.45934606, 9.645699
699576594391098, 0.43070808, 5.1529436, 9.293723, 0.2581545, 0.5336957, 10.618858
699576604029327, 0.20578274, 3.7806597, 8.989835, -0.010442495, -0.5530126, 9.738939
699576613667452, 0.32303107, 5.150551, 9.165708, 0.15067643, 0.5919161, 10.500936
699576623305681, 0.20817557, 3.9050865, 8.913264, -0.0067541003, -0.40025687, 9.725178
699576632943910, 0.22013968, 4.7282176, 8.945567, 0.029615283, 0.31891727, 10.115586
699576642582035, 0.3182454, 4.2831526, 9.000603, 0.110272914, -0.11340189, 9.971585
699576652220264, 0.22851457, 4.3525443, 8.851051, 0.027016073, 0.021627426, 9.86594
699576661858494, 0.45942193, 4.9052863, 9.089137, 0.26170954, 0.4077947, 10.327176
699576671496619, 0.19621146, 3.9314077, 8.851051, -0.017780095, -0.35760617, 9.680256
699576681134848, 0.31226337, 5.063213, 9.169296, 0.12635607, 0.52148724, 10.465261
699576690773077, -0.023928227, 3.5533416, 8.82114, -0.24467342, -0.6673286, 9.48336
699576700411202, 0.08733802, 4.8394837, 8.970692, -0.10062711, 0.41114783, 10.184419
699576710049431, -0.015553347, 3.5784662, 8.738588, -0.2294108, -0.59904504, 9.421099
699576719687660, 0.07776674, 4.5858445, 8.835498, -0.09698078, 0.25303102, 9.951313
699576729325889, 0.13040884, 4.1694937, 8.897711, -0.057574987, -0.14103913, 9.8258705
699576738964014, 0.062213387, 4.2771707, 8.796016, -0.11618815, 0.0015389919, 9.78031
699576748602244, 0.29312077, 4.759324, 9.013762, 0.124622434, 0.33051825, 10.191184
699576758240473, 0.104087785, 3.9038901, 8.776874, -0.094787806, -0.32459688, 9.600539
699576767878598, 0.3397808, 5.048856, 9.175279, 0.1665062, 0.5104523, 10.46441
699576777516827, 0.08973085, 3.65384, 9.040084, -0.13753274, -0.66447544, 9.727345
699576787155056, 0.19621146, 4.999803, 9.37149, 0.0055842996, 0.39438725, 10.616299
699576796793181, 0.046660043, 3.6849468, 9.136993, -0.18361601, -0.6766591, 9.82721
699576806431410, 0.07058827, 4.664808, 9.180064, -0.12581764, 0.17206335, 10.295317
699576816069639, 0.08135597, 4.0558343, 9.108279, -0.12454642, -0.3402865, 9.96423
699576825707764, 0.009571291, 4.2221355, 8.896515, -0.17649418, -0.09082627, 9.845562
699576835345994, 0.20697916, 4.5834517, 9.077172, 0.025124907, 0.14503026, 10.169772
699576844984223, 0.021535404, 3.8333018, 8.843872, -0.17491826, -0.4163549, 9.628333
699576854622452, 0.25722843, 5.050052, 9.158528, 0.09228301, 0.5245266, 10.448166
699576864260577, 0.10289137, 3.7818563, 8.87139, -0.09398845, -0.48575282, 9.63171
699576873898806, 0.3505485, 5.188836, 9.156136, 0.19311687, 0.64838004, 10.508284
699576883537035, 0.2656033, 3.839284, 8.909675, 0.07105976, -0.453403, 9.6944475
699576893175160, 0.29192436, 4.88734, 8.912068, 0.1359294, 0.4772303, 10.1562805
699576902813389, 0.3481557, 4.206582, 8.827123, 0.17119089, -0.09664321, 9.782433
699576912451619, 0.30029923, 4.482953, 8.683554, 0.13760766, 0.20655465, 9.773924
699576922089744, 0.4031906, 4.74736, 8.85464, 0.23642957, 0.3685987, 10.04554
699576931727973, 0.1160519, 4.025924, 8.636893, -0.05623144, -0.18017697, 9.52795
699576941366202, 0.35174492, 5.0416775, 9.049655, 0.18237069, 0.5404589, 10.349549
699576951004327, 0.104087785, 3.6454654, 8.847462, -0.088407606, -0.61719537, 9.549299
699576960642556, 0.3062813, 5.042874, 9.111869, 0.13521388, 0.5034046, 10.405712
699576970280785, 0.18544376, 3.714857, 8.82832, -0.007126391, -0.55191994, 9.56395
699576979918910, 0.22253251, 4.8693943, 8.906086, 0.058381915, 0.44455767, 10.142873
699576989557139, 0.23688944, 4.1288157, 8.909675, 0.0509589, -0.22219944, 9.82006
699576999195369, 0.21535404, 4.4913282, 8.907282, 0.04027456, 0.09533501, 9.977343
699577008833598, 0.45702913, 4.7042894, 9.0951185, 0.2818185, 0.19447327, 10.244176
699577018471723, 0.25722843, 4.1276193, 8.877372, 0.070310414, -0.22340727, 9.790621
699577028109952, 0.3278167, 5.123033, 9.020942, 0.1693041, 0.59569335, 10.360832
699577037748181, 0.038285162, 3.7160535, 8.706285, -0.14958748, -0.5122738, 9.451199
699577047386306, 0.22372891, 5.0548377, 9.005388, 0.07767314, 0.5359664, 10.315287
699577057024535, -0.0011964113, 3.6729827, 8.797213, -0.18588734, -0.59443283, 9.512826
699577066662764, 0.046660043, 4.8047876, 8.873783, -0.09074569, 0.38275528, 10.083525
699577076300889, 0.025124637, 3.9445682, 8.855837, -0.13695079, -0.36723328, 9.686717
699577085939119, 0.008374879, 4.3525443, 8.96471, -0.13589485, -0.0495615, 9.964428
699577095577348, 0.1698904, 4.4721856, 9.250652, 0.032704502, -0.06386185, 10.276124
699577105215473, -0.023928227, 3.9433718, 9.042477, -0.17412876, -0.43582678, 9.853774
699577114853702, 0.18664017, 4.892126, 9.237492, 0.07717338, 0.32239628, 10.449358
699577124491931, -0.062213387, 3.6801612, 8.836694, -0.20583916, -0.57666326, 9.552995
699577134130160, 0.14356937, 5.133801, 8.985049, 0.051313907, 0.64291096, 10.329166
699577143768285, 0.02751746, 3.760321, 8.702696, -0.098333955, -0.45354342, 9.469019
699577153406514, 0.19142582, 4.9926243, 8.906086, 0.11237341, 0.54063416, 10.196881
699577163044744, 0.19501504, 4.101298, 8.971889, 0.07439926, -0.28752494, 9.862314
699577172682869, 0.086141616, 4.581059, 9.030513, -0.012638122, 0.12797523, 10.125569
699577182321098, 0.15672988, 4.5272202, 9.202796, 0.05005631, -0.0026421547, 10.257156
699577191959327, -0.08973085, 4.0366917, 8.969496, -0.20604946, -0.32651496, 9.828821
699577201597452, 0.13519448, 4.8681974, 9.165708, 0.057437778, 0.3254509, 10.373939
699577211235681, -0.043070808, 3.6394832, 8.894122, -0.16161664, -0.6533294, 9.586455
699577220873910, 0.21415763, 5.038088, 9.212367, 0.15679541, 0.4555502, 10.491129
699577230512139, 0.076570325, 3.6861434, 8.882157, -0.026710898, -0.60284567, 9.598025
699577240150264, 0.2117648, 4.9974103, 8.965906, 0.1543701, 0.530113, 10.251906
699577249788494, 0.15553348, 4.0438704, 8.786445, 0.072409794, -0.2447989, 9.6702385
699577259426723, 0.061016977, 4.618148, 8.719446, 0.001957655, 0.29231, 9.862774
699577269064848, 0.13280165, 4.4674, 8.823533, 0.076659545, 0.10442138, 9.8900585
699577278703077, -0.06699903, 4.0677986, 8.635697, -0.13373867, -0.16137195, 9.543733
699577288341306, 0.16869399, 4.901697, 8.87139, 0.13532001, 0.46793675, 10.125185
699577297979431, -0.1052842, 3.769892, 8.609376, -0.17082393, -0.41440344, 9.388483
699577307617660, 0.08135597, 5.103891, 8.9826565, 0.055949107, 0.6111934, 10.313476
699577317255889, -0.11964113, 3.5880375, 8.7577305, -0.18891096, -0.6399071, 9.441451
699577326894119, -0.049052864, 4.8059845, 8.865408, -0.07050054, 0.39099288, 10.076582
699577336532244, -0.15792629, 3.7591243, 8.685946, -0.21000162, -0.451859, 9.452691
699577346170473, -0.22492532, 4.432704, 8.691928, -0.24547747, 0.1438055, 9.755416
699577355808702, -0.05742774, 4.3154554, 8.848659, -0.07455033, -0.029358625, 9.844734
699577365446827, -0.13758731, 4.121637, 8.758927, -0.15938106, -0.16099143, 9.67855
699577375085056, 0.1591227, 4.9435716, 9.09153, 0.16376121, 0.4176302, 10.340159
699577384723285, -0.034695927, 3.867998, 8.82832, -0.07557191, -0.4189608, 9.629154
699577394361514, 0.13160525, 5.157729, 8.992228, 0.14283325, 0.64452815, 10.346199
699577403999639, -0.11964113, 3.6634114, 8.5938225, -0.16530561, -0.50304437, 9.327826
699577413637869, 0.03708875, 4.907679, 8.816355, 0.03791836, 0.49305606, 10.078207
699577423276098, -0.041874398, 3.7998023, 8.82473, -0.08979267, -0.48960185, 9.595224
699577432914223, -0.05623133, 4.5619164, 9.018549, -0.07024747, 0.12552834, 10.10583
699577442552452, 0.041874398, 4.3094735, 9.177671, 0.015823692, -0.16912174, 10.137756
699577452190681, -0.18424734, 4.109673, 9.014959, -0.21152678, -0.2558806, 9.903667
699577461828910, 0.062213387, 4.7306104, 9.164511, 0.063512, 0.2313981, 10.310831
699577471467035, -0.19621146, 3.6490545, 8.756535, -0.2232323, -0.5543997, 9.4696245
699577481105264, -0.025124637, 4.9519463, 9.010174, -0.01453612, 0.5063219, 10.268839
699577490743494, -0.23090738, 3.5365918, 8.756535, -0.25204456, -0.6578579, 9.420265
699577500381723, -0.076570325, 4.895715, 9.103494, -0.077308595, 0.40526915, 10.328467
699577510019848, -0.17826529, 3.7830527, 9.062816, -0.19113383, -0.57364726, 9.803687
699577519658077, -0.21655045, 4.564309, 9.103494, -0.22297724, 0.121151924, 10.182781
699577529296306, -0.15074782, 4.152744, 9.079565, -0.16466348, -0.2386179, 9.981106
699577538934431, -0.3385844, 3.973282, 8.799605, -0.3540115, -0.27281547, 9.650643
699577548572660, -0.09092726, 4.5726843, 8.941978, -0.085590415, 0.20086598, 10.041366
699577558210889, -0.22013968, 3.7040894, 8.612965, -0.23720534, -0.42317295, 9.365712
699577567849119, 0.16869399, 5.0679984, 8.953942, 0.21255034, 0.63124967, 10.268518
699577577487244, 0.025124637, 3.7244284, 8.69791, 0.0024522245, -0.45471263, 9.450867
699577587125473, 0.25124636, 5.130212, 8.867801, 0.29428196, 0.7240224, 10.218086
699577596763702, 0.20937198, 3.871587, 8.609376, 0.18925095, -0.28626633, 9.435923
699577606401931, 0.13758731, 4.6552362, 8.6141615, 0.1403043, 0.40639472, 9.783104
699577616040056, 0.11365908, 4.152744, 8.6141615, 0.0917899, -0.03860283, 9.563058
699577625678285, -0.05503492, 4.1347976, 8.433503, -0.07853316, 0.025038958, 9.392378
699577635316514, 0.18424734, 4.6612186, 8.693125, 0.16857764, 0.38713694, 9.856625
699577644954744, -0.033499517, 3.7615173, 8.56152, -0.08246494, -0.3551767, 9.344347
699577654592869, 0.2428715, 5.0452666, 9.007781, 0.23372237, 0.5905254, 10.307785
699577664231098, 0.10049855, 3.723232, 8.868998, 0.026525289, -0.5231149, 9.605068
699577673869327, 0.22492532, 5.1673007, 9.170493, 0.19981107, 0.6357274, 10.507401
699577683507556, 0.13160525, 3.8991046, 8.99821, 0.043721765, -0.41263008, 9.798774
699577693145681, 0.18424734, 4.881358, 9.126225, 0.116941035, 0.408607, 10.342581
699577702783910, 0.30269206, 4.402794, 9.237492, 0.19425806, -0.07709956, 10.235416
699577712422139, 0.19262223, 4.4925246, 9.218349, 0.07849601, 0.022647858, 10.256275
699577722060369, 0.40677986, 4.851448, 9.533006, 0.2907578, 0.20442724, 10.698314
699577731698598, 0.14955142, 3.9613178, 9.315259, -0.0010042489, -0.48488355, 10.112039
699577741336723, 0.27038896, 5.048856, 9.600004, 0.15969396, 0.37846613, 10.842296
699577750974952, -0.04546363, 3.5617166, 9.15494, -0.20110461, -0.75295615, 9.792519
699577760613181, 0.058624156, 4.894519, 9.1872425, -0.038618192, 0.44257593, 10.400376
699577770251410, -0.0741775, 3.591627, 8.816355, -0.1998374, -0.5664785, 9.501188
699577779889535, 0.011964113, 4.6528435, 8.848659, -0.07895556, 0.37735724, 9.989957
699577789527764, 0.19142582, 4.1144586, 8.874979, 0.08416709, -0.13232732, 9.7829485
699577799165994, 0.22013968, 4.3645086, 8.82114, 0.12259683, 0.11715269, 9.842823
699577808804223, 0.41156548, 4.7306104, 9.0233345, 0.30550754, 0.34721184, 10.186007
699577818442348, 0.13399807, 3.900301, 8.7577305, 0.011124536, -0.27562428, 9.583947
699577828080577, 0.26679972, 4.9316072, 9.064013, 0.15223375, 0.5071914, 10.308632
699577837718806, -0.05503492, 3.5270207, 8.748159, -0.20515172, -0.61531067, 9.4102335
699577847357035, 0.12562318, 4.9531426, 9.005388, 0.002860561, 0.5507705, 10.263678
699577856995264, 0.07058827, 3.6478581, 8.842676, -0.081074506, -0.53738236, 9.550364
699577866633389, 0.17108682, 4.773681, 9.004191, 0.049345225, 0.400532, 10.184789
699577876271619, 0.19381863, 4.085745, 9.064013, 0.04970348, -0.23015642, 9.941417
699577885909848, 0.12203395, 4.3262234, 9.084352, -0.013578892, -0.01793909, 10.062607
699577895548077, 0.23330021, 4.490132, 9.280562, 0.09226379, 0.052121878, 10.311804
699577905186202, -0.041874398, 3.7208393, 9.0029955, -0.20953947, -0.5077841, 9.72618
699577914824431, 0.18664017, 4.7653065, 9.335598, 0.048642486, 0.27920723, 10.479316
699577924462660, -0.061016977, 3.455236, 9.0544405, -0.24769092, -0.7580433, 9.658639
699577934100889, 0.11964113, 4.8825545, 9.355937, -0.018834144, 0.39953184, 10.5464325
699577943739119, -0.009571291, 3.591627, 9.1465645, -0.18549708, -0.6748431, 9.801516
699577953377348, 0.10887343, 4.773681, 9.273384, -0.035397306, 0.3314662, 10.425182
699577963015473, 0.076570325, 4.0067816, 9.213564, -0.076897934, -0.32184052, 10.041933
699577972653702, -0.10887343, 4.28076, 9.059227, -0.24982835, -0.005769253, 10.01718
699577982291931, -0.029910283, 4.3992043, 9.0747795, -0.1646083, 0.09120655, 10.083161
699577991930160, -0.21774685, 3.7591243, 8.740981, -0.35182822, -0.34182882, 9.504871
699578001568389, 0.13998012, 4.7772703, 9.114262, 0.016388193, 0.41622734, 10.282907
699578011206514, 0.046660043, 3.5509489, 8.91805, -0.09254663, -0.6121557, 9.579131
699578020844744, 0.28953153, 5.0440702, 9.221938, 0.1705227, 0.6101687, 10.496153
699578030482973, 0.14117654, 3.7016966, 8.9348, -0.004243776, -0.47531366, 9.660602
699578040121202, 0.23090738, 4.8598228, 9.0233345, 0.101652384, 0.5205529, 10.237698
699578049759431, 0.18544376, 3.9601214, 8.932407, 0.044375554, -0.24526095, 9.76948
699578059397660, 0.14596218, 4.415954, 8.874979, 0.011318669, 0.1875627, 9.912209
699578069035785, 0.36131623, 4.4913282, 9.02453, 0.22123565, 0.18849182, 10.082671
699578078674014, 0.22731815, 3.9577286, 8.825927, 0.0814089, -0.21081924, 9.672704
699578088312244, 0.51565325, 4.935197, 9.18485, 0.37391174, 0.5132711, 10.420186
699578097950473, 0.27756742, 3.7268212, 8.903693, 0.12610143, -0.44954467, 9.644896
699578107588702, 0.49651068, 5.131408, 9.1681, 0.3445459, 0.6931267, 10.489652
699578117226931, 0.25004998, 3.7160535, 8.876176, 0.0914485, -0.45068383, 9.614916
699578126865160, 0.26799613, 4.948357, 8.975478, 0.110804915, 0.60503507, 10.234203
699578136503285, 0.2428715, 4.0307097, 8.907282, 0.07689965, -0.18730593, 9.777744
699578146141514, 0.2644069, 4.537988, 8.99462, 0.10192087, 0.2257371, 10.074974
699578155779744, 0.43788654, 4.516453, 9.250652, 0.26545754, 0.09475684, 10.299769
699578165417973, 0.2105684, 4.0977087, 9.158528, 0.029329777, -0.24086618, 10.032713
699578175056202, 0.39361933, 4.962714, 9.413364, 0.21590738, 0.42790937, 10.637913
699578184694431, 0.08135597, 3.6681972, 9.001799, -0.08954327, -0.5636091, 9.704071
699578194332556, 0.22492532, 4.9698925, 9.176475, 0.06030126, 0.53382444, 10.424465
699578203970785, -0.02632105, 3.5090744, 8.768498, -0.17765068, -0.6088691, 9.4233
699578213609014, 0.062213387, 4.7808595, 8.902496, -0.08731897, 0.4814999, 10.093336
699578223247244, 0.051445685, 3.7890346, 8.8701935, -0.092994824, -0.39625168, 9.637122
699578232885473, 0.047856454, 4.3944187, 8.937193, -0.089954, 0.12862945, 9.958013
699578242523702, 0.17347965, 4.314259, 9.079565, 0.03371708, -0.010206938, 10.053865
699578252161931, -0.020338992, 3.9517467, 8.800801, -0.1613095, -0.21351075, 9.64361
699578261800160, 0.22253251, 4.752146, 8.979067, 0.09766194, 0.42540646, 10.1521225
699578271438285, -0.016749758, 3.5569308, 8.590233, -0.16801174, -0.4841516, 9.2834
699578281076514, 0.22492532, 4.9435716, 8.846265, 0.11806458, 0.65284777, 10.11463
699578290714744, 0.06699903, 3.5760734, 8.548359, -0.071719736, -0.4468472, 9.255398
699578300352973, 0.25842485, 4.9519463, 8.751749, 0.14010414, 0.69330335, 10.034011
699578309991202, 0.18065812, 3.946961, 8.73141, 0.041739494, -0.19103622, 9.581776
699578319629431, 0.083748795, 4.5726843, 8.853444, -0.051036716, 0.3176663, 9.959739
699578329267660, 0.06819545, 4.2341, 9.000603, -0.08061601, -0.040919542, 9.946606
699578338905889, -0.14237295, 3.8416767, 8.88455, -0.29495507, -0.34119415, 9.670086
699578348544119, 0.06819545, 4.493721, 9.211171, -0.08483636, 0.12356186, 10.247996
699578358182244, -0.086141616, 3.4073794, 9.025727, -0.25327092, -0.77285314, 9.613531
699578367820473, 0.18664017, 4.802395, 9.430114, 0.032070637, 0.31186342, 10.579538
699578377458702, 0.08973085, 3.4540396, 9.1681, -0.09321371, -0.77784777, 9.766207
699578387096931, 0.2656033, 4.9256253, 9.377472, 0.10911076, 0.4587252, 10.585226
699578396735160, 0.24526432, 3.9086757, 9.236296, 0.055814236, -0.3976357, 10.024263
699578406373389, 0.19262223, 4.679165, 9.251849, 0.026094854, 0.2954538, 10.36535
699578416011619, 0.25124636, 4.3130627, 9.287741, 0.071656376, -0.050412893, 10.243052
699578425649848, 0.0634098, 4.063013, 9.038888, -0.11708428, -0.16973162, 9.908132
699578435288077, 0.25722843, 4.645665, 9.24826, 0.089740545, 0.25864887, 10.349093
699578444926306, 0.04546363, 3.5724843, 8.919247, -0.13762769, -0.5619345, 9.590775
699578454564535, 0.33379877, 4.9268217, 9.211171, 0.17780787, 0.5227792, 10.436749
699578464202764, 0.12203395, 3.5401812, 8.885747, -0.056548566, -0.5762212, 9.548249
699578473840994, 0.31106696, 4.9639106, 9.062816, 0.1502322, 0.6215477, 10.318087
699578483479223, 0.27038896, 3.8416767, 8.885747, 0.09687212, -0.31085134, 9.678951
699578493117348, 0.33260235, 4.712664, 8.9013, 0.16826007, 0.4573028, 10.065561
699578502755577, 0.36370903, 4.3118663, 8.946764, 0.18764856, 0.06590223, 9.936274
699578512393806, 0.09212367, 4.121637, 8.7469635, -0.08519666, -0.013646364, 9.669453
699578522032035, 0.22851457, 4.5882373, 9.0233345, 0.05431941, 0.28557777, 10.121275
699578531670264, 0.0047856453, 3.5892339, 8.807981, -0.17976017, -0.5242419, 9.495052
699578541308494, 0.2727818, 4.883751, 9.266206, 0.092797846, 0.45410776, 10.46772
699578550946723, 0.09571291, 3.5234313, 9.041281, -0.10621701, -0.67398477, 9.680029
699578560584952, 0.27756742, 4.9579287, 9.229117, 0.090642095, 0.52977157, 10.466415
699578570223181, 0.18903299, 3.772285, 8.924032, -5.0227344E-4, -0.41267252, 9.681627
699578579861410, 0.19262223, 4.666004, 8.8701935, 0.012192622, 0.41791797, 10.015698
699578589499639, 0.2321038, 4.188636, 8.859426, 0.048299372, -0.0051574707, 9.802327
699578599137869, 0.124426775, 4.174279, 8.748159, -0.056899607, 0.025354624, 9.693633
699578608776098, 0.30269206, 4.648058, 9.06162, 0.117854595, 0.31723738, 10.18305
699578618414327, 0.040677983, 3.6933217, 8.892925, -0.15701991, -0.46251583, 9.617062
699578628052556, 0.29192436, 4.8885365, 9.32483, 0.109615594, 0.43412638, 10.523067
699578637690785, 0.05742774, 3.4851463, 9.068798, -0.14567941, -0.7236295, 9.687507
699578647329014, 0.2213361, 4.90409, 9.272188, 0.04720083, 0.47940898, 10.480482
699578656967244, 0.11964113, 3.6526437, 8.959925, -0.08751118, -0.51396847, 9.662535
699578666605473, 0.17228323, 4.6169515, 8.930014, 9.3498826E-4, 0.3585348, 10.048013
699578676243702, 0.2009971, 4.065406, 8.967103, 0.01369825, -0.1524837, 9.846495
699578685881931, 0.08733802, 4.159922, 8.921639, -0.09712228, -0.043441534, 9.843622
699578695520160, 0.25842485, 4.5535417, 9.241081, 0.0726673, 0.17642903, 10.303528
699578705158389, 0.0011964113, 3.711268, 9.050852, -0.19201356, -0.49305797, 9.767878
699578714796619, 0.30149564, 4.9052863, 9.547362, 0.11129609, 0.37973118, 10.730718
699578724434848, 0.12083755, 3.5270207, 9.269794, -0.076247215, -0.7457397, 9.890484
699578734073077, 0.30269206, 4.9459643, 9.376275, 0.108502135, 0.48290443, 10.593571
699578743711306, 0.16510476, 3.6670008, 8.943174, -0.016824916, -0.4929664, 9.654596
699578753349535, 0.23449662, 4.7401814, 8.926425, 0.06676161, 0.48780203, 10.0976715
699578762987764, 0.29312077, 4.1276193, 8.959925, 0.10930304, -0.08120799, 9.868378
699578772625994, 0.23090738, 4.3645086, 8.941978, 0.05174747, 0.1339333, 9.951915
699578782264223, 0.4749753, 4.6971107, 9.175279, 0.2916003, 0.33126783, 10.309193
699578791902452, 0.2117648, 3.9481573, 8.88455, 0.02558428, -0.22562122, 9.721959
699578801540681, 0.38165522, 4.983053, 9.156136, 0.20548743, 0.5933883, 10.412348
699578811178910, 0.07537391, 3.5042887, 8.79123, -0.116933644, -0.59040546, 9.445063
699578820817139, 0.19381863, 4.8861437, 9.02812, 0.028146118, 0.55272865, 10.252445
699578830455369, 0.049052864, 3.5736806, 8.79123, -0.1379882, -0.51807475, 9.474802
699578840093598, 0.15553348, 4.7198424, 8.979067, -0.00741598, 0.4242642, 10.136307
699578849731827, 0.23569304, 4.0187454, 9.055637, 0.0504421, -0.23644519, 9.907169
699578859370056, 0.14476576, 4.334598, 8.995817, -0.027471602, 0.07206249, 9.986414
699578869008285, 0.27756742, 4.5116673, 9.141779, 0.10855368, 0.16378474, 10.196357
699578878646514, -0.008374879, 3.7627137, 8.816355, -0.18969822, -0.36135197, 9.577039
699578888284744, 0.16749759, 4.7545385, 9.099904, 0.011027634, 0.40418983, 10.260529
699578897922973, -0.15074782, 3.4085758, 8.837891, -0.34588736, -0.6763885, 9.443107
699578907561202, 0.06460621, 4.82752, 9.209974, -0.0860555, 0.44086862, 10.388985
699578917199431, -0.008374879, 3.4899318, 9.030513, -0.18596536, -0.6968136, 9.654517
699578926837764, 0.13519448, 4.715057, 9.213564, -0.0221446, 0.3273368, 10.345634
699578936475994, 0.17587246, 3.999603, 9.201599, 0.007653266, -0.3055129, 10.030146
699578946114223, 0.078963146, 4.3968115, 9.096315, -0.08324866, 0.09247613, 10.102755
699578955752452, 0.23688944, 4.4721856, 9.153743, 0.077056974, 0.1302545, 10.189439
699578965390681, 0.021535404, 3.8201413, 8.7673025, -0.14760114, -0.28997374, 9.557911
699578975028910, 0.2440679, 4.7808595, 8.938389, 0.09506792, 0.4907627, 10.127247
699578984667139, -0.0071784677, 3.475575, 8.595019, -0.18055038, -0.53152657, 9.254129
699578994305369, 0.25244278, 4.914858, 8.932407, 0.11685878, 0.62713194, 10.178433
699579003943598, 0.111266255, 3.5569308, 8.800801, -0.058627993, -0.53886867, 9.477575
699579013581827, 0.25603202, 4.8215375, 9.046066, 0.10734792, 0.49093127, 10.241658
699579023220056, 0.20817557, 3.9768713, 9.067601, 0.042633295, -0.2665949, 9.899867
699579032858285, 0.13160525, 4.4350967, 9.044869, -0.03509128, 0.15894508, 10.07326
699579042496619, 0.23330021, 4.4518466, 9.138189, 0.057285175, 0.12986779, 10.166597
699579052134848, 0.016749758, 3.8847475, 8.763713, -0.15315375, -0.22448254, 9.5822935
699579061773077, 0.30149564, 4.7952166, 9.040084, 0.11994799, 0.48672056, 10.225304
699579071411306, 0.13160525, 3.5844483, 8.830712, -0.032459773, -0.5202029, 9.517111
699579081049535, 0.36370903, 5.011767, 9.304491, 0.17638277, 0.56535125, 10.558073
699579090687764, 0.16510476, 3.6143587, 9.186047, -0.024813384, -0.6382332, 9.852225
699579100325994, 0.23569304, 4.831109, 9.355937, 0.04803504, 0.38976884, 10.524945
699579109964223, 0.16390835, 3.8548372, 9.255438, -0.021373495, -0.4369762, 10.0179
699579119602452, 0.078963146, 4.377669, 9.132208, -0.097967535, 0.09167552, 10.126672
699579129240785, 0.17467605, 4.298706, 9.158528, -0.005117595, 0.005658388, 10.118695
699579138879014, 0.021535404, 3.8703907, 8.830712, -0.14536953, -0.24774075, 9.637395
699579148517244, 0.30388847, 4.7449675, 9.107083, 0.13405736, 0.4268632, 10.263813
699579158155473, 0.07537391, 3.6011982, 8.833105, -0.09543462, -0.48941016, 9.526249
699579167793702, 0.3493521, 5.0129633, 9.188439, 0.17929159, 0.6241815, 10.452633
699579177431931, 0.17228323, 3.5928233, 8.916854, 0.003064558, -0.53718066, 9.599989
699579187070160, 0.26799613, 4.8909297, 9.0436735, 0.11019802, 0.5757067, 10.268274
699579196708389, 0.12203395, 3.8608193, 8.859426, -0.050574854, -0.27376628, 9.660887
699579206346723, 0.13878371, 4.2855453, 8.868998, -0.021857053, 0.10247874, 9.850549
699579215984952, 0.13998012, 4.1108694, 8.909675, -0.028633803, -0.07288146, 9.8130045
699579225623181, 0.14955142, 4.206582, 8.976674, -0.016543508, -0.014779568, 9.91453
699579235261410, 0.17826529, 4.220939, 9.044869, 0.011143088, -0.028613329, 9.982826
699579244899639, 0.17587246, 4.2831526, 9.141779, 0.0065500736, -0.011823416, 10.096943
699579254537869, 0.14117654, 4.2927237, 9.15135, -0.029599369, -0.0054912567, 10.109091
699579264176202, 0.09092726, 4.241278, 9.08794, -0.07959664, -0.029432297, 10.028967
699579273814431, 0.07178468, 4.2221355, 8.963513, -0.0947198, 0.0075876713, 9.907931
699579283452660, 0.12801601, 4.2484565, 8.903693, -0.03154573, 0.0471406, 9.866017
699579293090889, 0.18783657, 4.281956, 8.932407, 0.028957188, 0.061857462, 9.907254
699579302729119, 0.21894327, 4.316652, 9.012567, 0.059062123, 0.05634761, 9.995055
699579312367348, 0.2440679, 4.3441696, 9.086744, 0.08127037, 0.05017948, 10.074282
699579322005681, 0.21535404, 4.3262234, 9.165708, 0.047684908, 0.003165722, 10.137578
699579331643910, 0.16630118, 4.258028, 9.170493, -0.003984779, -0.05740881, 10.112027
699579341282139, 0.09930214, 4.1898327, 9.081959, -0.068541884, -0.07856178, 10.001782
699579350920369, 0.034695927, 4.095316, 8.962317, -0.13215715, -0.11028957, 9.852224
699579360558598, 0.05742774, 4.080959, 8.941978, -0.10708998, -0.11556268, 9.828106
699579370196931, 0.12921242, 4.0977087, 8.94796, -0.032477796, -0.105055094, 9.84184
699579379835160, 0.1471586, 4.1778684, 8.943174, -0.009796187, -0.03047514, 9.871961
699579389473389, 0.2321038, 4.253242, 8.944371, 0.07633285, 0.03537011, 9.906495
699579399111619, 0.1698904, 4.301099, 8.965906, 0.010366753, 0.067774534, 9.945404
699579408749848, 0.086141616, 4.3298125, 9.02453, -0.076783076, 0.06808376, 10.009312
699579418388181, 0.1052842, 4.3118663, 9.075976, -0.05875863, 0.030112267, 10.048495
699579428026410, 0.13399807, 4.29392, 9.056833, -0.029194802, 0.017581463, 10.024011
699579437664639, 0.16031912, 4.254439, 9.019745, -0.00256069, -0.0029804707, 9.974054
699579447302869, 0.15553348, 4.2556353, 8.975478, -0.0050468594, 0.016570568, 9.934463
699579456941098, 0.18305093, 4.281956, 8.957532, 0.02469927, 0.048761606, 9.929906
699579466579431, 0.23090738, 4.2927237, 8.986245, 0.07182576, 0.045143604, 9.961235
699579476217660, 0.25722843, 4.2927237, 9.01137, 0.094382465, 0.035079718, 9.984402
699579485855889, 0.22731815, 4.2795634, 9.0341015, 0.060771406, 0.014733791, 9.998871
699579495494119, 0.18903299, 4.2388854, 9.060423, 0.020938963, -0.032134533, 10.004684
699579505132452, 0.1794617, 4.2125645, 9.046066, 0.008855611, -0.049026728, 9.980318
699579514770681, 0.2117648, 4.2364926, 9.031709, 0.038338125, -0.020613432, 9.9781065
699579524408910, 0.25004998, 4.3070807, 9.0544405, 0.07490018, 0.032845497, 10.02944
699579534047139, 0.26919255, 4.358526, 9.0544405, 0.09255791, 0.07879758, 10.051733
699579543685473, 0.25842485, 4.388437, 9.053245, 0.081130594, 0.10596752, 10.0632305
699579553323702, 0.25004998, 4.402794, 9.031709, 0.073887706, 0.1285162, 10.049723
699579562961931, 0.23808585, 4.3537407, 8.993423, 0.061202526, 0.10051775, 9.993978
699579572600160, 0.16031912, 4.28076, 9.004191, -0.019855618, 0.0342319, 9.971184
699579582238389, 0.11724831, 4.191029, 9.035298, -0.06583011, -0.05269909, 9.9603195
699579591876723, 0.12083755, 4.1240296, 9.099904, -0.06692639, -0.14103293, 9.990301
699579601514952, 0.12801601, 4.104887, 9.140582, -0.06073457, -0.17117381, 10.01917
699579611153181, 0.16630118, 4.1276193, 9.116654, -0.02052769, -0.13454008, 10.007985
699579620791514, 0.13160525, 4.174279, 9.075976, -0.05178684, -0.07278633, 9.990361
699579630429744, 0.12323037, 4.208975, 9.005388, -0.056040496, -0.011217833, 9.941047
699579640067973, 0.1471586, 4.2281175, 8.938389, -0.029619575, 0.031925917, 9.888959
699579649706202, 0.16390835, 4.2508492, 8.889337, -0.011325002, 0.07015729, 9.854534
699579659344535, 0.16630118, 4.2711883, 8.865408, -0.0077816844, 0.09690261, 9.841581
699579668982764, 0.19262223, 4.2568316, 8.88455, 0.018504977, 0.07637763, 9.853263
699579678620994, 0.15553348, 4.2245283, 8.965906, -0.021167397, 0.017517328, 9.912495
699579688259327, 0.11246266, 4.17069, 9.036494, -0.067663044, -0.05987382, 9.952758
699579697897556, 0.096909314, 4.132405, 9.0747795, -0.08346373, -0.10636091, 9.970932
699579707535785, 0.0634098, 4.109673, 9.093923, -0.118023604, -0.12553287, 9.978135
699579717174014, 0.09332009, 4.133601, 9.080762, -0.08816479, -0.0983603, 9.976881
699579726812348, 0.15194423, 4.17069, 9.083155, -0.032301515, -0.064496994, 9.9958105
699579736450577, 0.19381863, 4.2329035, 9.055637, 0.011460543, 0.002313137, 9.997974
699579746088806, 0.24526432, 4.2915273, 8.993423, 0.059316516, 0.07718539, 9.967425
699579755727139, 0.28115666, 4.3202415, 9.001799, 0.09451692, 0.09957099, 9.987845
699579765365369, 0.3278167, 4.3298125, 9.052048, 0.13641946, 0.083165884, 10.038366
699579775003598, 0.30867413, 4.31067, 9.097511, 0.11264917, 0.044445753, 10.071108
699579784641931, 0.23569304, 4.281956, 9.102298, 0.03467059, 0.017658234, 10.061859
699579794280160, 0.17826529, 4.211368, 9.047262, -0.02205357, -0.021631956, 9.980952
699579803918389, 0.14476576, 4.1575294, 9.014959, -0.054888114, -0.054722786, 9.928217
699579813556619, 0.16031912, 4.1850467, 9.041281, -0.037918523, -0.039779663, 9.964039
699579823194952, 0.2548356, 4.2352962, 9.142975, 0.05344361, -0.034456253, 10.079317
699579832833181, 0.3505485, 4.3178487, 9.247063, 0.14419627, -0.0060617924, 10.210487
699579842471410, 0.3589234, 4.395615, 9.2590275, 0.14999557, 0.059749365, 10.254454
699579852109744, 0.33260235, 4.3836513, 9.213564, 0.12389575, 0.07043457, 10.207667
699579861747973, 0.25124636, 4.304688, 9.077172, 0.045180887, 0.05061364, 10.049077
699579871386202, 0.15314065, 4.2185464, 8.946764, -0.05010222, 0.028504372, 9.892465
699579881024535, 0.11365908, 4.150351, 8.872586, -0.084383115, -0.0038969517, 9.79561
699579890662764, 0.124426775, 4.1515474, 8.921639, -0.07001324, -0.023447037, 9.840782
699579900300994, 0.17587246, 4.1694937, 9.050852, -0.017672747, -0.061125994, 9.966417
699579909939327, 0.19381863, 4.214957, 9.150154, -8.341521E-4, -0.0609529, 10.075963
699579919577556, 0.24646074, 4.2687955, 9.144172, 0.05098246, -0.014145374, 10.0943775
699579929215889, 0.2321038, 4.290331, 9.032906, 0.03953147, 0.0522151, 10.002496
699579938854119, 0.21296121, 4.284349, 8.88814, 0.02343151, 0.10186744, 9.868592
699579948492348, 0.22731815, 4.2317066, 8.793623, 0.039868116, 0.08643556, 9.761033
699579958130577, 0.22492532, 4.2329035, 8.805588, 0.037828833, 0.076323986, 9.772368
699579967768910, 0.20219351, 4.249653, 8.861818, 0.014560938, 0.06760788, 9.8299265
699579977407139, 0.1794617, 4.241278, 9.0233345, -0.013566405, -0.007919788, 9.972009
699579987045473, 0.148355, 4.2388854, 9.171689, -0.047970623, -0.06809044, 10.1046095
699579996683702, 0.13280165, 4.2317066, 9.205189, -0.06286165, -0.08295727, 10.131617
699580006321931, 0.11246266, 4.2041893, 9.135797, -0.07760206, -0.07512212, 10.056787
699580015960264, 0.096909314, 4.17069, 9.0233345, -0.088151395, -0.055510283, 9.94051
699580025598494, 0.12083755, 4.162315, 8.9108715, -0.056122378, -0.019653797, 9.8356285
699580035236723, 0.16869399, 4.199404, 8.872586, -0.006749779, 0.028805256, 9.817606
699580044875056, 0.1902294, 4.2352962, 8.88455, 0.015239134, 0.053925276, 9.844084
699580054513285, 0.15074782, 4.254439, 8.939586, -0.027466, 0.04698801, 9.901322
699580064151619, 0.15553348, 4.220939, 9.048459, -0.026021615, -0.028992414, 9.985669
699580073789848, 0.11365908, 4.1790648, 9.080762, -0.06826754, -0.07752848, 9.996351
699580083428077, 0.06580263, 4.141976, 9.049655, -0.11752197, -0.094753265, 9.951572
699580093066410, 0.061016977, 4.1371903, 8.987442, -0.114668116, -0.06710744, 9.893257
699580102704639, 0.12083755, 4.1467614, 8.959925, -0.054283038, -0.048104525, 9.873461
699580112342869, 0.1591227, 4.2185464, 8.973084, -0.012502998, 0.013073206, 9.916521
699580121981202, 0.25603202, 4.29392, 9.049655, 0.08201361, 0.04691434, 10.019513
699580131619431, 0.317049, 4.375276, 9.114262, 0.14371833, 0.09007335, 10.113584
699580141257764, 0.30269206, 4.392026, 9.142975, 0.12057471, 0.08901, 10.146577
699580150895994, 0.26081768, 4.3202415, 9.122637, 0.07605216, 0.035541534, 10.096928
699580160534223, 0.19980069, 4.2460637, 9.05803, 0.011525214, -0.0038888454, 10.0058365
699580170172556, 0.17347965, 4.174279, 9.020942, -0.015126944, -0.05216074, 9.941285
