timestamp_acc,device_acc_x,device_acc_y,device_acc_z,earth_acc_x,earth_acc_y,earth_acc_z
787605913613348, 6.674779, 0.0011964113, 7.5517483, 0.018060088, 0.026751041, 10.078717
787605923252307, 6.6460648, -0.014356935, 7.570891, 0.02877897, -0.009098053, 10.074118
787605932891265, 6.626922, 0.019142581, 7.588837, -0.008274794, -0.030044556, 10.075016
787605942530223, 6.600601, 0.07776674, 7.6127653, -0.07067037, -0.05698204, 10.07571
787605952169182, 6.567102, 0.02871387, 7.6019974, -0.022630572, -0.08015871, 10.04545
787605961808140, 6.5958157, 0.023928227, 7.5673018, -0.012196243, -0.036679268, 10.038322
787605971447098, 6.62094, 0.016749758, 7.5625157, -0.0015235543, -0.014158249, 10.051297
787605981086057, 6.6855464, 0.016749758, 7.5637126, 0.004329741, 0.034753323, 10.094818
787605990725015, 6.6352973, -0.0023928226, 7.536195, 0.021693945, 0.013395786, 10.040955
787606000363973, 6.647261, 0.0, 7.513463, 0.022252977, 0.037329674, 10.031765
787606010002932, 6.6532435, 0.014356935, 7.5314093, 0.006897986, 0.03148985, 10.049227
787606019641890, 6.6388865, 0.008374879, 7.550552, 0.010339975, 0.0072193146, 10.054131
787606029280848, 6.597012, 0.023928227, 7.5756764, -0.009997785, -0.038728714, 10.045418
787606038919807, 6.5898337, 0.06699903, 7.537391, -0.050739348, -0.013703346, 10.011988
787606048558765, 6.59103, 0.08733802, 7.6019974, -0.07514435, -0.05146599, 10.061381
787606058197723, 6.631708, 0.07178468, 7.584051, -0.054573, -0.010931969, 10.074694
787606067836682, 6.631708, 0.0071784677, 7.5828547, 0.011213005, -0.017276764, 10.073671
787606077475640, 6.6149583, -0.020338992, 7.568498, 0.03814, -0.02367115, 10.051778
787606087114598, 6.617351, -0.05383851, 7.533802, 0.07384211, -0.00253582, 10.02721
787606096753557, 6.602994, -0.023928227, 7.5326056, 0.042215526, -0.009255886, 10.016905
787606106392515, 6.65444, 0.023928227, 7.5457664, -0.0028788447, 0.027153015, 10.060816
787606116031473, 6.6628146, 0.07298109, 7.5637126, -0.051960647, 0.027419567, 10.079918
787606125670432, 6.6388865, 0.101694964, 7.584051, -0.0837484, -0.0014262199, 10.079483
787606135309390, 6.6257257, 0.086141616, 7.5900335, -0.069966316, -0.017336845, 10.07527
787606144948452, 6.5958157, 0.02632105, 7.54457, -0.007664144, -0.016788483, 10.02126
787606154587411, 6.59103, -0.0023928226, 7.5816584, 0.017274916, -0.048281193, 10.045924
787606164226369, 6.6221366, 0.013160525, 7.57448, 0.004919708, -0.017644405, 10.061079
787606173865327, 6.6424756, 0.031106694, 7.5792656, -0.01140517, -0.00329113, 10.078124
787606183504286, 6.6424756, 0.033499517, 7.5517483, -0.010879099, 0.014839172, 10.057444
787606193143244, 6.649654, 0.011964113, 7.5254273, 0.013263702, 0.034649372, 10.042348
787606202782202, 6.641279, 0.014356935, 7.524231, 0.010835052, 0.028791428, 10.035929
787606212421161, 6.6687965, 0.05383851, 7.4919276, -0.022554517, 0.07537413, 10.029883
787606222060119, 6.661618, 0.034695927, 7.5110703, -0.0055264235, 0.054362774, 10.0395
787606231699077, 6.687939, 0.010767702, 7.513463, 0.021026969, 0.068968296, 10.058607
787606241338036, 6.680761, 0.0023928226, 7.4907312, 0.030152917, 0.076937675, 10.036772
787606250976994, 6.6628146, -0.014356935, 7.487142, 0.044793606, 0.062252045, 10.022211
787606260615952, 6.6676, -0.029910283, 7.515856, 0.056770742, 0.043420315, 10.046928
787606270254911, 6.6687965, -0.010767702, 7.530213, 0.036660194, 0.037577152, 10.058544
787606279893869, 6.6676, -0.029910283, 7.5182486, 0.056025863, 0.04101467, 10.048733
787606289532827, 6.661618, -0.0071784677, 7.5254273, 0.031973302, 0.03532982, 10.050224
787606299171786, 6.6388865, 0.05383851, 7.564909, -0.034747303, -4.3964386E-4, 10.065006
787606308810744, 6.6221366, 0.10887343, 7.5517483, -0.09009129, 0.0028882027, 10.044168
787606318449702, 6.5946193, 0.07178468, 7.568498, -0.055376112, -0.03310442, 10.038533
787606328088661, 6.5886374, 0.043070808, 7.605587, -0.031165779, -0.0658021, 10.062387
787606337727619, 6.600601, 0.039481573, 7.6103725, -0.025226116, -0.05739832, 10.073893
787606347366577, 6.5694947, 0.02871387, 7.5996046, -0.01671648, -0.07386351, 10.045265
787606357005536, 6.5371914, -0.014356935, 7.6199436, 0.020258248, -0.11737585, 10.039146
787606366644494, 6.5443697, 0.0, 7.615158, 0.007220149, -0.10412884, 10.040345
787606376283452, 6.586244, 0.02751746, 7.6067834, -0.014461875, -0.061593056, 10.061737
787606385922411, 6.613762, 0.020338992, 7.576873, -0.0015869141, -0.022624016, 10.057373
787606395561369, 6.617351, 0.051445685, 7.5613194, -0.029952765, -0.0044999123, 10.048116
787606405200327, 6.6424756, 0.05623133, 7.5314093, -0.02877611, 0.03328514, 10.042203
787606414839286, 6.6484575, 0.049052864, 7.4919276, -0.01788032, 0.06248665, 10.016445
787606424478244, 6.664011, 0.039481573, 7.4919276, -0.006369829, 0.07155752, 10.026686
787606434117307, 6.6628146, 0.019142581, 7.507481, 0.012702167, 0.05678606, 10.037549
787606443756265, 6.68435, -0.009571291, 7.5349984, 0.040612042, 0.050836086, 10.072369
787606453395223, 6.674779, 0.0011964113, 7.564909, 0.026370704, 0.024781227, 10.08857
787606463034182, 6.661618, 0.020338992, 7.5266237, 0.008506477, 0.041840076, 10.051161
787606472673140, 6.629315, -0.0035892338, 7.5457664, 0.027336955, 0.0019702911, 10.044186
787606482312098, 6.626922, 0.019142581, 7.5816584, 0.0013728142, -0.020905972, 10.069635
787606491951057, 6.5886374, 0.032303106, 7.556534, -0.013999879, -0.031076908, 10.025528
787606501590015, 6.599405, 0.025124637, 7.5613194, -0.005848229, -0.025730133, 10.036217
787606511228973, 6.634101, 0.050249275, 7.560123, -0.027369916, 0.0041656494, 10.058256
787606520867932, 6.666404, 0.04546363, 7.5637126, -0.019695342, 0.02560997, 10.082249
787606530506890, 6.6161547, 0.033499517, 7.5290165, -0.009033084, 0.0074629784, 10.023003
787606540145848, 6.6281185, 0.033499517, 7.5493555, -0.009676456, 0.0020022392, 10.046181
787606549784807, 6.6556363, 0.05623133, 7.5493555, -0.029416084, 0.025547981, 10.064388
787606559423765, 6.62094, 0.02871387, 7.539784, -0.004871547, 0.001581192, 10.034241
787606569062723, 6.62094, -0.0035892338, 7.5613194, 0.025465906, -0.018158436, 10.050344
787606578701682, 6.634101, 0.023928227, 7.539784, 0.0014300942, 0.0090408325, 10.042913
787606588340640, 6.619744, 0.05742774, 7.5493555, -0.03477627, -0.0031991005, 10.040709
787606597979598, 6.631708, 0.039481573, 7.5266237, -0.013161421, 0.017735481, 10.031486
787606607618557, 6.6687965, 0.029910283, 7.513463, 0.0014868975, 0.052186012, 10.046051
787606617257515, 6.7166533, -0.0059820567, 7.5122666, 0.041668653, 0.082850456, 10.076658
787606626896473, 6.7094746, -0.02751746, 7.4847493, 0.06383604, 0.09094, 10.051216
787606636535432, 6.6628146, -0.033499517, 7.4787674, 0.06399864, 0.05839014, 10.015921
787606646174390, 6.6185474, -0.05503492, 7.4859457, 0.07968837, 0.018354893, 9.992042
787606655813348, 6.6424756, -0.0059820567, 7.5493555, 0.028274119, 4.0626526E-4, 10.055571
787606665452307, 6.6448684, 0.020338992, 7.5792656, -7.4112415E-4, -0.013324261, 10.079672
787606675091265, 6.6556363, 0.06699903, 7.5613194, -0.044355214, 0.012735367, 10.073402
787606684730223, 6.6125655, 0.062213387, 7.5349984, -0.041415006, -0.0028839111, 10.025188
787606694369182, 6.5922265, 0.061016977, 7.501499, -0.037875384, 0.00417614, 9.986602
787606704008140, 6.6245294, 0.033499517, 7.5625157, -0.012201846, -0.014726639, 10.053694
787606713647098, 6.6257257, -0.011964113, 7.5816584, 0.032454193, -0.030258179, 10.068762
787606723286057, 6.640083, 0.02871387, 7.5936227, -0.0077444315, -0.021104336, 10.087326
787606732925015, 6.611369, 0.033499517, 7.585248, -0.014486015, -0.036459923, 10.062097
787606742563973, 6.5778694, 0.033499517, 7.533802, -0.013004959, -0.027060032, 10.001337
787606752202932, 6.606583, 0.062213387, 7.542177, -0.039669156, -0.008008003, 10.026645
787606761841890, 6.6161547, 0.059820566, 7.5720873, -0.038141906, -0.019674778, 10.055434
787606771480848, 6.613762, 0.050249275, 7.578069, -0.028212488, -0.025436401, 10.058332
787606781119807, 6.582655, 0.0526421, 7.5673018, -0.0323295, -0.04153061, 10.029726
787606790758765, 6.5754766, 0.02632105, 7.5661054, -0.006843388, -0.048081398, 10.024029
787606800397723, 6.597012, 0.010767702, 7.5900335, 0.008098304, -0.049327374, 10.056183
787606810036682, 6.5814586, 0.020338992, 7.5756764, -0.0014403462, -0.050230503, 10.035156
787606819675640, 6.6125655, 0.015553347, 7.5720873, 0.006070316, -0.02494526, 10.052965
787606829314598, 6.652047, 0.01794617, 7.536195, 0.010732532, 0.028050423, 10.052033
787606838953557, 6.6329045, 0.010767702, 7.520642, 0.017043829, 0.022994518, 10.0276985
787606848592515, 6.650851, 0.020338992, 7.501499, 0.010375857, 0.047440052, 10.025187
787606858231473, 6.6556363, 0.031106694, 7.509874, -5.913973E-4, 0.04706478, 10.034662
787606867870432, 6.6568327, 0.020338992, 7.496713, 0.01096493, 0.053493977, 10.025546
787606877509390, 6.6448684, 0.06819545, 7.536195, -0.041824162, 0.021924019, 10.047434
787606887148348, 6.647261, 0.06580263, 7.537391, -0.03931707, 0.022619247, 10.049907
787606896787307, 6.6364937, 0.02871387, 7.503892, 4.9990416E-4, 0.030887127, 10.01755
787606906426265, 6.6532435, 0.01794617, 7.5110703, 0.0119822025, 0.03731966, 10.033974
787606916065223, 6.6819572, 0.033499517, 7.503892, -6.6548586E-4, 0.06607199, 10.047571
787606925704182, 6.6759753, 0.0047856453, 7.4943204, 0.028171241, 0.06431246, 10.036363
787606935343140, 6.6687965, -0.029910283, 7.503892, 0.06107205, 0.047787666, 10.038731
787606944982098, 6.6795645, 0.008374879, 7.507481, 0.0235641, 0.058086872, 10.048632
787606954621057, 6.5718875, -0.30029923, 7.5050883, 0.31972122, -0.05747509, 9.975004
787606964260015, 6.8410797, 0.47377887, 7.5290165, -0.4284818, 0.21344805, 10.1726
787606973898973, 6.3684974, -0.38524446, 7.5326056, 0.37840706, -0.2386589, 9.861347
787606983537932, 6.7704916, 0.3505485, 7.664211, -0.32101914, 0.052000523, 10.227259
787606993176890, 6.471389, -0.10887343, 7.4907312, 0.117556274, -0.1015892, 9.898367
787607002815848, 6.640083, 0.0, 7.6678, 0.013720214, -0.08187723, 10.142927
787607012454807, 6.641279, 0.2632105, 7.452446, -0.22774738, 0.10229015, 9.98261
787607022093765, 6.5228343, -0.33379877, 7.6390862, 0.3339067, -0.19971275, 10.043059
787607031732723, 6.897311, 0.5312066, 7.460821, -0.46500874, 0.33078814, 10.158409
787607041371682, 6.3972116, -0.5312066, 7.533802, 0.5284039, -0.25262928, 9.880367
787607051010536, 6.9523463, 0.56350976, 7.519445, -0.48670685, 0.3356452, 10.239394
787607060649494, 6.4163537, -0.44745782, 7.4536424, 0.4530123, -0.1789422, 9.833076
787607070288452, 6.843473, 0.37567315, 7.594819, -0.32222208, 0.17596006, 10.223539
787607079927411, 6.498906, -0.12921242, 7.4452677, 0.14716715, -0.062362194, 9.882253
787607089566369, 6.6687965, 0.023928227, 7.6307116, -0.002296865, -0.03518915, 10.134096
787607099205327, 6.6424756, 0.22253251, 7.4452677, -0.18782008, 0.09435129, 9.977968
787607108844286, 6.5072813, -0.3397808, 7.661818, 0.33350885, -0.22696257, 10.049918
787607118483244, 6.8111696, 0.5180461, 7.496713, -0.459679, 0.23477697, 10.128903
787607128122202, 6.4151573, -0.52163535, 7.5960155, 0.511176, -0.26906252, 9.93942
787607137761161, 6.884151, 0.56470615, 7.517052, -0.51214683, 0.27668285, 10.1920395
787607147400119, 6.381658, -0.44506502, 7.475178, 0.43667608, -0.21406841, 9.826771
787607157039077, 6.826723, 0.41754755, 7.600801, -0.3768558, 0.16168737, 10.216776
787607166678036, 6.4618177, -0.14476576, 7.48116, 0.15162605, -0.11081171, 9.884764
787607176316994, 6.7238317, 0.07298109, 7.6390862, -0.046875477, 0.00912714, 10.176865
787607185955952, 6.6448684, 0.20458634, 7.4333034, -0.16765067, 0.10079908, 9.970551
787607195594911, 6.538388, -0.30867413, 7.609176, 0.31545717, -0.16124105, 10.030945
787607205233869, 6.8518476, 0.47258246, 7.450053, -0.41075146, 0.2762351, 10.120743
787607214872827, 6.4498534, -0.56111693, 7.588837, 0.55523795, -0.24953985, 9.956676
787607224511786, 6.9128647, 0.52283174, 7.483553, -0.44937873, 0.3126068, 10.18651
787607234150640, 6.391229, -0.51565325, 7.507481, 0.504362, -0.24486065, 9.85706
787607243789598, 6.8602223, 0.38404804, 7.585248, -0.3309501, 0.18343258, 10.22756
787607253428557, 6.45105, -0.22253251, 7.4237323, 0.22844768, -0.10355997, 9.8343525
787607263067515, 6.7262244, 0.13998012, 7.615158, -0.11496997, 0.029652596, 10.160622
787607272706473, 6.640083, 0.19142582, 7.429714, -0.15694386, 0.096680164, 9.964637
787607282345432, 6.5479593, -0.26919255, 7.645068, 0.2737217, -0.17839098, 10.064221
787607291984390, 6.77767, 0.50009996, 7.4620175, -0.4489943, 0.21554804, 10.080704
787607301623348, 6.3804617, -0.46301118, 7.609176, 0.45602453, -0.30283117, 9.925955
787607311262307, 6.903293, 0.5802595, 7.548159, -0.5204932, 0.26283407, 10.228727
787607320901265, 6.3948183, -0.51206404, 7.5433736, 0.5065455, -0.24580908, 9.886425
787607330540223, 6.8889365, 0.42951167, 7.5696945, -0.37578407, 0.21390057, 10.235002
787607340179182, 6.442675, -0.27517462, 7.4356966, 0.28823435, -0.12348986, 9.837431
787607349818036, 6.7202425, 0.11964113, 7.609176, -0.08914453, 0.022836685, 10.152195
787607359456994, 6.606583, 0.15194423, 7.4237323, -0.121231854, 0.06561279, 9.93795
787607369095952, 6.5635123, -0.20937198, 7.63789, 0.21543932, -0.155159, 10.069281
787607378734911, 6.7537417, 0.47138608, 7.479964, -0.42458376, 0.17764807, 10.078358
787607388373869, 6.3864436, -0.465404, 7.643872, 0.44990808, -0.32201147, 9.956202
787607398012827, 6.8662047, 0.58983076, 7.500303, -0.5380115, 0.26811028, 10.167884
787607407651786, 6.384051, -0.5407779, 7.542177, 0.5404309, -0.2691946, 9.877674
787607417290744, 6.8889365, 0.50009996, 7.5696945, -0.45201072, 0.22949696, 10.234785
787607426929702, 6.45105, -0.2428715, 7.4440713, 0.25932014, -0.11345911, 9.84932
787607436568661, 6.7573314, 0.18305093, 7.6139617, -0.1492278, 0.06404209, 10.180426
787607446207515, 6.5958157, 0.09212367, 7.4069824, -0.056024015, 0.06440306, 9.918135
787607455846473, 6.6305118, -0.23449662, 7.618747, 0.25026882, -0.09734917, 10.099104
787607465485432, 6.8243303, 0.3696911, 7.3842506, -0.30263144, 0.28671122, 10.052937
787607475124390, 6.485746, -0.5455636, 7.560123, 0.54431117, -0.2109375, 9.958777
787607484763348, 6.9475603, 0.54436713, 7.4344997, -0.47555792, 0.37065792, 10.172176
787607494402307, 6.4163537, -0.552742, 7.48116, 0.55524135, -0.21784115, 9.853279
787607504041265, 6.9020967, 0.46301118, 7.560123, -0.4017002, 0.24078655, 10.236671
787607513680223, 6.4618177, -0.2727818, 7.493124, 0.27230507, -0.14916754, 9.893433
787607523319182, 6.7585278, 0.22971097, 7.6546397, -0.19967061, 0.037222862, 10.211893
787607532958036, 6.5312095, 0.11844472, 7.440482, -0.09612495, -0.0062537193, 9.900619
787607542596994, 6.559923, -0.15553348, 7.664211, 0.15596521, -0.17175436, 10.086779
787607552235952, 6.6891356, 0.39960137, 7.501499, -0.3622005, 0.12023306, 10.05142
787607561874911, 6.4414787, -0.44626144, 7.6666036, 0.43051392, -0.29924488, 10.009681
787607571513869, 6.8817577, 0.55513483, 7.5517483, -0.49000692, 0.25501823, 10.217169
787607581152827, 6.364908, -0.54675996, 7.542177, 0.5346454, -0.30237532, 9.864998
787607590791786, 6.897311, 0.5192425, 7.530213, -0.45621866, 0.28090477, 10.210758
787607600430744, 6.4151573, -0.33140594, 7.4177504, 0.34009725, -0.14985323, 9.805557
787607610069598, 6.8458657, 0.24526432, 7.5673018, -0.1892243, 0.16700697, 10.204233
787607619708557, 6.619744, -0.016749758, 7.355537, 0.05534774, 0.09571648, 9.8951
787607629347515, 6.728617, -0.15792629, 7.548159, 0.19105166, 0.026775837, 10.111216
787607638986473, 6.8255267, 0.3182454, 7.372287, -0.2551652, 0.28471327, 10.044579
787607648625432, 6.5204415, -0.50129634, 7.5457664, 0.5034496, -0.17528915, 9.971052
787607658264390, 6.9296145, 0.53240305, 7.432107, -0.46812838, 0.35094833, 10.158588
787607667903348, 6.4271216, -0.5371887, 7.487142, 0.52959895, -0.21276236, 9.865497
787607677542202, 6.914061, 0.5240282, 7.5290165, -0.47173947, 0.27413368, 10.220922
787607687181161, 6.4055862, -0.35653058, 7.483553, 0.35082912, -0.1958828, 9.848896
787607696820119, 6.7645097, 0.31345975, 7.649854, -0.28717738, 0.059082985, 10.212306
787607706459077, 6.4941206, 0.0, 7.4739814, 0.007113099, -0.07625008, 9.900915
787607716098036, 6.5850477, -0.078963146, 7.733603, 0.07224512, -0.19223118, 10.155567
787607725736994, 6.672386, 0.35413775, 7.5182486, -0.31920266, 0.094994545, 10.052825
787607735375952, 6.448657, -0.38285163, 7.702496, 0.35603923, -0.3196864, 10.041475
787607745014807, 6.798009, 0.58504516, 7.509874, -0.5228569, 0.23174524, 10.130465
787607754653765, 6.35773, -0.5383851, 7.568498, 0.5117439, -0.32352066, 9.880598
787607764292723, 6.867401, 0.52283174, 7.5553374, -0.45507735, 0.2432828, 10.210358
787607773931682, 6.411568, -0.39720857, 7.476374, 0.39609092, -0.2037468, 9.847017
787607783570640, 6.814759, 0.30867413, 7.615158, -0.26975045, 0.12533092, 10.21951
787607793209598, 6.532406, -0.09212367, 7.429714, 0.11227393, -0.023319721, 9.892842
787607802848452, 6.680761, -0.069391854, 7.629515, 0.090061545, -0.042672157, 10.140855
787607812487411, 6.7118673, 0.2847459, 7.4153576, -0.23703375, 0.1747284, 10.001553
787607822126369, 6.4821568, -0.41156548, 7.652247, 0.40439057, -0.2620244, 10.025589
787607831765327, 6.8339014, 0.5479564, 7.520642, -0.4909848, 0.22837687, 10.162151
787607841404286, 6.3601227, -0.5192425, 7.623533, 0.4967773, -0.35606718, 9.922977
787607851043244, 6.862615, 0.587438, 7.564909, -0.5362288, 0.2362876, 10.213964
787607860682098, 6.350551, -0.41515473, 7.513463, 0.39969862, -0.26436424, 9.834854
787607870321057, 6.8422766, 0.36251262, 7.5996046, -0.3123895, 0.15609789, 10.226447
787607879960015, 6.5228343, -0.101694964, 7.399804, 0.12790912, -0.017652988, 9.863981
787607889598973, 6.71426, -0.031106694, 7.57448, 0.06288576, 0.020652771, 10.121788
787607899237932, 6.7130637, 0.22971097, 7.4105716, -0.1832397, 0.16428757, 9.998701
787607908876890, 6.5659056, -0.37686956, 7.609176, 0.38012868, -0.16696501, 10.048897
787607918515744, 6.843473, 0.51565325, 7.446464, -0.4527315, 0.2741561, 10.112801
787607928154702, 6.3948183, -0.5395815, 7.521838, 0.5269912, -0.26051855, 9.87002
787607937793661, 6.890133, 0.56111693, 7.550552, -0.4987998, 0.25088596, 10.2219305
787607947432619, 6.3996043, -0.45702913, 7.5182486, 0.45034868, -0.2497487, 9.870295
787607957071577, 6.8745794, 0.41635114, 7.618747, -0.375816, 0.17205238, 10.2619505
787607966710432, 6.4941206, -0.14356937, 7.448857, 0.15690929, -0.08548927, 9.881689
787607976349390, 6.690332, 0.0, 7.6163545, 0.021321952, -0.027515888, 10.137466
787607985988348, 6.6927247, 0.24047868, 7.37109, -0.19627225, 0.1707468, 9.9556875
787607995627307, 6.573084, -0.31944183, 7.5661054, 0.32540113, -0.12842417, 10.02153
787608005266265, 6.873383, 0.49172506, 7.4177504, -0.42390728, 0.31028843, 10.110996
787608014905223, 6.437889, -0.5814559, 7.5673018, 0.5731713, -0.2750559, 9.931988
787608024544077, 6.927222, 0.54317075, 7.519445, -0.47825694, 0.2874689, 10.223117
787608034183036, 6.410372, -0.5096712, 7.496713, 0.49724537, -0.23145723, 9.861668
787608043821994, 6.8685975, 0.3804588, 7.60439, -0.3332307, 0.16595507, 10.247465
787608053460952, 6.4737816, -0.16271193, 7.426125, 0.16620576, -0.091073036, 9.851282
787608063099911, 6.7118673, 0.07058827, 7.6259255, -0.054024756, -0.011633396, 10.159027
787608072738765, 6.6352973, 0.19740787, 7.4309106, -0.16937077, 0.077727795, 9.962423
787608082377723, 6.567102, -0.3385844, 7.676175, 0.3313949, -0.20909595, 10.10008
787608092016682, 6.826723, 0.45702913, 7.500303, -0.40881237, 0.21039343, 10.141802
787608101655640, 6.4055862, -0.53240305, 7.5792656, 0.523617, -0.28730822, 9.919856
787608111294598, 6.9152575, 0.587438, 7.476374, -0.5350368, 0.31116724, 10.182287
787608120933452, 6.3720865, -0.4426722, 7.5433736, 0.4327168, -0.28141832, 9.870941
787608130572411, 6.882954, 0.4139583, 7.5996046, -0.37162423, 0.17080784, 10.253446
787608140211369, 6.4343, -0.23090738, 7.470392, 0.2248953, -0.1602292, 9.858196
787608149850327, 6.7226353, 0.09451649, 7.6666036, -0.078128695, -0.030068874, 10.196693
787608159489286, 6.65444, 0.16630118, 7.409375, -0.13381803, 0.10248327, 9.958899
787608169128140, 6.5838513, -0.2656033, 7.6067834, 0.26780087, -0.14903593, 10.059169
787608178767098, 6.815955, 0.46779683, 7.4380894, -0.4138989, 0.24422216, 10.088126
787608188406057, 6.4534426, -0.4953143, 7.5960155, 0.47503138, -0.27274513, 9.9645195
787608198045015, 6.927222, 0.5587241, 7.479964, -0.49551964, 0.32303333, 10.193064
787608207683973, 6.3972116, -0.51206404, 7.52782, 0.49761122, -0.28172445, 9.8756075
787608217322827, 6.9188466, 0.47856453, 7.5828547, -0.42508715, 0.22164202, 10.264957
787608226961786, 6.4031935, -0.24765715, 7.4141607, 0.24987882, -0.15802622, 9.795131
787608236600744, 6.754938, 0.1268196, 7.597212, -0.104073465, 0.03754568, 10.166153
787608246239702, 6.623333, 0.11365908, 7.4189467, -0.08871031, 0.055185795, 9.945417
787608255878661, 6.597012, -0.2548356, 7.6390862, 0.2579878, -0.15711594, 10.092073
787608265517515, 6.7968125, 0.41635114, 7.4859457, -0.37838793, 0.18485975, 10.110987
787608275156473, 6.454639, -0.47258246, 7.600801, 0.46351624, -0.2674575, 9.968525
787608284795432, 6.8889365, 0.56350976, 7.5062847, -0.5127815, 0.27211142, 10.18736
787608294434390, 6.384051, -0.5300102, 7.5266237, 0.51738364, -0.2832551, 9.86606
787608304073348, 6.9009004, 0.49052864, 7.5696945, -0.4382445, 0.22171307, 10.243149
787608313712202, 6.4534426, -0.30269206, 7.432107, 0.3000192, -0.13365793, 9.842096
787608323351161, 6.8051877, 0.14955142, 7.585248, -0.11576402, 0.09046936, 10.190552
787608332990119, 6.6041903, 0.09930214, 7.3902326, -0.07423973, 0.064246655, 9.9111595
787608342629077, 6.617351, -0.2117648, 7.6103725, 0.21805072, -0.115954876, 10.084194
787608352267932, 6.7645097, 0.4331009, 7.432107, -0.38898063, 0.19961405, 10.049438
787608361906890, 6.458228, -0.4989035, 7.6426754, 0.47990483, -0.29022217, 10.002679
787608371545848, 6.9128647, 0.5587241, 7.5517483, -0.5038127, 0.25208235, 10.237743
787608381184807, 6.391229, -0.5419743, 7.570891, 0.52724826, -0.30407667, 9.904013
787608390823765, 6.9248285, 0.50488555, 7.5816584, -0.45688003, 0.22416353, 10.267946
787608400462619, 6.401997, -0.32063824, 7.4715886, 0.3214022, -0.19270706, 9.837306
787608410101577, 6.7740808, 0.20937198, 7.611569, -0.18119991, 0.056840897, 10.189795
787608419740536, 6.5886374, 0.06699903, 7.393822, -0.04436922, 0.04693985, 9.903486
787608429379494, 6.6448684, -0.16151553, 7.6271224, 0.16945744, -0.09691334, 10.115099
787608439018452, 6.7704916, 0.3481557, 7.4392858, -0.3090879, 0.18867493, 10.058461
787608448657307, 6.478567, -0.51206404, 7.624729, 0.49932176, -0.2617879, 10.002636
787608458296265, 6.916454, 0.51206404, 7.4979095, -0.46540165, 0.2814188, 10.199137
787608467935223, 6.384051, -0.5694918, 7.5409803, 0.55245006, -0.29985523, 9.876826
787608477574182, 6.9188466, 0.56590253, 7.533802, -0.50372756, 0.2799306, 10.228233
787608487213036, 6.3888364, -0.31944183, 7.4847493, 0.3091449, -0.22313309, 9.838465
787608496851994, 6.808777, 0.29192436, 7.635497, -0.26437896, 0.08998728, 10.230713
787608506490952, 6.539584, 0.040677983, 7.4392858, -0.02450031, -0.021248817, 9.905035
787608516129911, 6.680761, -0.13040884, 7.618747, 0.14306289, -0.061997414, 10.13265
787608525768869, 6.759724, 0.3481557, 7.4309106, -0.3025339, 0.19960451, 10.045006
787608535407723, 6.5144596, -0.47138608, 7.624729, 0.4636802, -0.23852444, 10.0262165
787608545046682, 6.9451675, 0.5371887, 7.513463, -0.4812914, 0.3113532, 10.229734
787608554685640, 6.3254266, -0.5946164, 7.5457664, 0.5661804, -0.33576584, 9.84225
787608564324598, 6.9020967, 0.5192425, 7.60439, -0.4693296, 0.21210718, 10.269861
787608573963557, 6.3768725, -0.3481557, 7.554141, 0.32564783, -0.26507854, 9.883039
787608583602411, 6.771688, 0.31345975, 7.658229, -0.29115587, 0.06010008, 10.223214
787608593241369, 6.4737816, 0.0011964113, 7.475178, 0.0019856691, -0.090118885, 9.888378
787608602880327, 6.6364937, -0.06460621, 7.6390862, 0.07380235, -0.08809376, 10.118776
787608612519286, 6.7633133, 0.3696911, 7.4153576, -0.32057717, 0.21678591, 10.035778
787608622158140, 6.5228343, -0.42592242, 7.6067834, 0.42608488, -0.20326567, 10.018436
787608631797098, 6.906883, 0.48095736, 7.4356966, -0.42025366, 0.32740974, 10.14604
787608641436057, 6.4737816, -0.59700924, 7.5062847, 0.5889184, -0.20280218, 9.910732
787608651075015, 7.0169525, 0.45942193, 7.4787674, -0.38262165, 0.37286186, 10.251597
787608660713973, 6.4677997, -0.4546363, 7.411768, 0.45696127, -0.11550093, 9.836222
787608670352827, 6.869794, 0.31345975, 7.568498, -0.26714635, 0.18180609, 10.221061
787608679991786, 6.5072813, -0.041874398, 7.4045897, 0.05154419, -0.030233383, 9.857528
787608689630744, 6.652047, -0.02751746, 7.6331043, 0.036773145, -0.07070303, 10.124644
787608699269702, 6.6592255, 0.31345975, 7.52782, -0.29163086, 0.052569866, 10.05106
787608708908661, 6.442675, -0.36011982, 7.759924, 0.3378291, -0.34800243, 10.080622
787608718547515, 6.7537417, 0.50488555, 7.60439, -0.4756614, 0.09656811, 10.171486
787608728186473, 6.326623, -0.54675996, 7.661818, 0.5152734, -0.3869443, 9.930426
787608737825432, 6.855437, 0.58983076, 7.5637126, -0.5540411, 0.2190814, 10.207827
787608747464390, 6.3625154, -0.41156548, 7.530213, 0.40482658, -0.25468636, 9.85527
787608757103348, 6.8745794, 0.3684947, 7.62114, -0.33646, 0.16455841, 10.263387
787608766742202, 6.5084777, -0.104087785, 7.4249287, 0.115167975, -0.03516817, 9.873508
787608776381161, 6.698707, -0.011964113, 7.643872, 0.02676487, -0.029259682, 10.163662
787608786020119, 6.6891356, 0.2536392, 7.408179, -0.21782556, 0.15428162, 9.980919
787608795659077, 6.539584, -0.38285163, 7.6223364, 0.37871504, -0.18304682, 10.041704
787608805297932, 6.8482585, 0.5024927, 7.463214, -0.446417, 0.27178574, 10.128059
787608814936890, 6.4402823, -0.5515456, 7.605587, 0.5396645, -0.2756939, 9.962889
787608824575848, 6.9535427, 0.5623133, 7.5469627, -0.5030793, 0.300426, 10.260664
787608834214807, 6.3828545, -0.5084748, 7.4859457, 0.5032238, -0.22928667, 9.835292
787608843853765, 6.9116683, 0.3804588, 7.5493555, -0.32580033, 0.24662638, 10.234341
787608853492619, 6.5204415, -0.17587246, 7.4010005, 0.19238055, -0.02354765, 9.863283
787608863131577, 6.751349, 0.0059820567, 7.57448, 0.020705879, 0.058790207, 10.146408
787608872770536, 6.707082, 0.18783657, 7.393822, -0.15257424, 0.16831493, 9.981846
787608882409494, 6.5682983, -0.36610186, 7.6402826, 0.35884064, -0.17485142, 10.074282
787608892048452, 6.8482585, 0.4761717, 7.4979095, -0.43836236, 0.24111366, 10.153508
787608901687307, 6.381658, -0.5515456, 7.6510506, 0.5280961, -0.34558058, 9.958414
787608911326265, 6.88774, 0.6017949, 7.5732837, -0.55520564, 0.23820925, 10.236834
787608920965223, 6.3493547, -0.4749753, 7.5960155, 0.44450134, -0.3185215, 9.896481
787608930604182, 6.8195443, 0.4139583, 7.600801, -0.384081, 0.15180206, 10.211718
787608940243140, 6.4462643, -0.15792629, 7.5110703, 0.15117681, -0.14587831, 9.897036
787608949881994, 6.7178497, 0.076570325, 7.7012997, -0.06383133, -0.03750801, 10.219584
787608959520952, 6.6245294, 0.16031912, 7.426125, -0.13412857, 0.08606243, 9.951483
787608969159911, 6.5347986, -0.3182454, 7.698907, 0.30412638, -0.2279563, 10.096216
787608978798869, 6.795616, 0.50488555, 7.4787674, -0.46332505, 0.23088837, 10.10442
787608988437827, 6.375676, -0.5240282, 7.62114, 0.49738425, -0.31937838, 9.932585
787608998076682, 6.910472, 0.5814559, 7.507481, -0.5220708, 0.30259418, 10.202493
787609007715640, 6.3792653, -0.50488555, 7.536195, 0.49280953, -0.2655878, 9.870703
787609017354598, 6.9092755, 0.424726, 7.629515, -0.38620183, 0.20517778, 10.292558
787609026993557, 6.4642105, -0.26081768, 7.499106, 0.25621408, -0.13847399, 9.89979
787609036632515, 6.745367, 0.07178468, 7.6594253, -0.054453075, 0.012918472, 10.206311
787609046271369, 6.582655, 0.15074782, 7.436893, -0.12921488, 0.04940176, 9.931884
787609055910327, 6.5551376, -0.2536392, 7.6594253, 0.24847019, -0.17431974, 10.080122
787609065549286, 6.7968125, 0.46181476, 7.4656067, -0.42092577, 0.231318, 10.095272
787609075188244, 6.458228, -0.51206404, 7.6103725, 0.5018493, -0.25437927, 9.978584
787609084827202, 6.9822564, 0.5563313, 7.5062847, -0.48909777, 0.35541964, 10.248912
787609094466057, 6.4175506, -0.54675996, 7.4847493, 0.5387659, -0.19226933, 9.857897
787609104105015, 6.928418, 0.4139583, 7.5637126, -0.3755056, 0.2506609, 10.255743
787609113743973, 6.4498534, -0.31345975, 7.4309106, 0.31387204, -0.10592413, 9.839085
787609123382932, 6.768099, 0.12323037, 7.6534433, -0.10205054, 0.03438425, 10.216944
787609133021890, 6.6125655, 0.09212367, 7.452446, -0.07310891, 0.049571037, 9.963216
787609142660848, 6.6089764, -0.23688944, 7.649854, 0.23826575, -0.12116051, 10.108587
787609152299702, 6.7381887, 0.4139583, 7.4919276, -0.386715, 0.15790415, 10.076162
787609161938661, 6.4067826, -0.4953143, 7.648658, 0.47497243, -0.29894495, 9.973927
787609171577619, 6.899704, 0.57906306, 7.5326056, -0.5293087, 0.27443933, 10.2140045
787609181216577, 6.35773, -0.5240282, 7.5326056, 0.5069151, -0.28037214, 9.8539295
787609190855536, 6.899704, 0.50009996, 7.5661054, -0.4530929, 0.24281788, 10.239029
787609200494494, 6.4343, -0.31226337, 7.463214, 0.3122748, -0.14409399, 9.852868
787609210133348, 6.798009, 0.12562318, 7.6510506, -0.09984219, 0.06444788, 10.2348995
787609219772307, 6.6424756, 0.05503492, 7.4189467, -0.027679443, 0.09444475, 9.957741
787609229411265, 6.6089764, -0.22612174, 7.670193, 0.22304296, -0.13432741, 10.123922
787609239050223, 6.74776, 0.37567315, 7.450053, -0.3335268, 0.20075083, 10.0511265
787609248689182, 6.4091754, -0.4977071, 7.6546397, 0.47536367, -0.31209326, 9.979748
787609258328036, 6.890133, 0.5802595, 7.554141, -0.5327829, 0.26023722, 10.223702
787609267966994, 6.343373, -0.5407779, 7.597212, 0.51749456, -0.3273058, 9.893105
787609277605952, 6.8709903, 0.506082, 7.617551, -0.46737868, 0.19267702, 10.258564
787609287244911, 6.3744793, -0.31345975, 7.536195, 0.30098867, -0.2289238, 9.868307
787609296883869, 6.782456, 0.25124636, 7.6893353, -0.23540819, 0.053438187, 10.253411
787609306522827, 6.552745, 0.04546363, 7.4548388, -0.03058362, 0.008451462, 9.925429
787609316161682, 6.6592255, -0.15792629, 7.647461, 0.16682887, -0.06408119, 10.140116
787609325800640, 6.7130637, 0.39840496, 7.4512496, -0.3650289, 0.17192411, 10.029072
787609335439598, 6.4211397, -0.44745782, 7.645068, 0.42406464, -0.28252506, 9.980915
787609345078557, 6.8745794, 0.5838487, 7.530213, -0.53270453, 0.26964808, 10.195507
787609354717515, 6.3397837, -0.54675996, 7.6259255, 0.5214044, -0.3497877, 9.912231
787609364356473, 6.869794, 0.4881358, 7.618747, -0.45447764, 0.19877481, 10.258245
787609373995327, 6.385247, -0.34097722, 7.537391, 0.32115376, -0.22519112, 9.876542
787609383634286, 6.806384, 0.31106696, 7.643872, -0.2787164, 0.11170673, 10.235344
787609393273244, 6.5491557, -0.013160525, 7.456035, 0.03065759, -9.584427E-5, 9.923868
787609402912202, 6.6676, -0.1471586, 7.60439, 0.16214931, -0.02910328, 10.113268
787609412551161, 6.7645097, 0.30508488, 7.4033933, -0.25272435, 0.24367952, 10.0268955
787609422190119, 6.472585, -0.51206404, 7.6366935, 0.49825668, -0.2539358, 10.008142
787609431829077, 6.8422766, 0.5168497, 7.500303, -0.47103947, 0.27090263, 10.151018
787609441467932, 6.35773, -0.57547385, 7.6163545, 0.5359216, -0.33947802, 9.917576
787609451106890, 6.920043, 0.5312066, 7.6510506, -0.48187035, 0.2309413, 10.316114
787609460745848, 6.3517475, -0.39481574, 7.5696945, 0.3697033, -0.2843194, 9.8784275
787609470384807, 6.7812595, 0.31465617, 7.7001033, -0.28978002, 0.06727409, 10.260975
787609480023765, 6.4677997, -0.046660043, 7.466803, 0.045835555, -0.07035208, 9.878296
787609489662723, 6.652047, -0.078963146, 7.68455, 0.08164793, -0.08242369, 10.163405
787609499301682, 6.7058854, 0.2632105, 7.459625, -0.22537607, 0.15957165, 10.030351
787609508940536, 6.501299, -0.4354937, 7.672586, 0.41218007, -0.24683475, 10.054567
787609518579494, 6.869794, 0.5599205, 7.487142, -0.5049433, 0.3141904, 10.159292
787609528218452, 6.3804617, -0.54675996, 7.5732837, 0.5170688, -0.28571177, 9.900248
787609537857411, 6.9415784, 0.5814559, 7.550552, -0.5206371, 0.33399534, 10.254355
787609547496369, 6.3792653, -0.3912265, 7.446464, 0.37642008, -0.18113613, 9.804255
787609557135327, 6.876972, 0.34456646, 7.658229, -0.30712616, 0.17014503, 10.292553
787609566774286, 6.492924, -0.106480606, 7.460821, 0.116425514, -0.06217861, 9.89019
787609576413140, 6.715457, -0.05623133, 7.678568, 0.071161926, -0.030962944, 10.200731
787609586052098, 6.660422, 0.19142582, 7.463214, -0.16072345, 0.10904455, 10.002985
787609595691057, 6.483353, -0.44626144, 7.6630144, 0.42640626, -0.2544794, 10.035349
787609605330015, 6.8614187, 0.52163535, 7.4979095, -0.4605124, 0.28962564, 10.1623745
787609614968973, 6.407979, -0.5192425, 7.5864444, 0.4913559, -0.2733283, 9.928234
787609624607932, 6.9619174, 0.5946164, 7.542177, -0.5356127, 0.3460164, 10.261564
787609634246890, 6.364908, -0.43908295, 7.4943204, 0.42014587, -0.22636127, 9.830663
787609643885744, 6.8171515, 0.38883367, 7.628319, -0.34996864, 0.1434412, 10.23098
787609653524702, 6.454639, -0.10767702, 7.4859457, 0.10977465, -0.10990238, 9.883787
787609663163661, 6.6831536, 0.021535404, 7.716853, -0.013470292, -0.07024193, 10.208317
787609672802619, 6.634101, 0.26799613, 7.4644103, -0.23689198, 0.10192728, 9.986692
787609682441577, 6.4869423, -0.3684947, 7.7072816, 0.35327554, -0.26718235, 10.07086
787609692080536, 6.8099732, 0.4941179, 7.5517483, -0.44613287, 0.20541573, 10.16895
787609701719494, 6.38764, -0.5563313, 7.649854, 0.5291391, -0.32440567, 9.962254
787609711358452, 6.91765, 0.52163535, 7.560123, -0.45644313, 0.29100704, 10.246386
787609720997307, 6.3744793, -0.50488555, 7.5457664, 0.48416322, -0.26047945, 9.875485
787609730636265, 6.897311, 0.3505485, 7.5900335, -0.30493066, 0.22707653, 10.254747
787609740275223, 6.526424, -0.15553348, 7.4045897, 0.17385483, -0.012032509, 9.869955
787609749914182, 6.7836523, 0.08135597, 7.615158, -0.051585376, 0.07831669, 10.198353
787609759553140, 6.652047, 0.18783657, 7.3866434, -0.15092683, 0.14530563, 9.9400015
787609769192098, 6.538388, -0.33379877, 7.649854, 0.32692057, -0.1949234, 10.061676
787609778831057, 6.815955, 0.50488555, 7.496713, -0.44970465, 0.2476511, 10.131599
787609788470015, 6.398408, -0.5419743, 7.682157, 0.5185686, -0.34411526, 9.993075
787609798108973, 6.9044895, 0.5479564, 7.611569, -0.50279546, 0.24902296, 10.275865
787609807747827, 6.3768725, -0.5084748, 7.5529447, 0.48348713, -0.27068567, 9.88246
787609817386786, 6.8721867, 0.41994038, 7.611569, -0.3802321, 0.2048068, 10.254402
787609827025744, 6.452246, -0.2117648, 7.432107, 0.21819592, -0.092644215, 9.841564
787609836664702, 6.7405815, 0.05742774, 7.6271224, -0.03674549, 0.0362401, 10.178854
787609846303661, 6.649654, 0.15433706, 7.4213395, -0.12253231, 0.117801666, 9.964393
787609855942619, 6.5754766, -0.30508488, 7.6462646, 0.30164474, -0.15330458, 10.083692
787609865581577, 6.812366, 0.46660042, 7.4823565, -0.41674975, 0.24051666, 10.118309
787609875220536, 6.3601227, -0.4989035, 7.6678, 0.4613545, -0.3604045, 9.957535
787609884859494, 6.8506513, 0.5946164, 7.587641, -0.5441295, 0.22383165, 10.223068
787609894498452, 6.330212, -0.485743, 7.60798, 0.46109623, -0.33964443, 9.8924675
787609904137307, 6.8949184, 0.47377887, 7.685746, -0.435834, 0.18398857, 10.3252735
787609913776265, 6.430711, -0.2548356, 7.5086775, 0.24694008, -0.15903997, 9.884987
787609923415223, 6.798009, 0.1268196, 7.597212, -0.09097046, 0.115419865, 10.194365
787609933054182, 6.586244, -0.050249275, 7.3663044, 0.080388784, 0.0803442, 9.880823
787609942693140, 6.6687965, -0.008374879, 7.6031938, 0.026198149, -0.008447647, 10.113392
787609952332098, 6.6819572, -0.014356935, 7.5230346, 0.040595233, 0.052171707, 10.0618305
787609961971057, 6.6687965, -0.014356935, 7.554141, 0.035821795, 0.023128986, 10.076523
787609971610015, 6.660422, -0.021535404, 7.5517483, 0.041546583, 0.016116142, 10.06919
787609981248973, 6.6089764, 0.05383851, 7.5673018, -0.039860725, -0.021902084, 10.04706
787609990887932, 6.582655, 0.07298109, 7.597212, -0.063733995, -0.057995796, 10.052208
787610000526890, 6.580262, 0.096909314, 7.6223364, -0.08941299, -0.073608875, 10.0695505
787610010165744, 6.5886374, 0.038285162, 7.631908, -0.02867192, -0.07773161, 10.082201
787610019804702, 6.62094, 0.034695927, 7.645068, -0.023296535, -0.0626359, 10.11339
787610029443661, 6.6257257, 0.031106694, 7.5996046, -0.015044153, -0.029072285, 10.082365
787610039082619, 6.600601, 0.010767702, 7.5146594, 0.010294855, 0.0057854652, 10.0019
787610048721577, 6.6388865, 0.021535404, 7.5026956, 0.004071355, 0.043560028, 10.018174
787610058360536, 6.695118, 0.008374879, 7.5326056, 0.019743323, 0.064398766, 10.077713
787610067999494, 6.68435, -0.0035892338, 7.5385876, 0.02977848, 0.04958105, 10.075094
787610077638452, 6.6556363, 0.011964113, 7.554141, 0.009519935, 0.018034935, 10.067883
787610087277411, 6.674779, 0.0035892338, 7.5553374, 0.019056976, 0.028830051, 10.0814
787610096916369, 6.5814586, 0.069391854, 7.643872, -0.06271052, -0.0901885, 10.086482
787610106555327, 6.5982084, 0.02751746, 7.5493555, -0.012486041, -0.023812294, 10.0264225
787610116194286, 6.6125655, 0.032303106, 7.5529447, -0.014949441, -0.01194191, 10.0386095
787610125833244, 6.652047, 0.05383851, 7.5637126, -0.03313428, 0.014123917, 10.07279
787610135472202, 6.6628146, 0.047856454, 7.554141, -0.02485317, 0.028083324, 10.072687
787610145111161, 6.647261, 0.013160525, 7.576873, 0.006183028, -0.002805233, 10.079445
787610154750015, 6.647261, -0.0047856453, 7.537391, 0.027386546, 0.021992207, 10.049733
787610164388973, 6.6149583, -0.038285162, 7.5637126, 0.05556315, -0.023418427, 10.048146
787610174027932, 6.6448684, -0.016749758, 7.5661054, 0.03638625, -2.7179718E-5, 10.069717
787610183666890, 6.6687965, 0.01794617, 7.5792656, 0.0018735528, 0.012978554, 10.095457
787610193305848, 6.658029, 0.06580263, 7.5469627, -0.043855846, 0.032418728, 10.064161
787610202944807, 6.6329045, 0.058624156, 7.5589266, -0.04018426, 5.555153E-4, 10.05657
787610212583765, 6.5946193, 0.04426722, 7.537391, -0.027899325, -0.016990185, 10.015097
787610222222723, 6.6077795, 0.008374879, 7.585248, 0.0048392415, -0.044563293, 10.059662
787610231861682, 6.6388865, 0.02751746, 7.611569, -0.0134902, -0.036106586, 10.100004
787610241500640, 6.640083, -0.015553347, 7.5900335, 0.03133297, -0.027105331, 10.084534
787610251139598, 6.611369, -0.025124637, 7.539784, 0.042479515, -0.016563892, 10.027817
787610260778557, 6.6484575, -0.032303106, 7.598408, 0.048035085, -0.02806139, 10.096323
787610270417515, 6.6628146, 0.0059820567, 7.5696945, 0.013049424, 0.006344795, 10.084305
787610280056473, 6.6053867, 0.02632105, 7.54457, -0.0117557645, -0.019303799, 10.027555
787610289695432, 6.5898337, 0.05383851, 7.5433736, -0.040211618, -0.027085304, 10.016434
787610299334390, 6.664011, 0.041874398, 7.5936227, -0.025649965, -0.0070610046, 10.103128
787610308973348, 6.6771717, 0.049052864, 7.537391, -0.027134895, 0.040050507, 10.069607
787610318612307, 6.6676, 0.06699903, 7.5110703, -0.04329437, 0.051106453, 10.043558
787610328251265, 6.6352973, 0.041874398, 7.5110703, -0.020783365, 0.021510601, 10.022186
787610337890223, 6.652047, 0.020338992, 7.5385876, 6.712675E-4, 0.010294914, 10.053873
787610347529182, 6.664011, -0.01794617, 7.5756764, 0.03710705, -0.009322643, 10.08954
787610357168140, 6.660422, -0.013160525, 7.5589266, 0.03328395, -7.138252E-4, 10.074605
787610366806994, 6.623333, -0.020338992, 7.5613194, 0.036732614, -0.030824661, 10.051876
787610376445952, 6.6352973, -0.0035892338, 7.5661054, 0.019176006, -0.023559093, 10.06341
787610386084911, 6.652047, -0.010767702, 7.5625157, 0.027930856, -0.009474754, 10.0717745
787610395723869, 6.649654, 0.0, 7.560123, 0.016522646, -0.0076031685, 10.0684185
787610405362827, 6.6652074, 0.050249275, 7.542177, -0.031013548, 0.021019936, 10.065315
787610415001786, 6.6484575, 0.022731815, 7.5266237, -0.00419724, 0.014996052, 10.042526
787610424640744, 6.6532435, 0.02871387, 7.5637126, -0.012514353, -0.0073637962, 10.07353
787610434279702, 6.6795645, 0.029910283, 7.570891, -0.011789858, 0.007665634, 10.09632
787610443918661, 6.6424756, 0.025124637, 7.584051, -0.011297464, -0.030488968, 10.08166
787610453557619, 6.6257257, 0.034695927, 7.550552, -0.019827604, -0.019548416, 10.045472
787610463196577, 6.62094, 0.040677983, 7.5625157, -0.02695179, -0.030740261, 10.051291
787610472835536, 6.613762, 0.050249275, 7.5661054, -0.036963403, -0.03856373, 10.049253
787610482474494, 6.631708, 0.041874398, 7.5433736, -0.024855435, -0.0114398, 10.044056
787610492113452, 6.649654, 0.013160525, 7.548159, 0.0058224797, -0.005946636, 10.059458
787610501752411, 6.661618, -0.025124637, 7.54457, 0.04523909, 7.572174E-4, 10.064607
787610511391369, 6.6975107, -0.0047856453, 7.503892, 0.030657351, 0.055224895, 10.057887
787610521030327, 6.6759753, 0.009571291, 7.489535, 0.014998674, 0.049130917, 10.0329075
787610530669286, 6.674779, 0.015553347, 7.495517, 0.0085375905, 0.04502678, 10.0366125
787610540308244, 6.6795645, 0.010767702, 7.5290165, 0.010986388, 0.02538538, 10.064892
787610549947202, 6.6735826, 0.039481573, 7.5553374, -0.02025348, 0.007665634, 10.080721
787610559586161, 6.6364937, 0.009571291, 7.568498, 0.0038141608, -0.033007145, 10.065992
787610569225119, 6.6125655, 0.022731815, 7.5732837, -0.012215376, -0.052673817, 10.053768
787610578864077, 6.6077795, 0.02871387, 7.5589266, -0.017816484, -0.04651451, 10.0398445
787610588503036, 6.647261, 0.008374879, 7.5553374, 0.00722605, -0.018687248, 10.063244
787610598141994, 6.660422, 0.038285162, 7.55773, -0.021518946, -0.006330967, 10.073803
787610607780952, 6.6484575, 0.050249275, 7.554141, -0.034217775, -0.011865139, 10.063213
787610617419911, 6.634101, 0.022731815, 7.5625157, -0.009199798, -0.03312826, 10.059935
787610627058869, 6.6676, 0.040677983, 7.520642, -0.018463612, 0.021875381, 10.05076
787610636697827, 6.658029, 0.0526421, 7.54457, -0.033887386, 7.67231E-4, 10.062382
787610646336786, 6.6652074, 0.032303106, 7.536195, -0.01118201, 0.006904602, 10.060818
787610655975744, 6.6448684, 0.02871387, 7.554141, -0.0111884475, -0.02107811, 10.060794
787610665614702, 6.626922, 0.008374879, 7.5110703, 0.011040568, -0.009115696, 10.016595
787610675253661, 6.6687965, 0.047856454, 7.5433736, -0.02602607, 0.0070114136, 10.068609
787610684892619, 6.6831536, 0.02751746, 7.5493555, -0.0044781566, 0.011391163, 10.082556
787610694531577, 6.660422, 0.0035892338, 7.5349984, 0.018146038, 0.0010080338, 10.056694
787610704170536, 6.6352973, 0.0047856453, 7.5349984, 0.014656782, -0.017850399, 10.040062
787610713809494, 6.6388865, -0.0011964113, 7.5529447, 0.01881957, -0.027942657, 10.055877
787610723448452, 6.643672, 0.0011964113, 7.5792656, 0.01387912, -0.039812565, 10.078785
787610733087411, 6.6484575, 0.016749758, 7.536195, 0.0017181039, -0.0058927536, 10.049701
787610742726369, 6.6831536, 0.032303106, 7.548159, -0.011546135, 0.013883114, 10.081665
787610752365327, 6.687939, -0.0035892338, 7.521838, 0.02596438, 0.029947758, 10.065039
787610762004286, 6.661618, 0.033499517, 7.513463, -0.012487888, 0.018163204, 10.04141
787610771643244, 6.6532435, 0.0526421, 7.52782, -0.033207834, 0.0046463013, 10.04666
787610781282202, 6.6460648, 0.03708875, 7.530213, -0.018322825, -0.0046024323, 10.04367
787610790921161, 6.6711893, 0.033499517, 7.542177, -0.012771368, 0.0050520897, 10.069267
787610800560119, 6.6556363, 0.08853444, 7.530213, -0.06756872, 0.0067715645, 10.050117
787610810199077, 6.6532435, 0.051445685, 7.5182486, -0.029900432, 0.008608341, 10.039492
787610819838036, 6.658029, 0.0059820567, 7.580462, 0.011941552, -0.03387499, 10.089177
787610829476994, 6.6460648, 0.013160525, 7.580462, 0.0033743382, -0.03993416, 10.081277
787610839115952, 6.652047, -0.0023928226, 7.568498, 0.020331562, -0.02977705, 10.076239
787610848754911, 6.640083, 0.0059820567, 7.5673018, 0.010657847, -0.03594923, 10.067442
787610858393869, 6.6460648, 0.05623133, 7.530213, -0.035514712, -5.1927567E-4, 10.043713
787610868032827, 6.640083, 0.038285162, 7.520642, -0.017856061, -0.0016207695, 10.032542
787610877671786, 6.6795645, 0.0, 7.5182486, 0.025041223, 0.022635937, 10.056814
787610887310744, 6.674779, -0.009571291, 7.517052, 0.033557832, 0.015010834, 10.052736
787610896949702, 6.649654, -0.021535404, 7.5110703, 0.043167293, -0.0014004707, 10.031586
787610906588661, 6.661618, -0.0059820567, 7.5110703, 0.028066993, 0.008896828, 10.039546
