timestamp_acc,device_acc_x,device_acc_y,device_acc_z,earth_acc_x,earth_acc_y,earth_acc_z
773148059181607, 8.37129, 0.22013968, 5.5537415, 0.03474486, 0.04804468, 10.048258
773148068821711, 8.329415, 0.21415763, 5.5130634, 0.038413048, 0.06107235, 9.990681
773148078461815, 8.3174515, 0.21415763, 5.556134, 0.03951031, 0.01574421, 10.004733
773148088101919, 8.344969, 0.22372891, 5.605187, 0.033071756, -0.010225773, 10.055122
773148097742128, 8.35454, 0.20338993, 5.613562, 0.051336974, -0.014988899, 10.067221
773148107382232, 8.3784685, 0.18065812, 5.621937, 0.07420018, -0.007317066, 10.091185
773148117022336, 8.349754, 0.20458634, 5.599205, 0.048089743, -0.005704403, 10.055298
773148126662440, 8.306684, 0.20697916, 5.5716877, 0.04317057, -0.0068039894, 10.00428
773148136302544, 8.348558, 0.2440679, 5.548956, 0.0030850768, 0.030559063, 10.027361
773148145942649, 8.368897, 0.2727818, 5.5704913, -0.02457425, 0.019646168, 10.0569515
773148155582753, 8.38804, 0.3182454, 5.548956, -0.07137549, 0.04574251, 10.062017
773148165222961, 8.397611, 0.31944183, 5.511867, -0.074086726, 0.08043194, 10.049409
773148174863065, 8.355737, 0.3062813, 5.49751, -0.06076017, 0.068668365, 10.006316
773148184503169, 8.335398, 0.27517462, 5.501099, -0.02802375, 0.055419445, 9.990638
773148194143274, 8.327023, 0.2536392, 5.6004014, 0.0018138885, -0.031220436, 10.038284
773148203783378, 8.338987, 0.2656033, 5.666204, -0.0041523874, -0.080216885, 10.085072
773148213423482, 8.335398, 0.27158538, 5.6123657, -0.014016598, -0.03424406, 10.052357
773148223063690, 8.316256, 0.2440679, 5.5453663, 0.008300245, 0.012829304, 9.998526
773148232703794, 8.325827, 0.20458634, 5.5298133, 0.046760023, 0.03703165, 9.996825
773148242343899, 8.353344, 0.19980069, 5.5453663, 0.052423537, 0.039669514, 10.0282135
773148251984003, 8.348558, 0.2321038, 5.5944195, 0.023448348, -0.008975983, 10.052322
773148261624107, 8.340183, 0.22971097, 5.6183476, 0.025787026, -0.037764072, 10.058587
773148271264211, 8.353344, 0.2440679, 5.562116, 0.007876933, 0.015404701, 10.038663
773148280904315, 8.338987, 0.23688944, 5.5477595, 0.01407063, 0.020030499, 10.018577
773148290544524, 8.329415, 0.23808585, 5.582455, 0.014827162, -0.01661253, 10.029914
773148300184628, 8.319844, 0.2548356, 5.615955, 2.6136637E-5, -0.050540924, 10.040974
773148309824732, 8.298309, 0.28713873, 5.621937, -0.03155762, -0.07070112, 10.027193
773148319464836, 8.323434, 0.31465617, 5.605187, -0.059707075, -0.043900967, 10.039482
773148329104940, 8.340183, 0.30987054, 5.5669017, -0.057353407, -0.0030374527, 10.032038
773148338745044, 8.347362, 0.29910284, 5.535795, -0.047686577, 0.028485298, 10.020472
773148348385253, 8.362915, 0.29910284, 5.5537415, -0.045849293, 0.02179432, 10.04337
773148358025357, 8.37129, 0.2656033, 5.56092, -0.011394441, 0.02074337, 10.053473
773148367665461, 8.37129, 0.25124636, 5.552545, 0.003107518, 0.027044773, 10.048464
773148377305565, 8.329415, 0.24047868, 5.5501523, 0.014684796, 0.0035481453, 10.012041
773148386945669, 8.328219, 0.24047868, 5.564509, 0.015457839, -0.009192944, 10.019008
773148396585774, 8.365308, 0.23330021, 5.5716877, 0.022293657, 0.0066666603, 10.053654
773148406225982, 8.382058, 0.2416751, 5.568098, 0.013333678, 0.019407272, 10.065806
773148415866086, 8.340183, 0.2632105, 5.5429735, -0.0092534125, 0.016716957, 10.0175905
773148425506190, 8.323434, 0.2632105, 5.5094743, -0.010712147, 0.034963608, 9.985079
773148435146294, 8.362915, 0.25004998, 5.5573306, 0.004691869, 0.01769209, 10.0441265
773148444786399, 8.343773, 0.25842485, 5.5896335, -0.002223581, -0.02274704, 10.046334
773148454426503, 8.340183, 0.2656033, 5.582455, -0.009759277, -0.019091606, 10.039549
773148464066607, 8.333005, 0.28235307, 5.5573306, -0.027913451, -0.0037646294, 10.020072
773148473706815, 8.335398, 0.2620141, 5.5573306, -0.00717175, -0.0036568642, 10.021545
773148483346919, 8.342576, 0.2620141, 5.5633125, -0.0068419576, -0.0047068596, 10.030831
773148492987024, 8.379665, 0.25962126, 5.572884, -0.0044772625, 0.007274151, 10.066934
773148502627128, 8.347362, 0.2440679, 5.5250273, 0.007967174, 0.030167103, 10.013141
773148512267232, 8.360522, 0.24765715, 5.503492, 0.0030415058, 0.055261135, 10.012244
773148521907336, 8.368897, 0.2440679, 5.5070815, 0.0068012774, 0.05594349, 10.021117
773148531547440, 8.361719, 0.25962126, 5.552545, -0.0058087707, 0.013319969, 10.040731
773148541187649, 8.350951, 0.24526432, 5.5740805, 0.009909302, -0.010735989, 10.043341
773148550827753, 8.362915, 0.24646074, 5.5860443, 0.00930807, -0.014127731, 10.059954
773148560467857, 8.356933, 0.2428715, 5.5704913, 0.011893541, -0.0040946007, 10.046269
773148570107961, 8.342576, 0.2536392, 5.5393844, -9.650588E-4, 0.015211105, 10.017359
773148579748065, 8.336594, 0.24526432, 5.5274205, 0.006735444, 0.0222888, 10.005537
773148589388169, 8.338987, 0.25962126, 5.5393844, -0.0067268014, 0.013142586, 10.014523
773148599028378, 8.353344, 0.2620141, 5.5669017, -0.0073729455, -0.0030150414, 10.041779
773148608668482, 8.356933, 0.27517462, 5.595616, -0.017941475, -0.026953697, 10.06101
773148618308586, 8.340183, 0.28594232, 5.56092, -0.03098616, -0.0085401535, 10.028122
773148627948690, 8.3174515, 0.2644069, 5.5298133, -0.011076868, 0.006848812, 9.9914255
773148637588794, 8.344969, 0.2644069, 5.5274205, -0.011395216, 0.024670124, 10.012995
773148647228899, 8.377272, 0.25722843, 5.5453663, -0.003821075, 0.028330326, 10.049633
773148656869003, 8.374879, 0.25722843, 5.5597234, -0.0023061037, 0.01637125, 10.055596
773148666509107, 8.353344, 0.23449662, 5.534599, 0.018791527, 0.027265549, 10.023175
773148676149315, 8.340183, 0.23688944, 5.562116, 0.019204557, -0.003499031, 10.027539
773148685789419, 8.330612, 0.25124636, 5.5896335, 0.0066514015, -0.034234524, 10.035189
773148695429524, 8.333005, 0.25124636, 5.588437, 0.0062336624, -0.032826424, 10.036513
773148705069628, 8.311469, 0.24646074, 5.562116, 0.009007663, -0.021339893, 10.003892
773148714709732, 8.327023, 0.23449662, 5.5405807, 0.018771619, 0.006122589, 10.004596
773148724349836, 8.374879, 0.2536392, 5.5513487, -2.732873E-4, 0.02246666, 10.050866
773148733989940, 8.395218, 0.24765715, 5.554938, 0.00492537, 0.03094387, 10.069626
773148743630149, 8.353344, 0.27158538, 5.5537415, -0.018769503, 0.0066170692, 10.034728
773148753270253, 8.37129, 0.2632105, 5.5501523, -0.010765374, 0.017597198, 10.047466
773148762910357, 8.383254, 0.28235307, 5.54417, -0.03069666, 0.027595997, 10.054591
773148772550461, 8.342576, 0.2883351, 5.535795, -0.035678595, 0.0111608505, 10.016253
773148782190565, 8.335398, 0.2739782, 5.51426, -0.02203253, 0.027390957, 9.997987
773148791830669, 8.34138, 0.2536392, 5.503492, -0.0019845665, 0.041222095, 9.996484
773148801470774, 8.361719, 0.2321038, 5.5513487, 0.022628754, 0.013105392, 10.039373
773148811110878, 8.390432, 0.23330021, 5.5800624, 0.022495985, 0.004343033, 10.079204
773148820751086, 8.373683, 0.25004998, 5.582455, 0.005683124, -0.0079779625, 10.067016
773148830391190, 8.34138, 0.25124636, 5.5537415, 0.0033120215, -0.0014104843, 10.02426
773148840031294, 8.34138, 0.25842485, 5.515456, -0.0059144795, 0.030052185, 10.003236
773148849671399, 8.328219, 0.2548356, 5.5298133, -9.290278E-4, 0.009963036, 10.000147
773148859311503, 8.338987, 0.27756742, 5.554938, -0.02234009, -0.0061421394, 10.0236
773148868951607, 8.364112, 0.2739782, 5.5740805, -0.018008858, -0.0085988045, 10.055019
773148878591711, 8.372486, 0.29790643, 5.5740805, -0.041763008, -0.0043973923, 10.062599
773148888231815, 8.353344, 0.29192436, 5.5573306, -0.035723478, 0.0034708977, 10.037243
773148897872024, 8.348558, 0.24885355, 5.5202417, 0.0049397945, 0.033777714, 10.011606
773148907512128, 8.338987, 0.22851457, 5.534599, 0.027131766, 0.015328884, 10.01108
773148917152232, 8.344969, 0.23808585, 5.575277, 0.019939423, -0.015646935, 10.038837
773148926792336, 8.370093, 0.24885355, 5.5860443, 0.008871496, -0.014162064, 10.065981
773148936432440, 8.338987, 0.25004998, 5.54417, 0.0048755705, 0.0021429062, 10.016936
773148946072544, 8.313862, 0.25962126, 5.534599, -0.005143553, -0.0037107468, 9.990969
773148955712649, 8.329415, 0.25004998, 5.5633125, 0.0060147047, -0.016840935, 10.019572
773148965352753, 8.360522, 0.25962126, 5.576473, -0.0029559433, -0.008969307, 10.052995
773148974992857, 8.372486, 0.2835495, 5.56092, -0.028608024, 0.010409832, 10.054941
773148984633065, 8.356933, 0.28235307, 5.528617, -0.0290986, 0.026697636, 10.0240755
773148994273169, 8.348558, 0.27038896, 5.5166526, -0.017683089, 0.03284979, 10.010176
773149003913274, 8.346166, 0.2321038, 5.548956, 0.023447216, 0.0010151863, 10.025104
773149013553378, 8.331808, 0.25124636, 5.576473, 0.006126851, -0.030841827, 10.028871
773149023193482, 8.342576, 0.25962126, 5.554938, -0.004177034, -0.008649349, 10.026127
773149032833586, 8.361719, 0.2440679, 5.532206, 0.009431392, 0.022236347, 10.02909
773149042473690, 8.364112, 0.25244278, 5.5166526, -3.8951635E-4, 0.03685665, 10.022684
773149052113794, 8.368897, 0.27158538, 5.5334024, -0.018460035, 0.024456024, 10.036424
773149061753899, 8.344969, 0.25004998, 5.5501523, 0.004486531, -0.0031604767, 10.025228
773149071394003, 8.349754, 0.2536392, 5.511867, -0.0016767681, 0.031067848, 10.008119
773149081034107, 8.356933, 0.2536392, 5.5298133, -6.9865584E-4, 0.019209385, 10.024027
773149090674315, 8.365308, 0.2847459, 5.554938, -0.030816078, -6.289482E-4, 10.045688
773149100314419, 8.299505, -0.08015956, 5.552545, 0.33377963, -0.017709255, 9.980344
773149109954524, 8.441878, 0.7968099, 5.5465627, -0.5422523, 0.025267124, 10.117801
773149119594628, 8.230113, -0.44027936, 5.54417, 0.6879058, -0.03526354, 9.909186
773149129234732, 8.408379, 0.96789676, 5.6075797, -0.71948516, -0.038822174, 10.127361
773149138874836, 8.312666, -0.3493521, 5.485546, 0.5918237, 0.047451973, 9.947924
773149148514940, 8.380861, 0.72382885, 5.5860443, -0.46501705, -0.030822754, 10.087093
773149158155044, 8.411968, -0.023928227, 5.4496536, 0.27350494, 0.12234211, 10.018519
773149167795149, 8.3174515, 0.23928227, 5.6063833, 0.01860103, -0.07018566, 10.033121
773149177435253, 8.457432, 0.44865423, 5.4987063, -0.2035039, 0.08023405, 10.095413
773149187075357, 8.242078, -0.19860429, 5.5513487, 0.44924152, -0.038925648, 9.92902
773149196715565, 8.482556, 0.86979103, 5.5130634, -0.618755, 0.05097723, 10.135024
773149206355669, 8.263613, -0.42831525, 5.5226345, 0.6831323, 0.014618397, 9.924886
773149215995774, 8.459825, 1.0049855, 5.569295, -0.7459169, -0.028770924, 10.150786
773149225635878, 8.327023, -0.37806597, 5.4520464, 0.6281672, 0.096904755, 9.939974
773149235275982, 8.367701, 0.78843504, 5.5633125, -0.52810585, -0.050895214, 10.065237
773149244916086, 8.384451, -0.05383851, 5.4436717, 0.29511195, 0.10725498, 9.99184
773149254556190, 8.319844, 0.30508488, 5.581259, -0.04757172, -0.0586915, 10.022855
773149264196294, 8.457432, 0.4139583, 5.465207, -0.16552056, 0.10954809, 10.07614
773149273836399, 8.243274, -0.16390835, 5.5657053, 0.4193119, -0.07619476, 9.938504
773149283476503, 8.471788, 0.80997044, 5.523831, -0.5547386, 0.052809715, 10.130617
773149293116607, 8.244471, -0.47258246, 5.562116, 0.72986555, -0.06434584, 9.929498
773149302756711, 8.4347, 0.971486, 5.5944195, -0.71078706, -0.036167145, 10.142926
773149312396815, 8.311469, -0.41754755, 5.4592247, 0.6585878, 0.056412697, 9.930815
773149322036919, 8.398808, 0.8111669, 5.572884, -0.56290984, -0.032445908, 10.09639
773149331677024, 8.379665, -0.07776674, 5.487939, 0.319782, 0.07069063, 10.011745
773149341317232, 8.322237, 0.4235296, 5.6099725, -0.1634987, -0.0905447, 10.043698
773149350957336, 8.410771, 0.39840496, 5.4376893, -0.15315789, 0.10492277, 10.021667
773149360597440, 8.2253275, -0.12083755, 5.528617, 0.37283027, -0.042841434, 9.904311
773149370237544, 8.500503, 0.7573284, 5.534599, -0.51038134, 0.05077839, 10.15878
773149379877649, 8.281559, -0.44865423, 5.5836515, 0.69921887, -0.034227848, 9.973596
773149389517753, 8.467003, 0.9631111, 5.588437, -0.70263374, -0.027410984, 10.166312
773149399157857, 8.274381, -0.44027936, 5.456832, 0.6905325, 0.071755886, 9.897183
773149408797961, 8.391629, 0.89730847, 5.548956, -0.638403, -0.037242413, 10.080008
773149418438065, 8.382058, -0.0849452, 5.4484572, 0.33373484, 0.1077981, 9.991436
773149428078169, 8.331808, 0.5024927, 5.5872407, -0.24740309, -0.07367563, 10.041023
773149437718274, 8.451449, 0.37806597, 5.4496536, -0.13394001, 0.11461496, 10.061688
773149447358378, 8.283952, -0.059820566, 5.5190454, 0.3157186, -0.005959511, 9.94925
773149456998482, 8.493324, 0.71665037, 5.4687963, -0.47176185, 0.09712982, 10.115626
773149466638586, 8.254042, -0.4977071, 5.5896335, 0.75164604, -0.05684805, 9.952522
773149476278690, 8.449057, 0.8566305, 5.621937, -0.5916867, -0.06528807, 10.1672125
773149485918794, 8.274381, -0.59700924, 5.552545, 0.8428397, -0.02366972, 9.946939
773149495558899, 8.3581295, 0.79800636, 5.6279187, -0.5505514, -0.100040436, 10.09235
773149505199003, 8.32463, -0.22851457, 5.4987063, 0.46805713, 0.037745, 9.968297
773149514839107, 8.304291, 0.53599226, 5.5908303, -0.2869114, -0.0870738, 10.020779
773149524479211, 8.40479, 0.38285163, 5.4257255, -0.14084318, 0.11906767, 10.009575
773149534119315, 8.268398, 0.18185452, 5.517849, 0.06995052, -0.02251339, 9.941868
773149543759419, 8.499306, 0.910469, 5.416154, -0.6669824, 0.14367819, 10.0963545
773149553399524, 8.273184, -0.20219351, 5.4640107, 0.44730684, 0.05092573, 9.906523
773149563039628, 8.525627, 1.0648061, 5.5393844, -0.8035964, 0.03533697, 10.19107
773149572679732, 8.338987, -0.47258246, 5.491528, 0.72185826, 0.067117214, 9.969622
773149582319836, 8.419147, 0.7956135, 5.5968122, -0.53777444, -0.048919678, 10.126587
773149591959940, 8.305488, -0.41874397, 5.4987063, 0.67889464, 0.02142477, 9.946401
773149601600149, 8.270791, 0.32662028, 5.649454, -0.06828946, -0.14891386, 10.020088
773149611240253, 8.384451, -0.023928227, 5.5310097, 0.2766267, 0.028210163, 10.040634
773149620880357, 8.260024, -0.1471586, 5.6410794, 0.4032681, -0.12746048, 9.994627
773149630520461, 8.467003, 0.5599205, 5.541777, -0.30922335, 0.05294609, 10.129982
773149640160565, 8.220542, -0.33738798, 5.5657053, 0.5866071, -0.073523045, 9.915578
773149649800669, 8.453842, 1.0660025, 5.538188, -0.8155695, 0.03957033, 10.12959
773149659440774, 8.240881, -0.27876383, 5.45085, 0.5285037, 0.03680849, 9.870204
773149669080878, 8.402397, 1.1964114, 5.495117, -0.9516843, 0.033394814, 10.065842
773149678720982, 8.340183, -0.009571291, 5.3826547, 0.24784684, 0.1368699, 9.9222765
773149688361086, 8.368897, 0.8111669, 5.564509, -0.55215216, -0.03584528, 10.067474
773149698001190, 8.455039, 0.2548356, 5.447261, -0.003382504, 0.13207006, 10.060211
773149707641294, 8.301898, 0.08015956, 5.575277, 0.18706463, -0.052508354, 9.998695
773149717281399, 8.488539, 0.4546363, 5.5094743, -0.19119912, 0.08741093, 10.127789
773149726921503, 8.233703, -0.57547385, 5.6267223, 0.84424984, -0.10963583, 9.952903
773149736561607, 8.41795, 0.6735796, 5.6757755, -0.41638756, -0.10215616, 10.165934
773149746201711, 8.222935, -0.6879365, 5.593223, 0.9404863, -0.0800271, 9.923868
773149755841815, 8.366505, 0.81236327, 5.6063833, -0.56699276, -0.06098318, 10.087847
773149765481919, 8.268398, -0.35413775, 5.4699926, 0.60331404, 0.030762672, 9.901905
773149775122024, 8.349754, 0.762114, 5.5920267, -0.50721604, -0.05560255, 10.065269
773149784762128, 8.415557, 0.32422748, 5.432904, -0.08152856, 0.1282425, 10.020983
773149794402232, 8.316256, 0.4103691, 5.491528, -0.16057844, 0.023379803, 9.972917
773149804042232, 8.49811, 0.76331043, 5.3682976, -0.5136617, 0.2142458, 10.065255
773149813682336, 8.280363, -0.14237295, 5.474778, 0.39429283, 0.023619652, 9.91977
773149823322440, 8.514859, 0.9702896, 5.541777, -0.70373404, 0.06956673, 10.181135
773149832962544, 8.268398, -0.53240305, 5.584848, 0.79020786, -0.061056137, 9.960534
773149842602649, 8.41795, 0.8673982, 5.636294, -0.6073307, -0.07818985, 10.149241
773149852242753, 8.274381, -0.506082, 5.5429735, 0.76045644, -0.028504372, 9.943186
773149861882857, 8.32463, 0.57906306, 5.6554365, -0.30576655, -0.13693428, 10.075044
773149871522961, 8.353344, -0.05383851, 5.49751, 0.30836722, 0.052319527, 9.995301
773149881163065, 8.250452, 0.18424734, 5.5716877, 0.07582517, -0.08119345, 9.95667
773149890803169, 8.449057, 0.5383851, 5.4388857, -0.28995994, 0.120808125, 10.057795
773149900443274, 8.286345, -0.17108682, 5.5274205, 0.42797485, -0.006685257, 9.952988
773149910083378, 8.513663, 0.9559326, 5.4999027, -0.69997376, 0.085297585, 10.156178
773149919723482, 8.29113, -0.42592242, 5.4783673, 0.6832763, 0.049196243, 9.923077
773149929363586, 8.462217, 0.99661064, 5.568098, -0.7327835, -0.0069942474, 10.152292
773149939003690, 8.280363, -0.38404804, 5.5190454, 0.6324315, 0.0046019554, 9.938399
773149948643794, 8.340183, 0.7070791, 5.682954, -0.43658963, -0.15442419, 10.10644
773149958283899, 8.350951, -0.041874398, 5.5310097, 0.29257163, 0.012458801, 10.012314
773149967924003, 8.26481, 0.28115666, 5.584848, -0.019390315, -0.09230375, 9.978366
773149977564107, 8.455039, 0.4761717, 5.4496536, -0.22705737, 0.11540365, 10.067187
773149987204211, 8.248059, -0.1794617, 5.5393844, 0.43358052, -0.039500237, 9.927633
773149996844315, 8.502895, 0.8865408, 5.5202417, -0.6296561, 0.04805708, 10.156747
773150006484419, 8.268398, -0.40438703, 5.517849, 0.653654, 0.0025401115, 9.9272
773150016124524, 8.459825, 1.0205388, 5.5369916, -0.75805926, 9.384155E-4, 10.133793
773150025764628, 8.309076, -0.36370903, 5.465207, 0.6096089, 0.05784607, 9.933104
773150035404732, 8.394022, 0.8039884, 5.562116, -0.5384172, -0.03946495, 10.087206
773150045044836, 8.390432, -0.06819545, 5.45085, 0.3157336, 0.09684944, 10.000336
773150054684940, 8.295917, 0.3182454, 5.6004014, -0.057456523, -0.09989357, 10.013728
773150064325044, 8.423932, 0.35533416, 5.4640107, -0.102315634, 0.082882404, 10.046242
773150073965149, 8.249256, -0.18664017, 5.554938, 0.4437427, -0.06739044, 9.936848
773150083605253, 8.493324, 0.77647096, 5.511867, -0.5174936, 0.067518234, 10.141391
773150093245253, 8.2456665, -0.46181476, 5.5537415, 0.721884, -0.064282894, 9.925879
773150102885357, 8.462217, 0.9942178, 5.562116, -0.73159146, -0.0014195442, 10.148867
773150112525461, 8.299505, -0.41156548, 5.474778, 0.656458, 0.03185892, 9.929372
773150122165565, 8.389236, 0.8554341, 5.5872407, -0.6035477, -0.05344248, 10.097584
773150131805669, 8.348558, -0.106480606, 5.477171, 0.353198, 0.04478693, 9.979099
773150141445774, 8.289934, 0.43788654, 5.631508, -0.17985582, -0.13405943, 10.028873
773150151085878, 8.422736, 0.37806597, 5.48076, -0.12563542, 0.0690732, 10.055029
773150160725982, 8.218149, -0.08135597, 5.5704913, 0.34061253, -0.10072565, 9.922137
773150170366086, 8.489735, 0.7728817, 5.5094743, -0.5175819, 0.04993725, 10.136906
773150180006190, 8.275578, -0.44506502, 5.5334024, 0.70518064, -0.0076670647, 9.940044
773150189646294, 8.486146, 0.96550393, 5.5393844, -0.71680987, 0.0036110878, 10.154695
773150199286399, 8.316256, -0.46061835, 5.4436717, 0.7006873, 0.100616455, 9.924955
773150208926503, 8.416754, 0.8817552, 5.5274205, -0.62082815, -0.018819809, 10.088897
773150218566607, 8.370093, -0.14117654, 5.4628143, 0.3828568, 0.086839676, 9.988324
773150228206711, 8.3174515, 0.50009996, 5.5980086, -0.23383239, -0.10539436, 10.035041
773150237846815, 8.41795, 0.31106696, 5.4388857, -0.06340471, 0.099170685, 10.0262785
773150247486919, 8.254042, -0.023928227, 5.5334024, 0.2832963, -0.045134544, 9.933077
773150257127024, 8.482556, 0.7369894, 5.5274205, -0.47999176, 0.035404682, 10.139903
773150266767024, 8.248059, -0.424726, 5.6147585, 0.69081736, -0.09631157, 9.962423
773150276407128, 8.457432, 0.9451649, 5.5968122, -0.6924931, -0.042398453, 10.161911
773150286047232, 8.256434, -0.51206404, 5.483153, 0.757241, 0.024636745, 9.895548
773150295687336, 8.389236, 0.86979103, 5.576473, -0.61849225, -0.06037855, 10.091913
773150305327440, 8.352147, -0.22612174, 5.474778, 0.4692867, 0.06725788, 9.977873
773150314967544, 8.359326, 0.54317075, 5.625526, -0.28041002, -0.09629536, 10.086229
773150324607649, 8.429914, 0.26919255, 5.454439, -0.019584745, 0.09994507, 10.043728
773150334247753, 8.280363, 0.02751746, 5.5369916, 0.22730881, -0.037950516, 9.95843
773150343887857, 8.478967, 0.695115, 5.495117, -0.44248706, 0.06799984, 10.117904
773150353527961, 8.228917, -0.4019942, 5.5836515, 0.65618575, -0.07881355, 9.930611
773150363168065, 8.439486, 0.95832545, 5.6123657, -0.7066553, -0.06252146, 10.155721
773150372808169, 8.27797, -0.46660042, 5.5130634, 0.71156865, 0.013194561, 9.931257
773150382448274, 8.435896, 0.89730847, 5.5070815, -0.6400131, 0.020401001, 10.09393
773150392088378, 8.34138, -0.2739782, 5.4149575, 0.52146024, 0.11985636, 9.934243
773150401728378, 8.328219, 0.5599205, 5.619544, -0.3032869, -0.12048674, 10.057114
773150411368482, 8.41795, 0.18424734, 5.5334024, 0.06778371, 0.028451443, 10.075166
773150421008586, 8.289934, 0.0849452, 5.605187, 0.17356664, -0.09383917, 10.00547
773150430648690, 8.4682, 0.6652047, 5.4927244, -0.41900367, 0.06563187, 10.1065855
773150440288794, 8.222935, -0.3290131, 5.5405807, 0.5875814, -0.043534756, 9.903323
773150449928899, 8.462217, 0.94755775, 5.515456, -0.70089555, 0.032705784, 10.121015
773150459569003, 8.282756, -0.4833502, 5.503492, 0.7284142, 0.016955853, 9.929514
773150469209107, 8.438289, 0.9846465, 5.615955, -0.7195849, -0.075689316, 10.158232
773150478849211, 8.343773, -0.2632105, 5.495117, 0.5071467, 0.03714657, 9.981259
773150488489315, 8.340183, 0.63529444, 5.568098, -0.37413484, -0.06617355, 10.040996
773150498129419, 8.382058, 0.1052842, 5.4173503, 0.13840525, 0.11171436, 9.97928
773150507769524, 8.280363, 0.11844472, 5.56092, 0.13895379, -0.061297894, 9.973927
773150517409628, 8.495717, 0.56470615, 5.501099, -0.31481063, 0.090103626, 10.131682
773150527049628, 8.260024, -0.32303107, 5.608776, 0.5824491, -0.10010719, 9.972033
773150536689732, 8.475378, 0.90329057, 5.5836515, -0.6433382, -0.0144200325, 10.169122
773150546329836, 8.243274, -0.5132605, 5.5190454, 0.77034116, -0.017465591, 9.903593
773150555969940, 8.394022, 0.94277215, 5.54417, -0.6957619, -0.022361755, 10.079765
773150565610044, 8.309076, -0.33499518, 5.4556355, 0.5760286, 0.062247276, 9.92881
773150575250149, 8.374879, 0.73100734, 5.6063833, -0.47883722, -0.081581116, 10.092995
773150584890253, 8.439486, 0.13998012, 5.4795637, 0.10293251, 0.09187746, 10.062361
773150594530357, 8.330612, 0.2955136, 5.5740805, -0.039722323, -0.051970482, 10.027588
773150604170461, 8.483752, 0.58983076, 5.389833, -0.3472344, 0.16674376, 10.0610075
773150613810565, 8.240881, -0.26919255, 5.4867425, 0.526503, -0.004498005, 9.889981
773150623450669, 8.456235, 0.8542377, 5.5776696, -0.5910342, -0.027133942, 10.148792
773150633090774, 8.222935, -0.5288138, 5.643472, 0.7884747, -0.11797619, 9.955374
773150642730878, 8.429914, 0.92602235, 5.6374903, -0.6562612, -0.10818386, 10.161688
773150652370878, 8.331808, -0.39840496, 5.5106707, 0.6535752, 0.047399044, 9.975763
773150662010982, 8.359326, 0.7070791, 5.639883, -0.44072843, -0.11690569, 10.09845
773150671651086, 8.359326, 0.019142581, 5.5130634, 0.23263898, 0.042098045, 10.010828
773150681291190, 8.267202, 0.2632105, 5.602794, -0.006888479, -0.103467464, 9.989819
773150690931294, 8.415557, 0.51206404, 5.4484572, -0.26623127, 0.08928776, 10.034472
773150700571399, 8.228917, -0.20458634, 5.56092, 0.45718238, -0.07056904, 9.923042
773150710211503, 8.507681, 0.90089774, 5.5597234, -0.6521126, 0.03276968, 10.182163
773150719851607, 8.293523, -0.42711884, 5.538188, 0.68423176, -0.022490978, 9.958303
773150729491711, 8.483752, 1.0157533, 5.5274205, -0.75719684, 0.043884754, 10.148048
773150739131815, 8.336594, -0.38524446, 5.4293146, 0.63906085, 0.093153, 9.93517
773150748771919, 8.405986, 0.7537391, 5.576473, -0.49260995, -0.028593063, 10.103579
773150758412024, 8.394022, -0.0526421, 5.508278, 0.29920584, 0.050106525, 10.035511
773150768052128, 8.282756, 0.30508488, 5.639883, -0.048310637, -0.13992691, 10.024145
773150777692232, 8.4347, 0.39601216, 5.505885, -0.14704153, 0.04999876, 10.079268
773150787332336, 8.184649, -0.21296121, 5.5896335, 0.4709867, -0.12346935, 9.901554
773150796972336, 8.426325, 0.79920274, 5.538188, -0.55291843, -0.009335518, 10.099873
773150806612440, 8.269595, -0.47976094, 5.572884, 0.72799444, -0.028759003, 9.957039
773150816252544, 8.519645, 0.96789676, 5.581259, -0.7103903, -0.0020017624, 10.206221
773150825892649, 8.361719, -0.4426722, 5.4580283, 0.6792687, 0.10235214, 9.971584
773150835532753, 8.407183, 0.8243274, 5.56092, -0.5669318, -0.03857088, 10.097582
773150845172857, 8.359326, -0.05383851, 5.4616175, 0.30146742, 0.07506895, 9.9806795
773150854812961, 8.318648, 0.38883367, 5.562116, -0.13330957, -0.05777216, 10.013348
773150864453065, 8.519645, 0.3804588, 5.3826547, -0.14173943, 0.1994915, 10.081776
773150874093169, 8.352147, -0.12203395, 5.5046883, 0.36970353, 0.038808346, 9.996834
773150883733274, 8.520842, 0.80997044, 5.5022955, -0.5578272, 0.08002615, 10.159651
773150893373378, 8.206185, -0.465404, 5.572884, 0.7150427, -0.08908939, 9.904338
773150903013482, 8.383254, 0.95473623, 5.623133, -0.68938714, -0.11743069, 10.115387
773150912653482, 8.246863, -0.47377887, 5.541777, 0.71992683, -0.040141106, 9.921019
773150922293586, 8.368897, 0.85184485, 5.631508, -0.5872617, -0.112324715, 10.105469
773150931933690, 8.338987, -0.12562318, 5.54417, 0.38129902, 0.0038490295, 10.007343
773150941573794, 8.305488, 0.4941179, 5.6554365, -0.22981957, -0.14341354, 10.056633
773150951213899, 8.432307, 0.39960137, 5.4640107, -0.14861579, 0.096912384, 10.054225
773150960854003, 8.232507, -0.014356935, 5.541777, 0.27229542, -0.062022686, 9.920065
773150970494107, 8.453842, 0.8111669, 5.5130634, -0.5606662, 0.041258335, 10.109563
773150980134211, 8.250452, -0.38763726, 5.575277, 0.6508008, -0.064126015, 9.943656
773150989774315, 8.465807, 0.9738788, 5.605187, -0.71943, -0.040986538, 10.17434
773150999414419, 8.274381, -0.48215377, 5.5310097, 0.74292666, -5.5360794E-4, 9.936697
773151009054524, 8.382058, 0.8315059, 5.6147585, -0.5648196, -0.081309795, 10.106936
773151018694628, 8.3377905, -0.22971097, 5.5262237, 0.47754717, 0.023860931, 9.994101
773151028334732, 8.322237, 0.4438686, 5.6745787, -0.17655438, -0.14484882, 10.079948
773151037974836, 8.423932, 0.21894327, 5.517849, 0.028749406, 0.053516388, 10.072414
773151047614940, 8.249256, -0.04426722, 5.5429735, 0.2981491, -0.044904232, 9.934074
773151057255044, 8.455039, 0.6987042, 5.444868, -0.45253614, 0.09835005, 10.070153
773151066895149, 8.285149, -0.4019942, 5.4891353, 0.6529655, 0.029358864, 9.925154
773151076535149, 8.567501, 0.96789676, 5.4640107, -0.717984, 0.13025188, 10.181445
773151086175253, 8.347362, -0.4761717, 5.416154, 0.7111213, 0.11958933, 9.935789
773151095815357, 8.478967, 0.91166544, 5.5046883, -0.67055684, 0.038583755, 10.127907
773151105455461, 8.37129, -0.2440679, 5.456832, 0.49176228, 0.08381176, 9.983298
773151115095565, 8.349754, 0.58265233, 5.6530433, -0.32186657, -0.13734913, 10.094173
773151124735669, 8.403593, 0.25244278, 5.5022955, -0.008073479, 0.03437519, 10.0477915
773151134375774, 8.248059, 0.09930214, 5.6099725, 0.15809223, -0.1271472, 9.973515
773151144015878, 8.427522, 0.70229346, 5.564509, -0.448112, -0.02677536, 10.113287
773151153655982, 8.188239, -0.3074777, 5.636294, 0.5625966, -0.15779781, 9.928152
773151163296086, 8.437093, 0.9762716, 5.6279187, -0.7236283, -0.07924938, 10.162735
773151172936190, 8.252846, -0.4941179, 5.521438, 0.7517214, -0.0021276474, 9.913366
773151182576294, 8.422736, 0.87218386, 5.5369916, -0.6127181, -0.002503872, 10.098814
773151192216399, 8.355737, -0.34217364, 5.4556355, 0.58265615, 0.092549324, 9.967514
773151201856503, 8.391629, 0.5599205, 5.6039906, -0.29906967, -0.0644722, 10.1016865
773151211496607, 8.46461, 0.11844472, 5.4424753, 0.120752215, 0.1328721, 10.062405
773151221136711, 8.327023, 0.058624156, 5.521438, 0.18990207, -0.009157658, 9.989638
773151230776815, 8.519645, 0.58624154, 5.4592247, -0.34789905, 0.11439419, 10.12902
773151240416919, 8.271988, -0.3290131, 5.556134, 0.5828322, -0.04030466, 9.953058
773151250057024, 8.478967, 0.94277215, 5.538188, -0.69029164, 0.007493019, 10.147742
773151259697128, 8.257631, -0.45822555, 5.511867, 0.6988751, -0.0072846413, 9.914164
773151269337128, 8.428718, 0.9834501, 5.584848, -0.7365851, -0.057985306, 10.131883
773151278977232, 8.316256, -0.25244278, 5.505885, 0.49310112, 0.01860571, 9.964693
773151288617336, 8.319844, 0.701097, 5.6279187, -0.43974766, -0.12715435, 10.058592
773151298257440, 8.367701, 0.13040884, 5.4987063, 0.12166105, 0.038413048, 10.012738
773151307897544, 8.268398, 0.19142582, 5.621937, 0.068024695, -0.12083149, 9.999501
773151317537649, 8.459825, 0.5814559, 5.5094743, -0.32927102, 0.064721584, 10.10685
773151327177753, 8.236095, -0.32303107, 5.5980086, 0.58149236, -0.1032238, 9.946182
773151336817857, 8.465807, 0.8889336, 5.625526, -0.6272873, -0.042082787, 10.183878
773151346457961, 8.256434, -0.50488555, 5.5908303, 0.76306176, -0.08122969, 9.954505
773151356098065, 8.445468, 0.9379865, 5.5740805, -0.6784098, -0.01393652, 10.139808
773151365738169, 8.312666, -0.3804588, 5.4352965, 0.6194465, 0.082141876, 9.919534
773151375378274, 8.350951, 0.67836523, 5.5944195, -0.41903126, -0.07333231, 10.065541
773151385018378, 8.403593, 0.061016977, 5.477171, 0.18784465, 0.07930851, 10.029054
773151394658482, 8.333005, 0.22851457, 5.581259, 0.02592817, -0.052496433, 10.03186
773151404298586, 8.49452, 0.52163535, 5.45085, -0.2787975, 0.12606859, 10.101837
773151413938690, 8.251649, -0.22851457, 5.5070815, 0.47460383, -0.015204906, 9.911831
773151423578794, 8.488539, 0.86859465, 5.508278, -0.6173932, 0.051998615, 10.137406
773151433218899, 8.29113, -0.4989035, 5.5537415, 0.7549567, -0.013192654, 9.963215
773151442859003, 8.469396, 0.9523434, 5.578866, -0.6936122, -0.025529385, 10.162659
773151452499107, 8.335398, -0.3924229, 5.485546, 0.6315702, 0.06012249, 9.966021
773151462139211, 8.352147, 0.73459655, 5.602794, -0.47466713, -0.08863735, 10.072544
773151471779315, 8.394022, -0.03708875, 5.4723854, 0.28332943, 0.09085512, 10.015961
773151481419419, 8.305488, 0.28594232, 5.6039906, -0.032218903, -0.09249258, 10.022874
773151491059524, 8.43111, 0.4989035, 5.4927244, -0.25389382, 0.05777216, 10.071482
773151500699628, 8.22772, -0.15433706, 5.5896335, 0.41029036, -0.103898525, 9.939018
773151510339732, 8.447861, 0.8805587, 5.5800624, -0.6249164, -0.02678442, 10.143353
773151519979836, 8.246863, -0.44745782, 5.576473, 0.70523715, -0.06970596, 9.940111
773151529619940, 8.472985, 1.0025927, 5.582455, -0.7548986, -0.0073752403, 10.168116
773151539260044, 8.328219, -0.41754755, 5.4520464, 0.65766555, 0.08285618, 9.940774
773151548900149, 8.413164, 0.7716853, 5.5704913, -0.5229992, -0.018120289, 10.106104
773151558540253, 8.411968, -0.096909314, 5.5022955, 0.34879282, 0.0732584, 10.045837
773151568180357, 8.333005, 0.32183465, 5.6410794, -0.06173083, -0.10522032, 10.067247
773151577820461, 8.441878, 0.3481557, 5.4783673, -0.10227007, 0.085659504, 10.068825
773151587460565, 8.233703, -0.20338993, 5.5669017, 0.45474714, -0.07543802, 9.930414
773151597100669, 8.465807, 0.79920274, 5.5860443, -0.543705, -0.024084568, 10.159543
773151606740774, 8.242078, -0.41994038, 5.6183476, 0.66965574, -0.094750404, 9.960754
773151616380878, 8.478967, 1.0241281, 5.5908303, -0.77876085, -0.024208546, 10.178019
773151626020982, 8.321041, -0.3900301, 5.4556355, 0.6257043, 0.08600092, 9.937651
773151635661086, 8.426325, 0.8745767, 5.5501523, -0.6183859, -0.013968468, 10.108879
773151645301190, 8.390432, -0.058624156, 5.4628143, 0.30624458, 0.09593916, 10.007105
773151654941294, 8.30788, 0.4331009, 5.5968122, -0.17510688, -0.09121227, 10.024659
773151664581399, 8.437093, 0.33738798, 5.453243, -0.09196898, 0.098128796, 10.050777
773151674221503, 8.269595, -0.104087785, 5.5836515, 0.35994747, -0.07477951, 9.971912
773151683861607, 8.463413, 0.7322037, 5.5465627, -0.47705296, 0.008123398, 10.134211
773151693501711, 8.219346, -0.46660042, 5.5872407, 0.71906805, -0.07807922, 9.92318
773151703141815, 8.46102, 0.9296116, 5.5716877, -0.6700816, -0.024255753, 10.151216
773151712781919, 8.293523, -0.485743, 5.4927244, 0.73808306, 0.037435055, 9.931884
773151722422024, 8.421539, 0.8327023, 5.5896335, -0.5851257, -0.050694466, 10.124959
773151732062128, 8.370093, -0.19262223, 5.4963136, 0.44242027, 0.0558815, 10.005307
773151741702232, 8.330612, 0.48933223, 5.6279187, -0.23851648, -0.11116552, 10.061947
773151751342336, 8.447861, 0.33379877, 5.4676, -0.09037143, 0.09351778, 10.067548
773151760982440, 8.276773, -0.0059820567, 5.541777, 0.2580607, -0.05055523, 9.957266
773151770622544, 8.500503, 0.77647096, 5.4867425, -0.5263683, 0.08737564, 10.133169
773151780262649, 8.255239, -0.36370903, 5.5453663, 0.6207488, -0.041275978, 9.9320345
773151789902753, 8.458628, 0.9559326, 5.584848, -0.69595134, -0.03198719, 10.157134
773151799542857, 8.285149, -0.4642076, 5.517849, 0.7086506, 0.015610218, 9.939991
773151809182961, 8.415557, 0.89371926, 5.6063833, -0.6413094, -0.08401823, 10.130821
773151818823065, 8.370093, -0.2009971, 5.491528, 0.44253552, 0.06613922, 10.002777
773151828463169, 8.334201, 0.50129634, 5.595616, -0.24487907, -0.09526873, 10.047491
773151838103274, 8.428718, 0.2105684, 5.4484572, 0.030559063, 0.102609634, 10.03802
773151847743378, 8.267202, 0.0071784677, 5.593223, 0.25193632, -0.08984423, 9.977941
773151857383482, 8.476574, 0.7046863, 5.483153, -0.45611823, 0.063755035, 10.109488
773151867023586, 8.244471, -0.37447673, 5.568098, 0.6249881, -0.06201935, 9.935835
773151876663690, 8.504091, 0.96550393, 5.5860443, -0.71674836, -0.02452755, 10.195162
773151886303794, 8.300702, -0.47018966, 5.503492, 0.72504824, 0.02822113, 9.9440775
773151895943899, 8.449057, 0.9296116, 5.5477595, -0.6704716, -0.018117905, 10.128105
773151905584003, 8.348558, -0.25004998, 5.447261, 0.48787147, 0.09430647, 9.959251
773151915224107, 8.333005, 0.5766702, 5.611169, -0.31116575, -0.1166091, 10.057153
773151924864211, 8.43111, 0.19262223, 5.473582, 0.049810946, 0.08246899, 10.053435
773151934504315, 8.298309, 0.101694964, 5.5836515, 0.15732756, -0.07147217, 10.00098
773151944144419, 8.486146, 0.6628119, 5.4699926, -0.4199808, 0.077287674, 10.109028
773151953784524, 8.243274, -0.36370903, 5.5513487, 0.61553925, -0.04131031, 9.925759
773151963424732, 8.474181, 0.9212367, 5.576473, -0.6598015, -0.04311371, 10.164658
773151973064836, 8.263613, -0.51565325, 5.5716877, 0.7766912, -0.03249407, 9.949503
773151982704940, 8.423932, 0.92243314, 5.582455, -0.65977776, -0.06482172, 10.126096
773151992345044, 8.347362, -0.31345975, 5.4628143, 0.5524322, 0.08088875, 9.965304
773152001985149, 8.355737, 0.6580262, 5.5980086, -0.39566836, -0.09360504, 10.070935
773152011625253, 8.410771, 0.17826529, 5.4927244, 0.0710603, 0.058425903, 10.046613
773152021265357, 8.276773, 0.14476576, 5.5860443, 0.113422155, -0.090025425, 9.985432
773152030905461, 8.476574, 0.58265233, 5.4699926, -0.33928922, 0.08132315, 10.099054
773152040545565, 8.27797, -0.30987054, 5.5872407, 0.56998056, -0.059580803, 9.975452
773152050185669, 8.500503, 0.91166544, 5.5800624, -0.65272903, -0.018946648, 10.188247
773152059825774, 8.254042, -0.49292147, 5.5405807, 0.73942244, -0.022589684, 9.925873
773152069465878, 8.422736, 0.9451649, 5.5633125, -0.6976259, -0.041861057, 10.11424
773152079105982, 8.306684, -0.25004998, 5.4987063, 0.49230784, 0.02253437, 9.952709
773152088746086, 8.395218, 0.39601216, 5.491528, -0.15138519, 0.03580904, 10.038385
773152098386190, 8.392825, 0.20338993, 5.5166526, 0.04494089, 0.024456978, 10.045484
773152108026294, 8.420342, 0.2943172, 5.517849, -0.046942145, 0.031277657, 10.071358
773152117666399, 8.456235, 0.2213361, 5.4676, 0.02295801, 0.09634304, 10.071829
773152127306607, 8.422736, 0.23090738, 5.3994045, 0.008568972, 0.1340766, 10.006564
773152136946711, 8.385647, 0.2321038, 5.4149575, 0.00900346, 0.09868717, 9.984231
773152146586815, 8.366505, 0.2632105, 5.49751, -0.014811039, 0.014823914, 10.014482
773152156226919, 8.385647, 0.29790643, 5.5980086, -0.042001784, -0.05655384, 10.086652
773152165867024, 8.410771, 0.33379877, 5.6039906, -0.07669836, -0.043812275, 10.111844
773152175507128, 8.379665, 0.34217364, 5.5597234, -0.0880034, -0.024290085, 10.061712
773152185147232, 8.301898, 0.31585258, 5.5537415, -0.057030946, -0.052476883, 9.992964
773152194787336, 8.26481, 0.2548356, 5.6650076, 0.01301083, -0.15977621, 10.021908
773152204427440, 8.271988, 0.21774685, 5.723632, 0.053779274, -0.19892931, 10.059359
773152214067544, 8.280363, 0.21774685, 5.7056856, 0.05112806, -0.17519903, 10.056509
773152223707649, 8.295917, 0.20697916, 5.6327047, 0.056583196, -0.10522461, 10.028867
773152233347753, 8.321041, 0.19501504, 5.5669017, 0.06125641, -0.031399727, 10.013164
773152242987857, 8.352147, 0.20458634, 5.511867, 0.045968026, 0.02698803, 10.0089
773152252627961, 8.386844, 0.20817557, 5.5022955, 0.040826797, 0.054091454, 10.032604
773152262268169, 8.411968, 0.22971097, 5.493921, 0.016300142, 0.059156895, 10.049546
773152271908274, 8.443074, 0.2644069, 5.4867425, -0.019440651, 0.07976532, 10.072389
773152281548378, 8.43111, 0.2727818, 5.465207, -0.0294559, 0.08763218, 10.05077
773152291188482, 8.440681, 0.2955136, 5.4640107, -0.05201146, 0.092476845, 10.058659
773152300828586, 8.396415, 0.30987054, 5.493921, -0.06317344, 0.04408455, 10.038578
773152310468690, 8.350951, 0.31226337, 5.5094743, -0.061433226, 0.0069942474, 10.009314
773152320108794, 8.353344, 0.28594232, 5.5369916, -0.03320709, -0.012460709, 10.025824
773152329748899, 8.352147, 0.27876383, 5.602794, -0.020060807, -0.06857824, 10.060927
773152339389003, 8.356933, 0.2620141, 5.6039906, -0.002921909, -0.06388712, 10.065167
773152349029211, 8.334201, 0.25842485, 5.584848, -5.7449937E-4, -0.060281754, 10.035566
773152358669315, 8.318648, 0.23808585, 5.575277, 0.01947698, -0.05431652, 10.016835
773152368309419, 8.331808, 0.2428715, 5.576473, 0.014747947, -0.046628, 10.028592
773152377949524, 8.319844, 0.24646074, 5.582455, 0.011704028, -0.058430195, 10.022016
773152387589628, 8.360522, 0.25603202, 5.5908303, 0.0019386709, -0.042622566, 10.060789
773152397229732, 8.367701, 0.24885355, 5.5740805, 0.007281065, -0.022136688, 10.057344
773152406869836, 8.374879, 0.24646074, 5.5513487, 0.007960856, 8.392334E-4, 10.050709
773152416509940, 8.359326, 0.23688944, 5.5369916, 0.016557515, 0.0052552223, 10.029577
773152426150044, 8.370093, 0.22253251, 5.5166526, 0.029339045, 0.028088093, 10.026953
773152435790149, 8.394022, 0.22372891, 5.5094743, 0.026076257, 0.04275608, 10.04298
773152445430357, 8.40479, 0.22851457, 5.5310097, 0.022101969, 0.028426647, 10.06397
773152455070461, 8.373683, 0.27158538, 5.538188, -0.020091593, 0.0026946068, 10.043079
773152464710565, 8.3581295, 0.2847459, 5.538188, -0.033360213, -0.0063381195, 10.030443
773152474350669, 8.349754, 0.29072794, 5.532206, -0.03966093, -0.006006241, 10.02031
773152483990774, 8.374879, 0.2656033, 5.5334024, -0.013336152, 0.008880138, 10.041286
773152493630878, 8.391629, 0.24765715, 5.54417, 0.005092889, 0.009936333, 10.0607395
773152503270982, 8.395218, 0.23808585, 5.5597234, 0.015448719, -0.0010099411, 10.072073
773152512911086, 8.391629, 0.23569304, 5.5513487, 0.017314345, 0.0041532516, 10.0644
773152522551294, 8.383254, 0.25004998, 5.548956, 0.0027826726, -0.0012936592, 10.056458
773152532191399, 8.366505, 0.25722843, 5.5465627, -0.0042960644, -0.009049892, 10.041356
773152541831503, 8.356933, 0.2536392, 5.552545, 5.531311E-4, -0.021224499, 10.036582
773152551471607, 8.362915, 0.25962126, 5.5405807, -0.006438285, -0.008446217, 10.035122
773152561111711, 8.356933, 0.26081768, 5.5393844, -0.007316828, -0.010939121, 10.029505
773152570751815, 8.359326, 0.27996024, 5.5465627, -0.025766194, -0.016505241, 10.035943
773152580391919, 8.355737, 0.26679972, 5.5465627, -0.012608528, -0.016385078, 10.0326185
773152590032128, 8.35454, 0.2440679, 5.538188, 0.009813547, -0.0071663857, 10.02643
773152599672232, 8.370093, 0.23569304, 5.5657053, 0.019993901, -0.019664764, 10.054367
773152609312336, 8.361719, 0.2620141, 5.581259, -0.0049682558, -0.039184093, 10.056636
773152618952440, 8.325827, 0.25842485, 5.564509, -0.002308488, -0.04370165, 10.017387
773152628592544, 8.359326, 0.27038896, 5.511867, -0.01882264, 0.020131588, 10.016555
773152638232649, 8.376076, 0.28115666, 5.523831, -0.028987259, 0.018663883, 10.037391
773152647872753, 8.411968, 0.29790643, 5.5298133, -0.045589626, 0.031290054, 10.071034
773152657512857, 8.402397, 0.29312077, 5.532206, -0.039969623, 0.023492813, 10.0642605
773152667153065, 8.368897, 0.27158538, 5.5202417, -0.018318981, 0.01486969, 10.029194
773152676793169, 8.336594, 0.25722843, 5.534599, -0.0020968914, -0.015417576, 10.00982
773152686433274, 8.333005, 0.24047868, 5.5776696, 0.017400086, -0.053791046, 10.030155
773152696073378, 8.368897, 0.21415763, 5.5716877, 0.042823702, -0.026862144, 10.056117
773152705713482, 8.377272, 0.2117648, 5.5429735, 0.043333262, 0.0015544891, 10.047199
773152715353586, 8.370093, 0.20697916, 5.528617, 0.045739293, 0.008788586, 10.033182
773152724993794, 8.383254, 0.25124636, 5.5274205, 5.325973E-4, 0.0130319595, 10.044615
773152734633899, 8.374879, 0.27038896, 5.554938, -0.016819447, -0.015591145, 10.053284
773152744274003, 8.360522, 0.30388847, 5.5537415, -0.049835443, -0.025453568, 10.041493
773152753914107, 8.350951, 0.31226337, 5.5310097, -0.059654087, -0.012124062, 10.021191
773152763554211, 8.366505, 0.29790643, 5.528617, -0.04484898, 4.4345856E-4, 10.032484
773152773194315, 8.368897, 0.2883351, 5.535795, -0.033949554, -0.0018453598, 10.0382
773152782834419, 8.376076, 0.2644069, 5.5657053, -0.007695645, -0.019729614, 10.060079
773152792474628, 8.359326, 0.23330021, 5.582455, 0.025272846, -0.03984022, 10.054568
773152802114732, 8.350951, 0.23330021, 5.5704913, 0.024151683, -0.034336567, 10.040987
773152811754836, 8.353344, 0.23688944, 5.5501523, 0.018928975, -0.016028881, 10.031853
773152821394940, 8.372486, 0.2416751, 5.5298133, 0.012164831, 0.010853767, 10.036707
773152831035044, 8.372486, 0.25722843, 5.493921, -0.0055924654, 0.039085865, 10.0173
773152840675149, 8.408379, 0.26679972, 5.503492, -0.014832616, 0.04870653, 10.052753
773152850315357, 8.409575, 0.2644069, 5.5226345, -0.011592299, 0.028740406, 10.064264
773152859955461, 8.383254, 0.2644069, 5.5190454, -0.011657625, 0.016435146, 10.040335
773152869595565, 8.367701, 0.2321038, 5.515456, 0.020559728, 0.0123205185, 10.024569
773152879235669, 8.340183, 0.21774685, 5.523831, 0.03534919, -0.0076937675, 10.005872
773152888875774, 8.35454, 0.2213361, 5.582455, 0.03458342, -0.04782629, 10.050257
773152898515878, 8.384451, 0.2321038, 5.568098, 0.022219956, -0.018603325, 10.067561
773152908156086, 8.372486, 0.25004998, 5.56092, 0.0039978623, -0.02030325, 10.054077
773152917796190, 8.355737, 0.2727818, 5.5166526, -0.021636844, 0.0059609413, 10.016273
773152927436294, 8.356933, 0.2955136, 5.5046883, -0.044493467, 0.01341629, 10.011246
773152937076399, 8.360522, 0.30867413, 5.528617, -0.055221736, -0.005665779, 10.027769
773152946716503, 8.35454, 0.30388847, 5.5274205, -0.050456196, -0.0075802803, 10.021999
773152956356607, 8.395218, 0.2644069, 5.5190454, -0.010864615, 0.026743412, 10.050304
773152965996815, 8.410771, 0.2548356, 5.5274205, -0.0012708902, 0.02989006, 10.067646
773152975636919, 8.423932, 0.25603202, 5.534599, -0.0026971698, 0.030832767, 10.082611
773152985277024, 8.37129, 0.22731815, 5.5298133, 0.026750445, 0.007828236, 10.035349
773152994917128, 8.333005, 0.21655045, 5.5298133, 0.038031816, -0.014823914, 10.003152
773153004557232, 8.344969, 0.21415763, 5.54417, 0.0410302, -0.020001888, 10.020984
773153014197440, 8.348558, 0.2428715, 5.569295, 0.014226526, -0.041229725, 10.038554
773153023837544, 8.368897, 0.28115666, 5.5513487, -0.026671201, -0.012959003, 10.046597
773153033477649, 8.382058, 0.2955136, 5.521438, -0.043067932, 0.018526554, 10.0414295
773153043117753, 8.366505, 0.31585258, 5.4999027, -0.06423327, 0.029210567, 10.017091
773153052757857, 8.382058, 0.30508488, 5.4891353, -0.053565174, 0.048776627, 10.02384