timestamp_acc,device_acc_x,device_acc_y,device_acc_z,earth_acc_x,earth_acc_y,earth_acc_z
773117982107724, 7.948957, 0.23090738, 6.1244297, -0.052735135, 0.04151106, 10.0371
773117991747828, 7.982456, 0.2548356, 6.1698933, -0.07653599, 0.020451069, 10.09187
773118001387828, 7.9800634, 0.2321038, 6.2081785, -0.05177225, -0.024275303, 10.113036
773118011027828, 7.9680996, 0.17467605, 6.1651077, 0.0045629144, 0.0033545494, 10.076193
773118020667828, 7.9346, 0.12562318, 6.1160545, 0.05348645, 0.019453049, 10.018808
773118030307932, 7.9501534, 0.11006984, 6.0825553, 0.06714389, 0.056290627, 10.010338
773118039947932, 7.958528, 0.12323037, 6.1005015, 0.05366552, 0.04787779, 10.028176
773118049587932, 7.9369926, 0.14955142, 6.196214, 0.030202001, -0.039035797, 10.070196
773118059228036, 7.9357963, 0.15672988, 6.265606, 0.027695626, -0.094623566, 10.111851
773118068868036, 7.9369926, 0.1902294, 6.24766, -0.007149428, -0.071653366, 10.10248
773118078508036, 7.8903327, 0.2117648, 6.1591253, -0.03315097, -0.02618742, 10.011755
773118088148141, 7.8891363, 0.23449662, 6.0622163, -0.062444508, 0.04754591, 9.951773
773118097788141, 7.9034934, 0.22971097, 6.0550375, -0.057528406, 0.063334465, 9.95862
773118107428141, 7.9393854, 0.21535404, 6.1495543, -0.037973642, 0.012007713, 10.044682
773118117068245, 7.9944205, 0.20458634, 6.2309103, -0.022960037, -0.021416664, 10.137843
773118126708245, 7.9513497, 0.18185452, 6.196214, -0.0012725294, -0.021100521, 10.082146
773118136348245, 7.9274216, 0.13399807, 6.1531434, 0.044720203, 0.003423214, 10.035992
773118145988349, 7.897511, 0.08733802, 6.178268, 0.0932509, -0.032322884, 10.026943
773118155628349, 7.9501534, 0.11964113, 6.2524457, 0.061456323, -0.05335903, 10.114628
773118165268349, 7.9477606, 0.16510476, 6.235696, 0.015578598, -0.04358673, 10.103262
773118174908453, 7.9070826, 0.16749759, 6.1232333, 0.005088687, 0.033450127, 10.002143
773118184548453, 7.877172, 0.22253251, 6.0861444, -0.0507814, 0.04183197, 9.956716
773118194188453, 7.9274216, 0.22731815, 6.1603217, -0.05328095, 0.015143871, 10.042022
773118203828557, 7.948957, 0.21415763, 6.2285175, -0.03651528, -0.028124332, 10.100698
773118213468557, 7.999206, 0.1902294, 6.206982, -0.013109744, 0.016386032, 10.12668
773118223108557, 7.9680996, 0.16510476, 6.1399827, 0.009512693, 0.047761917, 10.060562
773118232748661, 7.928618, 0.18424734, 6.10768, -0.011071295, 0.04344845, 10.009929
773118242388661, 7.905886, 0.18544376, 6.125626, -0.0110524595, 9.1695786E-4, 10.003031
773118252028661, 7.9154572, 0.1591227, 6.155536, 0.016338214, -0.015816212, 10.028454
773118261668766, 7.9393854, 0.15553348, 6.1806607, 0.02189681, -0.034882545, 10.062649
773118271308766, 7.9740815, 0.18185452, 6.175875, -0.005322337, -0.01460886, 10.087628
773118280948766, 7.9657063, 0.21415763, 6.1196437, -0.041084796, 0.022599697, 10.047197
773118290588870, 7.944171, 0.19980069, 6.0693946, -0.02947247, 0.04985428, 9.999199
773118300228870, 7.960921, 0.20817557, 6.0933228, -0.036619574, 0.042650223, 10.027214
773118309868870, 7.9740815, 0.20458634, 6.15434, -0.0294092, 0.009280682, 10.07486
773118319508974, 7.975278, 0.17826529, 6.1878395, -0.0012572408, -0.0148797035, 10.0958395
773118329148974, 7.9190464, 0.13758731, 6.1878395, 0.040553242, -0.039536476, 10.050691
773118338789078, 7.891529, 0.1363909, 6.178268, 0.041077197, -0.046817303, 10.023071
773118348429078, 7.880761, 0.1363909, 6.166304, 0.040412366, -0.044165134, 10.007235
773118358069078, 7.9190464, 0.15314065, 6.1603217, 0.02135393, -0.017045021, 10.03412
773118367709182, 7.9513497, 0.18544376, 6.1399827, -0.014108181, 0.014843464, 10.047752
773118377349182, 7.972885, 0.19262223, 6.1304116, -0.023084313, 0.031644344, 10.059046
773118386989182, 7.972885, 0.18185452, 6.1675005, -0.010296643, -0.0020017624, 10.081564
773118396629286, 7.9704924, 0.16390835, 6.2871413, 0.016040415, -0.10754681, 10.152435
773118406269286, 7.960921, 0.1471586, 6.3888364, 0.039358616, -0.1925559, 10.20669
773118415909391, 7.966903, 0.27756742, 5.930611, -0.1193586, 0.16337442, 9.933769
773118425549391, 8.007581, 0.2548356, 5.3503513, -0.1312865, 0.6510515, 9.611007
773118435189391, 7.9393854, -0.05623133, 5.9138613, 0.21780102, 0.17696333, 9.896061
773118444829495, 8.045866, 0.0035892338, 6.3601227, 0.17252365, -0.14018488, 10.253668
773118454469495, 8.088937, 0.16869399, 6.29432, -0.0016663373, -0.062472343, 10.250559
773118464109599, 7.940582, 0.22372891, 6.306284, -0.05127448, -0.16596079, 10.141101
773118473749599, 7.8580294, 0.19262223, 6.2464633, -0.024218649, -0.11945391, 10.039381
773118483389599, 7.834101, 0.20338993, 6.1435723, -0.040617496, -0.05357504, 9.957583
773118493029703, 7.8699937, 0.22372891, 6.1902323, -0.060251832, -0.04028845, 10.015017
773118502669703, 7.8987074, 0.2656033, 6.239285, -0.100512415, -0.041789055, 10.068612
773118512309807, 7.941778, 0.28713873, 6.2584276, -0.12271854, -0.017020702, 10.114686
773118521949807, 7.940582, 0.27876383, 6.141179, -0.120176405, 0.08109093, 10.041096
773118531589807, 7.9310107, 0.22851457, 6.0574307, -0.070445806, 0.12883997, 9.981186
773118541229911, 7.921439, 0.12801601, 6.1184473, 0.033387154, 0.07988167, 10.009671
773118550869911, 7.90469, 0.06819545, 6.192625, 0.09673777, 9.856224E-4, 10.041317
773118560510016, 7.877172, 0.031106694, 6.195018, 0.13303106, -0.025895119, 10.020514
773118570150016, 7.844869, 0.010767702, 6.2775702, 0.15640844, -0.11212349, 10.045543
773118579790016, 7.880761, 0.016749758, 6.270392, 0.14385024, -0.07092333, 10.069695
773118589430120, 7.891529, 0.06460621, 6.2105713, 0.093081996, -0.01945734, 10.04204
773118599070120, 7.8699937, 0.106480606, 6.233303, 0.050865382, -0.039837837, 10.039824
773118608710224, 7.874779, 0.17587246, 6.224928, -0.022614181, -0.014177799, 10.039528
773118618350224, 7.884351, 0.17108682, 6.166304, -0.022371083, 0.043366432, 10.010654
773118627990224, 7.9154572, 0.2213361, 6.198607, -0.07129735, 0.034543037, 10.05584
773118637630328, 7.926225, 0.27996024, 6.2404814, -0.12921563, 0.0065369606, 10.0911
773118647270328, 7.8891363, 0.26081768, 6.2177496, -0.1105254, 0.0022525787, 10.047622
773118656910432, 7.850851, 0.18065812, 6.2416778, -0.025972366, -0.042756557, 10.031178
773118666550432, 7.8496547, 0.15194423, 6.2679987, 0.0035297275, -0.06611252, 10.046074
773118676190432, 7.874779, 0.16869399, 6.2883377, -0.0129620135, -0.07130003, 10.078618
773118685830536, 7.9034934, 0.19980069, 6.1854467, -0.049020797, 0.021136284, 10.038029
773118695470536, 7.90469, 0.22372891, 6.1591253, -0.07372627, 0.033480644, 10.023095
773118705110641, 7.880761, 0.25722843, 6.175875, -0.105926156, 0.0032782555, 10.015127
773118714750641, 7.874779, 0.21894327, 6.1567326, -0.06741494, 0.008862972, 9.998041
773118724390641, 7.921439, 0.2009971, 6.0753765, -0.055303365, 0.101531506, 9.98431
773118734030745, 7.9776707, 0.1363909, 6.02752, 0.005400479, 0.17878294, 9.998041
773118743670745, 8.02792, 0.047856454, 6.161518, 0.099452615, 0.11399412, 10.118854
773118753310849, 7.9561353, -0.050249275, 6.2931237, 0.20489368, -0.020244122, 10.14217
773118762950849, 7.8628154, -0.078963146, 6.2883377, 0.23234105, -0.0670023, 10.065527
773118772590953, 7.7994056, -0.013160525, 6.253642, 0.16566297, -0.0859375, 9.995204
773118782230953, 7.7874413, 0.06819545, 6.2416778, 0.07864319, -0.0858531, 9.979673
773118791870953, 7.8436728, 0.16630118, 6.2237315, -0.025306344, -0.039299965, 10.014165
773118801511057, 7.914261, 0.23928227, 6.1938214, -0.1038686, 0.028094292, 10.052095
773118811151057, 7.9154572, 0.29671, 6.2105713, -0.15865836, 0.019284248, 10.064201
773118820791161, 7.88794, 0.32183465, 6.1627145, -0.18180293, 0.043504715, 10.013355
773118830431161, 7.850851, 0.22372891, 6.064609, -0.0818379, 0.09653854, 9.922167
773118840071161, 7.925029, 0.13519448, 6.1734824, 0.009335786, 0.05137348, 10.046567
773118849711266, 8.008778, 0.2428715, 6.2404814, -0.09677422, 0.049758434, 10.155356
773118859351266, 7.9920278, 0.17108682, 6.2871413, -0.023589894, -0.006521702, 10.17002
773118868991370, 7.945368, 0.11485548, 6.224928, 0.031625204, 0.01344347, 10.094087
773118878631370, 7.856833, 0.08973085, 6.1830535, 0.057267573, -0.0068502426, 9.998236
773118888271474, 7.8089767, 0.07058827, 6.2105713, 0.07647632, -0.055998325, 9.977341
773118897911474, 7.834101, 0.07178468, 6.257231, 0.07803434, -0.07525873, 10.025941
773118907551474, 7.8927255, 0.08973085, 6.181857, 0.056349337, 0.02279234, 10.02571
773118917191578, 7.9657063, 0.11365908, 6.128019, 0.028537527, 0.11086416, 10.05012
773118926831578, 7.989635, 0.16749759, 6.1268225, -0.025918692, 0.1162343, 10.069068
773118936471682, 7.9310107, 0.18185452, 6.125626, -0.03995818, 0.08015871, 10.02244
773118946111682, 7.8783684, 0.21774685, 6.15434, -0.07301405, 0.014834404, 9.999323
773118955751786, 7.850851, 0.2321038, 6.198607, -0.08324349, -0.05066824, 10.005147
773118965391786, 7.8484583, 0.17228323, 6.222535, -0.022224873, -0.06867838, 10.01712
773118975031786, 7.8759756, 0.18185452, 6.1698933, -0.03560251, -0.009995937, 10.006513
773118984671891, 7.8927255, 0.18305093, 6.1698933, -0.037077457, 3.452301E-4, 10.019723
773118994311891, 7.891529, 0.20937198, 6.181857, -0.06398451, -0.013480663, 10.026523
773119003951995, 7.9034934, 0.18185452, 6.175875, -0.036940277, -8.4877014E-5, 10.031867
773119013591995, 7.8927255, 0.1363909, 6.202196, 0.009794936, -0.030098438, 10.038922
773119023231995, 7.884351, 0.11485548, 6.2512493, 0.033244193, -0.07933521, 10.062151
773119032872099, 7.8867435, 0.31345975, 6.2584276, -0.16730236, -0.09416771, 10.071249
773119042512099, 7.905886, -0.14596218, 6.135197, 0.28681135, 0.027435303, 10.004099
773119052152203, 7.88794, 0.061016977, 6.172286, 0.08282937, -0.0209136, 10.015646
773119061792203, 7.9908314, 0.25962126, 6.033502, -0.12918407, 0.1381011, 10.0144
773119071432307, 7.861619, -0.28953153, 6.1005015, 0.42222938, 0.003124237, 9.946191
773119081072307, 8.094919, 0.74177504, 6.1208405, -0.60860205, 0.11025238, 10.156775
773119090712307, 7.856833, -0.4546363, 6.09093, 0.5863581, -0.01285553, 9.934382
773119100352411, 8.042277, 0.86859465, 6.1328044, -0.74787265, 0.009148121, 10.123467
773119109992411, 7.8867435, -0.42711884, 6.023931, 0.5448744, 0.04923153, 9.918245
773119119632516, 8.007581, 0.6161518, 6.206982, -0.4900359, -0.07816744, 10.138116
773119129272516, 7.9764743, -0.16869399, 6.1064835, 0.29620212, 0.025120258, 10.042579
773119138912620, 7.9573317, 0.1591227, 6.198607, -0.02560392, -0.076331615, 10.087649
773119148552620, 8.078169, 0.25004998, 6.0119667, -0.1360384, 0.13514996, 10.071064
773119158192620, 7.9334035, -0.30149564, 6.0155563, 0.41860393, 0.08249998, 9.951617
773119167832724, 8.118847, 0.65922266, 6.0490556, -0.5497201, 0.084317684, 10.130748
773119177472724, 7.8664045, -0.5288138, 6.0550375, 0.64407516, 0.0062446594, 9.920109
773119187112828, 8.048259, 0.82911307, 6.161518, -0.7018827, -0.059205055, 10.145445
773119196752828, 7.8867435, -0.5084748, 6.105287, 0.6344078, -0.04578972, 9.966406
773119206392828, 8.04108, 0.6664011, 6.195018, -0.5376705, -0.09669304, 10.157898
773119216032932, 7.928618, -0.19621146, 5.9712887, 0.30432868, 0.056651115, 9.922799
773119225672932, 7.9369926, 0.19501504, 6.040681, -0.073720366, -0.019192696, 9.975867
773119235313036, 8.073383, 0.21774685, 5.966503, -0.107907355, 0.110910416, 10.040027
773119244953036, 7.9537425, -0.26081768, 6.0514483, 0.37747017, -0.0010972023, 9.9903755
773119254593141, 8.155936, 0.64008003, 6.033502, -0.52524406, 0.08580208, 10.151299
773119264233141, 7.9346, -0.5192425, 6.0394845, 0.62956446, 0.0032076836, 9.965265
773119273873141, 8.128419, 0.8566305, 6.0981083, -0.7369573, -0.0059723854, 10.170979
773119283513245, 7.914261, -0.50009996, 5.992824, 0.60629416, 0.024540901, 9.92126
773119293153245, 8.024331, 0.69152576, 6.134001, -0.5662623, -0.090239525, 10.107683
773119302793349, 7.9298143, -0.23449662, 6.0155563, 0.3439443, -0.002676487, 9.950154
773119312433349, 7.969296, 0.2620141, 6.1603217, -0.13586017, -0.12786198, 10.074377
773119322073453, 8.092526, 0.18424734, 5.9844494, -0.07688221, 0.08821249, 10.065927
773119331713453, 7.9657063, -0.2117648, 5.966503, 0.32226217, 0.053243637, 9.949362
773119341353453, 8.165507, 0.55393845, 5.912665, -0.45658618, 0.16291332, 10.084988
773119350993557, 7.928618, -0.5706882, 5.985646, 0.6869943, 0.034234047, 9.926908
773119360633557, 8.111669, 0.76570326, 6.1160545, -0.6446986, -0.0382185, 10.167326
773119370273661, 7.899904, -0.6041877, 6.0167527, 0.72234833, 0.0070118904, 9.922349
773119379913661, 8.031509, 0.68195444, 6.1124654, -0.5712149, -0.081523895, 10.099481
773119389553661, 7.9369926, -0.28713873, 5.966503, 0.38939884, 0.046847343, 9.925907
773119399193766, 7.982456, 0.38165522, 6.125626, -0.26730403, -0.10359764, 10.065106
773119408833766, 8.07458, 0.19980069, 6.013163, -0.09716275, 0.05301714, 10.068994
773119418473870, 7.9346, -0.11006984, 6.0514483, 0.22559366, -0.037704945, 9.97686
773119428113870, 8.148758, 0.573081, 5.9700923, -0.4735601, 0.11022282, 10.106249
773119437753870, 7.9501534, -0.50009996, 6.009574, 0.6138544, 0.044452667, 9.959478
773119447393974, 8.155936, 0.7716853, 6.087341, -0.65639055, 0.013383865, 10.185258
773119457033974, 7.932207, -0.62931234, 6.013163, 0.7433044, 0.03472185, 9.945871
773119466674078, 8.042277, 0.69272214, 6.128019, -0.57266295, -0.070206165, 10.118194
773119476314078, 7.885547, -0.38404804, 6.1100726, 0.4923923, -0.08128071, 9.970621
773119485954078, 7.9238324, 0.35413775, 6.250053, -0.23215917, -0.21200943, 10.093407
773119495594182, 8.01117, 0.07537391, 5.9880385, 0.024388611, 0.061754227, 10.001837
773119505234182, 7.9501534, -0.0741775, 5.99761, 0.17901464, 0.026993275, 9.957357
773119514874286, 8.182257, 0.5180461, 5.9641104, -0.42074427, 0.15555573, 10.128528
773119524514286, 7.999206, -0.4534399, 6.0981083, 0.5574428, -1.9550323E-4, 10.053312
773119534154391, 8.13799, 0.80997044, 6.1627145, -0.69495606, -0.06376934, 10.216406
773119543794391, 7.8221374, -0.60658056, 5.968896, 0.7052468, 0.032339096, 9.832756
773119553434391, 7.9836526, 0.721436, 6.0418773, -0.6080492, -0.031778336, 10.019618
773119563074495, 7.9274216, -0.41994038, 5.9449677, 0.51182246, 0.11218643, 9.903961
773119572714495, 8.02792, 0.44147578, 6.13759, -0.3275833, -0.052295685, 10.109518
773119582354599, 8.037491, 0.031106694, 6.117251, 0.06978604, -1.8882751E-4, 10.100403
773119591994599, 7.9238324, -0.022731815, 6.189036, 0.13676924, -0.12955093, 10.052677
773119601634599, 8.086544, 0.49292147, 6.017949, -0.3967717, 0.0692358, 10.084081
773119611274703, 7.8723865, -0.4235296, 6.033502, 0.525805, -0.011462212, 9.913648
773119620914703, 8.078169, 0.7609176, 6.050252, -0.6636005, 0.036774635, 10.099487
773119630554807, 7.838887, -0.62931234, 6.0311093, 0.7399776, -0.026073933, 9.882824
773119640194807, 8.085348, 0.74895346, 6.1842504, -0.64743567, -0.081410885, 10.185919
773119649834807, 8.001599, -0.44506502, 6.0083776, 0.5383543, 0.072045326, 10.001462
773119659474911, 8.086544, 0.45942193, 6.0658054, -0.3537595, 0.031039238, 10.112921
773119669114911, 8.04108, -0.06819545, 5.9138613, 0.16209191, 0.15319157, 9.979361
773119678755016, 7.914261, -0.014356935, 6.033502, 0.11712648, -0.024638176, 9.951108
773119688395016, 8.035098, 0.37686956, 5.977271, -0.2824999, 0.07156849, 10.017368
773119698035016, 7.8424764, -0.42951167, 6.1304116, 0.5355746, -0.1202693, 9.948343
773119707675120, 8.151151, 0.77766734, 6.166304, -0.67105854, -0.031247139, 10.228296
773119717315120, 7.952546, -0.5886344, 6.0514483, 0.69302654, 0.013843536, 9.986442
773119726955224, 8.111669, 0.7585248, 6.047859, -0.6552162, 0.07300091, 10.125044
773119736595224, 7.925029, -0.4977071, 5.8683977, 0.5859051, 0.13642073, 9.855454
773119746235224, 7.9800634, 0.53359944, 6.1005015, -0.44028425, -0.061875343, 10.0491085
773119755875328, 7.993224, -0.09451649, 6.088537, 0.18652388, -0.028076172, 10.046655
773119765515328, 7.9740815, 0.07058827, 6.236892, 0.03180428, -0.16732025, 10.12229
773119775155432, 8.115258, 0.37447673, 6.0861444, -0.28075397, 0.029787064, 10.146876
773119784795432, 7.87119, -0.36610186, 6.023931, 0.4581824, -0.043937683, 9.907854
773119794435432, 8.073383, 0.695115, 5.992824, -0.608482, 0.0894928, 10.05974
773119804075536, 7.8580294, -0.6149554, 6.0418773, 0.7163239, -0.016757488, 9.905437
773119813715536, 8.066205, 0.78364944, 6.1531434, -0.69272953, -0.051156044, 10.151672
773119823355641, 7.905886, -0.4881358, 6.0574307, 0.58721346, -0.019950867, 9.954324
773119832995641, 8.017152, 0.634098, 6.1914287, -0.5293194, -0.1112504, 10.134991
773119842635641, 8.047063, -0.11724831, 5.9988065, 0.20272473, 0.089511395, 10.035215
773119852275745, 8.000402, 0.12083755, 6.0622163, -0.0247726, -3.323555E-4, 10.03847
773119861915745, 8.065009, 0.29910284, 5.968896, -0.21183077, 0.09548569, 10.035315
773119871555849, 7.895118, -0.35413775, 6.0825553, 0.45342842, -0.066887856, 9.962214
773119881195849, 8.133204, 0.66161543, 6.1208405, -0.57351476, -0.0047016144, 10.184423
773119890835849, 7.9477606, -0.62093747, 6.099305, 0.7108129, -0.031123638, 10.012381
773119900475953, 8.110473, 0.77766734, 6.114858, -0.6793909, -0.026085854, 10.164339
773119910115953, 7.864012, -0.57547385, 5.9473605, 0.6678742, 0.044858456, 9.853775
773119919756057, 7.9836526, 0.58265233, 6.108876, -0.4943517, -0.08563328, 10.057079
773119929396057, 7.9980097, -0.18305093, 5.9916277, 0.27075195, 0.05434704, 9.991247
773119939036057, 8.015956, 0.22492532, 6.1268225, -0.13489246, -0.0722394, 10.090624
773119948676161, 8.096115, 0.27038896, 5.9916277, -0.18679899, 0.080132484, 10.073652
773119958316161, 7.908279, -0.30987054, 6.0227346, 0.3980549, -0.030851364, 9.9373455
773119967956266, 8.10808, 0.6329016, 6.007181, -0.5441016, 0.058341026, 10.095955
773119977596266, 7.91785, -0.6125626, 6.0729837, 0.69931793, -0.045623302, 9.972843
773119987236266, 8.141579, 0.7896315, 6.1435723, -0.7078031, -0.020949364, 10.205433
773119996876370, 7.91785, -0.60777694, 5.98086, 0.6985371, 0.011900425, 9.916871
773120006516370, 8.032705, 0.62093747, 6.105287, -0.538381, -0.055521965, 10.094132
773120016156370, 7.948957, -0.24765715, 6.0155563, 0.32791018, -0.006720066, 9.966274
773120025796474, 7.9968133, 0.24047868, 6.1399827, -0.15390998, -0.088965416, 10.083384
773120035436474, 8.105687, 0.18903299, 5.979664, -0.10663697, 0.10979223, 10.073275
773120045076578, 7.9346, -0.27996024, 6.0526447, 0.36629224, -0.037074566, 9.976734
773120054716578, 8.072187, 0.63888365, 6.0119667, -0.5586671, 0.06305313, 10.06956
773120064356682, 7.856833, -0.5300102, 6.053841, 0.61367047, -0.06253433, 9.9135895
773120073996682, 8.1344, 0.83030945, 6.1005015, -0.73974746, 0.0051083565, 10.1748085
773120083636682, 7.958528, -0.5778667, 6.0047884, 0.6550445, 0.050776005, 9.964834
773120093276786, 8.088937, 0.66400826, 6.1363935, -0.58115864, -0.04079485, 10.158136
773120102916786, 7.9561353, -0.34576288, 5.9988065, 0.42399174, 0.042661667, 9.961111
773120112556786, 7.9106717, 0.25004998, 6.117251, -0.15331659, -0.11496687, 10.001264
773120122196891, 8.021938, 0.14117654, 5.9724855, -0.06387943, 0.07287073, 10.001629
773120131836891, 7.972885, -0.20219351, 6.07418, 0.28941217, -0.010111809, 10.020956
773120141476995, 8.124829, 0.5886344, 6.064609, -0.5053452, 0.034236908, 10.14309
773120151116995, 7.8867435, -0.5778667, 6.0921264, 0.67064446, -0.05674553, 9.9597025
773120160756995, 8.129615, 0.7513463, 6.088537, -0.6752912, 0.0026454926, 10.162156
773120170397099, 7.9130645, -0.6472585, 5.9964137, 0.722118, 0.04273367, 9.923166
773120180037099, 8.048259, 0.7046863, 6.1100726, -0.6259485, -0.05567932, 10.109852
773120189677203, 7.978867, -0.3278167, 6.026324, 0.40209213, 0.03431368, 9.996174
773120199317203, 7.995617, 0.34097722, 6.1471615, -0.25730598, -0.07658768, 10.087699
773120208957203, 8.04108, 0.09451649, 5.9904313, -0.020429313, 0.088991165, 10.027205
773120218597307, 7.8963146, -0.17826529, 6.068198, 0.2639982, -0.037551403, 9.95668
773120228237307, 8.080562, 0.5072784, 6.0251274, -0.42712915, 0.061357975, 10.083093
773120237877411, 7.861619, -0.55034924, 6.122037, 0.6361667, -0.07835293, 9.958736
773120247517411, 8.112865, 0.75613195, 6.192625, -0.6637043, -0.07542992, 10.212381
773120257157411, 7.9094753, -0.5982057, 6.088537, 0.6763766, -0.028725147, 9.976454
773120266797516, 8.055437, 0.74895346, 6.096912, -0.6608343, -0.012046337, 10.108733
773120276437516, 7.9238324, -0.38165522, 5.9377894, 0.46267173, 0.113441944, 9.897635
773120286077620, 7.952546, 0.41635114, 6.1184473, -0.33430672, -0.050677776, 10.036803
773120295717620, 8.023134, 0.025124637, 6.046663, 0.057425365, 0.06496811, 10.04619
773120305357620, 7.9334035, -0.09810573, 6.1675005, 0.18693665, -0.079838276, 10.0471525
773120314997724, 8.112865, 0.48095736, 6.0921264, -0.3992881, 0.05779791, 10.148948
773120324637724, 7.8783684, -0.4881358, 6.0801625, 0.5767364, -0.024613857, 9.946965
773120334277828, 8.080562, 0.76689965, 6.07418, -0.68137985, 0.047904015, 10.114973
773120343917828, 7.8233337, -0.654437, 6.01436, 0.73175716, 0.011115074, 9.862545
773120353557828, 7.999206, 0.71425754, 6.198607, -0.61856675, -0.100399494, 10.1255865
773120363197932, 7.932207, -0.47377887, 6.1040907, 0.5629531, -0.0026626587, 10.004367
773120372837932, 8.005188, 0.39481574, 6.227321, -0.30028644, -0.10794926, 10.144782
773120382478036, 8.032705, 0.011964113, 6.038288, 0.06387743, 0.07989836, 10.048632
773120392118036, 7.9274216, 0.010767702, 6.068198, 0.07153849, -5.7411194E-4, 9.983087
773120401758141, 8.051848, 0.44147578, 5.9880385, -0.3650133, 0.12190771, 10.036716
773120411398141, 7.8376904, -0.44147578, 6.1064835, 0.52553, -0.06179142, 9.931437
773120421038141, 8.080562, 0.77766734, 6.1435723, -0.68898666, -0.023301601, 10.157188
773120430678245, 7.8903327, -0.5922236, 6.0837517, 0.6833883, -0.023842335, 9.957538
773120440318245, 8.072187, 0.7609176, 6.148358, -0.6802343, -0.059492588, 10.152598
773120449958349, 7.932207, -0.5096712, 6.0155563, 0.58394825, 0.053792953, 9.9510145
773120459598349, 7.9800634, 0.4331009, 6.172286, -0.3368857, -0.10965347, 10.09161
773120469238349, 8.001599, -0.13040884, 6.07418, 0.20832168, 0.025785923, 10.044611
773120478878453, 7.9346, 0.009571291, 6.1495543, 0.076649055, -0.07594824, 10.0380945
773120488518453, 8.098508, 0.37328035, 5.9473605, -0.30176723, 0.16220856, 10.048825
773120498158557, 7.9477606, -0.4103691, 6.0370917, 0.48681888, 0.05023384, 9.977087
773120507798557, 8.096115, 0.7262217, 6.094519, -0.6438308, 0.016270638, 10.139175
773120517438557, 7.813762, -0.61734825, 6.09093, 0.6957915, -0.084667206, 9.901724
773120527078661, 8.04467, 0.7680961, 6.175875, -0.67831534, -0.07969856, 10.147987
773120536718661, 7.9477606, -0.50009996, 6.007181, 0.58266705, 0.051955223, 9.957964
773120546358766, 8.038688, 0.5778667, 6.142376, -0.50099117, -0.041270256, 10.120797
773120555998766, 8.033902, -0.11365908, 6.000003, 0.18496819, 0.09097147, 10.025671
773120565638870, 7.926225, 0.09092726, 6.111269, -0.0041070282, -0.06943607, 10.0088005
773120575278870, 8.025527, 0.33738798, 6.017949, -0.26003242, 0.053230762, 10.033353
773120584918870, 7.885547, -0.3900301, 6.105287, 0.47388268, -0.063743114, 9.9689455
773120594558974, 8.124829, 0.68195444, 6.108876, -0.59742236, 0.020925999, 10.170493
773120604198974, 7.8903327, -0.6448657, 6.0921264, 0.72388005, -0.03592491, 9.963026
773120613839078, 8.068598, 0.75254273, 6.161518, -0.66258603, -0.06057024, 10.1582575
773120623479078, 7.864012, -0.55513483, 6.0047884, 0.6398778, 0.0074682236, 9.88933
773120633119182, 8.005188, 0.5838487, 6.128019, -0.49540314, -0.06339884, 10.085985
773120642759182, 8.048259, -0.20338993, 6.0167527, 0.2749617, 0.086833954, 10.046592
773120652399182, 8.020741, 0.11964113, 6.1471615, -0.039185733, -0.04718256, 10.105961
773120662039286, 8.09133, 0.2548356, 6.013163, -0.17986807, 0.097206116, 10.082207
773120671679286, 7.884351, -0.3481557, 6.0801625, 0.43185294, -0.060747623, 9.95301
773120681319391, 8.082955, 0.66759753, 6.0311093, -0.5947124, 0.069021225, 10.089385
773120690959391, 7.8699937, -0.59342, 6.0622163, 0.66848934, -0.054093838, 9.92923
773120700599495, 8.098508, 0.8255238, 6.1591253, -0.74908113, -0.05331087, 10.1802845
773120710239495, 7.9034934, -0.5383851, 6.0358953, 0.6121769, 6.8187714E-4, 9.94044
773120719879495, 8.019546, 0.6197411, 6.161518, -0.53966105, -0.08706856, 10.117445
773120729519599, 7.982456, -0.2536392, 5.9988065, 0.33488616, 0.06365538, 9.982655
773120739159599, 7.9429746, 0.18185452, 6.1208405, -0.09823415, -0.081073284, 10.028579
773120748799703, 8.053044, 0.20578274, 6.0023956, -0.12993458, 0.0792079, 10.044874
773120758439703, 7.8831544, -0.3481557, 6.1040907, 0.4337763, -0.06770706, 9.966571
773120768079807, 8.1344, 0.5922236, 6.105287, -0.51015043, 0.016891956, 10.175127
773120777719807, 7.9226356, -0.57547385, 6.0957155, 0.6624739, -0.028704166, 9.990865
773120787359911, 8.112865, 0.80997044, 6.078966, -0.726605, 0.026592255, 10.143954
773120796999911, 7.90469, -0.59940207, 5.9904313, 0.6709025, 0.04039955, 9.913472
773120806640016, 8.032705, 0.6580262, 6.117251, -0.5701692, -0.045470715, 10.102028
773120816280016, 7.972885, -0.26081768, 6.0311093, 0.3433228, 0.027461052, 9.994528
773120825920016, 7.9513497, 0.2644069, 6.1998034, -0.17443259, -0.14242554, 10.083686
773120835560120, 8.054241, 0.16630118, 6.026324, -0.0909152, 0.060415745, 10.059977
773120845200120, 7.914261, -0.25962126, 6.0658054, 0.34352294, -0.035427094, 9.968835
773120854840224, 8.145168, 0.55034924, 6.0287166, -0.47221774, 0.09700203, 10.137045
773120864480224, 7.920243, -0.6053841, 6.078966, 0.6833578, -0.021425724, 9.9791355
773120874120328, 8.0817585, 0.782453, 6.13759, -0.6950784, -0.047763824, 10.15439
773120883760328, 7.8759756, -0.59940207, 6.033502, 0.6727367, -0.02569294, 9.916661
773120893400432, 8.029117, 0.70947194, 6.1196437, -0.62247896, -0.054379463, 10.100974
773120903040432, 7.962117, -0.29312077, 6.005985, 0.36469513, 0.041139603, 9.970877
773120912680432, 7.9968133, 0.34097722, 6.1806607, -0.25255105, -0.103927135, 10.108971
773120922320536, 8.094919, 0.14237295, 6.0023956, -0.06457123, 0.112397194, 10.077694
773120931960536, 7.938189, -0.19740787, 6.0634127, 0.27998072, -0.016910553, 9.986998
773120941600641, 8.1020975, 0.5204389, 6.007181, -0.44048002, 0.09526539, 10.089498
773120951240641, 7.850851, -0.59342, 6.128019, 0.6762912, -0.109708786, 9.953453
773120960880745, 8.088937, 0.782453, 6.1854467, -0.70265675, -0.07696724, 10.188388
773120970520745, 7.9226356, -0.6053841, 6.053841, 0.6927042, 0.014277935, 9.965118
773120980160849, 8.068598, 0.6891329, 6.0777693, -0.613341, 0.011977196, 10.106441
773120989800849, 7.920243, -0.40438703, 5.9545393, 0.47700396, 0.07298708, 9.905426
773120999440953, 7.9573317, 0.3469593, 6.1567326, -0.2604706, -0.109746456, 10.063049
773121009080953, 8.066205, 0.05742774, 6.058627, 0.018455625, 0.054124355, 10.088143
773121018721057, 7.9764743, -0.15194423, 6.1698933, 0.24071583, -0.07349253, 10.082235
773121028361057, 8.123632, 0.53599226, 6.0155563, -0.4597571, 0.08998585, 10.111783
773121038001161, 7.885547, -0.4881358, 6.038288, 0.56711984, 0.006299019, 9.927707
773121047641161, 8.072187, 0.7728817, 6.105287, -0.69461083, -0.023200035, 10.126652
773121057281266, 7.8592257, -0.63529444, 6.084948, 0.7157005, -0.053888798, 9.933907
773121066921266, 8.059027, 0.72023964, 6.178268, -0.6248766, -0.089820385, 10.160665
773121076561370, 7.9537425, -0.42711884, 6.0287166, 0.5138371, 0.03319311, 9.976209
773121086201370, 7.9764743, 0.4139583, 6.168697, -0.32830286, -0.10560751, 10.0861
773121095841474, 8.02792, -0.0059820567, 6.0370917, 0.084490806, 0.050117016, 10.044121
773121105481474, 7.945368, -0.06819545, 6.128019, 0.15716608, -0.06223154, 10.032824
773121115121578, 8.092526, 0.44147578, 6.0191455, -0.35859627, 0.09960365, 10.088384
773121124761578, 7.9022965, -0.50009996, 6.0490556, 0.5825739, 0.0020098686, 9.947266
773121134401682, 8.124829, 0.7465607, 6.0837517, -0.6594032, 0.050331593, 10.156028
773121144041682, 7.9070826, -0.61016977, 6.058627, 0.70070493, -0.009280682, 9.955408
773121153681786, 8.049456, 0.76570326, 6.148358, -0.6847229, -0.041270256, 10.134682
773121163321786, 7.908279, -0.46301118, 6.040681, 0.5533471, 0.0044226646, 9.946803
773121172961891, 8.002795, 0.465404, 6.1734824, -0.37941945, -0.076731205, 10.110558
773121182601891, 8.013563, -0.03589234, 6.0191455, 0.116360135, 0.07094717, 10.021479
773121192241995, 7.9346, 0.010767702, 6.099305, 0.07951225, -0.03772211, 10.007586
773121201881995, 8.097312, 0.43669012, 6.02752, -0.35276407, 0.099524975, 10.0972185
773121211522099, 7.9166536, -0.43669012, 6.1208405, 0.52473664, -0.04966688, 10.002549
773121221162099, 8.120044, 0.71665037, 6.1471615, -0.63179994, -2.7036667E-4, 10.190051
773121230802203, 7.84128, -0.6305088, 6.068198, 0.7277788, -0.04523182, 9.908306
773121240442203, 8.006385, 0.7585248, 6.1232333, -0.6593327, -0.07003641, 10.086225
773121250082307, 7.91785, -0.4977071, 6.0191455, 0.57936156, 0.037522793, 9.941484
773121259722307, 8.038688, 0.5024927, 6.1974106, -0.40952882, -0.095187664, 10.154018
773121269362411, 8.030313, -0.07298109, 6.04427, 0.16160767, 0.0664444, 10.049573
773121279002411, 7.9154572, 0.06460621, 6.064609, 0.029889733, -0.029128075, 9.971779
773121288642516, 8.087741, 0.40079778, 6.0215383, -0.3165741, 0.08441162, 10.085821
773121298282516, 7.9094753, -0.4019942, 6.111269, 0.5018208, -0.041128635, 9.99077
773121307922620, 8.111669, 0.67477596, 6.1363935, -0.577769, -0.015229702, 10.177218
773121317562620, 7.877172, -0.64606214, 6.0729837, 0.7464664, -0.02120924, 9.93935
773121327202724, 8.090134, 0.7609176, 6.1328044, -0.6739552, -0.025037289, 10.158037
773121336842724, 7.946564, -0.5455636, 6.01436, 0.6280745, 0.057062626, 9.960939
773121346482828, 8.049456, 0.57427746, 6.1639113, -0.47366107, -0.070651054, 10.143372
773121356122932, 8.017152, -0.12323037, 6.033502, 0.21441379, 0.048854828, 10.032183
773121365762932, 7.941778, 0.16869399, 6.1184473, -0.073185176, -0.082532406, 10.026142
773121375403036, 8.067402, 0.34217364, 5.953343, -0.25854537, 0.11470699, 10.028078
773121385043036, 7.891529, -0.357727, 6.076573, 0.4521616, -0.051247597, 9.955997
773121394683141, 8.110473, 0.6975078, 6.108876, -0.6002966, -0.004814625, 10.159935
773121404323141, 7.8831544, -0.6233303, 6.096912, 0.71590537, -0.054718494, 9.959391
773121413963245, 8.120044, 0.7585248, 6.1495543, -0.6696016, -0.03325081, 10.192057
773121423603245, 7.9226356, -0.5838487, 6.020342, 0.66950035, 0.027380466, 9.945078
773121433243349, 7.9884386, 0.59581286, 6.1603217, -0.490818, -0.11892223, 10.092803
773121442883349, 7.98126, -0.1902294, 6.046663, 0.28496495, 0.018249989, 10.010859
773121452523453, 7.960921, 0.18305093, 6.1292152, -0.08306059, -0.081460476, 10.04806
773121462163557, 8.079366, 0.27038896, 5.940182, -0.18813184, 0.13362265, 10.029046
773121471803557, 7.9561353, -0.24526432, 6.0454664, 0.33811194, 0.01079607, 9.989669
773121481443661, 8.170293, 0.6987042, 6.0861444, -0.611019, 0.041734695, 10.193525
773121491083661, 7.9310107, -0.5886344, 6.108876, 0.69378424, -0.03408718, 10.004163
773121500723766, 8.097312, 0.76570326, 6.1387863, -0.67265785, -0.052478313, 10.1677065
773121510363766, 7.8783684, -0.63529444, 6.01436, 0.73690385, 0.008799553, 9.904631
773121520003870, 8.008778, 0.5982057, 6.0981083, -0.5047109, -0.06063032, 10.071092
773121529643974, 7.98126, -0.2644069, 5.9820566, 0.3501138, 0.07222319, 9.97134
773121539283974, 8.009974, 0.23928227, 6.1639113, -0.14095557, -0.084600925, 10.108596
773121548924078, 8.1020975, 0.24646074, 6.0155563, -0.15783986, 0.08946514, 10.092509
773121558564078, 7.920243, -0.2428715, 6.064609, 0.33924735, -0.030398846, 9.972597
773121568204182, 8.099705, 0.62931234, 6.0454664, -0.5392794, 0.051885128, 10.112141
773121577844182, 7.895118, -0.5587241, 6.0933228, 0.6535926, -0.055683136, 9.9671135
773121587484286, 8.117651, 0.80997044, 6.157929, -0.7055841, -0.043863773, 10.196697
773121597124391, 7.9166536, -0.6029913, 6.0323057, 0.70456725, 4.682541E-4, 9.94632
773121606764391, 8.032705, 0.6580262, 6.117251, -0.5656361, -0.049628258, 10.102263
773121616404495, 7.952546, -0.29790643, 5.994021, 0.38668442, 0.0336051, 9.955369
773121626044495, 7.9776707, 0.29790643, 6.1435723, -0.2006628, -0.08887434, 10.071113
773121635684599, 8.078169, 0.20937198, 6.0155563, -0.11600213, 0.07972717, 10.073121
773121645324703, 7.925029, -0.13878371, 6.078966, 0.23989972, -0.04749012, 9.985958
773121654964703, 8.10449, 0.6364908, 6.02752, -0.5390479, 0.07538414, 10.105574
773121664604807, 7.8759756, -0.55752766, 6.113662, 0.65303296, -0.10669994, 9.963978
773121674244807, 8.122437, 0.75972116, 6.1471615, -0.6652872, -0.013982773, 10.192938
773121683884911, 7.9130645, -0.6556334, 6.0227346, 0.7478878, -0.009703159, 9.937824
773121693525016, 8.039884, 0.66161543, 6.101698, -0.56928414, -0.022171497, 10.098694
773121703165016, 7.952546, -0.35653058, 5.9904313, 0.4555849, 0.032239914, 9.952225
773121712805120, 7.98126, 0.36011982, 6.15434, -0.25815612, -0.09243965, 10.081215
773121722445120, 8.035098, 0.14237295, 6.0107703, -0.049532317, 0.05748558, 10.035272
773121732085224, 7.9190464, -0.1160519, 6.122037, 0.21616238, -0.09610748, 10.007404
773121741725328, 8.133204, 0.56829536, 6.046663, -0.46997076, 0.080756664, 10.139366
773121751365328, 7.9094753, -0.51206404, 6.0729837, 0.616678, -0.050262928, 9.96596
773121761005432, 8.1020975, 0.7848458, 6.105287, -0.69075894, 0.012629986, 10.151709
773121770645432, 7.895118, -0.61734825, 6.038288, 0.7225417, -0.022257805, 9.932391
773121780285536, 8.053044, 0.72502524, 6.1304116, -0.61786795, -0.04348278, 10.127956
773121789925641, 7.960921, -0.41874397, 6.01436, 0.51065266, 0.034832478, 9.973072
773121799565641, 7.999206, 0.3792624, 6.166304, -0.27922666, -0.09467983, 10.102846
773121809205745, 8.062616, 0.049052864, 6.0119667, 0.042539, 0.080833435, 10.057017
773121818845849, 7.9393854, -0.08973085, 6.0837517, 0.19150555, -0.039963722, 10.000783
773121828485849, 8.111669, 0.5072784, 5.9916277, -0.41681692, 0.10558939, 10.088171
773121838125953, 7.885547, -0.424726, 6.087341, 0.5228972, -0.06363726, 9.956931
773121847766057, 8.129615, 0.83030945, 6.1399827, -0.7354586, -0.012996674, 10.195017
773121857406057, 7.928618, -0.6017949, 6.0526447, 0.69554234, -0.010331631, 9.9687395
773121867046161, 8.086544, 0.7800602, 6.064609, -0.6744187, 0.024302006, 10.115569
773121876686161, 7.941778, -0.43669012, 5.992824, 0.5295897, 0.039284706, 9.944571
773121886326266, 7.989635, 0.43070808, 6.1806607, -0.3311891, -0.10430145, 10.104443
773121895966370, 8.035098, -0.025124637, 6.029913, 0.12542428, 0.054473877, 10.045127
773121905606370, 7.9513497, -0.032303106, 6.1567326, 0.13751796, -0.098171234, 10.05494
773121915246474, 8.086544, 0.45702913, 6.007181, -0.36113054, 0.087916374, 10.077161
773121924886578, 7.8687973, -0.44985065, 6.07418, 0.55005586, -0.06498575, 9.935252
773121934526578, 8.094919, 0.7752745, 6.087341, -0.6704942, 0.010786533, 10.135818
773121944166682, 7.928618, -0.59940207, 6.053841, 0.69439924, -0.011541367, 9.9694
773121953806786, 8.092526, 0.80159557, 6.1005015, -0.7057862, 1.0967255E-4, 10.141475
773121963446786, 7.9513497, -0.44506502, 6.0023956, 0.53838015, 0.040800095, 9.957875
773121973086891, 8.037491, 0.5132605, 6.125626, -0.40386805, -0.045190334, 10.110532
773121982726995, 8.051848, -0.062213387, 5.9988065, 0.16455853, 0.08395481, 10.039307
773121992366995, 7.978867, 0.050249275, 6.113662, 0.05722855, -0.054844856, 10.051637
773122002007099, 8.090134, 0.38524446, 6.009574, -0.2842672, 0.08065224, 10.080989
773122011647203, 7.9537425, 0.05742774, 6.117251, 0.045958847, -0.0795598, 10.033824
773122021287203, 8.019546, 0.16151553, 6.09093, -0.05328703, -0.024681091, 10.071504
773122030927307, 8.048259, 0.124426775, 6.0287166, -0.01778233, 0.04392004, 10.056498
773122040567411, 8.054241, 0.12801601, 5.994021, -0.022381678, 0.07510948, 10.040385
773122050207411, 8.059027, 0.08853444, 6.0514483, 0.019235387, 0.030833721, 10.078417
773122059847516, 8.024331, 0.040677983, 6.067002, 0.06734632, -0.0026311874, 10.059598
773122069487620, 7.995617, -0.0071784677, 6.099305, 0.116745636, -0.04302025, 10.055644
773122079127620, 7.9920278, -0.03708875, 6.1196437, 0.145708, -0.063271046, 10.064726
773122088767724, 7.9764743, -0.022731815, 6.1124654, 0.12853435, -0.06384182, 10.048199
773122098407828, 7.960921, 0.03589234, 6.101698, 0.06903541, -0.061471462, 10.029941
773122108047932, 7.989635, 0.11006984, 6.0981083, -0.006148666, -0.039559364, 10.051455
773122117687932, 8.009974, 0.18065812, 6.0598235, -0.07804987, 9.6702576E-4, 10.045281
773122127328036, 8.01117, 0.24765715, 6.026324, -0.14541665, 0.028568268, 10.026705
773122136968141, 8.065009, 0.23688944, 6.0215383, -0.13363177, 0.06298828, 10.066658
773122146608141, 8.085348, 0.22612174, 6.0418773, -0.11697662, 0.04839945, 10.095161
773122156248245, 8.0614195, 0.17467605, 6.005985, -0.066578194, 0.06349754, 10.053876
773122165888349, 8.023134, 0.12562318, 6.0287166, -0.013299897, 0.019684792, 10.0365
773122175528349, 8.021938, 0.05623133, 6.0574307, 0.05745116, 2.2125244E-4, 10.052055
773122185168453, 8.021938, 0.076570325, 6.222535, 0.042125836, -0.13068295, 10.151772
773122194808557, 7.9310107, -0.050249275, 6.009574, 0.16290851, -0.010820389, 9.949461
773122204448661, 7.945368, 0.0, 6.013163, 0.11093468, -0.0053133965, 9.963669
773122214088661, 8.115258, 0.0071784677, 6.1435723, 0.10557045, -0.0114274025, 10.177902
773122223728766, 8.068598, 0.09212367, 6.081359, 0.019202441, 0.004324436, 10.104123
773122233368870, 8.01117, 0.10289137, 6.005985, 0.0060399175, 0.029398918, 10.013012
773122243008870, 8.021938, 0.18664017, 6.0418773, -0.07541615, -0.002363205, 10.044149
773122252648974, 8.029117, 0.29790643, 6.076573, -0.18466645, -0.033136845, 10.07199
773122262289078, 7.9944205, 0.2943172, 6.0358953, -0.17765492, -0.028665066, 10.019833
773122271929182, 8.006385, 0.2009971, 6.020342, -0.08585155, -0.0032129288, 10.01897
773122281569182, 8.019546, 0.10289137, 5.989235, 0.016240656, 0.03104496, 10.009666
773122291209286, 8.073383, 0.058624156, 6.067002, 0.06344035, 0.0011692047, 10.098884
773122300849391, 8.098508, 0.02871387, 6.10768, 0.09468886, -0.01500082, 10.143038
773122310489495, 8.055437, 0.0059820567, 6.113662, 0.11913979, -0.044003487, 10.111916
773122320129495, 7.9908314, 0.025124637, 6.067002, 0.097649515, -0.04952526, 10.0324745
773122329769599, 8.003992, 0.07298109, 6.01436, 0.04662323, -0.0025086403, 10.011971
773122339409703, 8.060223, 0.15074782, 5.9497533, -0.035965085, 0.06844807, 10.019157
773122349049807, 8.0817585, 0.2105684, 5.95095, -0.09626877, 0.076672554, 10.037821
773122358689807, 8.055437, 0.18664017, 5.933004, -0.070836544, 0.06770706, 10.005792
773122368329911, 8.098508, 0.2213361, 6.0191455, -0.09869954, 0.014314175, 10.092323
773122377970016, 8.085348, 0.17467605, 6.0287166, -0.048975527, -0.0036597252, 10.086941
773122387610120, 8.043473, 0.14237295, 5.98086, -0.015375972, 0.010593414, 10.024374
773122397250120, 8.008778, 0.18783657, 5.9234324, -0.06066057, 0.036375523, 9.962824
773122406890224, 7.989635, 0.09332009, 6.058627, 0.043001622, -0.07598019, 10.027079
773122416530328, 8.030313, 0.09332009, 6.1471615, 0.05129227, -0.12215614, 10.1126
773122426170432, 8.050652, 0.10289137, 6.09093, 0.03840816, -0.06559563, 10.095407
773122435810432, 8.072187, 0.12801601, 6.020342, 0.010886043, -0.0026817322, 10.070799
773122445450536, 8.05783, 0.19501504, 5.9880385, -0.057345957, 0.011079788, 10.040909
773122455090641, 8.030313, 0.16390835, 6.0287166, -0.022269428, -0.044540405, 10.042696
773122464730745, 8.033902, 0.16510476, 6.0358953, -0.018645436, -0.062249184, 10.049809
773122474370745, 8.029117, 0.12921242, 5.994021, 0.017149687, -0.030691624, 10.020502
773122484010849, 8.047063, 0.086141616, 5.9377894, 0.056193948, 0.0274539, 10.000803
773122493650953, 8.087741, 0.104087785, 5.95095, 0.039981186, 0.04044199, 10.041562
773122503291057, 8.145168, 0.07537391, 5.946164, 0.06717336, 0.078603745, 10.084424
773122512931057, 8.1679, 0.09571291, 5.9964137, 0.049084187, 0.050718307, 10.132904
773122522571161, 8.157132, 0.15433706, 5.989235, -0.009975702, 0.041296482, 10.120857
773122532211266, 8.032705, 0.17228323, 6.0023956, -0.025076032, -0.051764965, 10.028933
773122541851370, 7.9908314, 0.16151553, 5.977271, -0.013905928, -0.064838886, 9.980122
773122551491370, 8.01117, 0.16630118, 5.953343, -0.018408746, -0.03989458, 9.982328
773122561131474, 8.072187, 0.148355, 5.948557, 7.0118904E-4, -0.0017518997, 10.0283375
773122570771578, 8.127222, 0.15672988, 5.905486, -0.010484457, 0.06761265, 10.04721
773122580411682, 8.147561, 0.15433706, 5.938986, -0.006704241, 0.052904606, 10.083418
773122590051786, 8.146365, 0.16271193, 5.994021, -0.011907309, 0.007877827, 10.115227
773122599691786, 8.132008, 0.17706887, 5.9880385, -0.025938958, -0.001115799, 10.100338
773122609331891, 8.069795, 0.15672988, 5.9712887, -0.0045683384, -0.030881882, 10.039993
773122618971995, 8.037491, 0.16869399, 5.960521, -0.015568018, -0.05003214, 10.007736
773122628612099, 8.020741, 0.15314065, 5.9318075, -0.0013118982, -0.035897255, 9.977013
773122638252203, 8.072187, 0.16510476, 5.933004, -0.01292035, -0.015934944, 10.01936
773122647892203, 8.123632, 0.12801601, 5.936593, 0.023922741, 0.0141944885, 10.062414
773122657532307, 8.147561, 0.1471586, 5.9413786, 0.004597962, 0.025595665, 10.084827
773122667172411, 8.149954, 0.13878371, 5.968896, 0.014525086, 0.007164955, 10.102894
773122676812516, 8.127222, 0.15314065, 5.959325, 6.3449144E-5, 8.177757E-4, 10.079124
773122686452620, 8.090134, 0.13878371, 5.9449677, 0.014580309, -0.0107626915, 10.040509
773122696092620, 8.096115, 0.1363909, 5.9066825, 0.014734328, 0.01969099, 10.022673
773122705732724, 8.120044, 0.13040884, 5.899504, 0.019512743, 0.034911156, 10.0376625
773122715372828, 8.103293, 0.13160525, 5.942575, 0.02052024, -0.009814262, 10.049595
773122725012932, 8.080562, 0.12562318, 5.9784675, 0.02864042, -0.055128574, 10.052336
773122734653036, 8.069795, 0.12921242, 5.966503, 0.025549978, -0.05102539, 10.036644
773122744293036, 8.094919, 0.16869399, 5.936593, -0.015731603, -0.00977087, 10.03987
773122753933141, 8.126026, 0.19381863, 5.9174504, -0.04297638, 0.02899313, 10.054024
773122763573245, 8.153543, 0.19381863, 5.9114685, -0.044060588, 0.049868584, 10.072679
773122773213349, 8.147561, 0.19381863, 5.9246287, -0.042197168, 0.027696133, 10.075664
773122782853453, 8.110473, 0.18544376, 5.9473605, -0.031487763, -0.011811256, 10.059032
773122792493557, 8.086544, 0.15672988, 5.953343, -5.323589E-4, -0.042114735, 10.042773
773122802133557, 8.039884, 0.14117654, 5.9246287, 0.014295161, -0.048954964, 9.987907
773122811773661, 8.039884, 0.1363909, 5.9318075, 0.019111603, -0.054593563, 9.9920635
773122821413766, 8.045866, 0.12083755, 5.9784675, 0.036612242, -0.08440447, 10.02418
773122831053870, 8.139186, 0.12921242, 5.956932, 0.024158955, -0.006456375, 10.086995
773122840693974, 8.175078, 0.15194423, 5.9270215, -0.0010771155, 0.0426569, 10.098652
773122850333974, 8.139186, 0.14117654, 5.916254, 0.0101104975, 0.032871723, 10.063159
773122859974078, 8.115258, 0.124426775, 5.8911295, 0.025949746, 0.03930521, 10.028765
773122869614182, 8.160722, 0.16630118, 5.8839507, -0.017225355, 0.067106724, 10.061865
773122879254286, 8.145168, 0.17467605, 5.910272, -0.024542958, 0.036240578, 10.064972
773122888894391, 8.094919, 0.15433706, 5.9210396, -0.0031172931, -0.0060863495, 10.030464
773122898534495, 8.07458, 0.13280165, 5.8743796, 0.01674372, 0.016397476, 9.986205
773122908174495, 8.088937, 0.13878371, 5.910272, 0.012511015, -0.0066781044, 10.019046
773122917814599, 8.130812, 0.16749759, 5.966503, -0.014317155, -0.029812336, 10.086437
773122927454703, 8.166703, 0.13758731, 5.98086, 0.014974743, -0.015595913, 10.123449
773122937094807, 8.157132, 0.13399807, 5.933004, 0.016176552, 0.017535686, 10.087455
773122946734911, 8.115258, 0.14237295, 5.8767724, 0.0058516264, 0.03800392, 10.020613
773122956375016, 8.099705, 0.18185452, 5.8707905, -0.03362003, 0.02757597, 10.005127
773122966015016, 8.114061, 0.22492532, 5.9030933, -0.07531753, 0.007879734, 10.036401
773122975655120, 8.116454, 0.2105684, 5.912665, -0.05863759, 0.0029034615, 10.043771
