timestamp_acc,device_acc_x,device_acc_y,device_acc_z,earth_acc_x,earth_acc_y,earth_acc_z
356051966204542, -0.32662028, 5.7583275, 8.090134, -0.008453965, 0.004737377, 9.935553
356051975843292, -0.31944183, 5.7583275, 8.084151, -7.324219E-4, 0.0044722557, 9.930451
356051985481938, -0.30508488, 5.7583275, 8.093722, 0.010201335, -0.0071082115, 9.937786
356051995120688, -0.29671, 5.7750773, 8.072187, 0.029474735, 0.012319565, 9.929689
356052004759334, -0.31944183, 5.761917, 8.056634, 0.00874567, 0.02184391, 9.910123
356052014398084, -0.31465617, 5.7559347, 8.030313, 0.018512607, 0.029098034, 9.885067
356052024036730, -0.31944183, 5.753542, 8.030313, 0.013756752, 0.029099941, 9.883833
356052033675480, -0.31226337, 5.7583275, 8.043473, 0.018828392, 0.022096157, 9.897093
356052043314125, -0.30029923, 5.7547383, 8.059027, 0.021940231, 0.0050230026, 9.907301
356052052952875, -0.29790643, 5.7690954, 8.0817585, 0.024068832, 0.0023083687, 9.934054
356052062591521, -0.2883351, 5.7726846, 8.092526, 0.029716969, -0.0055189133, 9.944603
356052072230271, -0.32063824, 5.7379885, 8.153543, -0.03016448, -0.046207428, 9.975196
356052081868917, -0.34337005, 5.7547383, 8.199007, -0.054904222, -0.04716158, 10.022643
356052091507667, -0.33140594, 5.761917, 8.1942215, -0.039184093, -0.04456234, 10.022537
356052101146313, -0.32542387, 5.76431, 8.159525, -0.02048254, -0.027420044, 9.995492
356052110785063, -0.3290131, 5.7463636, 8.118847, -0.019159317, -0.018250942, 9.952082
356052120423709, -0.3684947, 5.7463636, 8.075776, -0.043088555, 0.023022652, 9.91828
356052130062459, -0.38763726, 5.7248282, 8.035098, -0.057699442, 0.036733627, 9.873301
356052139701105, -0.37806597, 5.7152567, 7.9944205, -0.042145133, 0.042713165, 9.834342
356052149339855, -0.35174492, 5.729614, 7.958528, -0.0042705536, 0.05958557, 9.812585
356052158978500, -0.31345975, 5.7451673, 7.9274216, 0.043537617, 0.06751919, 9.795039
356052168617250, -0.27756742, 5.784649, 7.928618, 0.08994615, 0.07695913, 9.817748
356052178255896, -0.2620141, 5.7726846, 7.9704924, 0.0873692, 0.038184643, 9.8443985
356052187894646, -0.2943172, 5.76431, 7.995617, 0.04790163, 0.0333395, 9.861053
356052197533292, -0.30867413, 5.7583275, 8.050652, 0.017984867, 0.0077376366, 9.902839
356052207172042, -0.317049, 5.7607207, 8.110473, -0.003860712, -0.015512943, 9.953187
356052216810688, -0.33020952, 5.7463636, 8.158329, -0.033628702, -0.044211864, 9.984238
356052226449438, -0.33738798, 5.759524, 8.1679, -0.03765416, -0.033754826, 9.999899
356052236088084, -0.34456646, 5.757131, 8.187042, -0.04962802, -0.041715622, 10.014326
356052245726834, -0.317049, 5.7559347, 8.152347, -0.016855001, -0.036736965, 9.984509
356052255365480, -0.32542387, 5.76431, 8.105687, -0.008580685, -0.002020359, 9.951646
356052265004230, -0.33738798, 5.7583275, 8.068598, -0.011311531, 0.018461227, 9.9183655
356052274642875, -0.32303107, 5.761917, 8.043473, 0.009994268, 0.026521683, 9.899529
356052284281625, -0.31345975, 5.7487564, 8.031509, 0.016073465, 0.018852234, 9.881851
356052293920271, -0.27756742, 5.773881, 8.035098, 0.05656171, 0.016217232, 9.898185
356052303559021, -0.28713873, 5.771488, 8.002795, 0.055435896, 0.035968304, 9.87081
356052313197667, -0.32303107, 5.7391853, 7.9908314, 0.012691498, 0.03596592, 9.843503
356052322836417, -0.33140594, 5.7320065, 8.018349, -0.005806446, 0.019850254, 9.86201
356052332475063, -0.34576288, 5.7403817, 8.048259, -0.022467613, 0.017481804, 9.891672
356052342113813, -0.33738798, 5.7379885, 8.069795, -0.021291733, 9.5033646E-4, 9.907548
356052351752459, -0.3481557, 5.7403817, 8.085348, -0.033715844, -6.160736E-4, 9.921942
356052361391209, -0.35294133, 5.733203, 8.105687, -0.045442224, -0.012802601, 9.934492
356052371029855, -0.35174492, 5.7547383, 8.115258, -0.03834772, -0.0026082993, 9.954731
356052380668605, -0.33020952, 5.7607207, 8.109276, -0.015067577, -0.003984928, 9.9526415
356052390307250, -0.30388847, 5.7667027, 8.106883, 0.011425972, -0.010149956, 9.953318
356052399946000, -0.26799613, 5.784649, 8.096115, 0.052607775, -0.008555412, 9.953803
356052409584646, -0.2620141, 5.7858453, 8.1020975, 0.05673027, -0.013861656, 9.959178
356052419223396, -0.276371, 5.76431, 8.05783, 0.04559493, 4.2581558E-4, 9.911115
356052428862042, -0.28713873, 5.770292, 8.04467, 0.039755583, 0.015685081, 9.9042225
356052438500792, -0.2883351, 5.7583275, 8.055437, 0.030660868, 0.0023851395, 9.90609
356052448139438, -0.29671, 5.7786665, 8.038688, 0.036207438, 0.028785229, 9.904512
356052457778188, -0.2943172, 5.7655063, 8.055437, 0.027807951, 0.0103263855, 9.910444
356052467416834, -0.31106696, 5.7487564, 8.045866, 0.0090379715, 0.011847019, 9.893469
356052477055584, -0.317049, 5.74756, 8.070991, -0.0030031204, 0.001033783, 9.913418
356052486694230, -0.31585258, 5.7451673, 8.060223, -3.4236908E-4, 0.0045261383, 9.903225
356052496332980, -0.30029923, 5.7547383, 8.075776, 0.013283014, -0.0041036606, 9.920945
356052505971625, -0.29192436, 5.7559347, 8.0817585, 0.017521739, -0.010427475, 9.9262495
356052515610375, -0.31465617, 5.7607207, 8.088937, -0.0025457144, -3.604889E-4, 9.935584
356052525249021, -0.32542387, 5.7427745, 8.100901, -0.023942232, -0.015098095, 9.935246
356052534887771, -0.3278167, 5.7451673, 8.084151, -0.021117449, -0.00333786, 9.923076
356052544526417, -0.3361916, 5.749953, 8.0817585, -0.02583623, 0.005132675, 9.92417
356052554165167, -0.33020952, 5.753542, 8.088937, -0.020172954, 0.0013742447, 9.931908
356052563803813, -0.33379877, 5.7487564, 8.075776, -0.020722985, 0.006729126, 9.918533
356052573442563, -0.33140594, 5.7427745, 8.056634, -0.013625383, 0.011946678, 9.899408
356052583081209, -0.29671, 5.759524, 8.0614195, 0.023325324, 0.0056090355, 9.911915
356052592719855, -0.30149564, 5.7631135, 8.070991, 0.018105507, 0.005452156, 9.92194
356052602358605, -0.3397808, 5.7403817, 8.059027, -0.022092462, 0.012185574, 9.900238
356052611997250, -0.33260235, 5.7427745, 8.096115, -0.023901343, -0.009253502, 9.931591
356052621636000, -0.32662028, 5.749953, 8.10808, -0.018129945, -0.014164448, 9.945304
356052631274646, -0.34337005, 5.7667027, 8.096115, -0.023542285, 0.011639595, 9.945811
356052640913396, -0.3290131, 5.7559347, 8.070991, -0.008810043, 0.010774136, 9.918654
356052650552042, -0.30508488, 5.7607207, 8.035098, 0.02320981, 0.020271778, 9.891452
356052660190792, -0.28713873, 5.7894344, 7.989635, 0.060835004, 0.05489111, 9.870541
356052669829438, -0.2943172, 5.7894344, 7.962117, 0.061130404, 0.07283878, 9.848373
356052679468188, -0.2943172, 5.7786665, 7.9633136, 0.05493498, 0.06086397, 9.843132
356052689106834, -0.29790643, 5.7858453, 7.98126, 0.050108433, 0.05795765, 9.862018
356052698745584, -0.30508488, 5.767899, 8.01117, 0.029362679, 0.032689095, 9.876165
356052708384230, -0.3385844, 5.7559347, 8.045866, -0.010809422, 0.023005009, 9.898522
356052718022875, -0.34456646, 5.7343993, 8.087741, -0.035428643, -0.011498928, 9.920293
356052727661625, -0.36251262, 5.733203, 8.1020975, -0.053434968, -0.010491848, 9.931871
356052737300271, -0.3589234, 5.716453, 8.109276, -0.057537317, -0.026890278, 9.927889
356052746939021, -0.36490545, 5.709275, 8.096115, -0.061378002, -0.021177769, 9.913215
356052756577667, -0.35653058, 5.741578, 8.084151, -0.038048387, 0.00406456, 9.921938
356052766216417, -0.33140594, 5.7487564, 8.067402, -0.007502079, 0.006816864, 9.911655
356052775855063, -0.3278167, 5.7451673, 8.070991, -0.005901575, 0.0011358261, 9.912378
356052785493813, -0.3290131, 5.727221, 8.093722, -0.019691706, -0.02298832, 9.920521
356052795132459, -0.3397808, 5.721239, 8.111669, -0.03459072, -0.030081749, 9.932024
356052804771209, -0.3278167, 5.7260246, 8.142776, -0.02948451, -0.04806328, 9.959743
356052814409855, -0.31944183, 5.7355957, 8.133204, -0.015729189, -0.040272236, 9.957222
356052824048500, -0.30388847, 5.7523456, 8.120044, 0.0072016716, -0.027862549, 9.955708
356052833687250, -0.28594232, 5.77747, 8.128419, 0.030556917, -0.022527218, 9.976507
356052843325896, -0.28953153, 5.7894344, 8.12124, 0.0338912, -0.008563042, 9.977711
356052852964646, -0.31345975, 5.77747, 8.096115, 0.014165878, 0.006031513, 9.951093
356052862603292, -0.317049, 5.7655063, 8.05783, 0.01609683, 0.01802969, 9.913104
356052872242042, -0.33379877, 5.749953, 8.024331, 0.0035414696, 0.032467365, 9.877358
356052881880688, -0.33020952, 5.7631135, 7.9776707, 0.023684025, 0.06288767, 9.846889
356052891519438, -0.30508488, 5.761917, 7.960921, 0.049253225, 0.05454588, 9.831766
356052901158084, -0.32303107, 5.7451673, 7.9226356, 0.036705017, 0.071392536, 9.791475
356052910796730, -0.35653058, 5.73081, 7.925029, -7.009506E-5, 0.07523298, 9.7862015
356052920435480, -0.36011982, 5.729614, 7.9501534, -0.01091361, 0.062108994, 9.806076
356052930074125, -0.35174492, 5.741578, 7.98126, -0.0073513985, 0.05022192, 9.8380575
356052939712875, -0.32422748, 5.7487564, 8.029117, 0.0065453053, 0.017382622, 9.880269
356052949351521, -0.32542387, 5.74756, 8.076973, -0.008179903, -0.006626606, 9.918553
356052958990167, -0.3385844, 5.7463636, 8.120044, -0.03126383, -0.02356577, 9.953337
356052968628917, -0.33020952, 5.753542, 8.151151, -0.028953552, -0.037528515, 9.982549
356052978267563, -0.31465617, 5.759524, 8.179864, -0.019834995, -0.054208755, 10.008895
356052987906313, -0.27756742, 5.788238, 8.176275, 0.02626586, -0.048448563, 10.021436
356052997544959, -0.2620141, 5.8097734, 8.151151, 0.05546999, -0.026489735, 10.012972
356053007183605, -0.3074777, 5.3910294, 7.944171, -0.10381603, -0.19142771, 9.603133
356053016822355, -0.3469593, 6.3314085, 8.396415, 0.1311698, 0.2528696, 10.517878
356053026461000, -0.23569304, 5.231907, 7.676175, -0.035092235, -0.19771719, 9.290411
356053036099750, -0.45942193, 6.2081785, 8.312666, 0.0057280064, 0.26342106, 10.381886
356053045738396, -0.11844472, 5.5537415, 7.7419777, 0.18073964, -0.068716764, 9.526747
356053055377146, -0.54675996, 5.7284174, 7.944171, -0.1765548, 0.15524578, 9.806543
356053065015792, -0.08853444, 6.005985, 7.9190464, 0.3467462, 0.14129305, 9.932311
356053074654438, -0.49651068, 5.304888, 7.6570325, -0.23509955, -0.020162582, 9.325386
356053084293188, -0.13878371, 6.3457656, 8.242078, 0.35731745, 0.23440742, 10.394094
356053093931834, -0.36610186, 5.0620165, 7.609176, -0.20547307, -0.23433399, 9.141141
356053103570584, -0.3074777, 6.430711, 8.472985, 0.17315722, 0.25789595, 10.636896
356053113209230, -0.2644069, 5.133801, 7.756335, -0.12287998, -0.30225372, 9.299468
356053122847875, -0.49052864, 6.1842504, 8.565108, -0.106037855, 0.12522364, 10.574486
356053132486625, -0.17467605, 5.49751, 8.069795, 0.023754835, -0.24317169, 9.762941
356053142125271, -0.6041877, 5.753542, 8.361719, -0.32190466, -0.015714645, 10.162813
356053151763917, -0.16031912, 5.933004, 8.257631, 0.16661453, -0.03603697, 10.167873
356053161402667, -0.55752766, 5.308477, 7.9429746, -0.34883785, -0.13469744, 9.562519
356053171041313, -0.13519448, 6.320641, 8.386844, 0.31801462, 0.15628624, 10.4967785
356053180680063, -0.39361933, 5.0823555, 7.645068, -0.2227006, -0.20886326, 9.183633
356053190318709, -0.29910284, 6.4331036, 8.367701, 0.22359419, 0.32372522, 10.551677
356053199957355, -0.2620141, 5.1014977, 7.554141, -0.0791837, -0.21620631, 9.116247
356053209596105, -0.43669012, 6.212964, 8.315059, 0.023920536, 0.2597475, 10.385748
356053219234750, -0.11844472, 5.4795637, 7.7623167, 0.1448462, -0.12718105, 9.500319
356053228873396, -0.5240282, 5.8133626, 8.120044, -0.16498935, 0.11775303, 9.998192
356053238512146, -0.041874398, 5.95095, 8.033902, 0.33303547, 0.024077415, 9.992379
356053248150792, -0.47377887, 5.3982077, 7.87119, -0.23505843, -0.065412045, 9.553074
356053257789542, -0.086141616, 6.34098, 8.356933, 0.3712635, 0.15327024, 10.48296
356053267428188, -0.38285163, 5.10748, 7.757531, -0.24266613, -0.2545302, 9.289164
356053277066834, -0.2428715, 6.48096, 8.566305, 0.23633671, 0.22384167, 10.739529
356053286705584, -0.27038896, 5.123033, 7.746763, -0.1377883, -0.28985357, 9.285898
356053296344230, -0.43669012, 6.257231, 8.475378, -0.008207321, 0.2041173, 10.542009
356053305982875, -0.1698904, 5.4185467, 7.830512, 0.05220306, -0.17542887, 9.522234
356053315621625, -0.5479564, 5.8672013, 8.195417, -0.18900013, 0.13156891, 10.09139
356053325260271, -0.11365908, 5.8947186, 8.01117, 0.25011134, 0.03134203, 9.943639
356053334898917, -0.55034924, 5.3814583, 7.8424764, -0.2992195, -0.027243137, 9.522455
356053344537667, -0.15792629, 6.2524457, 8.29472, 0.29028535, 0.15155983, 10.383313
356053354176313, -0.47018966, 5.070391, 7.713264, -0.32596552, -0.21301794, 9.234326
356053363814959, -0.31345975, 6.4091754, 8.5016985, 0.16162515, 0.22947693, 10.647811
356053373453709, -0.31106696, 5.0775695, 7.6773715, -0.17283869, -0.27616358, 9.204042
356053383092355, -0.4354937, 6.296713, 8.455039, 0.015241146, 0.23618269, 10.548456
356053392731000, -0.18903299, 5.40419, 7.765906, 0.04991567, -0.1478107, 9.461817
356053402369750, -0.5371887, 5.9342003, 8.191829, -0.15313232, 0.16712952, 10.12709
356053412008396, -0.043070808, 5.8827543, 7.958528, 0.32022023, 0.012648106, 9.89162
356053421647042, -0.52283174, 5.4699926, 7.853244, -0.24569798, 0.0054392815, 9.581609
356053431285792, -0.09092726, 6.2919273, 8.209774, 0.3772092, 0.19932699, 10.335134
356053440924438, -0.40677986, 5.1493545, 7.643872, -0.21633744, -0.16617799, 9.221479
356053450563084, -0.19501504, 6.4701924, 8.426325, 0.30733585, 0.2534461, 10.618176
356053460201834, -0.24885355, 5.113462, 7.62114, -0.08775127, -0.2544942, 9.177077
356053469840480, -0.3493521, 6.37089, 8.421539, 0.13005495, 0.25595045, 10.561732
356053479479125, -0.15433706, 5.3623157, 7.7587276, 0.05124545, -0.20048761, 9.430445
356053489117875, -0.52522457, 5.9617176, 8.275578, -0.15989697, 0.13451052, 10.2107525
356053498756521, -0.09571291, 5.8013983, 8.050652, 0.20852256, -0.06886625, 9.921198
356053508395167, -0.55752766, 5.454439, 8.01117, -0.32831335, -0.063539505, 9.701998
356053518033917, -0.15314065, 6.186643, 8.310273, 0.25359344, 0.09959793, 10.35782
356053527672563, -0.51086766, 5.0847483, 7.789834, -0.3707422, -0.24781156, 9.305821
356053537311209, -0.31106696, 6.3720865, 8.513663, 0.13265252, 0.1976018, 10.636075
356053546949855, -0.36490545, 5.022535, 7.649854, -0.22909844, -0.28417087, 9.151288
356053556588605, -0.39720857, 6.3314085, 8.435896, 0.06710267, 0.25356483, 10.55178
356053566227250, -0.17587246, 5.322834, 7.716853, 0.043486834, -0.18900561, 9.374204
356053575865896, -0.5383851, 5.977271, 8.26122, -0.15706158, 0.15314388, 10.208685
356053585504646, -0.12203395, 5.7427745, 7.9393854, 0.19988394, -0.036061287, 9.797293
356053595143292, -0.56111693, 5.5310097, 7.940582, -0.27252364, 0.01938057, 9.689433
356053604781938, -0.07298109, 6.2201424, 8.219346, 0.3649447, 0.12837029, 10.300653
356053614420688, -0.42951167, 5.1960144, 7.7671022, -0.25084496, -0.18445992, 9.349545
356053624059334, -0.20458634, 6.430711, 8.440681, 0.28169918, 0.216856, 10.607291
356053633697980, -0.33379877, 5.048856, 7.6271224, -0.19852638, -0.2655115, 9.146883
356053643336625, -0.34456646, 6.384051, 8.41795, 0.14122128, 0.26794577, 10.566216
356053652975375, -0.14117654, 5.298906, 7.7036924, 0.05288315, -0.22131681, 9.348446
356053662614021, -0.46181476, 6.0717874, 8.289934, -0.05833435, 0.17283726, 10.284434
356053672252667, -0.07058827, 5.7463636, 7.9238324, 0.24119473, -0.058630466, 9.785254
356053681891417, -0.5240282, 5.6147585, 7.9980097, -0.2259686, 0.03492832, 9.783456
356053691530063, -0.09212367, 6.174679, 8.185846, 0.33595705, 0.115592, 10.247782
356053701168709, -0.4941179, 5.176872, 7.759924, -0.31693673, -0.1731255, 9.334353
356053710807355, -0.19740787, 6.424729, 8.440681, 0.27715302, 0.21696949, 10.603647
356053720446105, -0.3278167, 5.058427, 7.6259255, -0.18326604, -0.2601745, 9.151428
356053730084750, -0.36251262, 6.3828545, 8.415557, 0.11417222, 0.27403164, 10.564361
356053739723396, -0.19262223, 5.2438707, 7.641479, 1.5246868E-4, -0.20767546, 9.267382
356053749362146, -0.4953143, 6.078966, 8.328219, -0.09975314, 0.1674161, 10.320874
356053759000792, -0.10049855, 5.680561, 7.962117, 0.18038177, -0.10921049, 9.779046
356053768639438, -0.55393845, 5.6374903, 8.0817585, -0.2658646, 0.018571854, 9.865696
356053778278084, -0.12323037, 6.0957155, 8.236095, 0.2647841, 0.04973173, 10.243711
356053787916834, -0.5563313, 5.1673007, 7.8891363, -0.4064455, -0.20798707, 9.436129
356053797555480, -0.24047868, 6.37089, 8.520842, 0.19724989, 0.15398312, 10.638995
356053807194125, -0.41515473, 5.022535, 7.706085, -0.29641438, -0.27782893, 9.198746
356053816832771, -0.36011982, 6.4008007, 8.413164, 0.13846612, 0.2854514, 10.572635
356053826471521, -0.22253251, 5.2259245, 7.6019974, -0.020165443, -0.18410707, 9.225827
356053836110167, -0.5024927, 6.135197, 8.22772, -0.040394783, 0.26792955, 10.272055
356053845748813, -0.13280165, 5.613562, 7.797013, 0.17034912, -0.06603289, 9.606755
356053855387459, -0.5599205, 5.639883, 7.993224, -0.23802376, 0.07225847, 9.795486
356053865026209, -0.078963146, 6.0634127, 8.085348, 0.33217192, 0.07303429, 10.10091
356053874664855, -0.49651068, 5.237889, 7.797013, -0.30060673, -0.13395953, 9.400377
356053884303500, -0.16031912, 6.378069, 8.425129, 0.30589676, 0.16134167, 10.562605
356053893942146, -0.36370903, 5.0715876, 7.7036924, -0.23235798, -0.2688353, 9.223551
356053903580896, -0.28235307, 6.4606214, 8.534002, 0.19619846, 0.22577667, 10.703228
356053913219542, -0.18664017, 5.227121, 7.7551384, -0.027897835, -0.27675486, 9.349996
356053922858188, -0.45583272, 6.186643, 8.444271, -0.04576969, 0.17406607, 10.476434
356053932496834, -0.124426775, 5.588437, 7.9561353, 0.1284262, -0.14985561, 9.721483
356053942135584, -0.5587241, 5.7140603, 8.1738825, -0.25824988, 0.029191494, 9.985364
356053951774230, -0.076570325, 6.0358953, 8.132008, 0.30611253, 0.04194498, 10.122846
356053961412875, -0.46660042, 5.2905307, 7.7479596, -0.24031103, -0.08652711, 9.390053
356053971051521, -0.08733802, 6.4055862, 8.29472, 0.4075377, 0.21512556, 10.470394
356053980690167, -0.30987054, 5.0955157, 7.605587, -0.15262985, -0.22693634, 9.155897
356053990328917, -0.28594232, 6.4438715, 8.396415, 0.2311964, 0.2862463, 10.581572
356053999967563, -0.2536392, 5.1361938, 7.6546397, -0.101379395, -0.25165462, 9.217632
356054009606209, -0.48933223, 6.1854467, 8.429914, -0.06371117, 0.19834852, 10.465145
356054019244855, -0.1591227, 5.5250273, 7.9334035, 0.06970525, -0.17208886, 9.667248
356054028883605, -0.55513483, 5.751149, 8.195417, -0.2442255, 0.050107002, 10.024302
356054038522250, -0.08733802, 5.9820566, 8.117651, 0.2774129, 0.010313034, 10.080271
356054048160896, -0.54317075, 5.2953167, 7.865208, -0.34298897, -0.101264715, 9.49047
356054057799542, -0.20937198, 6.317052, 8.366505, 0.25264716, 0.1781187, 10.481024
356054067438188, -0.4749753, 5.035695, 7.716853, -0.34753895, -0.24219203, 9.217062
356054077076938, -0.33738798, 6.381658, 8.488539, 0.14562488, 0.2235632, 10.621838
356054086715584, -0.2883351, 5.087141, 7.647461, -0.14554858, -0.26114178, 9.184574
356054096354230, -0.47976094, 6.2081785, 8.403593, -0.029870987, 0.22294044, 10.456646
356054105992875, -0.16390835, 5.444868, 7.8017983, 0.07542324, -0.15652609, 9.513743
356054115631625, -0.56590253, 5.8013983, 8.129615, -0.20878279, 0.12317133, 10.000418
356054125270271, -0.07537391, 5.9617176, 8.055437, 0.30595684, 0.028561592, 10.017157
356054134908917, -0.52283174, 5.3383875, 7.8664045, -0.29830647, -0.085351944, 9.516081
356054144547563, -0.15672988, 6.3074803, 8.386844, 0.29494452, 0.13861561, 10.490081
356054154186313, -0.46301118, 5.0739803, 7.792227, -0.3333695, -0.26020408, 9.300516
356054163824959, -0.3074777, 6.4414787, 8.581859, 0.16397429, 0.21247864, 10.731424
356054173463605, -0.27876383, 5.0955157, 7.7180495, -0.13917959, -0.29962254, 9.246682
356054183102250, -0.424726, 6.283552, 8.409575, 0.03835082, 0.24215794, 10.503535
356054192740896, -0.12562318, 5.4687963, 7.7503524, 0.13483524, -0.1290574, 9.484549
356054202379646, -0.49052864, 5.889933, 8.1020975, -0.10548723, 0.15454245, 10.027011
356054212018292, -0.01794617, 5.9521465, 7.9513497, 0.37412405, 0.045855522, 9.925235
356054221656938, -0.47736812, 5.419743, 7.8077803, -0.2139951, -0.031892776, 9.513996
356054231295584, -0.106480606, 6.3194447, 8.26122, 0.36199617, 0.19386768, 10.393549
356054240934230, -0.43669012, 5.111069, 7.7036924, -0.28020418, -0.21466255, 9.248568
356054250572980, -0.25842485, 6.4558353, 8.475378, 0.22673416, 0.24263334, 10.652058
356054260211625, -0.23928227, 5.1206403, 7.641479, -0.08558619, -0.26556563, 9.197422
356054269850271, -0.40917268, 6.32423, 8.421539, 0.053502083, 0.2583003, 10.536416
356054279488917, -0.15194423, 5.3994045, 7.8173513, 0.059961915, -0.2053566, 9.499573
356054289127563, -0.552742, 5.8971114, 8.270791, -0.20649862, 0.09865284, 10.170302
356054298766313, -0.111266255, 5.838487, 8.087741, 0.2052226, -0.05300808, 9.973312
356054308404959, -0.5491528, 5.4293146, 7.9776707, -0.31690848, -0.0729537, 9.660048
356054318043605, -0.124426775, 6.2644095, 8.342576, 0.30283165, 0.11809015, 10.428387
356054327682250, -0.45702913, 5.0883374, 7.7479596, -0.31212592, -0.2374134, 9.272385
356054337320896, -0.2656033, 6.4354963, 8.510074, 0.20888019, 0.22450447, 10.66834
356054346959646, -0.31944183, 5.0536413, 7.6737823, -0.19307065, -0.2840712, 9.187508
356054356598292, -0.44027936, 6.2955165, 8.451449, 0.021405697, 0.23889446, 10.5449915
356054366236938, -0.20697916, 5.3180485, 7.8017983, -0.01683569, -0.22250152, 9.441544
356054375875584, -0.5563313, 5.930611, 8.310273, -0.19457412, 0.11207867, 10.222128
356054385514230, -0.10289137, 5.8061843, 8.037491, 0.22139478, -0.057336807, 9.913191
356054395152980, -0.5766702, 5.4664035, 7.940582, -0.31017935, -0.011895657, 9.652492
356054404791625, -0.13160525, 6.2285175, 8.2348995, 0.3169744, 0.15052795, 10.31999
356054414430271, -0.48215377, 5.133801, 7.739585, -0.3139298, -0.18902063, 9.292754
356054424068917, -0.29192436, 6.410372, 8.4813595, 0.18905997, 0.23257494, 10.631166
356054433707563, -0.36370903, 5.038088, 7.6534433, -0.22077978, -0.26901364, 9.1634445
356054443346313, -0.4211368, 6.337391, 8.374879, 0.07479143, 0.29639244, 10.506428
356054452984959, -0.19262223, 5.3096733, 7.6259255, 0.047454, -0.15208864, 9.292959
356054462623605, -0.5455636, 5.9748783, 8.139186, -0.1229527, 0.22009802, 10.108393
356054472262250, -0.09930214, 5.7655063, 7.874779, 0.2506261, -0.0027227402, 9.757061
356054481900896, -0.5407779, 5.5298133, 7.9190464, -0.24272084, 0.016263485, 9.670751
356054491539646, -0.09930214, 6.1974106, 8.252846, 0.32455254, 0.1120801, 10.31549
356054501178292, -0.46181476, 5.133801, 7.8029947, -0.30587065, -0.2417252, 9.343657
356054510816938, -0.22612174, 6.4211397, 8.56152, 0.22641325, 0.16230392, 10.700663
356054520455584, -0.32422748, 5.076373, 7.7754774, -0.1997273, -0.32458997, 9.283722
356054530094230, -0.33499518, 6.4091754, 8.560323, 0.12822199, 0.21739006, 10.696036
356054539732980, -0.13399807, 5.352744, 7.7994056, 0.07047725, -0.22834039, 9.457455
356054549371625, -0.47736812, 6.1064835, 8.382058, -0.07430601, 0.16105509, 10.380003
356054559010271, -0.09332009, 5.767899, 8.051848, 0.20801449, -0.08600569, 9.9024725
356054568648917, -0.5515456, 5.5908303, 8.037491, -0.26105213, 0.016199589, 9.802777
356054578287563, -0.11365908, 6.15434, 8.196614, 0.3091154, 0.11583185, 10.24521
356054587926313, -0.49052864, 5.178068, 7.6953177, -0.28839195, -0.12934232, 9.282835
356054597564959, -0.20458634, 6.422336, 8.313862, 0.30817842, 0.2802391, 10.499287
356054607203605, -0.32422748, 5.0452666, 7.503892, -0.14817, -0.20647168, 9.044537
356054616842250, -0.37567315, 6.363712, 8.338987, 0.1277852, 0.30532885, 10.491289
356054626480896, -0.2213361, 5.229514, 7.6426754, -0.019476533, -0.20260572, 9.260986
356054636119542, -0.5515456, 6.050252, 8.3377905, -0.15171027, 0.17691183, 10.3137865
356054645758292, -0.15672988, 5.6207404, 7.9704924, 0.11138773, -0.12772846, 9.752811
356054655396938, -0.58624154, 5.5872407, 8.126026, -0.31656265, -0.019191742, 9.873837
356054665035584, -0.1268196, 6.128019, 8.288737, 0.26803136, 0.051237106, 10.305214
356054674674230, -0.52283174, 5.2019963, 7.8927255, -0.36395192, -0.19353986, 9.458293
356054684312875, -0.23928227, 6.38764, 8.52802, 0.21206474, 0.16348362, 10.654324
356054693951625, -0.41156548, 5.0069814, 7.7419777, -0.29950118, -0.3075962, 9.2191725
356054703590271, -0.39840496, 6.3661046, 8.541181, 0.06682372, 0.22165585, 10.657589
356054713228917, -0.2620141, 5.1816573, 7.7204423, -0.09304476, -0.24207973, 9.298183
356054722867563, -0.52163535, 6.0957155, 8.316256, -0.094634056, 0.21455431, 10.321579
356054732506209, -0.11485548, 5.6207404, 7.84128, 0.18625975, -0.07447457, 9.646313
356054742144959, -0.5168497, 5.669793, 7.954939, -0.1740936, 0.096244335, 9.780346
356054751783605, -0.029910283, 6.113662, 8.04467, 0.4067371, 0.12623453, 10.095203
356054761422250, -0.4139583, 5.2642097, 7.735996, -0.1968224, -0.12541294, 9.363463
356054771060896, -0.09451649, 6.422336, 8.428718, 0.3716383, 0.17511082, 10.589138
356054780699542, -0.3469593, 5.072784, 7.728817, -0.22713637, -0.28299427, 9.2442665
356054790338292, -0.33499518, 6.4127645, 8.547162, 0.13328886, 0.22950983, 10.6873455
356054799976938, -0.22731815, 5.18405, 7.7790666, -0.08581257, -0.28800464, 9.346102
356054809615584, -0.44626144, 6.189036, 8.46102, -0.03485942, 0.16965151, 10.491055
356054819254230, -0.106480606, 5.6075797, 8.01117, 0.13781285, -0.1687777, 9.776894
356054828892875, -0.5515456, 5.703293, 8.196614, -0.25990915, 0.020355701, 9.997414
356054838531625, -0.10887343, 6.01436, 8.200203, 0.25397348, 0.024866104, 10.1667385
356054848170271, -0.5276174, 5.2570314, 7.877172, -0.3353374, -0.14064693, 9.477993
356054857808917, -0.18783657, 6.3601227, 8.41795, 0.2687068, 0.19313908, 10.546981
356054867447563, -0.3684947, 5.0548377, 7.6678, -0.22271943, -0.25058556, 9.185311
356054877086209, -0.29790643, 6.4343, 8.433503, 0.2001512, 0.28696394, 10.606155
356054886724959, -0.21774685, 5.1625147, 7.629515, -0.03500414, -0.22674108, 9.211722
356054896363605, -0.44985065, 6.1938214, 8.374879, -0.013936281, 0.22384977, 10.423726
356054906002250, -0.106480606, 5.5274205, 7.893922, 0.13901305, -0.16485357, 9.634896
356054915640896, -0.5371887, 5.753542, 8.166703, -0.21614313, 0.063518524, 10.001806
356054925279542, -0.104087785, 5.9916277, 8.128419, 0.27261662, 0.043317795, 10.094823
356054934918292, -0.5371887, 5.2749777, 7.853244, -0.32593393, -0.12018204, 9.46925
356054944556938, -0.1698904, 6.3290157, 8.377272, 0.28199458, 0.18456697, 10.495255
356054954195584, -0.43669012, 5.0512486, 7.7216387, -0.29593098, -0.25737667, 9.22907
356054963834230, -0.33738798, 6.4055862, 8.532805, 0.13430333, 0.23917437, 10.671404
356054973472875, -0.26799613, 5.1026945, 7.7443705, -0.13231146, -0.30868483, 9.272098
356054983111625, -0.47377887, 6.2057858, 8.506484, -0.06122732, 0.17211008, 10.53865
356054992750271, -0.14237295, 5.4843497, 7.946564, 0.08243227, -0.1984756, 9.654017
356055002388917, -0.506082, 5.8277197, 8.195417, -0.1642288, 0.08227682, 10.067251
356055012027563, -0.040677983, 6.005985, 8.04108, 0.3546617, 0.067230225, 10.030065
356055021666209, -0.4881358, 5.386244, 7.783852, -0.22332978, -0.019309044, 9.475654
356055031304959, -0.13998012, 6.323034, 8.26481, 0.3421769, 0.21709538, 10.399194
356055040943605, -0.4103691, 5.0979085, 7.6737823, -0.24388051, -0.20798707, 9.216359
356055050582250, -0.26679972, 6.431907, 8.469396, 0.2223041, 0.24926043, 10.632955
356055060220896, -0.28953153, 5.089534, 7.6259255, -0.123075485, -0.2500472, 9.168655
356055069859646, -0.45702913, 6.2380886, 8.382058, -0.008738279, 0.24848795, 10.4556055
356055079498292, -0.18424734, 5.416154, 7.806584, 0.04794109, -0.1616826, 9.501737
356055089136938, -0.6029913, 5.808577, 8.237292, -0.27339292, 0.087982655, 10.093248
356055098775584, -0.13040884, 5.875576, 8.123632, 0.20254946, -0.024857521, 10.0245285
356055108414230, -0.57188463, 5.346762, 7.9980097, -0.36580098, -0.13367224, 9.629715
356055118052980, -0.19501504, 6.2261243, 8.411968, 0.20977092, 0.10090256, 10.464686
356055127691625, -0.4977071, 5.046463, 7.792227, -0.36767638, -0.26845765, 9.285799
356055137330271, -0.30269206, 6.442675, 8.4909315, 0.18834305, 0.25933743, 10.657995
356055146968917, -0.2727818, 5.1122656, 7.618747, -0.10222435, -0.23314738, 9.17552
356055156607563, -0.32542387, 6.3457656, 8.362915, 0.16025805, 0.27345085, 10.498216
356055166246313, -0.047856454, 5.465207, 7.745567, 0.20535147, -0.15748358, 9.47616
356055175884959, -0.44027936, 5.9617176, 8.2145605, -0.0619483, 0.13432884, 10.158399
356055185523605, -0.031106694, 5.918647, 8.02792, 0.3235879, -0.005214691, 9.968657
356055195162250, -0.4941179, 5.4759746, 7.9537425, -0.24360204, -0.045644283, 9.665974
356055204801000, -0.09092726, 6.2979093, 8.353344, 0.35108232, 0.10477877, 10.455432
356055214439646, -0.41515473, 5.144569, 7.763513, -0.28700042, -0.19386244, 9.316177
356055224078292, -0.2536392, 6.465407, 8.486146, 0.25806642, 0.23174286, 10.665842
356055233716938, -0.2943172, 5.09073, 7.6570325, -0.18009877, -0.24805951, 9.194472
356055243355584, -0.39840496, 6.326623, 8.441878, 0.08646798, 0.24212694, 10.553865
356055252994334, -0.15074782, 5.3790655, 7.786245, 0.041268826, -0.20381474, 9.462528
356055262632980, -0.55513483, 5.918647, 8.250452, -0.17943764, 0.15618038, 10.166215
356055272271625, -0.15074782, 5.7786665, 8.001599, 0.16149902, -0.04619479, 9.869807
356055281910271, -0.58265233, 5.460421, 7.9740815, -0.335804, -0.010705471, 9.676197
356055291549021, -0.16630118, 6.215357, 8.282756, 0.26801276, 0.13098669, 10.352457
356055301187667, -0.51445687, 5.1026945, 7.732406, -0.34951162, -0.1982286, 9.269888
356055310826313, -0.27038896, 6.424729, 8.446664, 0.211725, 0.2558465, 10.610661
356055320464959, -0.33499518, 5.058427, 7.6271224, -0.18338132, -0.2553699, 9.152817
356055330103709, -0.39960137, 6.344569, 8.409575, 0.075785875, 0.27787066, 10.538085
356055339742355, -0.1591227, 5.3180485, 7.7312098, 0.047677636, -0.21149802, 9.382515
356055349381000, -0.49651068, 5.9916277, 8.282756, -0.12131381, 0.1333785, 10.233166
356055359019646, -0.11006984, 5.791827, 8.031509, 0.20630205, -0.052437305, 9.900366
356055368658292, -0.54317075, 5.5190454, 8.049456, -0.29250216, -0.050022602, 9.770391
356055378297042, -0.09571291, 6.2201424, 8.334201, 0.31187582, 0.082952976, 10.394907
356055387935688, -0.45583272, 5.163711, 7.85444, -0.31151056, -0.23193908, 9.402824
356055397574334, -0.23090738, 6.4402823, 8.519645, 0.2334001, 0.20680094, 10.677906
356055407212980, -0.3481557, 5.066802, 7.6893353, -0.21098459, -0.26881695, 9.208845
356055416851730, -0.3924229, 6.385247, 8.459825, 0.08702159, 0.2757578, 10.602378
356055426490375, -0.19381863, 5.3108697, 7.726424, 0.01597476, -0.19048476, 9.375714
356055436129021, -0.53240305, 6.023931, 8.300702, -0.14121735, 0.1715455, 10.267594
356055445767667, -0.11724831, 5.6853466, 7.9561353, 0.17609715, -0.0880456, 9.777434
356055455406417, -0.54675996, 5.538188, 7.987242, -0.27143145, -0.0028328896, 9.731024
356055465045063, -0.08733802, 6.1603217, 8.191829, 0.33328438, 0.11563778, 10.243964
356055474683709, -0.45224348, 5.194818, 7.746763, -0.26166463, -0.16683865, 9.333097
356055484322355, -0.16390835, 6.4259253, 8.439486, 0.31047726, 0.20648718, 10.602134
356055493961105, -0.33738798, 5.0644093, 7.670193, -0.2000606, -0.27382112, 9.191242
356055503599750, -0.36370903, 6.3888364, 8.505288, 0.09647679, 0.23955917, 10.640617
356055513238396, -0.20578274, 5.2486563, 7.7814593, -0.034454346, -0.25836444, 9.38477
356055522877042, -0.5072784, 6.070591, 8.416754, -0.12838149, 0.13367558, 10.388302
356055532515792, -0.13160525, 5.682954, 7.9944205, 0.15150428, -0.09670448, 9.807739
356055542154438, -0.5922236, 5.6063833, 8.07458, -0.3019837, 0.028228283, 9.843227
356055551793084, -0.13280165, 6.10768, 8.22772, 0.26774907, 0.08163452, 10.243946
356055561431730, -0.4989035, 5.1696935, 7.8281193, -0.3313204, -0.19973302, 9.3863945
356055571070480, -0.20578274, 6.4127645, 8.476574, 0.2618997, 0.19648933, 10.625959
356055580709125, -0.33738798, 5.072784, 7.6737823, -0.20152712, -0.26099634, 9.199193
356055590347771, -0.29910284, 6.430711, 8.447861, 0.19884324, 0.2652483, 10.616023
356055599986521, -0.15792629, 5.2546387, 7.685746, 0.026180983, -0.23082161, 9.308754
356055609625167, -0.4438686, 6.1710896, 8.330612, -0.0054745674, 0.21695137, 10.374554
356055619263813, -0.0849452, 5.6650076, 7.8963146, 0.206985, -0.08606911, 9.716022
356055628902459, -0.5371887, 5.672186, 8.055437, -0.22564101, 0.060124397, 9.863965
356055638541209, -0.076570325, 6.105287, 8.13799, 0.33371592, 0.088675976, 10.167991
356055648179855, -0.48215377, 5.24746, 7.8089767, -0.28632474, -0.14014792, 9.415243
356055657818500, -0.17108682, 6.3888364, 8.444271, 0.28677034, 0.18727732, 10.584657
356055667457146, -0.3900301, 5.042874, 7.716853, -0.25219154, -0.29284835, 9.218633
356055677095896, -0.3469593, 6.407979, 8.495717, 0.11427629, 0.2550969, 10.643386
356055686734542, -0.24885355, 5.1828537, 7.6917286, -0.0657922, -0.24060798, 9.274933
356055696373188, -0.5024927, 6.155536, 8.402397, -0.09693611, 0.19164515, 10.425799
356055706011938, -0.13878371, 5.5908303, 7.9513497, 0.12175083, -0.1373887, 9.719409
356055715650584, -0.55034924, 5.7152567, 8.158329, -0.24838877, 0.027911186, 9.97311
356055725289230, -0.13040884, 6.04427, 8.140383, 0.26046383, 0.085651875, 10.136117
356055734927875, -0.5419743, 5.2486563, 7.820941, -0.3354181, -0.13191843, 9.427585
356055744566625, -0.15074782, 6.378069, 8.422736, 0.30733228, 0.16803694, 10.560411
356055754205271, -0.37208393, 5.046463, 7.7072816, -0.25171185, -0.2845037, 9.212119
356055763843917, -0.34097722, 6.410372, 8.463413, 0.14156055, 0.2634554, 10.618336
356055773482667, -0.2955136, 5.1361938, 7.63789, -0.12250984, -0.22054505, 9.205517
356055783121313, -0.47377887, 6.189036, 8.405986, -0.051026344, 0.20181704, 10.447291
356055792759959, -0.12203395, 5.5716877, 7.925029, 0.13491642, -0.14750671, 9.6863165
356055802398605, -0.52163535, 5.784649, 8.172686, -0.19460511, 0.061273098, 10.024242
356055812037355, -0.039481573, 6.0287166, 8.133204, 0.3349223, 0.02905941, 10.118448
356055821676000, -0.45224348, 5.346762, 7.8580294, -0.23719275, -0.116022825, 9.511641
356055831314646, -0.086141616, 6.407979, 8.425129, 0.36948228, 0.17276478, 10.57762
356055840953396, -0.36251262, 5.087141, 7.7611203, -0.24117255, -0.2905693, 9.2791605
356055850592042, -0.31106696, 6.4414787, 8.549556, 0.15220284, 0.2280674, 10.705565
356055860230688, -0.27158538, 5.1421757, 7.702496, -0.11772072, -0.26117826, 9.260782
356055869869334, -0.4761717, 6.233303, 8.415557, -0.03716421, 0.23386145, 10.480759
356055879508084, -0.14356937, 5.493921, 7.830512, 0.10313153, -0.1477089, 9.564949
356055889146730, -0.55752766, 5.788238, 8.143971, -0.21795607, 0.09629297, 10.0041
356055898785375, -0.09810573, 5.9581285, 8.030313, 0.2853093, 0.05034876, 9.995544
356055908424125, -0.5371887, 5.3503513, 7.838887, -0.3048495, -0.05462861, 9.500897
356055918062771, -0.16749759, 6.2979093, 8.327023, 0.28550172, 0.16484213, 10.436585
356055927701417, -0.45822555, 5.0512486, 7.690532, -0.3184781, -0.22691703, 9.204153
356055937340167, -0.28953153, 6.4295144, 8.52802, 0.18659902, 0.20875168, 10.680412
356055946978813, -0.25962126, 5.113462, 7.713264, -0.12976933, -0.29046822, 9.252466
356055956617459, -0.4438686, 6.2727847, 8.474181, -0.0019869804, 0.21001625, 10.550474
356055966256209, -0.15672988, 5.4616175, 7.884351, 0.061736345, -0.19253922, 9.590409
356055975894855, -0.5479564, 5.875576, 8.293523, -0.20822501, 0.08280754, 10.176196
356055985533500, -0.16510476, 5.682954, 8.050652, 0.10632515, -0.11519718, 9.854525
356055995172250, -0.33020952, 5.8337016, 8.181061, -0.009745121, 0.0017352104, 10.053396
356056004810896, -0.2883351, 5.7559347, 8.126026, 0.009792566, -0.045899868, 9.962131
356056014449542, -0.33140594, 5.8061843, 8.090134, 5.5122375E-4, 0.027745724, 9.96349
356056024088188, -0.30149564, 5.7631135, 8.019546, 0.027704477, 0.018297672, 9.8801
356056033726938, -0.29671, 5.7930236, 8.032705, 0.04045868, 0.030474663, 9.908025
356056043365584, -0.32183465, 5.74756, 8.006385, 0.006226659, 0.021459103, 9.861019
356056053004230, -0.33379877, 5.757131, 7.982456, 0.003089428, 0.04276848, 9.847525
356056062642980, -0.357727, 5.73081, 7.954939, -0.021729708, 0.049452305, 9.810621
356056072281625, -0.33738798, 5.7523456, 7.9740815, 2.272129E-4, 0.04400158, 9.838057
356056081920271, -0.31465617, 5.759524, 8.037491, 0.007812023, 0.0052542686, 9.8930435
356056091559021, -0.32662028, 5.751149, 8.088937, -0.017958045, -0.02235794, 9.930382
356056101197667, -0.3493521, 5.7463636, 8.099705, -0.042425513, -0.020044804, 9.937091
356056110836313, -0.37567315, 5.736792, 8.111669, -0.07151055, -0.018332958, 9.942114
356056120475063, -0.3589234, 5.7487564, 8.153543, -0.062250137, -0.039729595, 9.982576
356056130113709, -0.3385844, 5.771488, 8.161918, -0.037131548, -0.036335945, 10.001945
356056139752355, -0.34576288, 5.7451673, 8.141579, -0.049304485, -0.03979683, 9.970345
356056149391105, -0.3505485, 5.7403817, 8.118847, -0.04993415, -0.028597355, 9.949234
356056159029750, -0.32303107, 5.76431, 8.106883, -0.013024569, -0.01825285, 9.952521
356056168668500, -0.2847459, 5.782256, 8.082955, 0.034502745, -0.011760712, 9.942253
356056178307146, -0.31465617, 5.773881, 8.0614195, 0.010144472, 0.007955074, 9.920838
356056187945792, -0.2955136, 5.7834525, 8.019546, 0.041933537, 0.02677536, 9.891728
356056197584542, -0.29910284, 5.779863, 8.008778, 0.039349318, 0.029955387, 9.88101
356056207223188, -0.27517462, 5.7858453, 8.017152, 0.060305834, 0.017714977, 9.890526
356056216861834, -0.27038896, 5.7930236, 8.025527, 0.062407255, 0.016221046, 9.901373
356056226500584, -0.27158538, 5.797809, 8.031509, 0.060542107, 0.017476082, 9.909062
356056236139230, -0.28594232, 5.802595, 8.021938, 0.051976204, 0.032975674, 9.904523
356056245777875, -0.3062813, 5.7810597, 8.024331, 0.024669409, 0.026733875, 9.894595
356056255416625, -0.30029923, 5.7750773, 8.04467, 0.022020102, 0.010313988, 9.907464
356056265055271, -0.32183465, 5.751149, 8.076973, -0.015137911, -0.012686253, 9.920505
356056274693917, -0.3361916, 5.74756, 8.050652, -0.022390962, 0.00564909, 9.89747
356056284332667, -0.3361916, 5.741578, 8.039884, -0.021747112, 0.008105755, 9.885239
356056293971313, -0.3385844, 5.7427745, 8.04108, -0.023256302, 0.010358334, 9.886984
356056303610063, -0.3481557, 5.7343993, 8.054241, -0.037332535, 0.004231453, 9.8931265
356056313248709, -0.3696911, 5.721239, 8.092526, -0.07115471, -0.015238762, 9.917304
356056322887355, -0.38883367, 5.7009, 8.128419, -0.103993416, -0.0379138, 9.935311
356056332526105, -0.38644084, 5.7152567, 8.159525, -0.10211444, -0.043540955, 9.9689045
356056342164750, -0.32662028, 5.7391853, 8.189436, -0.044887185, -0.066049576, 10.00527
356056351803396, -0.33499518, 5.7607207, 8.199007, -0.0474658, -0.050033092, 10.02582
356056361442146, -0.33499518, 5.7391853, 8.153543, -0.044600487, -0.04151869, 9.976322
356056371080792, -0.34576288, 5.7559347, 8.10449, -0.03510332, 0.0012946129, 9.94645
356056380719542, -0.30987054, 5.7667027, 8.073383, 0.009501219, 0.008242607, 9.926241
356056390358188, -0.30029923, 5.7786665, 8.0614195, 0.02616334, 0.018433094, 9.923137
356056399996834, -0.28713873, 5.7655063, 8.019546, 0.04309988, 0.024615288, 9.8810005
356056409635584, -0.30987054, 5.7607207, 8.013563, 0.02268362, 0.03533125, 9.874076
356056419274230, -0.31106696, 5.7547383, 8.031509, 0.014470577, 0.022416115, 9.885253
356056428912875, -0.27517462, 5.7690954, 8.059027, 0.044428825, 0.0011835098, 9.914843
356056438551625, -0.25603202, 5.79422, 8.042277, 0.074082375, 0.019861698, 9.915184
356056448190271, -0.22731815, 5.81097, 8.021938, 0.10967219, 0.030513287, 9.907451
356056457829021, -0.2620141, 5.7894344, 8.049456, 0.06369305, 0.016711235, 9.9184475
356056467467667, -0.2835495, 5.7870417, 8.103293, 0.029022217, -0.0023050308, 9.961566
356056477106313, -0.30149564, 5.784649, 8.16431, -0.003131628, -0.0259943, 10.010411
356056486745063, -0.32183465, 5.7523456, 8.183454, -0.037932396, -0.04689169, 10.007915
356056496383709, -0.3397808, 5.7427745, 8.153543, -0.04932332, -0.028999329, 9.978574
356056506022459, -0.29671, 5.7655063, 8.116454, 0.007097006, -0.013615608, 9.960207
356056515661105, -0.2739782, 5.7762737, 8.114061, 0.032377362, -0.014947891, 9.96379
356056525299750, -0.27756742, 5.7726846, 8.080562, 0.035806417, 0.0013918877, 9.934542
356056534938500, -0.29910284, 5.7403817, 8.093722, 5.6290627E-4, -0.01821804, 9.927208
356056544577146, -0.3493521, 5.716453, 8.087741, -0.049782276, -0.007605076, 9.91004
356056554215896, -0.37447673, 5.7224355, 8.112865, -0.07409644, -0.0036935806, 9.934766
356056563854542, -0.3505485, 5.733203, 8.142776, -0.05453825, -0.022993565, 9.964625
356056573493188, -0.31465617, 5.751149, 8.096115, -0.0028045177, -0.002755165, 9.935885
356056583131938, -0.3182454, 5.7487564, 8.049456, 0.004958868, 0.02158308, 9.896603
356056592770584, -0.33499518, 5.74756, 8.020741, -0.002541542, 0.04229307, 9.873054
356056602409334, -0.36490545, 5.727221, 8.030313, -0.039281726, 0.03660822, 9.870017
356056612047980, -0.3469593, 5.7152567, 8.0614195, -0.035616636, 0.0030059814, 9.887859
356056621686625, -0.33140594, 5.7463636, 8.092526, -0.016975164, 0.0019154549, 9.930722
356056631325375, -0.31345975, 5.751149, 8.124829, -0.007236004, -0.019633293, 9.959236
356056640964021, -0.33020952, 5.749953, 8.1344, -0.02493143, -0.017865658, 9.966873
356056650602771, -0.3062813, 5.7547383, 8.155936, -0.007508993, -0.036268234, 9.986428
356056660241417, -0.2955136, 5.7726846, 8.13799, 0.013385296, -0.01855278, 9.981863
356056669880167, -0.2955136, 5.7607207, 8.106883, 0.01541698, -0.011176109, 9.9495945
356056679518813, -0.30388847, 5.76431, 8.07458, 0.017015815, 0.012149334, 9.925625
356056689157459, -0.30508488, 5.76431, 8.02792, 0.02553296, 0.03543663, 9.887667
356056698796209, -0.28953153, 5.7786665, 8.009974, 0.049155354, 0.0466671, 9.880885
356056708434855, -0.28713873, 5.784649, 8.009974, 0.053725958, 0.049726486, 9.884276
356056718073605, -0.2883351, 5.790631, 8.001599, 0.05733919, 0.057651043, 9.880969
356056727712250, -0.30508488, 5.7547383, 8.007581, 0.027440786, 0.036314487, 9.865565
356056737350896, -0.31106696, 5.736792, 8.039884, 0.0069265366, 0.00945282, 9.881659
356056746989646, -0.3062813, 5.7355957, 8.073383, 0.0034108162, -0.01035738, 9.908091
356056756628292, -0.32422748, 5.7379885, 8.079366, -0.012861729, -0.0026426315, 9.914918
356056766267042, -0.34217364, 5.733203, 8.105687, -0.03754008, -0.01086235, 9.934151
356056775905688, -0.3278167, 5.729614, 8.087741, -0.021821499, -0.010197639, 9.917004
356056785544334, -0.33260235, 5.712864, 8.105687, -0.03721571, -0.02854395, 9.922068
356056795183084, -0.3397808, 5.723632, 8.130812, -0.044931054, -0.02965355, 9.949001
356056804821730, -0.33738798, 5.7451673, 8.153543, -0.039910793, -0.027348042, 9.979916
356056814460480, -0.33379877, 5.7379885, 8.148758, -0.036971092, -0.02929163, 9.971758
356056824099125, -0.33260235, 5.7523456, 8.122437, -0.023648262, -0.005851269, 9.958589
356056833737875, -0.317049, 5.767899, 8.115258, -0.0015501976, 0.0021767616, 9.961255
356056843376521, -0.29312077, 5.7667027, 8.087741, 0.025941849, 0.0045719147, 9.937386
356056853015271, -0.26799613, 5.7786665, 8.059027, 0.058205366, 0.015199184, 9.920136
356056862653917, -0.28953153, 5.773881, 8.017152, 0.04756248, 0.04376602, 9.883931
356056872292563, -0.3361916, 5.736792, 8.017152, -0.009194016, 0.037730694, 9.863926
356056881931313, -0.32422748, 5.751149, 8.045866, 5.033016E-4, 0.027349949, 9.895254
356056891569959, -0.30508488, 5.7547383, 8.0614195, 0.015057325, 0.012672424, 9.909397
356056901208709, -0.30867413, 5.7607207, 8.0614195, 0.014479399, 0.018860817, 9.912977
356056910847355, -0.2955136, 5.76431, 8.050652, 0.029301167, 0.020858288, 9.905872
356056920486105, -0.29671, 5.7403817, 8.030313, 0.02372861, 0.015100956, 9.875483
356056930124750, -0.33140594, 5.7379885, 8.047063, -0.012784481, 0.021339417, 9.888828
356056939763396, -0.32063824, 5.721239, 8.0817585, -0.019110918, -0.012289047, 9.907054
356056949402146, -0.32063824, 5.729614, 8.117651, -0.024530172, -0.024002075, 9.941144
356056959040792, -0.3361916, 5.7355957, 8.143971, -0.042654276, -0.025705814, 9.966538
