timestamp_acc,device_acc_x,device_acc_y,device_acc_z,earth_acc_x,earth_acc_y,earth_acc_z
356085802801521, -2.6273193, 5.369494, 7.884351, 0.014410734, 0.017856121, 9.894277
356085812440271, -2.6333013, 5.3359947, 7.8867435, -0.01188302, -3.671646E-4, 9.879661
356085822079021, -2.6608188, 5.312066, 7.879565, -0.04675305, 0.005362034, 9.8682995
356085831717771, -2.6811578, 5.2845488, 7.881958, -0.07858658, -0.0010838509, 9.860739
356085841356521, -2.693122, 5.308477, 7.8783684, -0.073319316, 0.020925522, 9.873992
356085850995271, -2.6715865, 5.3180485, 7.9226356, -0.053921938, -0.011371613, 9.908791
356085860634021, -2.672783, 5.3240304, 7.928618, -0.05173886, -0.010635376, 9.91712
356085870272771, -2.6799614, 5.3072805, 7.9190464, -0.06611395, -0.011693478, 9.902333
356085879911521, -2.6895328, 5.312066, 7.941778, -0.07392943, -0.017074585, 9.92561
356085889550271, -2.658426, 5.319245, 7.9537425, -0.046036005, -0.036693573, 9.930768
356085899189021, -2.6488547, 5.3407803, 7.9310107, -0.022690058, -0.015604496, 9.9217205
356085908827771, -2.656033, 5.325227, 7.881958, -0.028964758, 0.008254051, 9.876078
356085918466521, -2.6620152, 5.2941203, 7.830512, -0.045058608, 0.023284435, 9.819797
356085928105271, -2.676372, 5.2893343, 7.798209, -0.05304289, 0.0473485, 9.795256
356085937744021, -2.6596224, 5.3072805, 7.7742805, -0.02532196, 0.06216526, 9.781399
356085947382771, -2.6201408, 5.3240304, 7.7742805, 0.016333103, 0.04997635, 9.779934
356085957021521, -2.6117659, 5.3682976, 7.759924, 0.047855258, 0.07884216, 9.790192
356085966660271, -2.6225336, 5.3706903, 7.7886376, 0.03690374, 0.06934166, 9.817266
356085976299021, -2.6225336, 5.3563333, 7.85444, 0.01585865, 0.02238226, 9.862021
356085985937771, -2.6009982, 5.375476, 7.88794, 0.037047863, 0.0023641586, 9.893391
356085995576521, -2.5734808, 5.413761, 7.9070826, 0.0763675, 5.393028E-4, 9.922083
356086005215271, -2.5423741, 5.4424753, 7.9346, 0.11371207, -0.01677084, 9.951325
356086014854021, -2.5423741, 5.4412785, 7.941778, 0.109455585, -0.021669388, 9.956434
356086024492771, -2.5507488, 5.444868, 7.9776707, 0.09612095, -0.033676147, 9.989284
356086034131521, -2.5674987, 5.4185467, 7.9716887, 0.0645417, -0.033587456, 9.97473
356086043770271, -2.5543382, 5.428118, 7.9130645, 0.083690524, -3.4618378E-4, 9.929688
356086053409021, -2.5519454, 5.424529, 7.8891363, 0.087184906, 0.011267185, 9.9080105
356086063047771, -2.5746772, 5.42094, 7.8891363, 0.06441963, 0.022292614, 9.912083
356086072686521, -2.5866413, 5.407779, 7.9011, 0.042764306, 0.014623642, 9.917668
356086082325271, -2.6045876, 5.3742795, 7.8352976, 0.017670631, 0.043442726, 9.851725
356086091964021, -2.6285157, 5.3611193, 7.8460655, -0.010638118, 0.043231487, 9.859487
356086101602771, -2.6021945, 5.3479586, 7.9130645, -0.007679343, -0.018352985, 9.898903
356086111241521, -2.62373, 5.3539405, 7.948957, -0.025004506, -0.022634983, 9.936468
356086120880271, -2.6153553, 5.325227, 7.9944205, -0.042781353, -0.068909645, 9.955013
356086130519021, -2.6428726, 5.304888, 8.048259, -0.085995555, -0.09421158, 9.99424
356086140157771, -2.6428726, 5.2833524, 8.056634, -0.103456736, -0.10825634, 9.98927
356086149796521, -2.6428726, 5.3072805, 8.066205, -0.09071171, -0.099788666, 10.009871
356086159435375, -2.6428726, 5.3611193, 8.000402, -0.045905113, -0.03161192, 9.986478
356086169074021, -2.5938199, 5.406583, 7.9226356, 0.032951713, 0.010175705, 9.936096
356086178712771, -2.597409, 5.426922, 7.8963146, 0.047685027, 0.038063526, 9.927037
356086188351625, -2.5926232, 5.4173503, 7.84128, 0.055802226, 0.058004856, 9.876668
356086197990375, -2.5722845, 5.4376893, 7.810173, 0.088965416, 0.076104164, 9.857495
356086207629125, -2.5459633, 5.432904, 7.7647095, 0.11238396, 0.08209705, 9.811714
356086217267875, -2.585445, 5.3994045, 7.7443705, 0.064308524, 0.09617329, 9.787746
356086226906625, -2.5926232, 5.3479586, 7.749156, 0.024761677, 0.06251192, 9.765617
356086236545375, -2.5663023, 5.339584, 7.745567, 0.041368246, 0.044772148, 9.751265
356086246184125, -2.5495524, 5.369494, 7.752745, 0.06867993, 0.046998978, 9.768818
356086255822875, -2.5543382, 5.3814583, 7.7682986, 0.070261955, 0.0469141, 9.788975
356086265461625, -2.5878377, 5.365905, 7.810173, 0.025799155, 0.03214121, 9.822777
356086275100375, -2.6309085, 5.3407803, 7.880761, -0.037377954, 0.0018744469, 9.876772
356086284739125, -2.6632116, 5.332405, 7.952546, -0.078973055, -0.024672031, 9.937977
356086294377875, -2.705086, 5.3240304, 8.015956, -0.12589371, -0.041238308, 9.995039
356086304016625, -2.7266214, 5.3036914, 8.026724, -0.15553701, -0.045470238, 9.998282
356086313655375, -2.6883361, 5.3300123, 8.008778, -0.10462797, -0.042540073, 9.988192
356086323294125, -2.650051, 5.345566, 7.9716887, -0.05953288, -0.033933163, 9.956957
356086332932875, -2.6321049, 5.35753, 7.9106717, -0.028501987, -0.0028777122, 9.910045
356086342571625, -2.629712, 5.3587265, 7.8400836, -0.014427662, 0.03618908, 9.853767
356086352210375, -2.5914268, 5.377869, 7.804191, 0.034092784, 0.044945717, 9.825435
356086361849125, -2.565106, 5.3850474, 7.8149586, 0.057083964, 0.027596474, 9.830975
356086371487875, -2.568695, 5.369494, 7.838887, 0.04196453, 0.0065665245, 9.842562
356086381126625, -2.609373, 5.3300123, 7.873583, -0.018251777, -0.01299715, 9.859548
356086390765375, -2.6392834, 5.328816, 7.8759756, -0.04125011, 0.0027251244, 9.868706
356086400404125, -2.6069803, 5.3623157, 7.85444, 0.0076515675, 0.016106129, 9.86117
356086410042875, -2.5902305, 5.377869, 7.8436728, 0.030561566, 0.021194935, 9.856603
356086419681625, -2.589034, 5.4113684, 7.826923, 0.052787304, 0.049556255, 9.861109
356086429320375, -2.5986054, 5.4149575, 7.832905, 0.045066237, 0.053485394, 9.870361
356086438959125, -2.5998018, 5.4029937, 7.8436728, 0.035521388, 0.040670395, 9.872771
356086448597875, -2.5842485, 5.395815, 7.8520474, 0.042141914, 0.02244854, 9.87145
356086458236625, -2.5950162, 5.3850474, 7.893922, 0.022064328, -0.0019626617, 9.901836
356086467875375, -2.6141586, 5.359923, 7.945368, -0.012941718, -0.033892155, 9.93429
356086477514125, -2.6309085, 5.3383875, 7.9836526, -0.044161677, -0.05846119, 9.957582
356086487152875, -2.6321049, 5.3443694, 8.000402, -0.042796493, -0.06489372, 9.974501
356086496791625, -2.6476583, 5.363512, 7.9740815, -0.040374994, -0.02885151, 9.967993
356086506430375, -2.644069, 5.3718867, 7.9633136, -0.03238666, -0.019149303, 9.962993
356086516069125, -2.6392834, 5.369494, 7.9022965, -0.02244258, 0.011246204, 9.911757
356086525707875, -2.6416762, 5.3718867, 7.8628154, -0.018312931, 0.034021854, 9.882207
356086535346625, -2.6249263, 5.395815, 7.8113694, 0.016138792, 0.06950617, 9.849745
356086544985375, -2.5986054, 5.3922257, 7.780263, 0.039729714, 0.069506645, 9.816054
356086554624125, -2.597409, 5.3706903, 7.7551384, 0.032356024, 0.068264484, 9.784035
356086564262875, -2.5998018, 5.3623157, 7.7623167, 0.024461746, 0.058635235, 9.785852
356086573901625, -2.5938199, 5.3312087, 7.795816, 0.005571723, 0.015561104, 9.794087
356086583540375, -2.5758736, 5.355137, 7.8077803, 0.032239676, 0.012355328, 9.8118725
356086593179125, -2.5531418, 5.3850474, 7.8352976, 0.061626673, 0.0013532639, 9.844052
356086602817875, -2.5543382, 5.406583, 7.8699937, 0.06573975, -0.0054535866, 9.883734
356086612456625, -2.5926232, 5.40419, 7.90469, 0.029039621, -0.0053396225, 9.920192
356086622095375, -2.585445, 5.419743, 7.911868, 0.040194392, -0.0042529106, 9.93248
356086631734125, -2.5914268, 5.4484572, 7.9334035, 0.047667623, 0.0032157898, 9.966834
356086641372875, -2.6201408, 5.424529, 7.932207, 0.008654594, 0.0054912567, 9.960445
356086651011625, -2.6476583, 5.383851, 7.91785, -0.03478968, 0.005077839, 9.934137
356086660650375, -2.6895328, 5.326423, 7.885547, -0.09637046, 0.013536453, 9.888214
356086670289125, -2.7206392, 5.2809596, 7.905886, -0.15200055, -0.0068645477, 9.887887
356086679927875, -2.6739793, 5.288138, 7.895118, -0.11167538, -0.024888992, 9.870884
356086689566625, -2.650051, 5.2929235, 7.763513, -0.07182336, 0.039334774, 9.762337
356086699205375, -2.6021945, 5.308477, 7.7216387, -0.020935059, 0.043715477, 9.724851
356086708844125, -2.5459633, 5.3383875, 7.7312098, 0.0395931, 0.023554325, 9.733952
356086718482875, -2.5507488, 5.389833, 7.749156, 0.061015725, 0.04671049, 9.777532
356086728121625, -2.5256243, 5.424529, 7.8149586, 0.091623425, 0.013046265, 9.84222
356086737760375, -2.5627131, 5.4257255, 7.8759756, 0.051928878, 0.0025281906, 9.901225
356086747399125, -2.6081767, 5.4053864, 7.928618, -0.004830003, -0.01178503, 9.944023
356086757037875, -2.6488547, 5.4029937, 7.972885, -0.044847608, -0.014863014, 9.988665
356086766676625, -2.626123, 5.410172, 7.925029, -0.014940023, 0.0050668716, 9.948483
356086776315375, -2.6129622, 5.4125648, 7.90469, -2.6464462E-5, 0.010915279, 9.930128
356086785954125, -2.5902305, 5.428118, 7.8400836, 0.03701389, 0.044910908, 9.881159
356086795592875, -2.5411777, 5.4293146, 7.816155, 0.07842827, 0.030086517, 9.849886
356086805231625, -2.5268207, 5.4317074, 7.7814593, 0.09377551, 0.044555664, 9.819807
356086814870375, -2.5220351, 5.424529, 7.769495, 0.09500086, 0.044757843, 9.805111
356086824509125, -2.5435705, 5.3970113, 7.812566, 0.052554846, 0.015069962, 9.83009
356086834147875, -2.5830522, 5.3563333, 7.8257265, -0.0073120594, 0.005569458, 9.8287525
356086843786625, -2.6117659, 5.3359947, 7.864012, -0.050010324, -0.010724068, 9.855669
356086853425271, -2.5639095, 5.629115, 7.948957, 0.1533668, 0.08109856, 10.07057
356086863064021, -2.78046, 4.9064827, 7.795816, -0.43522847, -0.113405704, 9.611296
356086872702771, -2.5423741, 5.9318075, 8.155936, 0.31975806, 0.1184659, 10.394856
356086882341521, -2.778067, 4.5942197, 7.8053875, -0.6280488, -0.29284716, 9.448196
356086891980271, -2.6548367, 5.962914, 8.228917, 0.25185013, 0.16790628, 10.498951
356086901619021, -2.6572297, 4.7174497, 7.88794, -0.46722937, -0.34158468, 9.54986
356086911257771, -2.7696922, 5.7140603, 8.187042, 0.01793766, 0.12166691, 10.360223
356086920896521, -2.5052853, 5.1661043, 7.993224, -0.082829475, -0.23251963, 9.838486
356086930535271, -2.7397819, 5.3826547, 7.9393854, -0.1241976, 0.05674076, 9.974698
356086940174021, -2.3581266, 5.7463636, 7.972885, 0.3866434, 0.026191235, 10.099415
356086949812771, -2.6775684, 4.9842496, 7.6307116, -0.27664006, -0.041583538, 9.495348
356086959451521, -2.3341985, 6.101698, 7.932207, 0.61337626, 0.25394058, 10.254676
356086969090271, -2.5591238, 4.802395, 7.466803, -0.27284026, -0.13044596, 9.234382
356086978729021, -2.3844478, 6.209375, 7.8556366, 0.6372278, 0.39391375, 10.266047
356086988367771, -2.440679, 4.9088755, 7.450053, -0.10960841, -0.12203121, 9.248264
356086998006521, -2.516053, 5.9377894, 7.8077803, 0.37281036, 0.31628323, 10.114856
356087007645271, -2.382055, 5.235496, 7.7216387, 0.07774758, -0.12608957, 9.6273775
356087017284021, -2.7349963, 5.40419, 7.8496547, -0.124444604, 0.09291315, 9.913548
356087026922771, -2.4179473, 5.6733823, 7.999206, 0.2656237, -0.0065135956, 10.09705
356087036561521, -2.7768707, 4.968696, 7.7742805, -0.40064752, -0.09587002, 9.626457
356087046200167, -2.4562325, 6.017949, 8.140383, 0.41710234, 0.133924, 10.407821
356087055838917, -2.7505496, 4.658826, 7.7419777, -0.5736116, -0.2552662, 9.4241295
356087065477667, -2.5627131, 6.050252, 8.145168, 0.35962558, 0.2069416, 10.4568
356087075116417, -2.603391, 4.729414, 7.6534433, -0.39847493, -0.25379515, 9.353983
356087084755167, -2.650051, 5.8265233, 7.962117, 0.18832195, 0.22813559, 10.211706
356087094393917, -2.498107, 5.0955157, 7.77787, -0.10793722, -0.172503, 9.625938
356087104032667, -2.7816563, 5.3611193, 7.905886, -0.18991494, 0.06562233, 9.946953
356087113671417, -2.489732, 5.5405807, 7.9657063, 0.14377058, -0.03304863, 10.016363
356087123310167, -2.8725836, 4.900501, 7.739585, -0.5074053, -0.05064535, 9.586856
356087132948917, -2.4993033, 5.933004, 8.076973, 0.36246812, 0.13740015, 10.321545
356087142587667, -2.7684958, 4.6612186, 7.661818, -0.5500184, -0.20804739, 9.367454
356087152226417, -2.5555346, 6.0825553, 8.051848, 0.40946412, 0.26155567, 10.398292
356087161865167, -2.6021945, 4.712664, 7.588837, -0.38602793, -0.23021507, 9.293495
356087171503813, -2.6129622, 5.9114685, 7.874779, 0.28933132, 0.29756308, 10.179044
356087181142563, -2.4239295, 5.1158547, 7.5936227, 0.0016577244, -0.10130501, 9.471024
356087190781313, -2.6572297, 5.5274205, 7.668997, 0.058323145, 0.2189784, 9.817097
356087200420063, -2.3353949, 5.6267223, 7.7001033, 0.3628329, 0.07160282, 9.811672
356087210058813, -2.6943183, 5.0392847, 7.5589266, -0.2527206, 0.021407604, 9.472423
356087219697563, -2.382055, 5.9916277, 8.014759, 0.49382007, 0.13370085, 10.273678
356087229336313, -2.7314072, 4.7377887, 7.713264, -0.49728012, -0.21614647, 9.439687
356087238975063, -2.5292134, 6.128019, 8.230113, 0.42054284, 0.16703701, 10.558388
356087248613813, -2.6141586, 4.761717, 7.798209, -0.40264404, -0.318388, 9.489803
356087258252563, -2.6105695, 5.9748783, 8.141579, 0.28295982, 0.19039774, 10.425123
356087267891313, -2.4789643, 5.10748, 7.9034934, -0.09939611, -0.24945927, 9.727524
356087277529959, -2.7074788, 5.576473, 8.042277, -0.021236658, 0.071471214, 10.153824
356087287168709, -2.3581266, 5.5669017, 8.018349, 0.25159347, -0.114406586, 10.038362
356087296807459, -2.713461, 5.117051, 7.7814593, -0.26239097, -0.03779316, 9.696799
356087306446209, -2.3557339, 5.9988065, 8.038688, 0.51273036, 0.1132226, 10.289797
356087316084959, -2.705086, 4.7449675, 7.6534433, -0.4563321, -0.19011307, 9.389516
356087325723709, -2.4789643, 6.135197, 8.065009, 0.4909197, 0.237916, 10.4179
356087335362459, -2.6201408, 4.7222357, 7.5900335, -0.3958125, -0.2088232, 9.304461
356087345001209, -2.6368906, 5.9700923, 7.9130645, 0.29913867, 0.3224125, 10.247848
356087354639959, -2.5148566, 4.9782677, 7.6031938, -0.16022098, -0.13601065, 9.427198
356087364278605, -2.7278178, 5.5501523, 7.792227, -0.008629918, 0.19821072, 9.946085
356087373917355, -2.4335005, 5.4436717, 7.838887, 0.14444435, -0.06013775, 9.847799
356087383556105, -2.8091738, 5.0081778, 7.716853, -0.39313185, -0.023079395, 9.610829
356087393194855, -2.4562325, 5.831309, 8.045866, 0.32741356, 0.04271221, 10.230551
356087402833605, -2.7900312, 4.712664, 7.708478, -0.56174505, -0.19693136, 9.43715
356087412472355, -2.544767, 6.0933228, 8.146365, 0.40940547, 0.19233274, 10.476789
356087422111105, -2.693122, 4.6707897, 7.6893353, -0.50083935, -0.26584387, 9.374089
356087431749855, -2.635694, 5.9988065, 8.031509, 0.2996744, 0.25868368, 10.357654
356087441388605, -2.5627131, 4.961518, 7.668997, -0.21307874, -0.17103863, 9.482775
356087451027250, -2.7708886, 5.5896335, 7.818548, -0.030578494, 0.22009325, 10.000106
356087460666000, -2.4670002, 5.400601, 7.763513, 0.10892856, -0.031694412, 9.773018
356087470304750, -2.7888348, 5.1122656, 7.628319, -0.29669464, 0.06239748, 9.5922985
356087479943500, -2.42034, 5.8600225, 7.836494, 0.40789557, 0.17089796, 10.0704
356087489582250, -2.7397819, 4.74736, 7.500303, -0.45576978, -0.09787226, 9.277988
356087499221000, -2.455036, 6.0825553, 7.9764743, 0.49818528, 0.2277422, 10.312555
356087508859750, -2.605784, 4.6552362, 7.5792656, -0.4234842, -0.2722783, 9.254899
356087518498396, -2.5663023, 6.0430737, 8.005188, 0.38012803, 0.25417328, 10.343046
356087528137146, -2.5268207, 4.942375, 7.719246, -0.21731699, -0.22803926, 9.502601
356087537775896, -2.7361927, 5.682954, 7.9920278, 0.023873568, 0.15122652, 10.179972
356087547414646, -2.4514468, 5.4341, 7.9334035, 0.107263565, -0.113755226, 9.922374
356087557053396, -2.7768707, 5.2426744, 7.850851, -0.25061548, 0.011078358, 9.837153
356087566692146, -2.3665016, 5.892326, 8.008778, 0.43939447, 0.058724403, 10.210966
356087576330896, -2.6955147, 4.82752, 7.6678, -0.41355562, -0.17103004, 9.442755
356087585969542, -2.416751, 6.117251, 8.115258, 0.5120019, 0.15327215, 10.432318
356087595608292, -2.5806592, 4.7174497, 7.652247, -0.39531302, -0.28290558, 9.339953
356087605247042, -2.5088747, 6.096912, 8.031509, 0.44711316, 0.24812889, 10.3783655
356087614885792, -2.4837499, 4.938786, 7.6510506, -0.17360675, -0.21171093, 9.4352665
356087624524542, -2.6811578, 5.7690954, 7.9022965, 0.13671887, 0.23083687, 10.141272
356087634163292, -2.4418755, 5.393422, 7.8257265, 0.102145195, -0.07690334, 9.812105
356087643802042, -2.7433712, 5.2701917, 7.77787, -0.20060062, 0.053550243, 9.785355
356087653440688, -2.3844478, 5.8277197, 7.946564, 0.39247644, 0.07112408, 10.130978
356087663079438, -2.7182465, 4.8358946, 7.655836, -0.42680204, -0.14230871, 9.443735
356087672718188, -2.4418755, 6.0729837, 8.100901, 0.4597212, 0.17070436, 10.403267
356087682356938, -2.652444, 4.642076, 7.68455, -0.4858179, -0.31376457, 9.343564
356087691995688, -2.5627131, 6.0598235, 8.1020975, 0.35961795, 0.21952105, 10.428589
356087701634438, -2.5399811, 4.85743, 7.753942, -0.28872883, -0.288229, 9.487009
356087711273084, -2.7278178, 5.7427745, 8.056634, 0.05021262, 0.15439129, 10.261747
356087720911834, -2.501696, 5.2773705, 7.9094753, -0.026379228, -0.15608072, 9.830762
356087730550584, -2.8103702, 5.298906, 7.8221374, -0.23966837, 0.08462143, 9.853823
356087740189334, -2.4251258, 5.7726846, 7.9274216, 0.33277988, 0.07398987, 10.096184
356087749828084, -2.7505496, 4.8394837, 7.580462, -0.431625, -0.07449007, 9.394558
356087759466834, -2.4131618, 6.0598235, 7.989635, 0.5187409, 0.1792574, 10.299411
356087769105480, -2.6488547, 4.6935215, 7.560123, -0.44160497, -0.20193529, 9.271744
356087778744230, -2.5459633, 6.094519, 7.9860454, 0.43542027, 0.2865801, 10.350378
356087788382980, -2.5387847, 4.8119664, 7.645068, -0.29557824, -0.2522378, 9.375315
356087798021730, -2.676372, 5.788238, 7.966903, 0.14185011, 0.19601107, 10.201944
356087807660480, -2.4514468, 5.2534423, 7.8628154, 0.0135535, -0.17342567, 9.767387
356087817299230, -2.7684958, 5.345566, 7.864012, -0.18068576, 0.057772636, 9.901835
356087826937875, -2.4179473, 5.7200427, 7.954939, 0.30679142, 0.019844532, 10.087215
356087836576625, -2.774478, 4.8765726, 7.6737823, -0.4365542, -0.10071707, 9.495521
356087846215375, -2.4705894, 6.04427, 8.093722, 0.43403268, 0.15784454, 10.389035
356087855854125, -2.7397819, 4.642076, 7.6893353, -0.5615958, -0.2611637, 9.370035
356087865492875, -2.5794628, 6.0753765, 8.118847, 0.37515104, 0.22176695, 10.454166
356087875131625, -2.5914268, 4.7880383, 7.704889, -0.3521763, -0.2667451, 9.423956
356087884770271, -2.6488547, 5.8540406, 7.9776707, 0.2049011, 0.21110582, 10.239283
356087894409021, -2.4622145, 5.186443, 7.7874413, -0.023634553, -0.16737843, 9.673537
356087904047771, -2.7589245, 5.3814583, 7.810173, -0.13853621, 0.10146141, 9.876287
356087913686521, -2.416751, 5.690132, 7.8592257, 0.31034172, 0.053618908, 9.994326
356087923325271, -2.7625136, 4.9256253, 7.6019974, -0.38642251, -0.033535957, 9.462198
356087932963917, -2.4299114, 6.0358953, 8.024331, 0.4873693, 0.1555605, 10.318171
356087942602667, -2.7110682, 4.6839504, 7.617551, -0.50128675, -0.20939445, 9.328518
356087952241417, -2.5495524, 6.0933228, 8.076973, 0.41137612, 0.22794008, 10.423298
356087961880167, -2.626123, 4.755735, 7.6594253, -0.39556992, -0.24879026, 9.378804
356087971518917, -2.684747, 5.861219, 7.960921, 0.18709612, 0.24724627, 10.239233
356087981157667, -2.475375, 5.1661043, 7.7407813, -0.041460514, -0.14846611, 9.628709
356087990796313, -2.7493532, 5.4580283, 7.818548, -0.085525036, 0.13304329, 9.922383
356088000435063, -2.4095724, 5.6410794, 7.8783684, 0.27924585, 0.0071401596, 9.980906
356088010073813, -2.7732813, 4.9531426, 7.6366935, -0.38215482, -0.042752266, 9.507677
356088019712563, -2.4275186, 5.989235, 8.020741, 0.45324266, 0.14861345, 10.289246
356088029351313, -2.7086751, 4.6911287, 7.6666036, -0.49061406, -0.24820662, 9.371133
356088038989959, -2.5220351, 6.1184473, 8.1344, 0.44144285, 0.21108818, 10.474977
356088048628709, -2.6141586, 4.746164, 7.6953177, -0.3843304, -0.28540754, 9.399396
356088058267459, -2.6428726, 5.928218, 8.018349, 0.24782848, 0.2239275, 10.310717
356088067906209, -2.4789643, 5.1529436, 7.798209, -0.054230213, -0.18190384, 9.668201
356088077544959, -2.7433712, 5.5094743, 7.885547, -0.06528866, 0.119199276, 10.002188
356088087183605, -2.4119651, 5.608776, 7.884351, 0.25445378, -0.012279034, 9.968651
356088096822355, -2.766103, 5.022535, 7.6893353, -0.3459344, -0.02615738, 9.5855465
356088106461105, -2.4179473, 5.9964137, 8.048259, 0.46212125, 0.12146711, 10.312594
356088116099855, -2.7361927, 4.705486, 7.665407, -0.51500237, -0.21460342, 9.384857
356088125738605, -2.5208387, 6.131608, 8.123632, 0.4551568, 0.21461344, 10.473368
356088135377250, -2.5938199, 4.74736, 7.652247, -0.36633015, -0.2651863, 9.360432
356088145016000, -2.609373, 5.966503, 7.9633136, 0.3029784, 0.26020718, 10.279243
356088154654750, -2.4729822, 5.078766, 7.6666036, -0.07407665, -0.15335703, 9.521413
356088164293500, -2.7098715, 5.568098, 7.804191, 0.004094124, 0.1810441, 9.960911
356088173932250, -2.4143581, 5.548956, 7.8197446, 0.22506142, -0.0046896935, 9.885231
356088183570896, -2.7960134, 4.999803, 7.6630144, -0.38163102, -0.02400446, 9.559879
356088193209646, -2.4670002, 5.8971114, 8.008778, 0.35964966, 0.119039536, 10.240069
356088202848396, -2.7828526, 4.6755753, 7.708478, -0.5655631, -0.24459219, 9.415211
356088212487146, -2.5459633, 6.0933228, 8.178668, 0.39126885, 0.17504263, 10.503209
356088222125896, -2.6368906, 4.682754, 7.704889, -0.44347727, -0.31627798, 9.378166
356088231764646, -2.626123, 5.9521465, 8.055437, 0.26604128, 0.2064805, 10.348974
356088241403292, -2.5028925, 5.035695, 7.780263, -0.15266407, -0.22732258, 9.595842
356088251042042, -2.71705, 5.615955, 7.9334035, 0.0119895935, 0.13782835, 10.091633
356088260680792, -2.4131618, 5.5310097, 7.881958, 0.20434129, -0.05623007, 9.924503
356088270319542, -2.7732813, 5.109873, 7.7096744, -0.30321443, 0.018375397, 9.651356
356088279958292, -2.408376, 5.9270215, 7.966903, 0.43757498, 0.11167765, 10.207714
356088289596938, -2.71705, 4.7449675, 7.635497, -0.47192812, -0.18146276, 9.377752
356088299235688, -2.4705894, 6.1292152, 8.098508, 0.49206316, 0.18592691, 10.43936
356088308874438, -2.6249263, 4.7174497, 7.6331043, -0.41420436, -0.25678968, 9.336559
356088318513188, -2.6009982, 6.020342, 7.9716887, 0.3409518, 0.2803526, 10.313229
356088328151938, -2.5196424, 4.971089, 7.6809607, -0.18284857, -0.19314575, 9.486134
356088337790584, -2.7038896, 5.643472, 7.926225, 0.040914893, 0.15146399, 10.097536
356088347429334, -2.4179473, 5.465207, 7.8592257, 0.16560519, -0.07524729, 9.871642
356088357068084, -2.7649066, 5.17089, 7.7240314, -0.2627828, 0.03086853, 9.693991
356088366706834, -2.388037, 5.9150577, 7.9597244, 0.44753468, 0.10090065, 10.190062
356088376345584, -2.7182465, 4.7916274, 7.60798, -0.43785262, -0.13933277, 9.381832
356088385984230, -2.4586253, 6.142376, 8.087741, 0.5098388, 0.20582819, 10.434694
356088395622980, -2.6392834, 4.7007003, 7.643872, -0.44415796, -0.25984478, 9.339507
356088405261730, -2.62373, 6.005985, 8.04467, 0.3081689, 0.24495697, 10.369068
356088414900480, -2.5531418, 4.924429, 7.704889, -0.24230385, -0.21496391, 9.488358
356088424539230, -2.7290142, 5.6781683, 7.9166536, 0.045523524, 0.19295168, 10.115494
356088434177980, -2.4562325, 5.4017973, 7.8424764, 0.10064137, -0.07874107, 9.833647
356088443816625, -2.7828526, 5.1661043, 7.733603, -0.2823087, 0.034611702, 9.70364
356088453455375, -2.4299114, 5.797809, 7.9357963, 0.34728086, 0.077022076, 10.117775
356088463094125, -2.7684958, 4.7605205, 7.643872, -0.5039433, -0.15439415, 9.4062805
356088472732875, -2.4909284, 6.064609, 8.103293, 0.43819773, 0.1731596, 10.412761
356088482371625, -2.6919255, 4.615755, 7.690532, -0.532043, -0.30381536, 9.344548
356088492010271, -2.62373, 6.005985, 8.129615, 0.29703772, 0.20763683, 10.436239
356088501649021, -2.5842485, 4.880162, 7.7814593, -0.29847932, -0.26226187, 9.533497
356088511287771, -2.7433712, 5.7056856, 8.033902, 0.035977483, 0.15384054, 10.227393
356088520926521, -2.4466612, 5.35753, 7.899904, 0.07641542, -0.13430738, 9.852608
356088530565271, -2.7529426, 5.2845488, 7.8149586, -0.19300663, 0.050589085, 9.825421
356088540203917, -2.3449662, 5.8863435, 7.9573317, 0.46804368, 0.075410366, 10.160823
356088549842667, -2.713461, 4.863412, 7.6366935, -0.39684677, -0.11416435, 9.44268
356088559481417, -2.4311078, 6.1184473, 8.023134, 0.5301876, 0.21602535, 10.362848
356088569120167, -2.6153553, 4.7114677, 7.585248, -0.39959598, -0.22720337, 9.293154
356088578758917, -2.4945176, 6.1292152, 7.966903, 0.49354017, 0.29309654, 10.340792
356088588397667, -2.469393, 4.9088755, 7.585248, -0.17400157, -0.20366573, 9.36265
356088598036313, -2.6344976, 5.7930236, 7.895118, 0.18224561, 0.21946907, 10.136626
356088607675063, -2.4251258, 5.3012986, 7.8077803, 0.06788576, -0.12727308, 9.742979
356088617313813, -2.7409782, 5.2809596, 7.818548, -0.19698632, 0.028803349, 9.823014
356088626952563, -2.3724837, 5.7894344, 8.001599, 0.36894882, 0.01736641, 10.150636
356088636591313, -2.7242286, 4.8693943, 7.725228, -0.4113109, -0.16750526, 9.519156
356088646229959, -2.4825535, 6.068198, 8.147561, 0.42629158, 0.16390514, 10.447978
356088655868709, -2.725425, 4.633701, 7.732406, -0.5613096, -0.31134033, 9.3955965
356088665507459, -2.597409, 6.070591, 8.145168, 0.3407774, 0.22542572, 10.477377
356088675146209, -2.6045876, 4.831109, 7.759924, -0.34863818, -0.2794714, 9.494224
356088684784959, -2.7349963, 5.791827, 8.031509, 0.08088875, 0.20708418, 10.270403
356088694423709, -2.5256243, 5.198407, 7.853244, -0.07832873, -0.15428114, 9.74914
356088704062355, -2.8139594, 5.2642097, 7.8376904, -0.26347756, 0.05053997, 9.848232
356088713701105, -2.440679, 5.663811, 7.9393854, 0.26349628, 0.01590395, 10.049869
356088723339855, -2.7768707, 4.843073, 7.649854, -0.44738793, -0.10882521, 9.459105
356088732978605, -2.428715, 6.053841, 8.043473, 0.48572683, 0.18007231, 10.3429575
356088742617355, -2.6512475, 4.6911287, 7.611569, -0.441687, -0.2446022, 9.312189
356088752256105, -2.4825535, 6.142376, 8.025527, 0.5046761, 0.26439953, 10.391167
356088761894750, -2.536392, 4.833502, 7.617551, -0.27404785, -0.22824335, 9.364611
356088771533500, -2.6488547, 5.8672013, 7.9501534, 0.21044779, 0.23792982, 10.224701
356088781172250, -2.4705894, 5.235496, 7.7347994, 0.0057257414, -0.098985195, 9.660824
356088790811000, -2.7361927, 5.424529, 7.804191, -0.10055995, 0.11818838, 9.889064
356088800449750, -2.4023938, 5.7080784, 7.895118, 0.31651044, 0.03488636, 10.029213
356088810088396, -2.772085, 4.901697, 7.635497, -0.41988873, -0.070819855, 9.4779
356088819727146, -2.4729822, 5.99761, 8.051848, 0.41008592, 0.14997768, 10.330953
356088829365896, -2.7158537, 4.6576295, 7.6809607, -0.53282034, -0.26276398, 9.365552
356088839004646, -2.5459633, 6.0933228, 8.146365, 0.39632368, 0.19192266, 10.477589
356088848643396, -2.605784, 4.752146, 7.7204423, -0.3845495, -0.2953105, 9.420357
356088858282146, -2.6895328, 5.875576, 8.02792, 0.17204523, 0.22034836, 10.301715
356088867920792, -2.495714, 5.17089, 7.830512, -0.06484544, -0.17647314, 9.708155
356088877559542, -2.7601209, 5.4412785, 7.9106717, -0.1289047, 0.079931736, 9.989071
356088887198292, -2.4059832, 5.651847, 7.96451, 0.26857674, -0.03168583, 10.054474
356088896837042, -2.7613173, 4.996214, 7.7180495, -0.36663342, -0.053060055, 9.592607
356088906475792, -2.4119651, 6.0346985, 8.050652, 0.48183322, 0.13601112, 10.334287
356088916114542, -2.6979074, 4.7007003, 7.658229, -0.4855733, -0.22358322, 9.366856
356088925753292, -2.5172493, 6.1160545, 8.088937, 0.44663155, 0.21627474, 10.436826
356088935391938, -2.5950162, 4.755735, 7.6271224, -0.36758518, -0.22817993, 9.345424
356088945030688, -2.6404798, 5.9353967, 7.9680996, 0.2665162, 0.2551322, 10.274024
356088954669438, -2.4586253, 5.1421757, 7.749156, -0.046915054, -0.16278553, 9.618083
356088964308188, -2.6871397, 5.5537415, 7.861619, 0.011280417, 0.1325903, 9.992605
356088973946938, -2.3629124, 5.6446686, 7.8520474, 0.31616867, 0.00198555, 9.94989
356088983585688, -2.7242286, 5.0273204, 7.6534433, -0.31378067, -0.026607037, 9.548372
356088993224438, -2.3772693, 5.989235, 8.001599, 0.4888928, 0.124837875, 10.261254
356089002863084, -2.7026932, 4.727021, 7.6678, -0.47946966, -0.21346474, 9.389834
356089012501834, -2.5232315, 6.131608, 8.147561, 0.44102907, 0.20828438, 10.493243
356089022140584, -2.652444, 4.7174497, 7.713264, -0.45818734, -0.27368927, 9.407413
356089031779334, -2.6991038, 5.905486, 8.079366, 0.17830372, 0.2225852, 10.361214
356089041418084, -2.5806592, 5.020142, 7.836494, -0.23020172, -0.21797895, 9.652552
356089051056834, -2.7996025, 5.4927244, 7.946564, -0.13161635, 0.11602926, 10.056089
356089060695584, -2.4634109, 5.508278, 7.9011, 0.14967763, -0.043319702, 9.9404545
356089070334230, -2.78046, 5.028517, 7.716853, -0.3604157, -0.02145195, 9.614385
356089079972980, -2.4107687, 5.9270215, 8.007581, 0.42527485, 0.111206055, 10.2405815
356089089611730, -2.7206392, 4.7114677, 7.6630144, -0.49333394, -0.2093234, 9.382666
356089099250480, -2.4993033, 6.084948, 8.123632, 0.44247913, 0.18400192, 10.442072
356089108889230, -2.626123, 4.6971107, 7.6749787, -0.42554355, -0.28269672, 9.359683
356089118527980, -2.635694, 5.9844494, 8.009974, 0.29296207, 0.27252388, 10.332478
356089128166730, -2.5136602, 5.0344987, 7.706085, -0.14856732, -0.16853952, 9.539284
356089137805375, -2.7098715, 5.608776, 7.880761, 0.02630806, 0.17259884, 10.043789
356089147444125, -2.4143581, 5.5477595, 7.879565, 0.21795845, -0.030621529, 9.932062
356089157082875, -2.7290142, 5.144569, 7.7180495, -0.2462331, 0.009723663, 9.665489
356089166721625, -2.4323041, 5.9030933, 8.059027, 0.3872987, 0.08130264, 10.273944
356089176360375, -2.8031917, 4.698307, 7.7814593, -0.58779347, -0.23952055, 9.49106
356089185999125, -2.5208387, 6.070591, 8.215756, 0.40562904, 0.13771963, 10.512938
356089195637875, -2.6189444, 4.686343, 7.7072816, -0.4380622, -0.30806255, 9.377424
356089205276625, -2.585445, 6.0227346, 8.04108, 0.3461461, 0.24684572, 10.365138
356089214915271, -2.4849463, 5.0213385, 7.7144604, -0.11907649, -0.19647837, 9.531469
356089224554021, -2.6943183, 5.6685967, 7.9034934, 0.0671072, 0.18731785, 10.090488
356089234192771, -2.4323041, 5.4699926, 7.826923, 0.16418266, -0.034484386, 9.852386
356089243831521, -2.7876384, 5.1493545, 7.6713896, -0.28316498, 0.07245302, 9.646324
356089253470271, -2.4095724, 5.9030933, 7.9166536, 0.42872643, 0.1491065, 10.154798
356089263109021, -2.7397819, 4.7988057, 7.5613194, -0.44036758, -0.09647131, 9.354424
356089272747771, -2.4514468, 6.1040907, 8.048259, 0.49556434, 0.2118969, 10.380439
356089282386521, -2.6404798, 4.6552362, 7.623533, -0.4643755, -0.26594448, 9.299206
356089292025271, -2.5914268, 6.0011992, 8.009974, 0.3362435, 0.2585864, 10.330036
356089301664021, -2.5268207, 4.9172506, 7.719246, -0.21906257, -0.23909664, 9.489246
356089311302667, -2.7014968, 5.690132, 7.989635, 0.05569458, 0.15025902, 10.172722
356089320941417, -2.4035904, 5.45085, 7.932207, 0.159626, -0.11739826, 9.918148
356089330580167, -2.7469604, 5.2737813, 7.8376904, -0.20723867, 0.025556564, 9.835871
356089340218917, -2.3976083, 5.910272, 8.068598, 0.41585898, 0.07482958, 10.276359
356089349857667, -2.7397819, 4.816752, 7.7240314, -0.45103085, -0.18507862, 9.493707
356089359496417, -2.4514468, 6.151947, 8.148758, 0.5103359, 0.19954586, 10.486088
356089369135167, -2.6213372, 4.7210393, 7.6893353, -0.40768838, -0.27877617, 9.383048
356089378773917, -2.5471597, 6.0634127, 8.023134, 0.3935771, 0.27092218, 10.363174
356089388412667, -2.5004997, 4.901697, 7.628319, -0.19595683, -0.20122814, 9.401676
356089398051417, -2.6739793, 5.733203, 7.90469, 0.12379432, 0.21124172, 10.121459
356089407690167, -2.4191437, 5.352744, 7.8376904, 0.101177335, -0.114115715, 9.793379
356089417328813, -2.7672994, 5.2259245, 7.765906, -0.23460245, 0.052504063, 9.7580595
356089426967563, -2.3952155, 5.7858453, 7.954939, 0.364712, 0.048709393, 10.11725
356089436606313, -2.7553353, 4.813163, 7.6773715, -0.45892084, -0.13740253, 9.458909
356089446245063, -2.4598217, 6.0777693, 8.127222, 0.46737874, 0.16630554, 10.430514
356089455883813, -2.6919255, 4.642076, 7.719246, -0.5269332, -0.29262972, 9.381833
356089465522563, -2.589034, 6.0215383, 8.154739, 0.33287144, 0.18891382, 10.455397
356089475161313, -2.6009982, 4.822734, 7.7671022, -0.34968233, -0.2694764, 9.495101
356089484800063, -2.7481568, 5.7080784, 8.073383, 0.028907418, 0.15097332, 10.26111
356089494438813, -2.5040889, 5.2426744, 7.969296, -0.051113248, -0.19884586, 9.860205
356089504077563, -2.8019953, 5.241478, 7.9106717, -0.27260196, 0.0065584183, 9.890837
356089513716313, -2.4095724, 5.7750773, 7.9920278, 0.3449279, 0.038690567, 10.144438
356089523355063, -2.7302105, 4.8969116, 7.664211, -0.38580477, -0.08869648, 9.487741
356089532993813, -2.388037, 6.1268225, 8.073383, 0.5554688, 0.18056726, 10.396109
356089542632563, -2.6213372, 4.727021, 7.618747, -0.3974402, -0.22505283, 9.330212
356089552271209, -2.4945176, 6.1447687, 8.024331, 0.49969685, 0.2800579, 10.394353
356089561909959, -2.4993033, 4.8849473, 7.5864444, -0.19999135, -0.18595552, 9.358889
356089571548709, -2.603391, 5.849255, 7.9130645, 0.24342072, 0.23661566, 10.173141
356089581187459, -2.4227328, 5.2929235, 7.7671022, 0.07293677, -0.106338024, 9.705458
356089590826209, -2.7278178, 5.369494, 7.757531, -0.11502123, 0.12086582, 9.819567
356089600464959, -2.3832514, 5.73081, 7.874779, 0.35233438, 0.061781406, 10.020291
356089610103709, -2.774478, 4.8586264, 7.5996046, -0.43718922, -0.05164814, 9.426779
356089619742459, -2.4705894, 6.0215383, 8.084151, 0.42461276, 0.14797688, 10.368898
356089629381209, -2.7589245, 4.6408796, 7.733603, -0.5898974, -0.25200176, 9.409918
356089639019959, -2.664408, 6.0119667, 8.203793, 0.25296295, 0.18432474, 10.509379
356089648658709, -2.7062824, 4.6875396, 7.810173, -0.5319983, -0.29187202, 9.483016
356089658297459, -2.7696922, 5.7403817, 8.139186, 0.023398995, 0.13522911, 10.336861
356089667936209, -2.5375884, 5.127819, 7.962117, -0.1416403, -0.23783827, 9.800641
356089677574959, -2.800799, 5.3503513, 7.928618, -0.20091772, 0.0583086, 9.964435
356089687213709, -2.4346972, 5.6709895, 7.960921, 0.27415252, 0.007915974, 10.069206
356089696852459, -2.757728, 4.9363933, 7.685746, -0.38331795, -0.063625336, 9.533769
356089706491209, -2.4155545, 6.067002, 8.02792, 0.5216603, 0.1891346, 10.333589
356089716129959, -2.6452653, 4.74736, 7.587641, -0.39288986, -0.19249058, 9.322861
356089725768709, -2.4634109, 6.1675005, 8.025527, 0.5403507, 0.26723337, 10.399622
356089735407459, -2.5531418, 4.8095737, 7.5625157, -0.28328586, -0.1906972, 9.312656
356089745046209, -2.638087, 5.9030933, 7.897511, 0.26429808, 0.28826904, 10.1992035
356089754684959, -2.4478576, 5.174479, 7.726424, -0.008948684, -0.13984203, 9.614845
356089764323709, -2.6895328, 5.521438, 7.8029947, 0.00627923, 0.15304232, 9.9289055
356089773962459, -2.3425734, 5.73081, 7.8400836, 0.3945756, 0.054243088, 9.98189
356089783601209, -2.6955147, 5.0081778, 7.652247, -0.29792285, -0.044966698, 9.529625
356089793239959, -2.3904297, 6.0358953, 8.084151, 0.5018455, 0.10275507, 10.355543
356089802878709, -2.6955147, 4.7174497, 7.7623167, -0.49252963, -0.27101088, 9.458207
356089812517459, -2.5208387, 6.142376, 8.2348995, 0.43291998, 0.15400505, 10.568152
356089822156209, -2.6189444, 4.7581277, 7.771888, -0.40676486, -0.29827785, 9.468182
356089831794959, -2.6129622, 5.8420763, 8.092526, 0.20597291, 0.1347456, 10.31435
356089841433709, -2.6572297, 5.276174, 7.905886, -0.14436936, -0.062235832, 9.86799
356089851072459, -2.652444, 5.4029937, 7.9393854, -0.069497705, -0.010284901, 9.962767
356089860711209, -2.6608188, 5.352744, 7.9154572, -0.099304914, -0.021214962, 9.918466
356089870349959, -2.6488547, 5.3587265, 7.8592257, -0.07590735, 0.0063915253, 9.873905
356089879988709, -2.6368906, 5.3336015, 7.7994056, -0.07191849, 0.01851368, 9.809471
356089889627459, -2.603391, 5.35753, 7.810173, -0.033197045, 0.0055594444, 9.822345
356089899266209, -2.5782664, 5.393422, 7.8077803, 0.008437157, 0.013896942, 9.833496
356089908904959, -2.5519454, 5.4233327, 7.77787, 0.050646782, 0.03371954, 9.819191
356089918543709, -2.5674987, 5.4341, 7.769495, 0.045711517, 0.052423, 9.82251
356089928182459, -2.5746772, 5.447261, 7.8113694, 0.0406363, 0.039317608, 9.8648815
356089937821209, -2.5794628, 5.4484572, 7.8604226, 0.030540824, 0.013708591, 9.905779
356089947459959, -2.6045876, 5.4341, 7.864012, 0.0018162727, 0.01782465, 9.907354
356089957098709, -2.589034, 5.428118, 7.867601, 0.009868026, 0.003590107, 9.902858
356089966737459, -2.5866413, 5.428118, 7.847262, 0.014497399, 0.014539242, 9.8860655
356089976376209, -2.5722845, 5.4496536, 7.8460655, 0.038103938, 0.019980907, 9.893142
356089986014959, -2.5507488, 5.4699926, 7.84128, 0.06697559, 0.022890568, 9.894838
356089995653709, -2.5663023, 5.4460645, 7.8424764, 0.039653897, 0.016785622, 9.886765
356090005292459, -2.5878377, 5.4412785, 7.8699937, 0.015625596, 0.009926796, 9.9116535
356090014931209, -2.5950162, 5.4293146, 7.8987074, -0.0012210608, -0.009315968, 9.929808
356090024569959, -2.6009982, 5.4317074, 7.9537425, -0.011221051, -0.03491783, 9.976437
356090034208709, -2.6021945, 5.4376893, 7.966903, -0.010161042, -0.037325382, 9.990494
356090043847459, -2.617748, 5.4173503, 7.989635, -0.037896037, -0.05366516, 10.0015135
356090053486209, -2.644069, 5.38744, 7.952546, -0.07117832, -0.03494501, 9.962546
356090063124959, -2.629712, 5.375476, 7.925029, -0.062408328, -0.033488274, 9.930367
356090072763709, -2.609373, 5.3826547, 7.8987074, -0.03502345, -0.02582407, 9.908052
356090082402459, -2.5962126, 5.393422, 7.867601, -0.012354732, -0.008589268, 9.885759
356090092041209, -2.5986054, 5.3850474, 7.8628154, -0.018508554, -0.009434223, 9.878002
356090101679959, -2.6129622, 5.3886366, 7.881958, -0.02952826, -0.011440754, 9.8989525
356090111318709, -2.6165516, 5.389833, 7.8783684, -0.030842781, -0.0070471764, 9.897694
356090120957459, -2.5914268, 5.413761, 7.865208, 0.0049169064, 1.296997E-4, 9.893723
356090130596209, -2.5746772, 5.4556355, 7.8149586, 0.048618555, 0.042380333, 9.872301
356090140234959, -2.5316064, 5.4867425, 7.8017983, 0.103098035, 0.044721127, 9.867562
356090149873709, -2.5292134, 5.4903316, 7.773084, 0.11046612, 0.06059265, 9.846097
356090159512459, -2.5387847, 5.4759746, 7.7874413, 0.09180784, 0.047367096, 9.852173
356090169151209, -2.5746772, 5.4436717, 7.836494, 0.03722918, 0.018948078, 9.882885
356090178790063, -2.5902305, 5.419743, 7.893922, 0.0024086237, -0.019362926, 9.919503
356090188428813, -2.5950162, 5.4149575, 7.9298143, -0.009027123, -0.039703846, 9.946667
356090198067563, -2.6045876, 5.413761, 7.90469, -0.012725115, -0.019993782, 9.928557
356090207706313, -2.626123, 5.4053864, 7.867601, -0.02861607, 0.008777142, 9.90015
356090217345063, -2.6165516, 5.4149575, 7.8293157, -0.009642124, 0.031179905, 9.872448
356090226983813, -2.6129622, 5.4053864, 7.8149586, -0.009974599, 0.031270504, 9.854859
356090236622563, -2.6153553, 5.3994045, 7.8149586, -0.01529634, 0.028275967, 9.852217
356090246261313, -2.62373, 5.363512, 7.7994056, -0.04071331, 0.020440578, 9.822416
356090255900063, -2.6189444, 5.375476, 7.806584, -0.029434443, 0.020335674, 9.833415
356090265538813, -2.6141586, 5.369494, 7.8400836, -0.033384204, -0.004767418, 9.855509
356090275177563, -2.605784, 5.3814583, 7.914261, -0.030765414, -0.046028614, 9.918803
356090284816313, -2.6344976, 5.383851, 7.982456, -0.061354637, -0.067260265, 9.981871
356090294455063, -2.6333013, 5.393422, 7.989635, -0.055372834, -0.06480789, 9.992512
356090304093813, -2.6273193, 5.419743, 8.014759, -0.03791964, -0.065338135, 10.025322
356090313732667, -2.6009982, 5.456832, 7.969296, 0.011532187, -0.0312829, 10.002538
356090323371417, -2.5782664, 5.456832, 7.899904, 0.03886187, -0.0037441254, 9.9414
356090333010167, -2.5986054, 5.436493, 7.861619, 0.016158938, 0.017845154, 9.905184
356090342648917, -2.5866413, 5.4376893, 7.816155, 0.032213807, 0.0371747, 9.86656
356090352287667, -2.585445, 5.4257255, 7.797013, 0.028208494, 0.037230015, 9.844505
356090361926417, -2.57707, 5.432904, 7.780263, 0.04162264, 0.046619415, 9.832921
356090371565167, -2.5998018, 5.4185467, 7.756335, 0.018143892, 0.063782215, 9.812031
356090381203917, -2.5842485, 5.4029937, 7.812566, 0.012616992, 0.012086868, 9.844113
356090390842667, -2.6009982, 5.4221363, 7.8173513, 0.010312557, 0.029325962, 9.862798
356090400481417, -2.5734808, 5.430511, 7.7946196, 0.04061103, 0.031980038, 9.842087
356090410120167, -2.5722845, 5.4257255, 7.795816, 0.038080573, 0.028027534, 9.840105
356090419758917, -2.603391, 5.424529, 7.8293157, 0.007700324, 0.025166988, 9.874241
356090429397771, -2.6404798, 5.4017973, 7.893922, -0.045446873, -0.0038466454, 9.922876
356090439036521, -2.6321049, 5.40419, 7.941778, -0.045104623, -0.03491831, 9.960011
356090448675271, -2.62373, 5.410172, 7.958528, -0.037324667, -0.045145035, 9.9744
356090458314021, -2.6129622, 5.432904, 7.9704924, -0.017898083, -0.04385805, 9.993525
356090467952771, -2.6021945, 5.4376893, 7.984849, -0.01061821, -0.054909706, 10.004726
356090477591521, -2.609373, 5.4376893, 7.945368, -0.0097955465, -0.02774334, 9.975235
356090487230271, -2.6009982, 5.4317074, 7.9011, 8.547306E-5, -0.010567665, 9.934582
356090496869021, -2.5902305, 5.447261, 7.873583, 0.022458792, 0.0075039864, 9.918402
356090506507771, -2.5998018, 5.436493, 7.8317084, 0.014537811, 0.029571056, 9.881751
356090516146521, -2.6021945, 5.406583, 7.7479596, 0.0061303377, 0.060981274, 9.799473
356090525785375, -2.5627131, 5.416154, 7.757531, 0.04176104, 0.039067745, 9.801952
356090535424125, -2.5663023, 5.4185467, 7.7623167, 0.037408233, 0.03719759, 9.808025
356090545062875, -2.568695, 5.406583, 7.798209, 0.023040533, 0.0103292465, 9.830605
356090554701625, -2.5734808, 5.4089756, 7.8221374, 0.01632607, 5.559921E-4, 9.852177
356090564340375, -2.5998018, 5.4185467, 7.8520474, -0.0030534267, 0.0039582253, 9.888085
356090573979125, -2.617748, 5.4233327, 7.8867435, -0.01956141, -0.0037169456, 9.9229765
356090583617875, -2.6476583, 5.42094, 7.8831544, -0.043934584, 0.014217854, 9.926664
356090593256625, -2.6344976, 5.4185467, 7.8699937, -0.03273046, 0.013703823, 9.911448
356090602895480, -2.603391, 5.444868, 7.8664045, 0.008030891, 0.014187813, 9.914853
356090612534230, -2.5674987, 5.456832, 7.861619, 0.0430429, 0.0039515495, 9.908191
356090622172980, -2.5722845, 5.4233327, 7.87119, 0.01819539, -0.018712997, 9.898694
356090631811730, -2.5926232, 5.3922257, 7.8376904, -0.012680292, -0.006301403, 9.860376
356090641450480, -2.6213372, 5.4017973, 7.84128, -0.030031085, 0.013485432, 9.876001
356090651089230, -2.5926232, 5.413761, 7.880761, -0.0058460236, -0.01842308, 9.906388
356090660727980, -2.5866413, 5.4185467, 7.877172, 0.0028158426, -0.016417027, 9.9045925
356090670366730, -2.5914268, 5.424529, 7.899904, -8.263588E-4, -0.022983074, 9.927182
356090680005480, -2.5830522, 5.4723854, 7.8903327, 0.035192013, 0.0070233345, 9.943603
356090689644334, -2.568695, 5.4664035, 7.891529, 0.043424726, -0.004122734, 9.93751
356090699283084, -2.5986054, 5.4436717, 7.9094753, 0.003702879, -0.01202631, 9.947159
356090708921834, -2.6009982, 5.4233327, 7.9011, -0.008328438, -0.01743555, 9.929991
356090718560584, -2.603391, 5.426922, 7.8831544, -0.0038905144, -0.0030531883, 9.918328
356090728199334, -2.5926232, 5.436493, 7.8400836, 0.018036008, 0.02197504, 9.886519
356090737838084, -2.5806592, 5.4221363, 7.836494, 0.019224405, 0.0077695847, 9.872669
356090747476834, -2.5938199, 5.4233327, 7.8436728, 0.008505344, 0.011513233, 9.882481
356090757115688, -2.6321049, 5.4017973, 7.844869, -0.035992622, 0.01884985, 9.881686
356090766754438, -2.605784, 5.413761, 7.844869, -0.008806944, 0.009854317, 9.881332
356090776393188, -2.6129622, 5.4173503, 7.7994056, -0.0047678947, 0.042393684, 9.849069
356090786031938, -2.605784, 5.4221363, 7.818548, 0.0015892982, 0.029687881, 9.865012
356090795670688, -2.5950162, 5.42094, 7.826923, 0.007933855, 0.018055439, 9.868182
