timestamp_acc,device_acc_x,device_acc_y,device_acc_z,earth_acc_x,earth_acc_y,earth_acc_z
516343905434943, -1.6366907, 5.84088, 7.756335, 0.048023403, 0.014445305, 9.846463
516343915072963, -1.6630118, 5.866005, 7.8592257, 0.034817517, -0.026544094, 9.946915
516343924710984, -1.6857436, 5.8947186, 7.9274216, 0.022592962, -0.041769505, 10.021537
516343934349109, -1.7347964, 5.895915, 8.005188, -0.019877195, -0.08118248, 10.091948
516343943987130, -1.8017955, 5.8672013, 8.000402, -0.09221023, -0.09329796, 10.082648
516343953625255, -1.7587247, 5.8468623, 7.921439, -0.058415055, -0.06712961, 10.00101
516343963263276, -1.7096717, 5.85763, 7.7874413, -0.017818332, 0.017690659, 9.8933525
516343972901297, -1.6773686, 5.8420763, 7.628319, -4.8357248E-4, 0.09283686, 9.753259
516343982539422, -1.6331015, 5.8683977, 7.5230346, 0.04042226, 0.16952753, 9.678367
516343992177443, -1.6366907, 5.85763, 7.513463, 0.03357476, 0.16746664, 9.665067
516344001815568, -1.6594225, 5.8540406, 7.594819, 0.0154854655, 0.11487913, 9.7309475
516344011453588, -1.7048861, 5.845666, 7.8029947, -0.016114414, -0.012506008, 9.897714
516344021091609, -1.7347964, 5.845666, 7.9501534, -0.033043206, -0.09617758, 10.01878
516344030729734, -1.7324036, 5.8743796, 8.049456, -0.017579138, -0.1308465, 10.113647
516344040367755, -1.7527425, 5.861219, 8.076973, -0.038042426, -0.15390348, 10.13106
516344050005880, -1.7395821, 5.85763, 7.999206, -0.030016482, -0.11055422, 10.065393
516344059643901, -1.7108682, 5.8731833, 7.836494, -0.010908842, -0.0037698746, 9.9414215
516344069281922, -1.6582261, 5.8803616, 7.7108707, 0.032260597, 0.073495865, 9.837655
516344078920047, -1.6079768, 5.8564334, 7.5960155, 0.06731731, 0.112773895, 9.7244835
516344088558068, -1.5972091, 5.869594, 7.5254273, 0.07526231, 0.16189289, 9.674885
516344098196193, -1.6331015, 5.861219, 7.539784, 0.03953141, 0.15040302, 9.6873665
516344107834213, -1.6187445, 5.8827543, 7.59123, 0.05948925, 0.1328721, 9.738209
516344117472234, -1.6067804, 5.9066825, 7.685746, 0.081552446, 0.092924595, 9.824768
516344127110359, -1.6402799, 5.8863435, 7.8281193, 0.054401577, -0.005180359, 9.930561
516344136748380, -1.7419748, 5.861219, 7.9776707, -0.042140305, -0.09865141, 10.050875
516344146386505, -1.7706888, 5.8636117, 8.051848, -0.06474829, -0.13898373, 10.115632
516344156024526, -1.7647067, 5.8504515, 8.049456, -0.060028136, -0.14224815, 10.1050415
516344165662547, -1.7467605, 5.834898, 7.9633136, -0.050539732, -0.103018284, 10.02489
516344175300672, -1.7371893, 5.8193445, 7.8556366, -0.051503897, -0.051066875, 9.929168
516344184938693, -1.7036897, 5.8133626, 7.753942, -0.028479934, 0.0016345978, 9.839744
516344194576818, -1.7001005, 5.7894344, 7.6833534, -0.035346985, 0.025156498, 9.769338
516344204214838, -1.7048861, 5.788238, 7.6666036, -0.040684223, 0.03293276, 9.75625
516344213852859, -1.707279, 5.812166, 7.7790666, -0.028889477, -0.01667118, 9.859455
516344223490984, -1.719243, 5.8624153, 7.8077803, -0.026236951, 0.0057497025, 9.913851
516344233129005, -1.7156538, 5.905486, 7.844869, -0.01014781, 0.016170979, 9.96794
516344242767130, -1.727618, 5.9246287, 7.9130645, -0.012445629, -0.009303093, 10.035049
516344252405151, -1.7060826, 5.907879, 7.9022965, 0.0068230033, -0.019566536, 10.012974
516344262043172, -1.6247265, 5.916254, 7.798209, 0.08081043, 0.040795803, 9.92198
516344271681297, -1.6115661, 5.9174504, 7.7443705, 0.090438545, 0.07015991, 9.878034
516344281319318, -1.6211374, 5.8875403, 7.713264, 0.06853539, 0.0622344, 9.837535
516344290957443, -1.6235301, 5.8803616, 7.6666036, 0.059556782, 0.083067894, 9.796983
516344300595463, -1.5972091, 5.858826, 7.647461, 0.08011937, 0.07565403, 9.764652
516344310233588, -1.6067804, 5.858826, 7.658229, 0.06936383, 0.06761551, 9.774799
516344319871609, -1.6737795, 5.8480587, 7.678568, 0.0035099983, 0.052191257, 9.795868
516344329509630, -1.7324036, 5.831309, 7.757531, -0.04902792, -0.0029873848, 9.858107
516344339147755, -1.8137596, 5.8480587, 7.85444, -0.117969334, -0.041920662, 9.958217
516344348785776, -1.7635103, 5.8827543, 7.9357963, -0.053575635, -0.067029476, 10.034254
516344358423901, -1.7240287, 5.9150577, 7.989635, -0.003087461, -0.07504654, 10.089045
516344368061922, -1.7706888, 5.8803616, 7.9944205, -0.053414285, -0.099871635, 10.080275
516344377699943, -1.7694924, 5.8265233, 7.946564, -0.06679559, -0.11211157, 10.010511
516344387338068, -1.7048861, 5.8420763, 7.87119, -0.009643137, -0.05848503, 9.949303
516344396976088, -1.6271194, 5.8504515, 7.757531, 0.05676222, 0.009531975, 9.85146
516344406614213, -1.6007984, 5.845666, 7.6199436, 0.068565786, 0.08461857, 9.735813
516344416252234, -1.6127625, 5.849255, 7.530213, 0.049696267, 0.14324713, 9.669329
516344425890255, -1.6462619, 5.8863435, 7.521838, 0.021697521, 0.17472887, 9.690525
516344435528380, -1.6546369, 5.910272, 7.554141, 0.02258575, 0.17424011, 9.731563
516344445166401, -1.6905292, 5.933004, 7.635497, 0.0010611415, 0.14356661, 9.815224
516344454804526, -1.7443677, 5.919843, 7.789834, -0.042734444, 0.044247627, 9.938062
516344464442547, -1.7682959, 5.9066825, 7.944171, -0.05633664, -0.057275295, 10.055802
516344474080672, -1.7611175, 5.877969, 8.032705, -0.04725063, -0.1288948, 10.107303
516344483718693, -1.7060826, 5.837291, 8.026724, -5.2547455E-4, -0.16220856, 10.069096
516344493356713, -1.692922, 5.8169518, 7.9561353, -7.622242E-4, -0.1311779, 9.99929
516344502994838, -1.6713866, 5.802595, 7.836494, 0.0077424645, -0.071455, 9.892881
516344512632859, -1.6450655, 5.8217373, 7.7156568, 0.027048647, 0.0156059265, 9.804553
516344522270984, -1.625923, 5.849255, 7.648658, 0.044938445, 0.075938225, 9.764814
516344531909005, -1.6570296, 5.8707905, 7.6462646, 0.0183416, 0.095858574, 9.780991
516344541547130, -1.6534405, 5.8935223, 7.6331043, 0.025380373, 0.11955881, 9.783497
516344551185151, -1.68694, 5.910272, 7.706085, 0.0017827153, 0.090239525, 9.856606
516344560823172, -1.7264216, 5.8971114, 7.8077803, -0.03109014, 0.021791935, 9.935616
516344570461297, -1.719243, 5.885147, 7.9346, -0.017225564, -0.06436062, 10.027173
516344580099318, -1.6905292, 5.8707905, 8.007581, 0.013439298, -0.1233654, 10.071246
516344589737443, -1.6689938, 5.8432727, 7.9740815, 0.027891457, -0.124492645, 10.024923
516344599375463, -1.666601, 5.8468623, 7.877172, 0.021984637, -0.061665058, 9.950322
516344609013484, -1.7024933, 5.8540406, 7.7407813, -0.022393584, 0.02911377, 9.853255
516344618651609, -1.7180467, 5.8480587, 7.618747, -0.04771489, 0.10065842, 9.756248
516344628289630, -1.6977077, 5.8600225, 7.5756764, -0.02629751, 0.13161802, 9.725992
516344637927755, -1.7048861, 5.8863435, 7.6259255, -0.023708135, 0.11946249, 9.7824135
516344647565776, -1.7216359, 5.907879, 7.733603, -0.028487146, 0.07060099, 9.882808
516344657203797, -1.707279, 5.8935223, 7.8352976, -0.010452926, -0.003909588, 9.951893
516344666841922, -1.6917256, 5.8731833, 7.9357963, 0.008071125, -0.082211494, 10.0163
516344676479943, -1.6594225, 5.8767724, 7.9357963, 0.040420234, -0.082828045, 10.012916
516344686118068, -1.6307086, 5.8803616, 7.8783684, 0.06426144, -0.047097206, 9.964949
516344695756088, -1.6331015, 5.85763, 7.813762, 0.053431153, -0.024271488, 9.901024
516344705394109, -1.6438692, 5.8624153, 7.719246, 0.03451258, 0.03738022, 9.831297
516344715032234, -1.6809579, 5.8564334, 7.6797643, -0.007822633, 0.05899191, 9.802995
516344724670255, -1.7120646, 5.8600225, 7.696514, -0.0376755, 0.0532732, 9.823599
516344734308380, -1.727618, 5.8624153, 7.733603, -0.049836636, 0.033628464, 9.856855
516344743946401, -1.7395821, 5.861219, 7.77787, -0.05776602, 0.0068206787, 9.893024
516344753584422, -1.7240287, 5.864808, 7.8113694, -0.038062274, -0.01236248, 9.918879
516344763222547, -1.7431713, 5.869594, 7.8293157, -0.05354649, -0.017809391, 9.939104
516344772860568, -1.7527425, 5.852844, 7.8352976, -0.06582868, -0.032899857, 9.935509
516344782498693, -1.713261, 5.852844, 7.8376904, -0.025971651, -0.03831482, 9.930674
516344792136713, -1.6677973, 5.8839507, 7.818548, 0.02246052, -0.0053710938, 9.926308
516344801774734, -1.5888343, 5.8971114, 7.783852, 0.09956986, 0.018716812, 9.8933525
516344811412859, -1.5744773, 5.8672013, 7.7503524, 0.10158402, 0.015376091, 9.846851
516344821050880, -1.6067804, 5.866005, 7.7180495, 0.06687671, 0.036763668, 9.826202
516344830689005, -1.6402799, 5.8731833, 7.702496, 0.0325827, 0.05349493, 9.8239155
516344840327026, -1.6809579, 5.901897, 7.68455, -0.00387609, 0.08888435, 9.833736
516344849965047, -1.7228323, 5.8971114, 7.6893353, -0.042725444, 0.08143711, 9.841824
516344859603172, -1.7359928, 5.8935223, 7.726424, -0.053046405, 0.05699587, 9.871112
516344869241193, -1.7407784, 5.8683977, 7.8293157, -0.05071652, -0.02523899, 9.937977
516344878879318, -1.7491534, 5.861219, 7.920243, -0.05324197, -0.08522177, 10.006677
516344888517338, -1.7144574, 5.858826, 7.9334035, -0.019461155, -0.09600401, 10.009722
516344898155359, -1.6618153, 5.84088, 7.9011, 0.025735319, -0.093101025, 9.964716
516344907793484, -1.6271194, 5.844469, 7.8173513, 0.052776754, -0.041226864, 9.895042
516344917431505, -1.625923, 5.8432727, 7.739585, 0.046595633, 0.005806923, 9.832926
516344927069630, -1.6474584, 5.837291, 7.702496, 0.020344615, 0.02486229, 9.803852
516344936707651, -1.7264216, 5.7284174, 7.68455, -0.077965975, -0.044075012, 9.738562
516344946345672, -1.6151553, 6.068198, 7.716853, 0.0950107, 0.19111347, 9.946659
516344955983797, -1.8137596, 5.5393844, 7.668997, -0.193856, -0.17791557, 9.629059
516344965621818, -1.5744773, 6.4761744, 7.8520474, 0.21737617, 0.42787457, 10.288057
516344975259838, -1.8137596, 5.2462635, 7.7886376, -0.22845137, -0.49062777, 9.548978
516344984897963, -1.5768701, 6.570691, 7.928618, 0.23498553, 0.44831753, 10.405156
516344994535984, -1.7395821, 5.2223353, 7.706085, -0.16687214, -0.4552369, 9.457673
516345004174109, -1.6582261, 6.385247, 7.783852, 0.109084964, 0.39895487, 10.195019
516345013812130, -1.6402799, 5.528617, 7.6534433, -0.028799176, -0.1891489, 9.5809555
516345023450151, -1.7144574, 5.942575, 7.713264, -0.0277915, 0.099411964, 9.886221
516345033088276, -1.5900307, 6.0251274, 7.716853, 0.11070132, 0.15303802, 9.91688
516345042726297, -1.8424734, 5.511867, 7.732406, -0.22702098, -0.23550844, 9.667394
516345052364318, -1.6474584, 6.4259253, 7.928618, 0.14797759, 0.33878946, 10.331165
516345062002443, -1.8927227, 5.194818, 7.9011, -0.3066253, -0.58534, 9.620773
516345071640463, -1.6390835, 6.558727, 8.060223, 0.1813336, 0.36555958, 10.512096
516345081278588, -1.719243, 5.1816573, 7.783852, -0.1501025, -0.5431042, 9.49085
516345090916609, -1.5625132, 6.411568, 7.8113694, 0.21546137, 0.4016142, 10.215647
516345100554630, -1.6175481, 5.501099, 7.6103725, -0.011905134, -0.18683815, 9.526872
516345110192755, -1.7252251, 6.013163, 7.6534433, -0.032737374, 0.19210863, 9.882904
516345119830776, -1.585245, 5.986842, 7.5816584, 0.092053115, 0.20342875, 9.787083
516345129468797, -1.7886349, 5.511867, 7.5589266, -0.18044949, -0.14701271, 9.521718
516345139106922, -1.5529419, 6.4175506, 7.7671022, 0.2078299, 0.4255538, 10.183328
516345148744943, -1.8376877, 5.231907, 7.7587276, -0.2525869, -0.48331165, 9.521051
516345158383068, -1.585245, 6.5814586, 8.018349, 0.22734457, 0.40186787, 10.483767
516345168021088, -1.7623138, 5.194818, 7.880761, -0.16922063, -0.58791304, 9.582483
516345177659109, -1.6462619, 6.4618177, 7.9884386, 0.14668572, 0.3439517, 10.399066
516345187297234, -1.692922, 5.485546, 7.7383885, -0.07581395, -0.2716689, 9.631215
516345196935255, -1.7371893, 6.0514483, 7.7001033, -0.040192604, 0.19535828, 9.944328
516345206573276, -1.5924234, 5.9557357, 7.578069, 0.08142328, 0.18065262, 9.76701
516345216211401, -1.8065811, 5.558527, 7.533802, -0.19735253, -0.094815254, 9.532638
516345225849422, -1.5050855, 6.398408, 7.664211, 0.2452898, 0.46794987, 10.082951
516345235487443, -1.7419748, 5.2259245, 7.6678, -0.1677388, -0.4404149, 9.429625
516345245125568, -1.5349957, 6.6053867, 7.914261, 0.26766163, 0.47941017, 10.407756
516345254763588, -1.7862421, 5.1720862, 7.813762, -0.2126888, -0.5623956, 9.520214
516345264401713, -1.6809579, 6.474978, 8.007581, 0.110503435, 0.34621048, 10.427859
516345274039734, -1.6689938, 5.465207, 7.8963146, -0.053615272, -0.38396025, 9.73938
516345283677755, -1.7324036, 6.0658054, 7.8628154, -0.011564255, 0.110238075, 10.080021
516345293315880, -1.6319051, 5.8767724, 7.704889, 0.043562472, 0.04460287, 9.826547
516345302953901, -1.8125632, 5.5704913, 7.641479, -0.19154036, -0.14197302, 9.6255455
516345312591922, -1.544567, 6.32423, 7.706085, 0.21371597, 0.38562107, 10.078243
516345322230047, -1.8053846, 5.241478, 7.6678, -0.24736625, -0.41067886, 9.449752
516345331868068, -1.570888, 6.5814586, 7.940582, 0.24691886, 0.44182253, 10.42017
516345341506088, -1.7694924, 5.2008, 7.8029947, -0.22407895, -0.5290499, 9.525547
516345351144213, -1.6474584, 6.503692, 7.9298143, 0.15342909, 0.39737463, 10.37847
516345360782234, -1.7001005, 5.424529, 7.769495, -0.1046437, -0.34598398, 9.620305
516345370420255, -1.7503498, 6.161518, 7.8077803, -0.011846125, 0.21570921, 10.096672
516345380058380, -1.6450655, 5.8624153, 7.6893353, 0.027525008, 0.04322815, 9.808027
516345389696401, -1.8065811, 5.621937, 7.6343007, -0.17841822, -0.103922844, 9.649343
516345399334422, -1.5086746, 6.3086767, 7.647461, 0.23672271, 0.4008746, 10.017107
516345408972547, -1.7383857, 5.2773705, 7.55773, -0.18124574, -0.33053207, 9.372824
516345418610568, -1.4703895, 6.580262, 7.7647095, 0.33250827, 0.52979374, 10.264568
516345428248588, -1.7431713, 5.176872, 7.6917286, -0.20974514, -0.49117374, 9.418922
516345437886713, -1.6474584, 6.5539412, 7.9190464, 0.17280051, 0.42959452, 10.400248
516345447524734, -1.7491534, 5.377869, 7.82453, -0.15951139, -0.406538, 9.644355
516345457162755, -1.8137596, 6.1507506, 7.984849, -0.064704746, 0.10183859, 10.240347
516345466800880, -1.6737795, 5.832505, 7.893922, 0.0074153543, -0.100511074, 9.9560795
516345476438901, -1.8293129, 5.704489, 7.812566, -0.17650706, -0.13502789, 9.84248
516345486076922, -1.5625132, 6.2991056, 7.737192, 0.19508106, 0.34633827, 10.090904
516345495715047, -1.8137596, 5.276174, 7.578069, -0.2525468, -0.33100557, 9.401145
516345505353068, -1.5661024, 6.573084, 7.725228, 0.23439264, 0.56318474, 10.245249
516345514991088, -1.7587247, 5.163711, 7.568498, -0.21478528, -0.42281914, 9.317419
516345524629213, -1.5720844, 6.5312095, 7.7706914, 0.2205581, 0.5008693, 10.257303
516345534267234, -1.6749759, 5.352744, 7.7108707, -0.07967168, -0.37179852, 9.527348
516345543905255, -1.6761723, 6.239285, 7.893922, 0.08294964, 0.21395016, 10.198018
516345553543380, -1.6438692, 5.7750773, 7.897511, 0.03604573, -0.15487385, 9.919638
516345563181401, -1.8065811, 5.7260246, 7.897511, -0.13514704, -0.18116426, 9.9182
516345572819422, -1.5613167, 6.233303, 7.899904, 0.19096869, 0.196877, 10.179638
516345582457547, -1.8089739, 5.3132625, 7.7994056, -0.21659386, -0.4424014, 9.596418
516345592095568, -1.5421742, 6.5455666, 7.880761, 0.25269377, 0.45351028, 10.346963
516345601733588, -1.7551354, 5.156533, 7.6390862, -0.20973653, -0.47870207, 9.367647
516345611371713, -1.605584, 6.541977, 7.719246, 0.19052547, 0.552897, 10.228399
516345621009734, -1.7048861, 5.308477, 7.519445, -0.14340478, -0.2932186, 9.355324
516345630647755, -1.7108682, 6.224928, 7.676175, 0.019912183, 0.3313079, 10.024487
516345640285776, -1.6917256, 5.7343993, 7.692925, -0.040436864, -0.06490946, 9.742717
516345649923901, -1.8640088, 5.7834525, 7.7886376, -0.19084018, -0.06516123, 9.876491
516345659561922, -1.6378871, 6.212964, 7.8687973, 0.114946246, 0.19897938, 10.156219
516345669199943, -1.8436699, 5.355137, 7.8723865, -0.23732722, -0.45444345, 9.684432
516345678838068, -1.5194423, 6.562316, 8.002795, 0.31303918, 0.3721733, 10.448969
516345688476088, -1.7503498, 5.151747, 7.816155, -0.19339609, -0.5817771, 9.503717
516345698114109, -1.564906, 6.550352, 7.879565, 0.25188416, 0.44513273, 10.352875
516345707752234, -1.6450655, 5.2737813, 7.6366935, -0.088540554, -0.39526415, 9.416689
516345717390255, -1.6163517, 6.29432, 7.7204423, 0.13267976, 0.34991837, 10.0844555
516345727028276, -1.6187445, 5.7116675, 7.629515, 0.02187562, -0.046514988, 9.66697
516345736666401, -1.8329022, 5.831309, 7.6869426, -0.16415292, 0.022369862, 9.819639
516345746304422, -1.6438692, 6.1627145, 7.6869426, 0.08706105, 0.26549625, 9.984608
516345755942443, -1.875973, 5.367101, 7.672586, -0.27838647, -0.33613157, 9.5395565
516345765580463, -1.5816557, 6.558727, 7.8927255, 0.22729558, 0.44319963, 10.371382
516345775218588, -1.7910278, 5.1816573, 7.793423, -0.21698415, -0.5543041, 9.510019
516345784856609, -1.5864414, 6.5850477, 7.9346, 0.22803265, 0.43980646, 10.420754
516345794494630, -1.666601, 5.255835, 7.7216387, -0.086740375, -0.46026897, 9.476586
516345804132755, -1.6127625, 6.3278193, 7.806584, 0.14898652, 0.32741642, 10.171316
516345813770776, -1.5672989, 5.6554365, 7.6713896, 0.068112254, -0.124106884, 9.65767
516345823408797, -1.7347964, 5.895915, 7.704889, -0.054816306, 0.05297041, 9.855499
516345833046922, -1.6019948, 6.1531434, 7.676175, 0.122024775, 0.26262522, 9.963301
516345842684943, -1.8747765, 5.4352965, 7.649854, -0.27326345, -0.26098776, 9.562152
516345852322963, -1.6450655, 6.503692, 7.8580294, 0.15734845, 0.4252758, 10.322174
516345861960984, -1.9034904, 5.1661043, 7.752745, -0.33754516, -0.530231, 9.487986
516345871599109, -1.6594225, 6.5886374, 7.938189, 0.17131114, 0.44055128, 10.438162
516345881237130, -1.7718852, 5.2426744, 7.763513, -0.19648618, -0.4924302, 9.5192585
516345890875151, -1.6881363, 6.3601227, 7.9106717, 0.100942016, 0.292902, 10.285122
516345900513276, -1.6223338, 5.581259, 7.769495, 0.007554531, -0.24291945, 9.699917
516345910151297, -1.7324036, 5.912665, 7.8484583, -0.031126857, -0.016890049, 9.977869
516345919789318, -1.5529419, 6.101698, 7.8520474, 0.18026423, 0.11006832, 10.062424
516345929427338, -1.8041883, 5.454439, 7.7623167, -0.19234782, -0.32116556, 9.64984
516345939065463, -1.5577276, 6.5072813, 7.879565, 0.25006545, 0.4066701, 10.326221
516345948703484, -1.869991, 5.206782, 7.733603, -0.31142288, -0.4819212, 9.491408
516345958341505, -1.6307086, 6.602994, 7.8257265, 0.18402815, 0.51864815, 10.35364
516345967979630, -1.707279, 5.206782, 7.5349984, -0.1607402, -0.3836255, 9.307447
516345977617651, -1.6079768, 6.384051, 7.6869426, 0.163522, 0.4216256, 10.110702
516345987255672, -1.6606189, 5.554938, 7.6893353, -0.05108434, -0.22064638, 9.6275425
516345996893693, -1.8376877, 5.9676995, 7.8831544, -0.13407034, 0.002919674, 10.055679
516346006531818, -1.6761723, 6.067002, 7.928618, 0.04492557, 0.039025307, 10.1231165
516346016169838, -1.9166509, 5.4987063, 8.023134, -0.30134463, -0.43427134, 9.899525
516346025807859, -1.707279, 6.4965134, 8.219346, 0.1145975, 0.20037222, 10.612439
516346035445984, -1.8185452, 5.163711, 7.9011, -0.27197236, -0.63087606, 9.587826
516346045084005, -1.4799608, 6.617351, 7.832905, 0.3312965, 0.4968276, 10.342987
516346054722026, -1.7347964, 5.2331033, 7.6941214, -0.1703775, -0.47592068, 9.451924
516346064360047, -1.6319051, 6.4606214, 7.509874, 0.120534, 0.5723009, 10.022919
516346073998172, -1.4715859, 5.5405807, 7.210771, 0.09093696, 0.010391235, 9.21143
516346083636193, -1.4727824, 6.101698, 7.4033933, 0.19916224, 0.32634974, 9.698652
516346093274213, -1.3651053, 6.070591, 7.3399835, 0.28950846, 0.33620787, 9.612185
516346102912338, -1.6378871, 5.5501523, 7.3028946, -0.071647346, -0.036063194, 9.317333
516346112550359, -1.4177474, 6.4462643, 7.5086775, 0.32132363, 0.52118206, 9.978462
516346122188380, -1.7778672, 5.2606206, 7.554141, -0.24067134, -0.39756393, 9.363974
516346131826505, -1.5314065, 6.650851, 7.8520474, 0.27812594, 0.48851538, 10.388344
516346141464526, -1.7778672, 5.2331033, 7.8604226, -0.22000247, -0.59860945, 9.587789
516346151102547, -1.7515461, 6.474978, 8.195417, 0.05710548, 0.17646646, 10.58885
516346160740568, -1.7922242, 5.4999027, 8.149954, -0.15752465, -0.55413246, 9.977517
516346170378693, -1.8592232, 6.050252, 8.220542, -0.12397051, -0.16062021, 10.372964
516346180016713, -1.6558332, 5.9641104, 8.013563, 0.044961512, -0.1090703, 10.125002
516346189654734, -1.8340986, 5.5740805, 7.763513, -0.21697634, -0.24471998, 9.726227
516346199292859, -1.5361922, 6.413961, 7.6031938, 0.21107674, 0.48432636, 10.051279
516346208930880, -1.7455641, 5.288138, 7.34118, -0.20644915, -0.22056913, 9.2094
516346218568901, -1.5134603, 6.6568327, 7.483553, 0.27570766, 0.72992134, 10.0994425
516346228206922, -1.7467605, 5.2331033, 7.3830543, -0.21919411, -0.30321884, 9.209019
516346237845047, -1.585245, 6.5347986, 7.6678, 0.19542402, 0.5215616, 10.183394
516346247483068, -1.6235301, 5.505885, 7.733603, -0.023715615, -0.30887556, 9.626175
516346257121088, -1.7060826, 6.117251, 8.006385, 0.027086556, 0.004504204, 10.219242
516346266759213, -1.6235301, 5.9318075, 8.026724, 0.07613212, -0.14944887, 10.110506
516346276397234, -1.8879371, 5.5872407, 8.01117, -0.2504071, -0.37716627, 9.937578
516346286035255, -1.6342978, 6.3565335, 8.003992, 0.14545691, 0.19820452, 10.347941
516346295673276, -1.861616, 5.2534423, 7.7850485, -0.2895943, -0.50291777, 9.556907
516346305311401, -1.5613167, 6.6388865, 7.818548, 0.2645014, 0.526978, 10.35831
516346314949422, -1.7455641, 5.2008, 7.578069, -0.20046026, -0.42873192, 9.343365
516346324587443, -1.6067804, 6.5168524, 7.6402826, 0.16950625, 0.53841114, 10.154133
516346334225568, -1.6498512, 5.419743, 7.48116, -0.07664716, -0.2122755, 9.381495
516346343863588, -1.6845472, 6.1447687, 7.643872, 0.023105085, 0.25407696, 9.947842
516346353501609, -1.5756737, 5.8480587, 7.643872, 0.08248955, 0.012553215, 9.752145
516346363139630, -1.8221345, 5.6183476, 7.751549, -0.18544477, -0.21680546, 9.741207
516346372777755, -1.5577276, 6.35773, 7.921439, 0.20726097, 0.24198866, 10.271072
516346382415776, -1.7886349, 5.3383875, 7.885547, -0.18011504, -0.5159416, 9.673717
516346392053797, -1.579263, 6.6448684, 7.993224, 0.23787099, 0.43912792, 10.501932
516346401691922, -1.820938, 5.2019963, 7.816155, -0.24093229, -0.582881, 9.543117
516346411329943, -1.6426728, 6.576673, 7.85444, 0.15297168, 0.47293186, 10.363213
516346420967963, -1.6354942, 5.4125648, 7.587641, -0.054265976, -0.28955984, 9.45813
516346430605984, -1.6378871, 6.1878395, 7.68455, 0.08335847, 0.2624321, 9.997426
516346440244109, -1.5493526, 5.8217373, 7.6534433, 0.10620034, -0.008182049, 9.739454
516346449882130, -1.7790636, 5.703293, 7.6666036, -0.13861698, -0.10246372, 9.718012
516346459520151, -1.5684953, 6.2931237, 7.725228, 0.16674542, 0.31509972, 10.08046
516346469158276, -1.8664017, 5.2749777, 7.6749787, -0.29700273, -0.43046284, 9.4837055
516346478796297, -1.5876378, 6.580262, 7.8496547, 0.22437012, 0.4627471, 10.352443
516346488434318, -1.7898313, 5.1996036, 7.745567, -0.23644406, -0.5380964, 9.480914
516346498072443, -1.6283158, 6.5958157, 7.8831544, 0.19905508, 0.4587283, 10.394724
516346507710463, -1.7264216, 5.3886366, 7.698907, -0.14686018, -0.3632655, 9.5466
516346517348484, -1.707279, 6.24766, 7.795816, 0.05392295, 0.24136591, 10.132209
516346526986505, -1.6187445, 5.8037915, 7.797013, 0.046646208, -0.11180735, 9.853073
516346536624630, -1.7802601, 5.753542, 7.8029947, -0.12240654, -0.13063478, 9.855315
516346546262651, -1.5278172, 6.24766, 7.818548, 0.22754014, 0.21006632, 10.119352
516346555900672, -1.7994026, 5.2893343, 7.722835, -0.22887504, -0.44335794, 9.518831
516346565538797, -1.5326029, 6.5694947, 7.8664045, 0.27302802, 0.44877052, 10.349468
516346575176818, -1.774278, 5.1649075, 7.678568, -0.21197051, -0.5299468, 9.405264
516346584814838, -1.6366907, 6.5742803, 7.8293157, 0.15720314, 0.4774561, 10.341442
516346594452963, -1.7407784, 5.3419766, 7.6402826, -0.14601964, -0.36270714, 9.4756565
516346604090984, -1.7264216, 6.3110695, 7.753942, 0.033987105, 0.32815218, 10.140263
516346613729005, -1.6570296, 5.7786665, 7.726424, 0.013020396, -0.08348322, 9.78924
516346623367130, -1.7970098, 5.800202, 7.8197446, -0.11179447, -0.11412144, 9.899216
516346633005151, -1.5517455, 6.2512493, 7.7994056, 0.19888419, 0.23945045, 10.110385
516346642643172, -1.8041883, 5.352744, 7.751549, -0.20100373, -0.41589785, 9.5801935
516346652281193, -1.5828521, 6.5778694, 7.925029, 0.22479326, 0.42334938, 10.409136
516346661919318, -1.7730815, 5.1649075, 7.7300134, -0.20232868, -0.557055, 9.445738
516346671557338, -1.5613167, 6.6077795, 7.786245, 0.23257875, 0.5323124, 10.314487
516346681195359, -1.7563318, 5.3240304, 7.63789, -0.1716752, -0.3731737, 9.465656
516346690833484, -1.7587247, 6.270392, 7.798209, -0.008299112, 0.28118467, 10.155975
516346700471505, -1.6079768, 5.7284174, 7.6510506, 0.040373027, -0.065579414, 9.691904
516346710109526, -1.7204394, 5.8947186, 7.668997, -0.041167736, 0.05830288, 9.824258
516346719747651, -1.5900307, 6.209375, 7.698907, 0.1381312, 0.27930546, 10.013023
516346729385672, -1.8364913, 5.345566, 7.68455, -0.23709899, -0.3779602, 9.528957
516346739023693, -1.564906, 6.5718875, 7.928618, 0.24310368, 0.4173174, 10.405209
516346748661818, -1.8017955, 5.1326046, 7.880761, -0.21836591, -0.66286707, 9.550362
516346758299838, -1.6342978, 6.538388, 7.960921, 0.17114592, 0.3775568, 10.422374
516346767937859, -1.7994026, 5.229514, 7.7551384, -0.2058242, -0.50799894, 9.509333
516346777575984, -1.7706888, 6.34098, 7.885547, 0.004305482, 0.28729868, 10.26853
516346787214005, -1.6905292, 5.6733823, 7.7156568, -0.03500104, -0.13974667, 9.72398
516346796852026, -1.8735801, 5.8624153, 7.7850485, -0.17520547, -0.02921009, 9.92238
516346806490151, -1.6019948, 6.1734824, 7.8987074, 0.15227473, 0.13031483, 10.150255
516346816128172, -1.7407784, 5.416154, 7.792227, -0.11540544, -0.39093065, 9.639381
516346825766193, -1.4931214, 6.4965134, 7.8113694, 0.30879337, 0.42783546, 10.2554
516346835404318, -1.7623138, 5.180461, 7.68455, -0.17816865, -0.51015186, 9.41824
516346845042338, -1.5469599, 6.6245294, 7.735996, 0.26676685, 0.57714415, 10.281967
516346854680359, -1.6797615, 5.296513, 7.4775705, -0.10539365, -0.30900192, 9.310324
516346864318484, -1.678565, 6.4343, 7.665407, 0.08820802, 0.47161102, 10.136373
516346873956505, -1.6773686, 5.680561, 7.649854, -0.026409209, -0.11234236, 9.674156
516346883594526, -1.8161523, 5.9964137, 7.8376904, -0.092278, 0.0345273, 10.033697
516346893232651, -1.6797615, 6.178268, 7.8759756, 0.07518059, 0.14378023, 10.148758
516346902870672, -1.8568304, 5.477171, 7.798209, -0.21413505, -0.34909534, 9.700081
516346912508693, -1.5278172, 6.4737816, 7.895118, 0.2862897, 0.34868717, 10.31375
516346922146818, -1.7383857, 5.1409793, 7.7503524, -0.16091365, -0.59558296, 9.441345
516346931784838, -1.5314065, 6.559923, 7.8233337, 0.27905244, 0.4590001, 10.309889
516346941422859, -1.7024933, 5.1756754, 7.60439, -0.14256835, -0.47754383, 9.341546
516346951060984, -1.6570296, 6.3768725, 7.810173, 0.12122816, 0.33511162, 10.211859
516346960699005, -1.7001005, 5.605187, 7.756335, -0.054279268, -0.22824335, 9.716694
516346970337026, -1.8783658, 6.0155563, 7.8687973, -0.15102106, 0.045892715, 10.080091
516346979975151, -1.7359928, 6.087341, 7.8664045, 8.41558E-4, 0.09165335, 10.0966
516346989613172, -1.9657038, 5.493921, 7.8496547, -0.32219148, -0.34839916, 9.769292
516346999251193, -1.6594225, 6.4594245, 7.8963146, 0.13860947, 0.35894823, 10.328677
516347008889318, -1.8101703, 5.174479, 7.713264, -0.24548554, -0.52730036, 9.4450035
516347018527338, -1.5194423, 6.5946193, 7.789834, 0.30035305, 0.50978947, 10.301899
516347028165359, -1.6390835, 5.231907, 7.513463, -0.0789513, -0.3811016, 9.293015
516347037803484, -1.5278172, 6.483353, 7.568498, 0.25180972, 0.5633483, 10.063273
516347047441505, -1.5397813, 5.572884, 7.436893, 0.07356012, -0.071008205, 9.41939
516347057079526, -1.6642082, 6.064609, 7.6331043, 0.05442381, 0.19689798, 9.887953
516347066717651, -1.6067804, 6.0693946, 7.7994056, 0.12177265, 0.10007954, 10.011253
516347076355672, -1.8867407, 5.5920267, 7.920243, -0.23365057, -0.31812906, 9.869398
516347085993797, -1.6402799, 6.468996, 8.087741, 0.1884352, 0.2467227, 10.481108
516347095631818, -1.9716859, 5.1900325, 8.04108, -0.3882587, -0.6840906, 9.739826
516347105269838, -1.7347964, 6.5814586, 8.1344, 0.122491986, 0.3092599, 10.601082
516347114907963, -1.8329022, 5.150551, 7.797013, -0.28180256, -0.57215214, 9.501282
516347124545984, -1.6654046, 6.3948183, 7.753942, 0.13738593, 0.3940096, 10.179234
516347134184005, -1.6713866, 5.4676, 7.513463, -0.06888604, -0.1892147, 9.439267
516347143822130, -1.698904, 6.064609, 7.560123, 0.019619226, 0.25117397, 9.836552
516347153460151, -1.5481563, 5.962914, 7.530213, 0.14391673, 0.17872477, 9.726489
516347163098276, -1.7910278, 5.569295, 7.628319, -0.15731353, -0.17070293, 9.610526
516347172736297, -1.5493526, 6.4331036, 7.834101, 0.24099994, 0.36119032, 10.2454815
516347182374318, -1.8125632, 5.304888, 7.8759756, -0.21095192, -0.5195899, 9.6511
516347192012443, -1.6103697, 6.669993, 8.114061, 0.24522096, 0.38202047, 10.616686
516347201650463, -1.8233309, 5.231907, 7.9070826, -0.22550702, -0.5907502, 9.634287
516347211288484, -1.707279, 6.509674, 7.9334035, 0.11839461, 0.37451887, 10.3959255
516347220926609, -1.6845472, 5.483153, 7.668997, -0.071048796, -0.25857782, 9.573101
516347230564630, -1.7575282, 6.09093, 7.68455, -0.021799684, 0.20579624, 9.95981
516347240202755, -1.6079768, 5.877969, 7.5696945, 0.07387316, 0.087714195, 9.717161
516347249840776, -1.7850457, 5.5908303, 7.5433736, -0.1611849, -0.093875885, 9.555704
516347259478797, -1.4931214, 6.3804617, 7.63789, 0.28241098, 0.43203306, 10.050407
516347269116922, -1.7336, 5.2701917, 7.63789, -0.15865159, -0.41117048, 9.429923
516347278754943, -1.5302101, 6.650851, 7.8891363, 0.30839783, 0.5017352, 10.414746
516347288393068, -1.8233309, 5.2163534, 7.8017983, -0.24249941, -0.5405464, 9.542112
516347298031088, -1.7371893, 6.5491557, 7.9680996, 0.08347273, 0.3881235, 10.451904
516347307669109, -1.7982062, 5.45085, 7.8400836, -0.16883451, -0.38678026, 9.707426
516347317307234, -1.8101703, 6.155536, 7.954939, -0.048310995, 0.103779316, 10.219359
516347326945255, -1.6749759, 5.851648, 7.893922, 0.027746916, -0.11131096, 9.967356
516347336583380, -1.8340986, 5.605187, 7.864012, -0.17016894, -0.27642918, 9.824427
516347346221401, -1.5230316, 6.2871413, 7.88794, 0.24748367, 0.2222848, 10.195917
516347355859422, -1.7730815, 5.2103715, 7.7814593, -0.17910993, -0.53770447, 9.51429
516347365497547, -1.5577276, 6.5288167, 7.884351, 0.24799526, 0.42566013, 10.342741
516347375135568, -1.7587247, 5.133801, 7.6594253, -0.19628787, -0.52994585, 9.369975
516347384773693, -1.605584, 6.5611196, 7.7647095, 0.19518274, 0.5171046, 10.276741
516347394411713, -1.6606189, 5.4687963, 7.570891, -0.05017829, -0.22283268, 9.483229
516347404049838, -1.678565, 6.285945, 7.6271224, 0.058480203, 0.38898087, 10.017433
516347413687859, -1.5780666, 5.9353967, 7.530213, 0.09657967, 0.16805506, 9.715233
516347423325880, -1.7934206, 5.7930236, 7.587641, -0.13360858, 0.024738312, 9.712329
516347432964005, -1.5493526, 6.375676, 7.743174, 0.20659381, 0.3771739, 10.140097
516347442602026, -1.8245273, 5.306084, 7.7180495, -0.21803463, -0.43728447, 9.529584
516347452240151, -1.6115661, 6.521638, 7.9501534, 0.19058847, 0.3766737, 10.399791
516347461878172, -1.8831514, 5.0739803, 7.9011, -0.28824311, -0.7299123, 9.544792
516347471516297, -1.6689938, 6.495317, 8.076973, 0.142946, 0.29117918, 10.493187
516347481154318, -1.7036897, 5.291727, 7.8903327, -0.08849949, -0.5448842, 9.636263
516347490792338, -1.7096717, 6.189036, 7.9429746, 0.04356754, 0.12646008, 10.212742
516347500430463, -1.6630118, 5.8097734, 7.7886376, 0.023481846, -0.07413387, 9.857783
516347510068484, -1.8137596, 5.790631, 7.7120676, -0.13781905, -0.03874588, 9.812067
516347519706609, -1.5517455, 6.3074803, 7.6630144, 0.20094836, 0.37826824, 10.036462
516347529344630, -1.8101703, 5.349155, 7.533802, -0.2217564, -0.27673864, 9.408645
516347538982755, -1.5206388, 6.6364937, 7.6917286, 0.27920353, 0.6188607, 10.249739
516347548620776, -1.7336, 5.229514, 7.5924263, -0.16498607, -0.41292286, 9.370188
516347558258901, -1.570888, 6.597012, 7.798209, 0.24324894, 0.5099139, 10.318971
516347567896922, -1.7288144, 5.3096733, 7.719246, -0.13947684, -0.42777205, 9.516603
516347577534943, -1.7838492, 6.253642, 7.9238324, -0.010153711, 0.18433428, 10.249058
516347587173068, -1.6881363, 5.733203, 7.8604226, -0.015421569, -0.18901491, 9.872675
516347596811088, -1.8113668, 5.773881, 7.899904, -0.12582505, -0.1673832, 9.9490385
516347606449213, -1.5828521, 6.2105713, 7.8987074, 0.18303335, 0.15272856, 10.169039
516347616087234, -1.8508483, 5.346762, 7.820941, -0.24869269, -0.4487276, 9.639368
516347625725359, -1.5936198, 6.5479593, 7.9011, 0.23051858, 0.41526175, 10.373871
516347635363380, -1.814956, 5.1661043, 7.726424, -0.24649268, -0.5320487, 9.451799
516347645001505, -1.6378871, 6.6185474, 7.844869, 0.1904108, 0.50762224, 10.379591
516347654639526, -1.7300107, 5.3096733, 7.648658, -0.13155049, -0.38572598, 9.461576
516347664277651, -1.7407784, 6.3086767, 7.722835, 0.019367278, 0.35125017, 10.116726
516347673915672, -1.6115661, 5.7080784, 7.6546397, 0.04777646, -0.095182896, 9.683051
516347683553797, -1.7383857, 5.8767724, 7.732406, -0.042323947, -7.2717667E-4, 9.8664465
516347693191818, -1.5900307, 6.2201424, 7.7276206, 0.16173553, 0.2607937, 10.041926
516347702829943, -1.867598, 5.419743, 7.6977105, -0.2574144, -0.32388783, 9.5888
516347712467963, -1.6079768, 6.579066, 7.836494, 0.22411484, 0.47625637, 10.344239
516347722106088, -1.861616, 5.245067, 7.6809607, -0.2839496, -0.44372272, 9.470796
516347731744109, -1.6498512, 6.640083, 7.85444, 0.19543189, 0.50650215, 10.402413
516347741382234, -1.7144574, 5.296513, 7.63789, -0.13499618, -0.39427614, 9.442251
516347751020255, -1.6522441, 6.3481584, 7.756335, 0.12846166, 0.33754587, 10.1518135
516347760658276, -1.6558332, 5.6685967, 7.7551384, 0.0052974224, -0.1926713, 9.745759
516347770296401, -1.7694924, 5.8803616, 7.830512, -0.061884046, -0.06297922, 9.950823
516347779934526, -1.564906, 6.1064835, 7.7946196, 0.17622346, 0.123682976, 10.022366
516347789572547, -1.8293129, 5.3886366, 7.7587276, -0.20953542, -0.39643288, 9.611482
516347799210568, -1.6043876, 6.485746, 7.8831544, 0.19902378, 0.37420177, 10.324894
516347808848693, -1.8867407, 5.157729, 7.713264, -0.30324966, -0.5400181, 9.44843
516347818486818, -1.678565, 6.629315, 7.85444, 0.15029776, 0.51896524, 10.400276
516347828124838, -1.7682959, 5.3012986, 7.655836, -0.16087586, -0.40104008, 9.468673
516347837762963, -1.6953149, 6.4594245, 7.8173513, 0.107563496, 0.3975668, 10.273247
516347847400984, -1.6354942, 5.669793, 7.735996, 0.02883625, -0.17710447, 9.7280445
516347857039109, -1.7718852, 5.9676995, 7.8496547, -0.045677364, -0.002831459, 10.018383
516347866677130, -1.5672989, 6.117251, 7.8173513, 0.17599845, 0.12260103, 10.046996
516347876315255, -1.7826529, 5.4783673, 7.7479596, -0.14431983, -0.32302284, 9.648631
516347885953276, -1.5278172, 6.491728, 7.874779, 0.2863428, 0.36816645, 10.308802
516347895591401, -1.8077775, 5.160122, 7.719246, -0.22819048, -0.56077003, 9.440081
516347905229422, -1.6366907, 6.602994, 7.8281193, 0.18768263, 0.49199104, 10.357628
516347914867547, -1.7670995, 5.252246, 7.6139617, -0.18233234, -0.42888165, 9.405528
516347924505568, -1.6606189, 6.431907, 7.7874413, 0.13713324, 0.38859606, 10.227489
516347934143693, -1.7252251, 5.753542, 7.7312098, -0.04432249, -0.104263306, 9.789711
516347943781713, -1.7407784, 5.9246287, 7.8496547, -0.02265048, -0.047890663, 9.987282
516347953419838, -1.7491534, 5.871987, 7.9011, -0.03455472, -0.11739111, 9.997609
516347963057859, -1.7419748, 5.910272, 7.893922, -0.019066632, -0.08352518, 10.013613
516347972695984, -1.7670995, 5.912665, 7.874779, -0.0456568, -0.06802273, 10.004383
516347982334005, -1.7898313, 5.9007006, 7.804191, -0.07398307, -0.03439045, 9.945879
516347991972130, -1.7551354, 5.9090757, 7.7312098, -0.04390651, 0.014814854, 9.887726
516348001610255, -1.6642082, 5.960521, 7.6606216, 0.051451445, 0.08150625, 9.8475
516348011248276, -1.6354942, 5.989235, 7.5996046, 0.07939267, 0.13465452, 9.811999
516348020886401, -1.6067804, 5.98086, 7.5589266, 0.09955037, 0.14785624, 9.770263
516348030524422, -1.6271194, 5.9641104, 7.5720873, 0.074438155, 0.12691545, 9.774097
516348040162547, -1.6630118, 5.9174504, 7.6402826, 0.035492897, 0.052141666, 9.805702
516348049800568, -1.7001005, 5.8911295, 7.7551384, 0.0010205507, -0.035031796, 9.886188
516348059438693, -1.7359928, 5.8707905, 7.8664045, -0.028364778, -0.11660051, 9.9672365
516348069076713, -1.8113668, 5.8803616, 7.920243, -0.095932245, -0.13333559, 10.02811
516348078714838, -1.8424734, 5.892326, 7.9657063, -0.11887908, -0.14716148, 10.076255
516348088352963, -1.7994026, 5.8971114, 7.9776707, -0.07233894, -0.15259838, 10.081098
516348097990984, -1.7395821, 5.9234324, 7.899904, -0.013533831, -0.0885911, 10.02565
516348107629109, -1.6677973, 5.936593, 7.8053875, 0.050434113, -0.028357506, 9.94713
516348117267130, -1.6319051, 5.959325, 7.732406, 0.08169061, 0.026715279, 9.897444
516348126905255, -1.6079768, 5.9700923, 7.6259255, 0.0992139, 0.0983243, 9.816457
516348136543276, -1.6199409, 5.968896, 7.5146594, 0.07717651, 0.16323566, 9.730848
516348146181401, -1.6558332, 5.968896, 7.5314093, 0.04080671, 0.15235758, 9.750218
516348155819526, -1.6486548, 5.9820566, 7.530213, 0.049206853, 0.15855026, 9.756005
516348165457547, -1.672583, 5.9676995, 7.59123, 0.025216877, 0.11029577, 9.799232
516348175095672, -1.7204394, 5.9473605, 7.733603, -0.016502976, 0.010917187, 9.906527
516348184733693, -1.7934206, 5.901897, 7.87119, -0.085801244, -0.10279894, 9.999323
516348194371818, -1.8233309, 5.871987, 7.9561353, -0.112835765, -0.17451286, 10.052942
516348204009943, -1.7647067, 5.9030933, 7.960921, -0.048298597, -0.15548801, 10.065309
516348213647963, -1.7312071, 5.9066825, 7.908279, -0.018518686, -0.12064457, 10.020577
516348223286088, -1.6761723, 5.9270215, 7.7946196, 0.029451191, -0.03951168, 9.934425
516348232924109, -1.6618153, 5.9413786, 7.725228, 0.039264977, 0.011659145, 9.886308
516348242562234, -1.68694, 5.9497533, 7.6570325, 0.009643912, 0.059672356, 9.84235
516348252200359, -1.6941184, 5.936593, 7.578069, -0.0063925385, 0.09875584, 9.773972
516348261838380, -1.6127625, 5.9521465, 7.55773, 0.0742771, 0.11408377, 9.75345
516348271476505, -1.5984055, 5.9653068, 7.635497, 0.09586936, 0.0739131, 9.819672
516348281114526, -1.6594225, 5.959325, 7.7443705, 0.041505873, 0.0064172745, 9.911648
516348290752651, -1.7084754, 5.959325, 7.797013, -0.0019214749, -0.022305965, 9.961193
516348300390776, -1.6965113, 5.9413786, 7.800602, 0.0068407655, -0.03710556, 9.951187
516348310028797, -1.6833507, 5.948557, 7.786245, 0.018906057, -0.022929192, 9.9420185
516348319666922, -1.6797615, 5.9545393, 7.749156, 0.019921422, 0.0049123764, 9.916003
516348329304943, -1.7096717, 5.930611, 7.716853, -0.016266406, 0.00855875, 9.881529
516348338943068, -1.7288144, 5.9270215, 7.690532, -0.038148522, 0.0236516, 9.862082
516348348581193, -1.7108682, 5.9377894, 7.6749787, -0.019238174, 0.04085493, 9.853308
516348358219213, -1.7120646, 5.9090757, 7.7012997, -0.022989452, 0.0025582314, 9.856867
516348367857338, -1.7682959, 5.8827543, 7.765906, -0.077730596, -0.05126524, 9.901227
516348377495463, -1.7790636, 5.881558, 7.850851, -0.080534995, -0.09831715, 9.968826
516348387133484, -1.7754744, 5.895915, 7.8891363, -0.07064581, -0.108225346, 10.006793
516348396771609, -1.707279, 5.928218, 7.8484583, -1.4400482E-4, -0.06576061, 9.982613
516348406409630, -1.6857436, 5.948557, 7.820941, 0.02422595, -0.03364992, 9.969578
516348416047755, -1.6797615, 5.968896, 7.7790666, 0.030725896, 0.0068416595, 9.947975
516348425685880, -1.6414764, 5.9916277, 7.698907, 0.066214204, 0.06877804, 9.892326
516348435323901, -1.6558332, 5.973682, 7.676175, 0.046564102, 0.07081652, 9.866262
516348444962026, -1.6534405, 5.960521, 7.688139, 0.045234323, 0.051455498, 9.867343
516348454600151, -1.6414764, 5.9581285, 7.7216387, 0.056373656, 0.026013374, 9.890076
516348464238172, -1.6582261, 5.9210396, 7.708478, 0.032263935, 0.0069389343, 9.860425
516348473876297, -1.6881363, 5.9090757, 7.7012997, -6.0617924E-4, 0.004620552, 9.852764
516348483514422, -1.7024933, 5.898308, 7.7001033, -0.016498089, -0.001543045, 9.847834
516348493152443, -1.7108682, 5.910272, 7.6917286, -0.022866368, 0.0144581795, 9.849892
516348502790568, -1.7060826, 5.9246287, 7.68455, -0.015481174, 0.03106594, 9.852059
516348512428693, -1.7264216, 5.922236, 7.745567, -0.030163825, -0.0042357445, 9.901833
516348522066713, -1.7264216, 5.9270215, 7.82453, -0.022165537, -0.047204018, 9.966478
516348531704838, -1.7503498, 5.925825, 7.8963146, -0.040314436, -0.090230465, 10.026025
516348541342963, -1.7455641, 5.9234324, 7.946564, -0.032723665, -0.11911917, 10.063134
516348550980984, -1.68694, 5.928218, 7.895118, 0.021207392, -0.088272095, 10.0156975
516348560619109, -1.6558332, 5.9294147, 7.789834, 0.04286033, -0.026027203, 9.928682
516348570257234, -1.6390835, 5.9437714, 7.682157, 0.054377496, 0.05019474, 9.850132
516348579895255, -1.6223338, 5.9377894, 7.5720873, 0.058869064, 0.109297276, 9.757582
516348589533380, -1.5984055, 5.940182, 7.52782, 0.07936996, 0.13446426, 9.720305
516348599171505, -1.6773686, 5.9150577, 7.554141, -6.136298E-4, 0.10614681, 9.739367
516348608809526, -1.753939, 5.85763, 7.68455, -0.07661265, -0.012280464, 9.820103
516348618447651, -1.7982062, 5.8743796, 7.880761, -0.09871143, -0.111157894, 9.991307
516348628085776, -1.8005991, 5.905486, 8.014759, -0.082300186, -0.16564894, 10.11529
516348637723797, -1.6857436, 5.953343, 7.989635, 0.038019538, -0.12008953, 10.104575
516348647361922, -1.6331015, 5.9748783, 7.9393854, 0.08914417, -0.07676315, 10.069073
516348657000047, -1.678565, 5.9676995, 7.8424764, 0.034387887, -0.019034863, 9.996695
516348666638068, -1.719243, 5.9318075, 7.6941214, -0.02467972, 0.046895504, 9.866044
516348676276193, -1.6857436, 5.9246287, 7.5696945, -0.0042926073, 0.109802246, 9.758644
516348685914318, -1.6438692, 5.9234324, 7.470392, 0.02882278, 0.1663866, 9.673035
516348695552338, -1.6414764, 5.9210396, 7.4739814, 0.028176606, 0.16040039, 9.67404
516348705190463, -1.6426728, 5.9353967, 7.5290165, 0.033637106, 0.13675928, 9.725923
516348714828588, -1.6642082, 5.9473605, 7.600801, 0.019337177, 0.104527, 9.7929325
516348724466609, -1.7503498, 5.9174504, 7.7790666, -0.055518627, -0.019953728, 9.929267
516348734104734, -1.7778672, 5.919843, 7.8867435, -0.07185048, -0.07926655, 10.019712
516348743742859, -1.7575282, 5.910272, 7.932207, -0.047020078, -0.11214018, 10.046162
516348753380880, -1.7587247, 5.8911295, 7.9800634, -0.045300424, -0.1487441, 10.072525
516348763019005, -1.7312071, 5.8911295, 7.9800634, -0.018529534, -0.15091228, 10.06781
516348772657130, -1.698904, 5.901897, 7.9537425, 0.010852516, -0.12274361, 10.04816
516348782295255, -1.7060826, 5.8707905, 7.940582, -0.0036171079, -0.13649559, 10.020533
516348791933276, -1.6749759, 5.889933, 7.9106717, 0.026315808, -0.10605717, 10.003181
516348801571401, -1.698904, 5.918647, 7.797013, -0.002741754, -0.0107393265, 9.935287
516348811209526, -1.6821543, 5.933004, 7.647461, 0.006278932, 0.09087753, 9.823723
516348820847547, -1.6582261, 5.953343, 7.5182486, 0.024181962, 0.17725372, 9.730573
516348830485672, -1.6295122, 5.9784675, 7.442875, 0.050864875, 0.23684216, 9.681688
516348840123797, -1.6642082, 5.9712887, 7.5756764, 0.023653328, 0.15060806, 9.787416
516348849761818, -1.7120646, 5.953343, 7.670193, -0.020217478, 0.08344507, 9.858903
516348859399943, -1.7312071, 5.9138613, 7.776674, -0.03996414, -0.010849476, 9.921985
516348869038068, -1.6642082, 5.9353967, 7.9561353, 0.040931404, -0.107984066, 10.064058
516348878676193, -1.6438692, 5.9473605, 7.9836526, 0.06605989, -0.11720848, 10.089302
516348888314213, -1.6857436, 5.912665, 7.867601, 0.008238137, -0.06603718, 9.98479
516348897952338, -1.719243, 5.8672013, 7.746763, -0.041816175, -0.023701668, 9.868629
