timestamp_acc,device_acc_x,device_acc_y,device_acc_z,earth_acc_x,earth_acc_y,earth_acc_z
516418086114712, -2.43709, 5.06082, 8.274381, 0.0690546, -0.085828304, 10.000227
516418095753149, -2.4658036, 5.076373, 8.312666, 0.051381588, -0.089226246, 10.046869
516418105391482, -2.5064816, 5.0943193, 8.298309, 0.013246775, -0.06359196, 10.054464
516418115029920, -2.5842485, 5.0955157, 8.305488, -0.059833646, -0.061213493, 10.080498
516418124668357, -2.5698915, 5.081159, 8.2253275, -0.060810685, -0.03432226, 10.003684
516418134306795, -2.4670002, 5.078766, 8.149954, 0.024849296, -0.0024900436, 9.914691
516418143945232, -2.4239295, 5.056034, 8.075776, 0.050215483, 0.0121359825, 9.831298
516418153583670, -2.4119651, 5.048856, 7.9716887, 0.042567253, 0.053588867, 9.7391815
516418163222107, -2.4227328, 5.0548377, 7.948957, 0.029600859, 0.06870127, 9.726322
516418172860441, -2.457429, 5.0847483, 7.989635, 0.009656668, 0.07265568, 9.783788
516418182498878, -2.498107, 5.1050873, 8.04108, -0.016091108, 0.06489992, 9.846673
516418192137316, -2.565106, 5.103891, 8.128419, -0.06575835, 0.022869587, 9.934578
516418201775753, -2.5746772, 5.0955157, 8.2049885, -0.064073086, -0.025174618, 9.995517
516418211414191, -2.5579274, 5.0979085, 8.208578, -0.044326425, -0.024995804, 9.995491
516418221052628, -2.5495524, 5.1086764, 8.2145605, -0.032968163, -0.020115852, 10.003813
516418230691066, -2.548356, 5.0943193, 8.185846, -0.03833103, -0.016966343, 9.972589
516418240329399, -2.4837499, 5.111069, 8.133204, 0.02033782, 0.01704359, 9.921712
516418249967837, -2.4418755, 5.12423, 8.098508, 0.056744576, 0.041867733, 9.889456
516418259606274, -2.4035904, 5.10748, 8.066205, 0.08478844, 0.04274702, 9.844707
516418269244712, -2.3952155, 5.089534, 8.043473, 0.08472085, 0.037144184, 9.814749
516418278883149, -2.4263222, 5.096712, 8.021938, 0.051863313, 0.054531574, 9.808636
516418288521587, -2.477768, 5.103891, 8.049456, 0.0077984333, 0.046793938, 9.84787
516418298160024, -2.5112674, 5.0979085, 8.075776, -0.020699263, 0.029934406, 9.874816
516418307798357, -2.5411777, 5.0859447, 8.069795, -0.05283761, 0.025634289, 9.8713
516418317436795, -2.5818555, 5.050052, 8.096115, -0.09410119, -0.01490593, 9.8846855
516418327075232, -2.5938199, 5.072784, 8.116454, -0.09523308, -0.0027127266, 9.916088
516418336713670, -2.57707, 5.117051, 8.152347, -0.063815236, 0.014316082, 9.964036
516418346352107, -2.5399811, 5.1326046, 8.176275, -0.019506812, 0.01239872, 9.982288
516418355990545, -2.5208387, 5.10748, 8.183454, -0.0052884817, -0.011721611, 9.970444
516418365628982, -2.4825535, 5.0919266, 8.203793, 0.03064859, -0.03876829, 9.969481
516418375267316, -2.4478576, 5.0823555, 8.199007, 0.06098306, -0.047662735, 9.951888
516418384905753, -2.4071796, 5.048856, 8.17149, 0.0879612, -0.063911915, 9.901862
516418394544191, -2.3844478, 5.023731, 8.143971, 0.098234296, -0.07420254, 9.860659
516418404182628, -2.4011974, 5.0416775, 8.106883, 0.07941258, -0.03847313, 9.84368
516418413821066, -2.4478576, 5.052445, 8.088937, 0.033959746, -0.015823841, 9.846254
516418423459503, -2.489732, 5.0883374, 8.110473, 0.005581498, 0.0057373047, 9.892909
516418433097941, -2.5375884, 5.1062837, 8.158329, -0.02907753, -4.4870377E-4, 9.95344
516418442736378, -2.5555346, 5.1122656, 8.176275, -0.04052019, -0.0055708885, 9.97576
516418452374712, -2.5998018, 5.1553364, 8.19781, -0.068895936, 0.020438671, 10.026735
516418462013149, -2.6129622, 5.1409793, 8.178668, -0.08598542, 0.016919613, 10.007006
516418471651587, -2.5938199, 5.099105, 8.120044, -0.08423793, 0.008799076, 9.932608
516418481290024, -2.507678, 5.09073, 8.04467, -0.015573144, 0.03540039, 9.844756
516418490928462, -2.42034, 5.089534, 8.003992, 0.06322265, 0.04542494, 9.788731
516418500566899, -2.4071796, 5.0572305, 7.9920278, 0.067600965, 0.017570019, 9.758984
516418510205337, -2.4622145, 5.050052, 8.005188, 0.0153054, 0.007642746, 9.779993
516418519843774, -2.507678, 5.0919266, 8.032705, -0.014965653, 0.03146696, 9.835614
516418529482107, -2.5004997, 5.1553364, 8.031509, 0.006629467, 0.08356094, 9.865501
516418539120545, -2.5196424, 5.151747, 8.04467, -0.00932622, 0.075119495, 9.879277
516418548758982, -2.5052853, 5.144569, 8.043473, 0.0031744242, 0.06770897, 9.870964
516418558397420, -2.5495524, 5.1026945, 8.105687, -0.040379405, 0.004804611, 9.911521
516418568035857, -2.5399811, 5.052445, 8.155936, -0.034771323, -0.06405783, 9.924348
516418577674295, -2.5232315, 5.076373, 8.254042, 0.0022529364, -0.097940445, 10.012787
516418587312732, -2.4921248, 5.083552, 8.280363, 0.038490295, -0.10975456, 10.030158
516418596951066, -2.469393, 5.078766, 8.224132, 0.051288962, -0.08259821, 9.975904
516418606589503, -2.4729822, 5.1050873, 8.142776, 0.039881706, -0.016431808, 9.923734
516418616227941, -2.4765713, 5.1326046, 8.023134, 0.022602439, 0.07271147, 9.840829
516418625866378, -2.5124638, 5.15414, 7.9357963, -0.022750854, 0.1386218, 9.789523
516418635504816, -2.5399811, 5.1876397, 7.905886, -0.047989845, 0.180789, 9.789337
516418645143253, -2.5591238, 5.1720862, 7.91785, -0.064343095, 0.15700388, 9.796078
516418654781691, -2.5758736, 5.1816573, 7.9561353, -0.07193291, 0.14523125, 9.836592
516418664420024, -2.6105695, 5.143372, 8.053044, -0.09557617, 0.06284809, 9.904938
516418674058462, -2.6009982, 5.0859447, 8.12124, -0.0856905, -0.019756794, 9.928688
516418683696899, -2.5698915, 5.0596237, 8.2014, -0.047319412, -0.08804035, 9.972818
516418693335337, -2.5148566, 5.0333023, 8.255239, 0.009879231, -0.14049721, 9.989382
516418702973774, -2.487339, 5.0009995, 8.276773, 0.030536532, -0.17834568, 9.98344
516418712612212, -2.4239295, 5.0273204, 8.250452, 0.0912869, -0.14536047, 9.959412
516418722250649, -2.4179473, 5.029713, 8.189436, 0.08638668, -0.10878086, 9.909191
516418731888982, -2.3916261, 5.0751767, 8.110473, 0.10859275, -0.030003548, 9.861257
516418741527420, -2.382055, 5.1457653, 8.076973, 0.12739277, 0.04647827, 9.867736
516418751165857, -2.4646072, 5.163711, 8.075776, 0.050741434, 0.06511831, 9.896946
516418760804295, -2.536392, 5.1649075, 8.065009, -0.019151807, 0.07503748, 9.906964
516418770442732, -2.5639095, 5.1649075, 8.097312, -0.037899613, 0.056525707, 9.94041
516418780081170, -2.5938199, 5.1385865, 8.124829, -0.06588149, 0.018514633, 9.956963
516418789719607, -2.5734808, 5.099105, 8.10808, -0.05741954, -0.007164955, 9.917725
516418799357941, -2.5387847, 5.076373, 8.109276, -0.026031852, -0.03263712, 9.898162
516418808996378, -2.4933212, 5.0715876, 8.10808, 0.019513607, -0.044337273, 9.883131
516418818634816, -2.5172493, 5.1062837, 8.103293, 0.0036314726, -0.012647629, 9.903225
516418828273253, -2.5555346, 5.15414, 8.0614195, -0.029278994, 0.051306725, 9.903481
516418837911691, -2.5926232, 5.1553364, 7.982456, -0.07815659, 0.09888077, 9.849005
516418847550128, -2.565106, 5.144569, 7.945368, -0.05881548, 0.102974415, 9.806181
516418857188566, -2.5519454, 5.1457653, 7.884351, -0.055619, 0.13449335, 9.753621
516418866826899, -2.6021945, 5.1553364, 7.85444, -0.10466111, 0.16266203, 9.7469845
516418876465337, -2.6572297, 5.143372, 7.856833, -0.15997207, 0.15633345, 9.75679
516418886103774, -2.652444, 5.15414, 7.9190464, -0.14027739, 0.13086748, 9.811989
516418895742212, -2.6105695, 5.1649075, 7.984849, -0.085879564, 0.10057068, 9.860613
516418905380649, -2.5591238, 5.1613183, 8.054241, -0.025596857, 0.057812214, 9.902279
516418915019087, -2.477768, 5.1266227, 8.127222, 0.053269148, -0.008215904, 9.923227
516418924657420, -2.3665016, 5.099105, 8.166703, 0.16119528, -0.06219101, 9.912939
516418934295857, -2.2995026, 5.050052, 8.273184, 0.23001003, -0.16013098, 9.9578
516418943934295, -2.251646, 5.0213385, 8.395218, 0.2814479, -0.24111319, 10.031257
516418953572732, -2.2971098, 4.999803, 8.426325, 0.2370429, -0.27354717, 10.057172
516418963211170, -2.408376, 4.996214, 8.423932, 0.123198986, -0.25938892, 10.081796
516418972849607, -2.5088747, 5.0368915, 8.311469, 0.013838649, -0.15004921, 10.036064
516418982488045, -2.5674987, 5.076373, 8.136793, -0.06197357, -0.019898891, 9.92798
516418992126378, -2.6632116, 5.12423, 7.9657063, -0.17275178, 0.12183046, 9.836576
516419001764816, -2.7385855, 5.1421757, 7.8460655, -0.2502904, 0.1969347, 9.767349
516419011403253, -2.7038896, 5.143372, 7.834101, -0.21221042, 0.19594765, 9.749615
516419021041691, -2.6273193, 5.1529436, 7.8867435, -0.1251328, 0.16403961, 9.778231
516419030680128, -2.4921248, 5.1469617, 7.96451, 0.017423153, 0.104177475, 9.804294
516419040318566, -2.4059832, 5.113462, 8.0614195, 0.10928404, 0.014318466, 9.844318
516419049956899, -2.3581266, 5.0979085, 8.157132, 0.16151822, -0.052048206, 9.902497
516419059595337, -2.3976083, 5.0943193, 8.176275, 0.1260407, -0.060610294, 9.926357
516419069233774, -2.4634109, 5.10748, 8.147561, 0.058277845, -0.023771763, 9.926408
516419078872212, -2.5232315, 5.0955157, 8.092526, -0.0122618675, 0.005042553, 9.8903885
516419088510649, -2.5902305, 5.0943193, 8.059027, -0.08263385, 0.03014183, 9.87935
516419098148982, -2.6548367, 5.1086764, 8.117651, -0.13216007, 0.015664577, 9.951145
516419107787420, -2.6979074, 5.1361938, 8.1679, -0.15561008, 0.015481949, 10.017452
516419117425857, -2.638087, 5.089534, 8.166703, -0.10594654, -0.027702808, 9.977268
516419127064295, -2.556731, 4.6205406, 8.1738825, -0.11713731, -0.42891836, 9.72116
516419136702732, -2.2911277, 5.639883, 8.246863, 0.3355521, 0.37836456, 10.237801
516419146341170, -2.3641088, 4.4446683, 8.075776, 0.034483552, -0.5286608, 9.501661
516419155979503, -2.3186452, 5.5106707, 8.19781, 0.27241945, 0.30410624, 10.138098
516419165617941, -2.3868406, 4.8011985, 8.128419, 0.07521498, -0.26402426, 9.73367
516419175256378, -2.5316064, 5.1290154, 8.148758, -0.0054973364, 0.008061886, 9.955802
516419184894816, -2.4514468, 5.375476, 8.10449, 0.10265529, 0.23731089, 10.026029
516419194533253, -2.6907291, 4.6839504, 7.9836526, -0.26286888, -0.27592945, 9.631869
516419204171691, -2.5148566, 5.712864, 8.050652, 0.096067905, 0.54059505, 10.172159
516419213810024, -2.7302105, 4.368098, 7.8604226, -0.38616955, -0.46712327, 9.37834
516419223448462, -2.4765713, 5.820541, 8.006385, 0.14934778, 0.6439948, 10.182204
516419233086899, -2.5794628, 4.4745784, 7.9011, -0.21316826, -0.40876937, 9.428166
516419242725337, -2.4789643, 5.611169, 8.086544, 0.12649405, 0.42491913, 10.140321
516419252363774, -2.5411777, 4.8358946, 8.04467, -0.08139849, -0.18672991, 9.722074
516419262002107, -2.6009982, 5.2163534, 8.114061, -0.0528543, 0.097616196, 9.990054
516419271640545, -2.4622145, 5.3336015, 8.128419, 0.10844219, 0.1769929, 10.026858
516419281278982, -2.6596224, 4.6815577, 8.051848, -0.22832096, -0.30810213, 9.678624
516419290917420, -2.408376, 5.7248282, 8.22772, 0.24572432, 0.4481721, 10.296023
516419300555857, -2.6452653, 4.4004006, 8.115258, -0.25992012, -0.5735171, 9.582373
516419310194191, -2.3700907, 5.7667027, 8.282756, 0.30582786, 0.45839214, 10.352419
516419319832628, -2.501696, 4.3501515, 8.120044, -0.12638116, -0.6275914, 9.524052
516419329471066, -2.3545375, 5.5740805, 8.219346, 0.26473653, 0.3243823, 10.19787
516419339109503, -2.4143581, 4.7007003, 8.098508, 0.025017023, -0.32815742, 9.6645355
516419348747941, -2.5232315, 5.1613183, 8.084151, 7.735491E-4, 0.067388535, 9.917402
516419358386274, -2.4681966, 5.285745, 8.014759, 0.06472945, 0.2059493, 9.9106455
516419368024712, -2.6883361, 4.7605205, 7.881958, -0.26920485, -0.1551485, 9.58741
516419377663149, -2.4969103, 5.723632, 8.013563, 0.10520005, 0.5699811, 10.14277
516419387301587, -2.7493532, 4.430311, 7.9357963, -0.36912918, -0.46925664, 9.476657
516419396940024, -2.498107, 5.864808, 8.176275, 0.17122006, 0.5919514, 10.349314
516419406578357, -2.626123, 4.4147577, 8.080562, -0.23301375, -0.5616379, 9.555749
516419416216795, -2.469393, 5.6578293, 8.275578, 0.18792474, 0.37398148, 10.315956
516419425855232, -2.528017, 4.746164, 8.159525, -0.055330515, -0.3244505, 9.766598
516419435493670, -2.5459633, 5.24746, 8.17149, 0.018568635, 0.082773685, 10.039113
516419445132003, -2.4047868, 5.2008, 8.067402, 0.12606728, 0.09478283, 9.893908
516419454770441, -2.5435705, 4.7102714, 7.9166536, -0.12504435, -0.22787905, 9.553129
516419464408878, -2.3198416, 5.6004014, 8.008778, 0.26777232, 0.4524765, 10.030466
516419474047316, -2.5926232, 4.3800616, 7.938189, -0.22927904, -0.51405907, 9.413006
516419483685753, -2.4454648, 5.8193445, 8.172686, 0.21969879, 0.54629135, 10.309761
516419493324087, -2.6548367, 4.4075794, 8.021938, -0.26873446, -0.5301099, 9.511738
516419502962524, -2.4801607, 5.7547383, 8.080562, 0.16464567, 0.54473495, 10.209791
516419512600962, -2.5148566, 4.784449, 7.914261, -0.08214545, -0.16198921, 9.582172
516419522239399, -2.53041, 5.3766723, 7.96451, 0.023413897, 0.30427122, 9.9323635
516419531877732, -2.477768, 5.227121, 8.009974, 0.05143249, 0.14911604, 9.879115
516419541516170, -2.6656044, 4.792824, 8.059027, -0.2055136, -0.22649431, 9.743253
516419551154607, -2.4454648, 5.56092, 8.30788, 0.19368875, 0.27843904, 10.286397
516419560793045, -2.644069, 4.3262234, 8.283952, -0.21735442, -0.7366092, 9.682011
516419570431378, -2.3605196, 5.716453, 8.445468, 0.32903862, 0.34135723, 10.457104
516419580069816, -2.5256243, 4.281956, 8.149954, -0.12372506, -0.6980343, 9.5201435
516419589708253, -2.361716, 5.709275, 8.130812, 0.2529173, 0.5138416, 10.195864
516419599346691, -2.5232315, 4.6839504, 7.911868, -0.112051845, -0.2397852, 9.530672
516419608985024, -2.644069, 5.3706903, 7.978867, -0.10610497, 0.30612278, 9.969593
516419618623462, -2.5986054, 5.176872, 7.989635, -0.08577812, 0.13389349, 9.867205
516419628261899, -2.696711, 4.883751, 8.032705, -0.21920776, -0.1332879, 9.776594
516419637900337, -2.4215364, 5.5669017, 8.2014, 0.20360112, 0.34011507, 10.196079
516419647538774, -2.5806592, 4.388437, 8.140383, -0.16639733, -0.61466956, 9.580111
516419657177107, -2.2695923, 5.7631135, 8.346166, 0.4091313, 0.4255762, 10.376632
516419666815545, -2.5004997, 4.2951164, 8.154739, -0.11308086, -0.6928799, 9.524046
516419676453982, -2.3605196, 5.6985073, 8.236095, 0.29753792, 0.42701054, 10.276547
516419686092316, -2.5052853, 4.6229334, 8.049456, -0.09062195, -0.3702364, 9.607101
516419695730753, -2.5292134, 5.426922, 8.097312, 0.05916989, 0.2745309, 10.066577
516419705369191, -2.495714, 5.1361938, 7.9968133, 0.01793313, 0.08058834, 9.826052
516419715007628, -2.6512475, 4.880162, 7.9334035, -0.19490111, -0.088226795, 9.681849
516419724645962, -2.498107, 5.5633125, 7.9633136, 0.10112119, 0.45049715, 10.01959
516419734284399, -2.7708886, 4.5212383, 7.8891363, -0.3860649, -0.35487843, 9.491201
516419743922837, -2.53041, 5.844469, 8.070991, 0.14744747, 0.61915636, 10.261413
516419753561274, -2.7038896, 4.3561335, 7.9226356, -0.33036673, -0.52581286, 9.416446
516419763199607, -2.4681966, 5.7607207, 8.136793, 0.20226943, 0.506958, 10.256089
516419772838045, -2.5268207, 4.5332026, 8.054241, -0.09848261, -0.45716405, 9.570101
516419782476482, -2.4825535, 5.3946185, 8.244471, 0.13496542, 0.16185236, 10.1583395
516419792114920, -2.455036, 5.0249276, 8.239685, 0.08972597, -0.14825726, 9.956881
516419801753253, -2.626123, 4.9112687, 8.187042, -0.10942626, -0.20204353, 9.899088
516419811391691, -2.4442682, 5.473582, 8.124829, 0.16862166, 0.28659773, 10.091423
516419821030128, -2.6009982, 4.496114, 7.908279, -0.22049654, -0.4013281, 9.450474
516419830668566, -2.347359, 5.851648, 7.9836526, 0.33071482, 0.6639023, 10.145958
516419840306899, -2.605784, 4.3836513, 7.818548, -0.26694155, -0.4364288, 9.320648
516419849945337, -2.4011974, 5.8396835, 8.039884, 0.26009977, 0.62574863, 10.200401
516419859583774, -2.4909284, 4.584648, 7.9776707, -0.07374251, -0.37241006, 9.524853
516419869222107, -2.4789643, 5.4580283, 8.195417, 0.14370525, 0.2280426, 10.1502495
516419878860545, -2.4658036, 4.961518, 8.250452, 0.068787694, -0.20422173, 9.935814
516419888498982, -2.5782664, 4.910072, 8.2456665, -0.05271578, -0.23450136, 9.934259
516419898137420, -2.3844478, 5.3982077, 8.251649, 0.22768867, 0.16507816, 10.140851
516419907775753, -2.6249263, 4.4745784, 8.049456, -0.20938051, -0.492594, 9.561346
516419917414191, -2.4430718, 5.790631, 8.149954, 0.21705854, 0.5567436, 10.274467
516419927052628, -2.8175488, 4.409972, 7.966903, -0.41981578, -0.48536825, 9.510317
516419936691066, -2.6691937, 5.8683977, 7.9980097, 0.006371975, 0.7015786, 10.248834
516419946329399, -2.7792635, 4.584648, 7.8113694, -0.37252712, -0.2759564, 9.462869
516419955967837, -2.6476583, 5.5669017, 7.98126, -0.037445784, 0.4540472, 10.074396
516419965606274, -2.5579274, 4.9531426, 7.9537425, -0.065048695, -0.043282032, 9.712493
516419975244607, -2.5710878, 4.979464, 8.035098, -0.059502244, -0.06926298, 9.7959175
516419984883045, -2.3246272, 5.3611193, 8.199007, 0.27919614, 0.15434217, 10.063172
516419994521482, -2.507678, 4.5008993, 8.221739, -0.069951415, -0.56426907, 9.686086
516420004159920, -2.2899313, 5.704489, 8.474181, 0.42648268, 0.3001895, 10.455847
516420013798253, -2.5782664, 4.3058844, 8.299505, -0.14378917, -0.75683165, 9.668321
516420023436691, -2.4143581, 5.7930236, 8.343773, 0.30176234, 0.44207573, 10.426904
516420033075128, -2.5998018, 4.476971, 8.025527, -0.20180845, -0.45330954, 9.537563
516420042713462, -2.5507488, 5.54417, 8.02792, 0.05898571, 0.4183421, 10.075373
516420052351899, -2.6045876, 4.9268217, 7.8400836, -0.14311945, 0.012734413, 9.617886
516420061990337, -2.6979074, 5.1050873, 7.8903327, -0.18333113, 0.13217354, 9.77481
516420071628670, -2.5591238, 5.40419, 7.984849, 0.018529058, 0.3163576, 9.970547
516420081267107, -2.71705, 4.558327, 7.96451, -0.29270422, -0.37070823, 9.558821
516420090905545, -2.4358935, 5.704489, 8.213364, 0.24348521, 0.44051123, 10.280115
516420100543982, -2.6045876, 4.304688, 8.149954, -0.198645, -0.6919837, 9.550793
516420110182316, -2.376073, 5.771488, 8.319844, 0.32484555, 0.44617033, 10.386096
516420119820753, -2.536392, 4.412365, 8.088937, -0.12715268, -0.5696244, 9.539
516420129459191, -2.4418755, 5.582455, 8.169097, 0.2017864, 0.35863543, 10.182896
516420139097524, -2.489732, 4.8562336, 8.065009, 0.0031684637, -0.18056059, 9.736197
516420148735962, -2.5842485, 5.1553364, 8.068598, -0.036393285, 0.065320015, 9.917285
516420158374399, -2.501696, 5.4017973, 8.139186, 0.10707629, 0.22702312, 10.080736
516420168012837, -2.684747, 4.7018967, 8.039884, -0.22441697, -0.2902918, 9.686113
516420177651170, -2.4227328, 5.741578, 8.122437, 0.25374866, 0.5098882, 10.2217865
516420187289607, -2.597409, 4.368098, 7.960921, -0.20536208, -0.538481, 9.427137
516420196928045, -2.3808584, 5.84088, 8.079366, 0.28198195, 0.6122761, 10.227715
516420206566378, -2.6368906, 4.412365, 7.87119, -0.2554717, -0.4641366, 9.386007
516420216204816, -2.5950162, 5.5920267, 8.020741, 0.015658021, 0.44171524, 10.1065235
516420225843253, -2.6249263, 4.7892346, 7.989635, -0.15109599, -0.2110033, 9.674396
516420235481587, -2.6668007, 5.1756754, 8.106883, -0.10130525, 0.05018282, 9.980392
516420245120024, -2.475375, 5.2737813, 8.172686, 0.117703676, 0.09526539, 10.035442
516420254758462, -2.5902305, 4.6564326, 8.153543, -0.10850954, -0.4064927, 9.7311325
516420264396795, -2.3605196, 5.6674004, 8.29472, 0.33163798, 0.351099, 10.308279
516420274035232, -2.6141586, 4.3405805, 8.116454, -0.2239964, -0.6421585, 9.544043
516420283673670, -2.3940191, 5.7954164, 8.212168, 0.29774916, 0.50281286, 10.315832
516420293312107, -2.5842485, 4.3836513, 7.946564, -0.20955276, -0.50765586, 9.420244
516420302950441, -2.4945176, 5.6279187, 8.007581, 0.13953054, 0.48545694, 10.087729
516420312588878, -2.5746772, 4.782056, 7.911868, -0.12112796, -0.162426, 9.594459
516420322227316, -2.6859434, 5.2737813, 7.9980097, -0.1181159, 0.20145941, 9.946894
516420331865649, -2.5806592, 5.316852, 8.029117, 0.0012850761, 0.2131095, 9.967448
516420341504087, -2.7290142, 4.770092, 8.017152, -0.2423042, -0.23555899, 9.714001
516420351142524, -2.4131618, 5.704489, 8.165507, 0.2465154, 0.45871925, 10.235667
516420360780857, -2.635694, 4.408776, 8.109276, -0.21149993, -0.587481, 9.578867
516420370419295, -2.3892334, 5.828916, 8.295917, 0.3276589, 0.4968443, 10.399652
516420380057732, -2.5818555, 4.359723, 8.048259, -0.17583048, -0.5881691, 9.490562
516420389696170, -2.4179473, 5.662615, 8.172686, 0.2440995, 0.4158597, 10.221151
516420399334503, -2.5196424, 4.686343, 8.024331, -0.06516588, -0.30233717, 9.623132
516420408972941, -2.5423741, 5.2342997, 8.072187, 0.02501154, 0.12910938, 9.9501
516420418611378, -2.4299114, 5.1696935, 8.043473, 0.11506307, 0.080742836, 9.864477
516420428249712, -2.605784, 4.7078786, 8.012366, -0.15448129, -0.27278423, 9.646448
516420437888149, -2.42034, 5.5633125, 8.166703, 0.22101629, 0.35058403, 10.165226
516420447526587, -2.6991038, 4.342973, 8.098508, -0.30371666, -0.6157501, 9.553062
516420457164920, -2.4885356, 5.814559, 8.299505, 0.22331727, 0.48841858, 10.420906
516420466803357, -2.6943183, 4.3788652, 8.055437, -0.2942443, -0.5525124, 9.535829
516420476441795, -2.5998018, 5.7463636, 8.128419, 0.06765497, 0.5444412, 10.2737465
516420486080128, -2.6943183, 4.7078786, 7.946564, -0.24373806, -0.23233938, 9.615507
516420495718566, -2.6285157, 5.380262, 7.9980097, -0.043013453, 0.29978418, 9.9866295
516420505357003, -2.4502504, 5.188836, 7.999206, 0.09512794, 0.13178778, 9.843203
516420514995337, -2.5399811, 4.770092, 8.007581, -0.07202828, -0.22096634, 9.657776
516420524633774, -2.2767708, 5.556134, 8.257631, 0.3785609, 0.28108978, 10.199042
516420534272212, -2.5375884, 4.345366, 8.256434, -0.1174109, -0.7042837, 9.64264
516420543910649, -2.3341985, 5.7355957, 8.462217, 0.39102805, 0.32318354, 10.473648
516420553548982, -2.6081767, 4.260421, 8.2456665, -0.21193373, -0.7538779, 9.608929
516420563187420, -2.461018, 5.6985073, 8.26481, 0.22675192, 0.41248083, 10.32546
516420572825857, -2.5674987, 4.6695933, 7.9968133, -0.13302445, -0.29056692, 9.604376
516420582464191, -2.6213372, 5.4352965, 7.995617, -0.02371502, 0.35323048, 10.010914
516420592102628, -2.5495524, 5.1756754, 7.8687973, -0.031570673, 0.19184732, 9.75541
516420601741066, -2.6751757, 4.910072, 7.8317084, -0.21152627, -9.1314316E-4, 9.620618
516420611379399, -2.449054, 5.5704913, 7.952546, 0.15890634, 0.46452427, 10.00151
516420621017837, -2.6321049, 4.409972, 7.897511, -0.25161028, -0.46068907, 9.405901
516420630656274, -2.3724837, 5.7966127, 8.148758, 0.3197738, 0.5322523, 10.258953
516420640294607, -2.6129622, 4.339384, 8.014759, -0.2329607, -0.5818434, 9.460517
516420649933045, -2.5136602, 5.7655063, 8.187042, 0.17890036, 0.5213237, 10.309384
516420659571482, -2.6452653, 4.5942197, 8.076973, -0.19944155, -0.38776016, 9.65151
516420669209920, -2.5830522, 5.4376893, 8.17149, 0.03520596, 0.25727177, 10.146252
516420678848253, -2.536392, 5.0919266, 8.149954, 0.012762308, -0.013511658, 9.938934
516420688486691, -2.6668007, 4.8933225, 8.110473, -0.15937042, -0.14984083, 9.838108
516420698125128, -2.4095724, 5.5022955, 8.135597, 0.21512198, 0.3311472, 10.105112
516420707763462, -2.5998018, 4.392026, 8.054241, -0.20643985, -0.54134226, 9.517562
516420717401899, -2.3569303, 5.669793, 8.238488, 0.3042271, 0.41389322, 10.262092
516420727040337, -2.5950162, 4.1922255, 8.141579, -0.22299612, -0.751415, 9.485769
516420736678670, -2.428715, 5.65424, 8.274381, 0.24213374, 0.40531397, 10.301046
516420746317107, -2.5902305, 4.4602213, 8.12124, -0.16835475, -0.50205994, 9.6060915
516420755955545, -2.5734808, 5.4293146, 8.244471, 0.049226284, 0.24724054, 10.198433
516420765593982, -2.5435705, 5.0344987, 8.177471, -0.006458521, -0.05468273, 9.933979
516420775232316, -2.6907291, 5.0129633, 8.142776, -0.15650523, -0.047459126, 9.932163
516420784870753, -2.4466612, 5.5369916, 8.157132, 0.18322146, 0.36981773, 10.149528
516420794509191, -2.6129622, 4.5487556, 8.019546, -0.19179153, -0.37252736, 9.573731
516420804147524, -2.3856442, 5.7667027, 8.185846, 0.29268157, 0.53221655, 10.275472
516420813785962, -2.6285157, 4.2568316, 8.003992, -0.2584163, -0.6139884, 9.415403
516420823424399, -2.4418755, 5.7020965, 8.152347, 0.22193313, 0.5041208, 10.229077
516420833062732, -2.5794628, 4.4111686, 8.003992, -0.18949783, -0.48561668, 9.481783
516420842701170, -2.5268207, 5.4017973, 8.1738825, 0.079503894, 0.23907852, 10.114994
516420852339607, -2.5052853, 4.930411, 8.157132, 0.008013606, -0.13911533, 9.8541765
516420861977941, -2.6153553, 4.9782677, 8.139186, -0.09295082, -0.085314274, 9.892101
516420871616378, -2.42034, 5.432904, 8.12124, 0.18638992, 0.2897706, 10.060334
516420881254816, -2.6141586, 4.5355954, 7.9836526, -0.2065736, -0.3681152, 9.537609
516420890893253, -2.3665016, 5.7583275, 8.153543, 0.31210566, 0.5403886, 10.239606
516420900531587, -2.6285157, 4.339384, 8.033902, -0.268893, -0.55928326, 9.481445
516420910170024, -2.4239295, 5.7894344, 8.202596, 0.29015756, 0.5366335, 10.310354
516420919808462, -2.609373, 4.4781675, 8.098508, -0.21070361, -0.4688449, 9.601273
516420929446899, -2.5746772, 5.535795, 8.228917, 0.08359909, 0.3219204, 10.241017
516420939085232, -2.6081767, 4.9160542, 8.100901, -0.107189536, -0.109175205, 9.827074
516420948723670, -2.7003005, 5.032106, 8.02792, -0.18040538, 0.028126717, 9.850273
516420958362107, -2.498107, 5.393422, 8.015956, 0.09288931, 0.31415176, 9.973854
516420968000441, -2.658426, 4.5475593, 7.9094753, -0.26350224, -0.3142252, 9.494164
516420977638878, -2.3641088, 5.686543, 8.1344, 0.30189598, 0.47647095, 10.187056
516420987277316, -2.544767, 4.2460637, 8.096115, -0.17103577, -0.6802683, 9.463612
516420996915649, -2.3186452, 5.7379885, 8.346166, 0.38277376, 0.40831566, 10.375252
516421006554087, -2.4741786, 4.3836513, 8.218149, -0.062645316, -0.6314657, 9.6163025
516421016192524, -2.4215364, 5.528617, 8.333005, 0.23642802, 0.25630426, 10.283327
516421025830962, -2.4741786, 4.8705907, 8.166703, 0.024905682, -0.1845727, 9.823673
516421035469295, -2.6021945, 5.1254263, 8.084151, -0.066797614, 0.07829285, 9.918888
516421045107732, -2.5172493, 5.395815, 8.015956, 0.052107573, 0.33300734, 9.979645
516421054746170, -2.7768707, 4.633701, 7.834101, -0.37333226, -0.19690847, 9.506693
516421064384503, -2.5531418, 5.7487564, 8.019546, 0.09284508, 0.6264038, 10.172457
516421074022941, -2.757728, 4.321438, 7.9657063, -0.3872013, -0.525826, 9.450184
516421083661378, -2.5052853, 5.751149, 8.207381, 0.17474556, 0.5295496, 10.31515
516421093299816, -2.6476583, 4.314259, 8.170293, -0.24196029, -0.64582443, 9.586498
516421102938149, -2.4622145, 5.491528, 8.380861, 0.1998719, 0.20589781, 10.313869
516421112576587, -2.4131618, 4.7401814, 8.287541, 0.08496201, -0.3620863, 9.840613
516421122215024, -2.4825535, 5.0979085, 8.319844, 0.08723104, -0.072888374, 10.067701
516421131853462, -2.379662, 5.2905307, 8.246863, 0.21329427, 0.12162876, 10.07983
516421141491795, -2.5746772, 4.658826, 7.9860454, -0.15348232, -0.24852657, 9.5929785
516421151130232, -2.353341, 5.690132, 8.060223, 0.28571248, 0.55045223, 10.124147
516421160768670, -2.626123, 4.358526, 7.8496547, -0.2945044, -0.4308009, 9.34013
516421170407107, -2.4382863, 5.818148, 8.013563, 0.21887803, 0.68871546, 10.173056
516421180045441, -2.7038896, 4.3704906, 7.9130645, -0.34683633, -0.45490217, 9.418152
516421189683878, -2.626123, 5.5704913, 8.12124, 0.0128240585, 0.43922472, 10.182747
516421199322316, -2.6333013, 4.7078786, 8.148758, -0.16825819, -0.29341698, 9.76659
516421208960649, -2.585445, 5.1326046, 8.30788, -0.006389141, -0.03439951, 10.1018715
516421218599087, -2.3665016, 5.18405, 8.329415, 0.22145343, -0.012401581, 10.089829
516421228237524, -2.5232315, 4.610969, 8.252846, -0.06312454, -0.432796, 9.774758
516421237875962, -2.3054845, 5.582455, 8.376076, 0.37175393, 0.28752232, 10.315853
516421247514295, -2.589034, 4.28076, 8.188239, -0.20150268, -0.66210794, 9.570593
516421257152732, -2.4023938, 5.791827, 8.309076, 0.29325628, 0.5187192, 10.392424
516421266791170, -2.605784, 4.328616, 8.076973, -0.22620916, -0.56972337, 9.5073
516421276429607, -2.4861426, 5.623133, 8.135597, 0.1450882, 0.47706366, 10.185275
516421286067941, -2.5615165, 4.709075, 7.9657063, -0.1258694, -0.1964674, 9.598688
516421295706378, -2.6572297, 5.2953167, 8.001599, -0.110428095, 0.2803917, 9.951685
516421305344816, -2.5734808, 5.255835, 7.987242, -0.03364086, 0.24934101, 9.898451
516421314983253, -2.7290142, 4.7102714, 7.928618, -0.28174436, -0.18299341, 9.611675
516421324621587, -2.4335005, 5.595616, 8.166703, 0.19057393, 0.4335165, 10.183498
516421334260024, -2.6165516, 4.3118663, 8.230113, -0.19109082, -0.6759715, 9.627037
516421343898462, -2.292324, 5.7260246, 8.299505, 0.38531053, 0.46206093, 10.3228855
516421353536899, -2.4801607, 4.3154554, 7.9680996, -0.10003126, -0.5286863, 9.379521
516421363175232, -2.3078775, 5.73081, 8.084151, 0.32426465, 0.58932114, 10.152317
516421372813670, -2.5698915, 4.729414, 8.047063, -0.10820961, -0.22374439, 9.678077
516421382452107, -2.757728, 5.2929235, 8.10808, -0.18024743, 0.22283268, 10.063744
516421392090545, -2.6835506, 5.1613183, 8.178668, -0.11592317, 0.0815258, 10.035496
516421401728878, -2.7696922, 4.7318068, 8.207381, -0.26706123, -0.28832293, 9.862447
516421411367316, -2.416751, 5.4819565, 8.377272, 0.23773646, 0.24530077, 10.293423
516421421005753, -2.5292134, 4.2652063, 8.213364, -0.0977391, -0.6923518, 9.5686655
516421430644191, -2.2121646, 5.71765, 8.382058, 0.47642386, 0.43703842, 10.364658
516421440282524, -2.4358935, 4.281956, 8.128419, -0.031479478, -0.6313844, 9.483686
516421449920962, -2.3569303, 5.636294, 8.200203, 0.2781613, 0.47181034, 10.211085
516421459559399, -2.4993033, 4.57747, 8.02792, -0.069509745, -0.32673097, 9.567427
516421469197837, -2.6009982, 5.322834, 8.116454, -0.0248034, 0.24916363, 10.04549
516421478836274, -2.6117659, 5.133801, 8.155936, -0.056422353, 0.067632675, 9.984427
516421488474607, -2.8055844, 4.8251266, 8.073383, -0.3138343, -0.13875818, 9.808922
516421498113045, -2.5746772, 5.5298133, 8.187042, 0.061217904, 0.38110685, 10.202277
516421507751482, -2.8163524, 4.359723, 8.019546, -0.41745675, -0.50523496, 9.530088
516421517389920, -2.5471597, 5.723632, 8.175078, 0.12050903, 0.5494685, 10.284137
516421527028253, -2.7122645, 4.240082, 8.000402, -0.3349837, -0.5961187, 9.427277
516421536666691, -2.469393, 5.6685967, 8.135597, 0.18521202, 0.50814867, 10.204229
516421546305128, -2.5088747, 4.5284166, 8.04108, -0.072339654, -0.38734436, 9.555351
516421555943566, -2.4358935, 5.2929235, 8.207381, 0.16682625, 0.153162, 10.062725
516421565582003, -2.3186452, 4.9734817, 8.250452, 0.2245239, -0.13910961, 9.905141
516421575220337, -2.4741786, 4.8179483, 8.254042, 0.0412215, -0.25809288, 9.868896
516421584858774, -2.3186452, 5.5369916, 8.319844, 0.34029496, 0.30250168, 10.249239
516421594497212, -2.664408, 4.520042, 8.199007, -0.21220386, -0.4606607, 9.720922
516421604135649, -2.477768, 5.905486, 8.300702, 0.24448407, 0.62783813, 10.4623995
516421613774087, -2.7409782, 4.4350967, 8.014759, -0.32593858, -0.43804288, 9.545748
516421623412420, -2.5710878, 5.825327, 8.100901, 0.10705376, 0.6590738, 10.282203
516421633050857, -2.6416762, 4.537988, 7.8867435, -0.23331153, -0.300637, 9.467192
516421642689295, -2.5495524, 5.3312087, 8.006385, 0.030000687, 0.28014898, 9.947101
516421652327732, -2.4622145, 4.9172506, 8.020741, 0.04085946, -0.079565525, 9.724514
516421661966066, -2.5459633, 4.802395, 8.059027, -0.058979988, -0.19460917, 9.7186165
516421671604503, -2.3641088, 5.383851, 8.1738825, 0.25021803, 0.21839714, 10.0636425
516421681242941, -2.664408, 4.4147577, 8.093722, -0.23821712, -0.52689075, 9.579308
516421690881378, -2.469393, 5.800202, 8.30788, 0.26128328, 0.5095067, 10.413128
516421700519816, -2.7553353, 4.388437, 8.068598, -0.36417794, -0.5138953, 9.5684805
516421710158253, -2.6021945, 5.845666, 8.120044, 0.13041234, 0.6558986, 10.316547
516421719796587, -2.745764, 4.6085763, 7.8664045, -0.32439184, -0.22342587, 9.513327
516421729435024, -2.6536403, 5.569295, 7.914261, -0.024817228, 0.5326419, 10.020483
516421739073462, -2.589034, 5.042874, 7.8699937, -0.08233881, 0.11482954, 9.697964
516421748711899, -2.6512475, 4.9567323, 7.8687973, -0.1605146, 0.04063511, 9.6689625
516421758350337, -2.4011974, 5.3706903, 7.98126, 0.18276262, 0.3163495, 9.908436
516421767988670, -2.5806592, 4.3992043, 8.032705, -0.17583013, -0.5086744, 9.499868
516421777627107, -2.3102703, 5.6446686, 8.368897, 0.37948978, 0.3574133, 10.342452
516421787265545, -2.5184457, 4.2125645, 8.281559, -0.08310747, -0.78978705, 9.593842
516421796903982, -2.2301106, 5.709275, 8.548359, 0.49410582, 0.3315177, 10.501886
516421806542420, -2.341377, 4.4171505, 8.416754, 0.10900092, -0.68076706, 9.765228
516421816180857, -2.2983062, 5.410172, 8.519645, 0.3570279, 0.110408306, 10.343928
516421825819191, -2.3688943, 4.8251266, 8.410771, 0.15583813, -0.32256174, 9.975283
516421835457628, -2.5818555, 4.961518, 8.390432, -0.030688167, -0.18530798, 10.081999
516421845096066, -2.5674987, 5.365905, 8.344969, 0.057878017, 0.17637682, 10.246415
516421854734503, -2.8259234, 4.503292, 8.143971, -0.39689207, -0.4307239, 9.708074
516421864372941, -2.5615165, 5.749953, 8.240881, 0.1486882, 0.53444767, 10.355082
516421874011378, -2.7792635, 4.2927237, 8.006385, -0.409755, -0.55424786, 9.475171
516421883649712, -2.4969103, 5.73081, 8.075776, 0.17249024, 0.59082127, 10.193923
516421893288149, -2.5902305, 4.388437, 7.836494, -0.23285842, -0.39311194, 9.336463
516421902926587, -2.5339992, 5.483153, 7.938189, 0.064166784, 0.4447484, 9.964891
516421912565024, -2.565106, 4.8155556, 7.861619, -0.11128104, -0.06655693, 9.568573
516421922203462, -2.672783, 5.0536413, 7.9022965, -0.15680683, 0.11225653, 9.751521
516421931841899, -2.528017, 5.4149575, 8.031509, 0.08298075, 0.33230972, 10.005021
516421941480232, -2.7708886, 4.6779685, 8.015956, -0.30469406, -0.25983953, 9.677625
516421951118670, -2.5124638, 5.825327, 8.255239, 0.2327249, 0.55326796, 10.394018
516421960757107, -2.7086751, 4.426722, 8.139186, -0.29197466, -0.5213032, 9.634424
516421970395545, -2.4382863, 5.8396835, 8.301898, 0.32128, 0.52958345, 10.420412
516421980033982, -2.5818555, 4.3908296, 8.094919, -0.17986655, -0.5413437, 9.54713
516421989672420, -2.4394827, 5.493921, 8.172686, 0.2094475, 0.30745792, 10.138473
516421999310857, -2.4538395, 4.7007003, 8.094919, 0.009112477, -0.2986083, 9.672455
516422008949191, -2.4993033, 5.005785, 8.182257, 0.04307723, -0.09546471, 9.911749
516422018587628, -2.347359, 5.2402816, 8.22772, 0.2491355, 0.06614351, 10.029935
516422028226066, -2.5627131, 4.578666, 8.172686, -0.11523974, -0.43229675, 9.701769
516422037864503, -2.3892334, 5.6674004, 8.30788, 0.30641556, 0.3841138, 10.325082
516422047502941, -2.6895328, 4.336991, 8.090134, -0.2837609, -0.58128977, 9.543318
516422057141378, -2.5064816, 5.8743796, 8.191829, 0.20863235, 0.6375065, 10.36566
516422066779816, -2.7302105, 4.4925246, 7.926225, -0.319178, -0.36215043, 9.498886
516422076418253, -2.6321049, 5.709275, 8.018349, 0.035587072, 0.590539, 10.171907
516422086056587, -2.6333013, 4.871787, 7.9011, -0.1528635, -0.060587406, 9.647224
516422095695024, -2.6488547, 5.2342997, 7.9657063, -0.087527275, 0.2130394, 9.890082
516422105333462, -2.5399811, 4.9782677, 7.9537425, -0.032566667, -0.0036640167, 9.720884
516422114971899, -2.524428, 5.0596237, 8.076973, 0.020053267, 8.497238E-4, 9.859493
516422124610337, -2.4729822, 4.9926243, 8.157132, 0.07427013, -0.097313404, 9.877538
516422134248774, -2.475375, 5.048856, 8.221739, 0.09385347, -0.084699154, 9.959891
516422143887212, -2.5088747, 4.999803, 8.202596, 0.047705293, -0.11090231, 9.927763
516422153525649, -2.516053, 5.0715876, 8.1679, 0.042851925, -0.025497913, 9.937988
516422163163982, -2.5495524, 5.0799623, 8.147561, 0.007755637, -0.0064530373, 9.934229
516422172802420, -2.5818555, 5.133801, 8.140383, -0.015985131, 0.046966553, 9.964198
516422182440857, -2.5806592, 5.176872, 8.112865, -0.01035881, 0.09818888, 9.963365
516422192079295, -2.5842485, 5.1469617, 8.146365, -0.012477398, 0.05593252, 9.976448
516422201717732, -2.568695, 5.1003013, 8.155936, -0.0072666407, 0.010939598, 9.956425
516422211356170, -2.5088747, 5.0548377, 8.17149, 0.04327202, -0.040664196, 9.930536
516422220994607, -2.457429, 5.0189457, 8.1738825, 0.08316672, -0.0754838, 9.900934
516422230633045, -2.4622145, 4.9722853, 8.165507, 0.06649113, -0.10821438, 9.8714485
516422240271482, -2.516053, 4.985446, 8.149954, 0.014889598, -0.08392334, 9.879255
516422249909816, -2.5411777, 5.0069814, 8.146365, -0.005840659, -0.060537815, 9.893787
516422259548253, -2.5746772, 5.0249276, 8.12124, -0.03824401, -0.027476788, 9.890964
516422269186691, -2.5842485, 5.070391, 8.09133, -0.041905522, 0.028683186, 9.89213
516422278825128, -2.5818555, 5.1026945, 8.080562, -0.033463478, 0.061962605, 9.899191
516422288463566, -2.5866413, 5.1050873, 8.0817585, -0.036555767, 0.06359291, 9.90263
516422298102003, -2.5962126, 5.1254263, 8.120044, -0.033477664, 0.059648514, 9.946897
516422307740441, -2.5962126, 5.109873, 8.1738825, -0.027764678, 0.017353058, 9.983108
516422317378878, -2.5328028, 5.056034, 8.213364, 0.028113484, -0.054487705, 9.971668
516422327017316, -2.4705894, 5.032106, 8.232507, 0.086206436, -0.09047556, 9.95914
516422336655753, -2.455036, 5.023731, 8.230113, 0.09596193, -0.09645271, 9.948935
516422346294191, -2.4670002, 5.023731, 8.202596, 0.080785275, -0.079369545, 9.929437
516422355932628, -2.498107, 5.038088, 8.153543, 0.044071555, -0.038751125, 9.90453
516422365571066, -2.5387847, 5.0739803, 8.080562, 8.2850456E-5, 0.03351307, 9.873451
516422375209399, -2.556731, 5.081159, 8.025527, -0.0234195, 0.06710243, 9.836618
516422384847837, -2.5950162, 5.109873, 8.001599, -0.056981683, 0.10824108, 9.84152
516422394486274, -2.6392834, 5.1254263, 8.017152, -0.09186602, 0.11549473, 9.87364
516422404124712, -2.6979074, 5.1349974, 8.096115, -0.13176215, 0.08476496, 9.958385
516422413763149, -2.6859434, 5.12423, 8.127222, -0.11456883, 0.055015087, 9.975351
516422423401587, -2.6201408, 5.0883374, 8.166703, -0.05322206, -0.0028061867, 9.972388
516422433040024, -2.5184457, 5.0452666, 8.185846, 0.038163543, -0.059070587, 9.93984
516422442678462, -2.4335005, 4.9986067, 8.166703, 0.10588837, -0.096166134, 9.878389
516422452316899, -2.3952155, 5.003392, 8.161918, 0.14052701, -0.09141302, 9.867107
516422461955337, -2.4095724, 5.0129633, 8.178668, 0.13009107, -0.09000635, 9.88946
516422471593774, -2.4765713, 5.0249276, 8.17149, 0.06612313, -0.06843281, 9.906942
516422481232212, -2.5148566, 5.0548377, 8.165507, 0.034644604, -0.0368762, 9.927177
516422490870649, -2.5555346, 5.083552, 8.139186, -0.0033817291, 0.005657673, 9.930738
516422500509087, -2.6069803, 5.0859447, 8.075776, -0.06330562, 0.046571255, 9.893188
516422510147524, -2.6715865, 5.131408, 8.10449, -0.10755038, 0.07292223, 9.956636
516422519785962, -2.672783, 5.15414, 8.124829, -0.09870136, 0.078139305, 9.985287
516422529424399, -2.6309085, 5.1553364, 8.098508, -0.06266272, 0.090013504, 9.953543
516422539062837, -2.53041, 5.1158547, 8.092526, 0.02612722, 0.050439358, 9.902563
516422548701170, -2.510071, 5.0620165, 8.098508, 0.035892725, -9.1028214E-4, 9.874666
516422558339607, -2.4658036, 5.028517, 8.062616, 0.06368053, -0.013850689, 9.816704
516422567978045, -2.5052853, 5.0141597, 8.068598, 0.02271235, -0.024767876, 9.824429
516422577616482, -2.5292134, 5.0333023, 8.098508, 0.008878946, -0.023095608, 9.864902
516422587254920, -2.5674987, 5.0656056, 8.118847, -0.018000007, -4.310608E-4, 9.907966
516422596893357, -2.603391, 5.06082, 8.151151, -0.04795885, -0.019195557, 9.941235
516422606531795, -2.6117659, 5.063213, 8.206185, -0.04519868, -0.04294491, 9.989746
516422616170232, -2.6416762, 5.1014977, 8.251649, -0.057038784, -0.032488346, 10.054311
516422625808670, -2.6344976, 5.111069, 8.23131, -0.05182612, -0.013998985, 10.040678
516422635447107, -2.5782664, 5.0943193, 8.207381, -0.0038957596, -0.019099712, 9.998014
516422645085545, -2.5256243, 5.066802, 8.163115, 0.03406644, -0.025485516, 9.934078
516422654723982, -2.489732, 5.0572305, 8.060223, 0.048036575, 0.017140865, 9.835594
516422664362420, -2.461018, 5.040481, 8.000402, 0.06184435, 0.03023386, 9.770609
516422674000857, -2.4765713, 5.0596237, 7.995617, 0.050112247, 0.04979229, 9.780497
516422683639295, -2.481357, 5.0739803, 8.025527, 0.053818464, 0.04350233, 9.813599
516422693277732, -2.4670002, 5.0799623, 8.075776, 0.077314496, 0.01889515, 9.854132
516422702916170, -2.4945176, 5.0955157, 8.133204, 0.06341326, 0.0028333664, 9.916243
516422712554607, -2.5531418, 5.070391, 8.181061, 0.00855875, -0.037605762, 9.957693
516422722193045, -2.5926232, 5.058427, 8.172686, -0.03291285, -0.037148952, 9.954885
516422731831482, -2.5998018, 5.0715876, 8.145168, -0.04145527, -0.010372162, 9.94092
516422741469920, -2.603391, 5.087141, 8.088937, -0.048167825, 0.033357143, 9.903742
516422751108357, -2.6536403, 5.087141, 8.098508, -0.09505582, 0.03214836, 9.924543
516422760746795, -2.652444, 5.130212, 8.082955, -0.08544707, 0.07584, 9.933561
516422770385232, -2.6141586, 5.1290154, 8.050652, -0.054031134, 0.08963871, 9.896599
516422780023670, -2.5555346, 5.1014977, 8.082955, 0.0024774075, 0.043899536, 9.893849
516422789662107, -2.5268207, 5.0799623, 8.094919, 0.026583433, 0.017571926, 9.885218
516422799300545, -2.524428, 5.048856, 8.093722, 0.022089005, -0.007989407, 9.867698
516422808938982, -2.507678, 5.032106, 8.123632, 0.038112283, -0.037261486, 9.879327
516422818577420, -2.498107, 5.032106, 8.209774, 0.060818195, -0.0832243, 9.947484
516422828215857, -2.510071, 5.023731, 8.239685, 0.052379727, -0.10542631, 9.970804
516422837854295, -2.5399811, 5.0189457, 8.246863, 0.023341537, -0.10744381, 9.981984
516422847492732, -2.556731, 5.0452666, 8.22772, 0.009053946, -0.06978798, 9.984087
516422857131170, -2.5543382, 5.0883374, 8.188239, 0.014129519, -0.012704372, 9.973101
516422866769607, -2.5734808, 5.1122656, 8.1344, -0.008981466, 0.038092136, 9.946105
516422876408045, -2.6273193, 5.1146584, 8.128419, -0.059991002, 0.042874813, 9.956318
516422886046482, -2.6081767, 5.1158547, 8.090134, -0.047218084, 0.060063362, 9.920635
516422895684920, -2.57707, 5.117051, 8.072187, -0.019636273, 0.06569958, 9.898536
516422905323357, -2.5339992, 5.0943193, 8.038688, 0.0114325285, 0.0621109, 9.848337
516422914961795, -2.5004997, 5.0476594, 8.025527, 0.032705188, 0.02326727, 9.80504
516422924600232, -2.495714, 5.022535, 8.032705, 0.03381288, -0.002152443, 9.796818
516422934238670, -2.4789643, 5.0440702, 8.04108, 0.05542922, 0.009668827, 9.810388
516422943877107, -2.524428, 5.066802, 8.080562, 0.022879362, 0.010713577, 9.866107
516422953515545, -2.585445, 5.0739803, 8.105687, -0.030784369, 0.008412361, 9.906107
516422963153982, -2.617748, 5.0955157, 8.096115, -0.059600472, 0.036125183, 9.917618
516422972792420, -2.5986054, 5.09073, 8.12124, -0.036708355, 0.020139694, 9.930814
516422982430857, -2.5914268, 5.103891, 8.142776, -0.022785664, 0.019985199, 9.953345
516422992069295, -2.6368906, 5.0799623, 8.200203, -0.060503125, -0.027351856, 9.9999075
516423001707732, -2.6476583, 5.0751767, 8.268398, -0.058911443, -0.066568375, 10.056144
516423011346170, -2.5830522, 5.0476594, 8.2456665, -0.0061585903, -0.08162689, 10.006764
516423020984607, -2.524428, 5.0105705, 8.208578, 0.035517454, -0.096349716, 9.942271
516423030623045, -2.4382863, 5.023731, 8.139186, 0.10851455, -0.05431223, 9.869889
516423040261482, -2.3940191, 5.0368915, 8.05783, 0.13881719, -0.0019745827, 9.798517
516423049899920, -2.4562325, 5.035695, 7.995617, 0.06580734, 0.030896187, 9.762987
516423059538357, -2.5339992, 5.081159, 8.000402, -4.4631958E-4, 0.069048405, 9.81025
516423069176795, -2.629712, 5.1290154, 8.036295, -0.077806234, 0.09387112, 9.88885
516423078815232, -2.6608188, 5.131408, 8.072187, -0.09954679, 0.07784462, 9.927514
