timestamp_acc,device_acc_x,device_acc_y,device_acc_z,earth_acc_x,earth_acc_y,earth_acc_z
516670724593371, -0.16390835, 4.089334, 9.072387, -0.04726076, -8.6283684E-4, 9.952662
516670734232537, -0.13758731, 4.091727, 9.104691, -0.02288419, -0.016642809, 9.982775
516670743871704, -0.124426775, 4.1168513, 9.172886, -0.010753095, -0.025359392, 10.055102
516670753510975, -0.09332009, 4.1371903, 9.209974, 0.021027386, -0.028907537, 10.0969
516670763150141, -0.096909314, 4.15394, 9.157332, 0.025588691, 0.008348465, 10.055876
516670772789412, -0.07537391, 4.174279, 9.069994, 0.058576405, 0.053803682, 9.984425
516670782428579, -0.12801601, 4.135994, 8.999406, 0.005993545, 0.06191969, 9.904962
516670792067850, -0.12203395, 4.141976, 8.939586, 0.017446458, 0.08683753, 9.852879
516670801707016, -0.106480606, 4.150351, 8.956335, 0.032106936, 0.081691265, 9.871423
516670811346183, -0.12801601, 4.0965123, 8.99462, -0.0054082274, 0.023479939, 9.884353
516670820985454, -0.15194423, 4.092923, 9.031709, -0.032597423, 0.01092124, 9.916939
516670830624621, -0.13878371, 4.0905304, 9.120243, -0.027151346, -0.029217005, 9.996447
516670840263891, -0.08255238, 4.0869412, 9.15135, 0.023074329, -0.059259653, 10.022627
516670849903058, -0.083748795, 4.0965123, 9.188439, 0.020598173, -0.064652205, 10.060381
516670859542329, -0.11724831, 4.0977087, 9.1872425, -0.0116580725, -0.053099632, 10.06019
516670869181496, -0.12562318, 4.1072803, 9.126225, -0.011487484, -0.017609358, 10.008651
516670878820662, -0.13280165, 4.1072803, 9.092726, -0.015039325, -0.0021793842, 9.978218
516670888459933, -0.12083755, 4.1180477, 9.030513, 0.004370749, 0.02622652, 9.925845
516670898099100, -0.12323037, 4.1276193, 9.018549, 0.0049865246, 0.038259983, 9.91893
516670907738371, -0.13280165, 4.1168513, 8.974281, -0.0024425387, 0.049141645, 9.87428
516670917377537, -0.12921242, 4.113262, 8.995817, -0.0025410652, 0.033751726, 9.892382
516670927016808, -0.14596218, 4.106084, 9.048459, -0.025664091, 0.010011911, 9.93756
516670936655975, -0.13878371, 4.1312084, 9.056833, -0.013329923, 0.02673912, 9.955477
516670946295141, -0.111266255, 4.0965123, 9.050852, 0.0058135986, -0.008920193, 9.935372
516670955934412, -0.11365908, 4.104887, 9.06162, 0.0047132373, -0.005618334, 9.948665
516670965573579, -0.11365908, 4.1204405, 9.046066, 0.010323107, 0.014802694, 9.940923
516670975212850, -0.096909314, 4.1108694, 9.041281, 0.0250597, 0.004789114, 9.932409
516670984852016, -0.104087785, 4.1036906, 9.103494, 0.010721505, -0.022544622, 9.986195
516670994491183, -0.1268196, 4.080959, 9.113065, -0.018178225, -0.040054083, 9.985806
516671004130454, -0.13040884, 4.0498524, 9.133404, -0.03153962, -0.07342148, 9.991547
516671013769621, -0.13519448, 4.042674, 9.158528, -0.040514886, -0.08844519, 10.011528
516671023408891, -0.101694964, 4.1443686, 9.129815, 0.02088672, 0.0031557083, 10.026924
516671033048058, -0.12562318, 4.119244, 9.097511, -0.0046862364, 8.504391E-4, 9.987425
516671042687329, -0.12083755, 4.1312084, 9.010174, 0.010715365, 0.043560505, 9.912755
516671052326496, -0.1052842, 4.1778684, 8.963513, 0.041499972, 0.09760022, 9.889338
516671061965662, -0.1052842, 4.2017965, 8.935996, 0.05079508, 0.127388, 9.874179
516671071604933, -0.12921242, 4.1778684, 8.925228, 0.022215307, 0.115259886, 9.854806
516671081244100, -0.1160519, 4.15394, 8.940782, 0.026726544, 0.08268356, 9.85894
516671090883371, -0.13160525, 4.135994, 9.035298, -0.002203524, 0.032090425, 9.937774
516671100522537, -0.15194423, 4.0977087, 9.108279, -0.039078057, -0.024704456, 9.988639
516671110161808, -0.13040884, 4.068995, 9.200403, -0.035170734, -0.09110665, 10.060398
516671119800975, -0.10887343, 4.078566, 9.263813, -0.01655221, -0.1100831, 10.121878
516671129440141, -0.13040884, 4.0642095, 9.239884, -0.03981638, -0.10535669, 10.094432
516671139079412, -0.1363909, 4.046263, 9.1681, -0.041485667, -0.09085393, 10.021724
516671148718579, -0.124426775, 4.0761733, 9.041281, -0.007415414, -0.018356085, 9.918421
516671158357850, -0.09092726, 4.126423, 8.952746, 0.047687232, 0.049037218, 9.858124
516671167997016, -0.1052842, 4.168297, 8.885747, 0.05254209, 0.11392403, 9.81461
516671177636183, -0.14237295, 4.173083, 8.914461, 0.014465809, 0.115757704, 9.843216
516671187275454, -0.14356937, 4.1551366, 9.013762, -0.0035632849, 0.061210632, 9.926226
516671196914621, -0.12921242, 4.1312084, 9.077172, -0.004461646, 0.009153843, 9.973892
516671206553891, -0.09212367, 4.156333, 9.101101, 0.035070777, 0.009324312, 10.005613
516671216193058, -0.07537391, 4.139583, 9.110672, 0.045323253, -0.014408827, 10.007193
516671225832225, -0.076570325, 4.113262, 9.065208, 0.041684747, -0.019283056, 9.954932
516671235471496, -0.101694964, 4.125226, 9.0341015, 0.023733377, 0.0106163025, 9.931876
516671245110662, -0.12562318, 4.089334, 9.037691, -0.009067714, -0.014906883, 9.920584
516671254749933, -0.12801601, 4.089334, 9.065208, -0.013910115, -0.02447486, 9.945664
516671264389100, -0.16031912, 4.1144586, 9.092726, -0.04134488, -0.0041513443, 9.981504
516671274028371, -0.20219351, 4.125226, 9.079565, -0.07763678, 0.02196312, 9.974486
516671283667537, -0.20578274, 4.1228333, 9.065208, -0.077754974, 0.02528119, 9.960494
516671293306704, -0.18305093, 4.1180477, 9.056833, -0.056250513, 0.018239737, 9.950605
516671302945975, -0.16390835, 4.1407795, 9.020942, -0.027552485, 0.045817375, 9.927107
516671312585141, -0.10767702, 4.130012, 9.004191, 0.027335346, 0.025918007, 9.906698
516671322224412, -0.09212367, 4.121637, 9.007781, 0.03987491, 0.013114691, 9.906298
516671331863579, -0.050249275, 4.113262, 9.052048, 0.07389951, -0.023053646, 9.942587
516671341502746, -0.049052864, 4.104887, 9.0544405, 0.07239181, -0.031368017, 9.941286
516671351142016, -0.04546363, 4.1431723, 9.017352, 0.08682704, 0.017919779, 9.923343
516671360781183, -0.08135597, 4.1515474, 9.040084, 0.051953375, 0.02532959, 9.947952
516671370420454, -0.13280165, 4.133601, 9.065208, -0.0054531097, 0.012859106, 9.964042
516671380059621, -0.1591227, 4.125226, 9.060423, -0.03331411, 0.014079571, 9.956546
516671389698891, -0.18065812, 4.1204405, 9.072387, -0.056444943, 0.010637045, 9.96572
516671399338058, -0.17587246, 4.1024942, 9.075976, -0.05466914, -0.008058786, 9.961511
516671408977225, -0.13758731, 4.089334, 9.048459, -0.018360138, -0.018633127, 9.930533
516671418616496, -0.15672988, 4.1168513, 9.055637, -0.02901876, 0.009101629, 9.948703
516671428255662, -0.1268196, 4.101298, 9.042477, -0.0029214025, -0.007545233, 9.929908
516671437894933, -0.1268196, 4.1072803, 9.026923, 7.735491E-4, 0.0046901703, 9.918224
516671447534100, -0.12921242, 4.121637, 9.037691, 0.0012791157, 0.014221668, 9.933993
516671457173266, -0.12323037, 4.1479583, 9.068798, 0.011132896, 0.023433924, 9.973122
516671466812537, -0.11724831, 4.1491547, 9.072387, 0.016841292, 0.021324873, 9.976809
516671476451704, -0.12203395, 4.1611185, 9.048459, 0.017612219, 0.042555332, 9.960035
516671486090975, -0.13519448, 4.1288157, 9.031709, -0.0025526881, 0.023169518, 9.931596
516671495730141, -0.14955142, 4.121637, 9.036494, -0.018356144, 0.018879652, 9.9331665
516671505369308, -0.10767702, 4.1180477, 9.060423, 0.018322647, -0.0056505203, 9.9529295
516671515008579, -0.062213387, 4.0977087, 9.0341015, 0.060523093, -0.023905993, 9.919973
516671524647746, -0.09332009, 4.0977087, 9.049655, 0.028509736, -0.020222664, 9.934533
516671534287016, -0.13399807, 4.0965123, 9.037691, -0.009711385, -0.0040762424, 9.923666
516671543926183, -0.13998012, 4.0941195, 9.06162, -0.018521428, -0.014144421, 9.944538
516671553565350, -0.11844472, 4.1144586, 9.080762, 0.0060432553, -0.008567333, 9.970102
516671563204621, -0.13519448, 4.135994, 9.067601, -0.0030639172, 0.020182848, 9.967233
516671572843787, -0.14955142, 4.139583, 9.0436735, -0.013566911, 0.037020683, 9.947111
516671582482954, -0.13998012, 4.1491547, 9.0341015, -5.6761503E-4, 0.046234846, 9.942228
516671592122225, -0.13519448, 4.121637, 9.055637, -0.004691124, 0.012544155, 9.950405
516671601761391, -0.13280165, 4.092923, 9.093923, -0.013146222, -0.028701544, 9.97337
516671611400662, -0.11006984, 4.082155, 9.077172, 0.0072748065, -0.036864758, 9.953379
516671621039829, -0.11964113, 4.1001015, 9.036494, 0.006022334, -0.0018362999, 9.923878
516671630678996, -0.11365908, 4.1036906, 8.987442, 0.017611027, 0.019886494, 9.880617
516671640318266, -0.14476576, 4.133601, 8.979067, -0.0037371516, 0.057719707, 9.885744
516671649957433, -0.14356937, 4.1288157, 8.977871, -0.0035287142, 0.05392742, 9.882662
516671659596704, -0.13998012, 4.1024942, 9.041281, -0.012259662, 0.0063529015, 9.929483
516671669235871, -0.1471586, 4.106084, 9.122637, -0.026379526, -0.021195889, 10.005146
516671678875037, -0.15792629, 4.1288157, 9.126225, -0.029338479, 0.0042488575, 10.017943
516671688514308, -0.17228323, 4.121637, 9.108279, -0.043019176, 0.009431362, 9.998819
516671698153475, -0.124426775, 4.112066, 9.073584, 0.005773902, 0.0011992455, 9.962653
516671707792641, -0.09212367, 4.1072803, 9.018549, 0.04147029, 0.009088516, 9.91013
516671717431912, -0.08135597, 4.0881376, 9.047262, 0.04326105, -0.021435738, 9.928248
516671727071079, -0.101694964, 4.0797625, 9.026923, 0.023217618, -0.0135092735, 9.906535
516671736710350, -0.08973085, 4.089334, 9.055637, 0.033466876, -0.019073963, 9.936488
516671746349516, -0.1268196, 4.085745, 9.080762, -0.005866945, -0.01970315, 9.958374
516671755988683, -0.11246266, 4.1383867, 9.0747795, 0.0224787, 0.024555445, 9.974438
516671765627954, -0.15792629, 3.958925, 9.026923, -0.061587095, -0.09935737, 9.85747
516671775267121, -0.124426775, 4.4685965, 9.189635, 0.08702433, 0.27349758, 10.215227
516671784906287, -0.25722843, 3.5736806, 8.95155, -0.24955183, -0.375108, 9.631438
516671794545558, -0.0047856453, 4.8215375, 9.196814, 0.30371928, 0.54331875, 10.365384
516671804184725, -0.23569304, 3.3260236, 8.863015, -0.295462, -0.55317426, 9.44869
516671813823996, -0.013160525, 4.84068, 9.080762, 0.31292713, 0.5968847, 10.268322
516671823463162, -0.22492532, 3.4217365, 8.895318, -0.2568344, -0.4881997, 9.517418
516671833102329, -0.0011964113, 4.5762734, 9.026923, 0.25812674, 0.38529587, 10.110021
516671842741600, -0.13280165, 3.8907297, 9.114262, -0.0672704, -0.19900846, 9.908636
516671852380766, -0.13878371, 4.0558343, 9.062816, -0.019339502, -0.029020548, 9.929876
516671862019933, -0.08973085, 4.4135613, 9.257831, 0.10250431, 0.1909554, 10.254171
516671871659204, -0.21894327, 3.5593238, 8.980264, -0.22069472, -0.40804338, 9.651252
516671881298371, -0.05383851, 4.7748775, 9.265009, 0.23110884, 0.49835157, 10.408697
516671890937537, -0.26799613, 3.2542388, 8.8905325, -0.34791607, -0.6120727, 9.444986
516671900576808, -0.011964113, 4.8693943, 9.129815, 0.32435596, 0.60383034, 10.324477
516671910215975, -0.24526432, 3.3918262, 8.9348, -0.29571408, -0.52534413, 9.541061
516671919855141, -0.08015956, 4.5894337, 9.0747795, 0.18955147, 0.415771, 10.159339
516671929494412, -0.18185452, 3.8344984, 9.089137, -0.11758393, -0.21567202, 9.863496
516671939133579, -0.11365908, 4.1611185, 8.995817, 0.04636383, 0.08277345, 9.911789
516671948772746, -0.05383851, 4.4051867, 9.127422, 0.15617919, 0.22343445, 10.131342
516671958412016, -0.18065812, 3.6335013, 8.896515, -0.15759897, -0.31477594, 9.605157
516671968051183, -0.046660043, 4.7856455, 9.2590275, 0.25261223, 0.50401044, 10.407515
516671977690350, -0.2548356, 3.2913275, 8.985049, -0.3286968, -0.62372065, 9.5463
516671987329621, 0.041874398, 4.851448, 9.266206, 0.35569835, 0.5343709, 10.439769
516671996968787, -0.21655045, 3.3511481, 8.965906, -0.271914, -0.5736742, 9.553088
516672006607954, -0.06819545, 4.6325045, 9.056833, 0.2161845, 0.44591284, 10.1609745
516672016247225, -0.22372891, 3.7758741, 9.017352, -0.17021644, -0.23035121, 9.774349
516672025886391, -0.16271193, 4.1778684, 8.970692, 0.006766379, 0.12457991, 9.896403
516672035525558, -0.1268196, 4.3298125, 9.127422, 0.06863916, 0.18291879, 10.101239
516672045164829, -0.20219351, 3.6753755, 8.903693, -0.1605084, -0.27533746, 9.629303
516672054803996, -0.021535404, 4.7856455, 9.229117, 0.2760839, 0.5078995, 10.380043
516672064443162, -0.24765715, 3.3690944, 8.973084, -0.28615272, -0.556412, 9.567493
516672074082433, -0.02751746, 4.8562336, 9.245867, 0.2893114, 0.55924296, 10.424653
516672083721600, -0.21535404, 3.3128629, 8.957532, -0.2715971, -0.61758256, 9.529096
516672093360766, -0.0071784677, 4.634897, 9.111869, 0.2591489, 0.41574955, 10.211192
516672103000037, -0.19621146, 3.6717863, 9.0233345, -0.17631406, -0.32844543, 9.736637
516672112639204, -0.11485548, 4.1754756, 8.989835, 0.05311477, 0.10121822, 9.912209
516672122278371, -0.11485548, 4.2245283, 9.142975, 0.050210238, 0.08287454, 10.071962
516672131917641, -0.20458634, 3.6921253, 8.956335, -0.16929972, -0.27568913, 9.684261
516672141556808, -0.07178468, 4.733003, 9.318848, 0.22492778, 0.43441105, 10.440695
516672151195975, -0.2847459, 3.3583267, 9.048459, -0.34995258, -0.57194066, 9.632469
516672160835246, -0.010767702, 4.901697, 9.302098, 0.33429396, 0.5624516, 10.494172
516672170474412, -0.2739782, 3.324827, 8.933603, -0.34191424, -0.5691724, 9.513041
516672180113579, -0.02871387, 4.7102714, 9.013762, 0.27725118, 0.52278733, 10.153088
516672189752850, -0.18305093, 3.696911, 8.920443, -0.13187593, -0.2680354, 9.6532755
516672199392016, -0.08733802, 4.2975097, 8.879765, 0.12395382, 0.23926902, 9.861737
516672209031183, -0.09451649, 4.2257247, 9.0341015, 0.076369345, 0.11669159, 9.973025
516672218670350, -0.16151553, 3.737589, 8.880961, -0.09796971, -0.23131609, 9.633484
516672228309621, -0.020338992, 4.6600223, 9.250652, 0.239928, 0.39309502, 10.347882
516672237948787, -0.25004998, 3.3619158, 9.048459, -0.30059642, -0.5946183, 9.633051
516672247587954, -0.043070808, 4.871787, 9.346365, 0.2646386, 0.55184937, 10.522174
516672257227225, -0.31585258, 3.3056846, 9.0436735, -0.37953347, -0.628216, 9.606073
516672266866391, -0.07537391, 4.749753, 9.190832, 0.21958607, 0.5036657, 10.33128
516672276505558, -0.19621146, 3.60718, 9.062816, -0.18047076, -0.39753032, 9.7465
516672286144725, -0.076570325, 4.321438, 9.008977, 0.120945156, 0.20519233, 9.989277
516672295783996, -0.10049855, 4.1312084, 9.050852, 0.047737896, 0.034036636, 9.949445
516672305423162, -0.12083755, 3.8069808, 8.827123, -0.036195934, -0.15877771, 9.612454
516672315062329, 0.008374879, 4.651647, 9.108279, 0.27310783, 0.43706536, 10.214354
516672324701600, -0.21296121, 3.3894334, 8.872586, -0.23961532, -0.52037215, 9.483048
516672334340766, -0.0011964113, 4.881358, 9.242277, 0.3181284, 0.5852287, 10.430899
516672343979933, -0.29072794, 3.3140593, 8.99462, -0.34625608, -0.6023538, 9.564936
516672353619204, -0.062213387, 4.802395, 9.194421, 0.23575205, 0.54426074, 10.356275
516672363258371, -0.2620141, 3.609573, 9.056833, -0.24471813, -0.37696886, 9.742786
516672372897537, -0.16869399, 4.402794, 9.105886, 0.04632461, 0.26131725, 10.112358
516672382536704, -0.20338993, 4.0737805, 9.163314, -0.07794666, -0.032024384, 10.02977
516672392175975, -0.1902294, 3.8141594, 8.953942, -0.11598128, -0.18137741, 9.731945
516672401815141, -0.039481573, 4.564309, 9.211171, 0.20608246, 0.3246534, 10.272892
516672411454308, -0.19501504, 3.3846476, 8.907282, -0.23008692, -0.53344774, 9.512941
516672421093475, 0.029910283, 4.851448, 9.203992, 0.34595394, 0.56471014, 10.383273
516672430732746, -0.22372891, 3.2925239, 8.919247, -0.2835728, -0.60862565, 9.486458
516672440371912, 0.0071784677, 4.8191447, 9.129815, 0.3291943, 0.55590034, 10.303413
516672450011079, -0.22731815, 3.5497525, 9.004191, -0.22482896, -0.41744828, 9.669697
516672459650246, -0.09930214, 4.4685965, 9.083155, 0.14383996, 0.30713677, 10.117654
516672469289516, -0.17228323, 4.0390844, 9.152547, -0.06075251, -0.07477021, 10.005184
516672478928683, -0.16749759, 3.8967116, 8.95155, -0.07460344, -0.11949015, 9.763341
516672488567850, -0.050249275, 4.5212383, 9.153743, 0.19403219, 0.30724096, 10.203093
516672498207016, -0.22612174, 3.434897, 8.912068, -0.26461804, -0.4856093, 9.537755
516672507846287, -0.0047856453, 4.8598228, 9.242277, 0.3167197, 0.5574639, 10.422403
516672517485454, -0.23330021, 3.2769706, 8.906086, -0.30641478, -0.62631536, 9.467056
516672527124621, -0.011964113, 4.843073, 9.110672, 0.31936735, 0.59647846, 10.295731
516672536763891, -0.25244278, 3.5090744, 8.949157, -0.25683922, -0.4288895, 9.602856
516672546403058, -0.11844472, 4.496114, 9.107083, 0.119591236, 0.316689, 10.1515255
516672556042225, -0.19381863, 3.9948175, 9.18485, -0.09248948, -0.12119174, 10.016705
516672565681391, -0.16151553, 3.9744785, 9.032906, -0.0539909, -0.09238982, 9.869372
516672575320662, -0.062213387, 4.4817567, 9.205189, 0.16394377, 0.25109744, 10.234043
516672584959829, -0.23449662, 3.4624143, 8.848659, -0.23736358, -0.45114088, 9.491163
516672594598996, 0.0023928226, 4.847859, 9.12144, 0.34192705, 0.57162046, 10.308189
516672604238162, -0.22851457, 3.32722, 8.815159, -0.27652168, -0.55579567, 9.404481
516672613877433, -0.014356935, 4.8658047, 9.101101, 0.3286338, 0.5977528, 10.297621
516672623516600, -0.23569304, 3.4695928, 8.939586, -0.26022506, -0.47804403, 9.576721
516672633155766, -0.069391854, 4.6025944, 9.098708, 0.19875336, 0.40161014, 10.186971
516672642794933, -0.2105684, 3.9696927, 9.156136, -0.11327028, -0.13129044, 9.980357
516672652434204, -0.18305093, 4.022335, 9.050852, -0.06418955, -0.058138847, 9.905711
516672662073371, -0.10049855, 4.442275, 9.250652, 0.10925996, 0.20776892, 10.259794
516672671712537, -0.22612174, 3.5521452, 8.975478, -0.21985906, -0.42665243, 9.64353
516672681351704, -0.02751746, 4.7916274, 9.256635, 0.27393663, 0.48186803, 10.408578
516672690990975, -0.26081768, 3.2434711, 8.895318, -0.32751197, -0.64633656, 9.444035
516672700630141, -0.011964113, 4.8323054, 9.103494, 0.31885964, 0.580348, 10.2852545
516672710269308, -0.2536392, 3.4672, 8.924032, -0.27512288, -0.4580748, 9.562356
516672719908475, -0.08015956, 4.638487, 9.06162, 0.20156968, 0.4378612, 10.168706
516672729547641, -0.21774685, 3.900301, 9.037691, -0.12853885, -0.1417129, 9.843933
516672739186912, -0.16271193, 4.1180477, 8.9312105, -0.0019569397, 0.06697893, 9.835997
516672748826079, -0.08853444, 4.456632, 9.101101, 0.14285588, 0.27095532, 10.129442
516672758465246, -0.19740787, 3.6191442, 8.914461, -0.1713183, -0.34951758, 9.615262
516672768104412, 0.032303106, 4.820341, 9.280562, 0.33318472, 0.4873135, 10.441127
516672777743683, -0.23330021, 3.278167, 8.99462, -0.29775888, -0.6776662, 9.547571
516672787382850, -0.01794617, 4.8646083, 9.254242, 0.2958398, 0.5566671, 10.435915
516672797022016, -0.21535404, 3.379862, 9.038888, -0.2698604, -0.60448146, 9.629804
516672806661183, -0.05383851, 4.5930233, 9.160921, 0.19838244, 0.35575533, 10.239889
516672816300350, -0.21296121, 3.778267, 9.114262, -0.15686369, -0.28264666, 9.863363
516672825939621, -0.16390835, 4.0977087, 9.013762, -0.020039678, 0.015617132, 9.902797
516672835578787, -0.11724831, 4.3274198, 9.138189, 0.07529229, 0.15311885, 10.110277
516672845217954, -0.2105684, 3.611966, 8.866604, -0.18102276, -0.33656144, 9.568765
516672854857121, -0.049052864, 4.773681, 9.178867, 0.253133, 0.50240374, 10.330805
516672864496391, -0.28594232, 3.3320055, 8.898908, -0.33380038, -0.56436944, 9.483915
516672874135558, -0.032303106, 4.9136615, 9.189635, 0.31248903, 0.605639, 10.3985615
516672883774725, -0.24526432, 3.4253256, 8.927621, -0.2608552, -0.5128825, 9.548002
516672893413891, -0.05742774, 4.705486, 9.077172, 0.2461636, 0.48364043, 10.210066
516672903053162, -0.19142582, 3.8033917, 9.025727, -0.12236655, -0.24039555, 9.792518
516672912692329, -0.14955142, 4.2341, 9.017352, 0.03324485, 0.11513257, 9.962341
516672922331496, -0.12921242, 4.3130627, 9.186047, 0.057812214, 0.11110306, 10.148251
516672931970662, -0.1794617, 3.6646078, 8.940782, -0.1414954, -0.33892846, 9.657343
516672941609829, -0.039481573, 4.7629137, 9.239884, 0.2566111, 0.45812082, 10.382034
516672951249100, -0.2620141, 3.3499517, 8.955139, -0.30074102, -0.59547114, 9.541504
516672960888266, -0.0059820567, 4.9232326, 9.201599, 0.33396924, 0.5929575, 10.41367
516672970527433, -0.29312077, 3.345166, 8.879765, -0.32347673, -0.55954814, 9.471459
516672980166600, -0.11246266, 4.712664, 8.995817, 0.2003789, 0.5200007, 10.140811
516672989805766, -0.2548356, 3.7208393, 8.956335, -0.19324315, -0.27656722, 9.695962
516672999445037, -0.11246266, 4.290331, 8.973084, 0.09398973, 0.16938066, 9.944763
516673009084204, -0.08135597, 4.2831526, 9.159725, 0.100337505, 0.078458786, 10.111201
516673018723371, -0.18544376, 3.737589, 9.016156, -0.12793434, -0.30940914, 9.756175
516673028362537, -0.06699903, 4.712664, 9.364311, 0.20464993, 0.37323928, 10.474867
516673038001808, -0.23090738, 3.377469, 9.050852, -0.27361214, -0.62622833, 9.639062
516673047640975, 0.020338992, 4.910072, 9.247063, 0.3536681, 0.55694294, 10.449025
516673057280141, -0.25842485, 3.3200414, 8.876176, -0.29721242, -0.5880461, 9.45737
516673066919308, -0.0634098, 4.7377887, 8.9826565, 0.24649948, 0.53762436, 10.138492
516673076558475, -0.24885355, 3.6921253, 8.892925, -0.18800461, -0.27962327, 9.626228
516673086197746, -0.14117654, 4.339384, 8.946764, 0.0776695, 0.22892118, 9.941648
516673095836912, -0.1794617, 4.202993, 9.086744, -0.0106408, 0.0653348, 10.013087
516673105476079, -0.19262223, 3.8153558, 8.91805, -0.11141968, -0.20133185, 9.699108
516673115115246, -0.05623133, 4.6672006, 9.270991, 0.21547747, 0.36142492, 10.371122
516673124754412, -0.24646074, 3.4085758, 9.029316, -0.27482736, -0.5832846, 9.632857
516673134393683, -0.0035892338, 4.88734, 9.316455, 0.3135376, 0.5156727, 10.503249
516673144032850, -0.27517462, 3.3140593, 8.949157, -0.31772655, -0.62175083, 9.5214815
516673153672016, -0.061016977, 4.776074, 9.101101, 0.2376619, 0.5270343, 10.262086
516673163311183, -0.24526432, 3.65384, 8.979067, -0.2083323, -0.34381294, 9.688793
516673172950350, -0.1160519, 4.4255257, 9.014959, 0.115021825, 0.26601243, 10.039137
516673182589621, -0.15194423, 4.1874394, 9.086744, 0.012274802, 0.0463531, 10.006215
516673192228787, -0.17108682, 3.8476589, 8.878569, -0.07521129, -0.16678667, 9.676221
516673201867954, -0.061016977, 4.642076, 9.178867, 0.21158254, 0.37482858, 10.277108
516673211507121, -0.26081768, 3.4241292, 8.925228, -0.27141124, -0.5292764, 9.5445595
516673221146391, -0.0011964113, 4.8681974, 9.2793665, 0.31196457, 0.5094042, 10.461797
516673230785558, -0.25603202, 3.2805598, 8.988638, -0.3238957, -0.68314767, 9.542097
516673240424725, -0.04426722, 4.81077, 9.175279, 0.2643749, 0.51369834, 10.343955
516673250063891, -0.24646074, 3.6167514, 9.049655, -0.2236085, -0.42095065, 9.73708
516673259703058, -0.12562318, 4.465007, 9.0544405, 0.113827646, 0.2902503, 10.091471
516673269342329, -0.19860429, 4.1084766, 9.050852, -0.052335024, -0.0037982464, 9.941538
516673278981496, -0.20578274, 3.9242291, 8.852247, -0.08641648, -0.082446575, 9.684521
516673288620662, -0.08973085, 4.615755, 9.126225, 0.17270869, 0.3818872, 10.2188835
516673298259829, -0.25004998, 3.4707892, 8.904889, -0.25360292, -0.49041915, 9.544692
516673307898996, 0.008374879, 4.8909297, 9.276974, 0.33113164, 0.5335996, 10.468484
516673317538266, -0.25603202, 3.3116665, 8.99821, -0.31250954, -0.6653199, 9.56348
516673327177433, -0.038285162, 4.837091, 9.202796, 0.27344173, 0.53440595, 10.379308
516673336816600, -0.23928227, 3.5114672, 9.036494, -0.24131757, -0.512908, 9.681147
516673346455766, -0.051445685, 4.476971, 9.081959, 0.17855293, 0.27207303, 10.120375
516673356095037, -0.1698904, 4.045067, 9.077172, -0.045600712, -0.07842469, 9.938726
516673365734204, -0.16510476, 3.9673, 8.85823, -0.038888812, -0.059396505, 9.707211
516673375373371, -0.078963146, 4.566702, 9.084352, 0.17256081, 0.35167646, 10.160364
516673385012537, -0.23928227, 3.5401812, 8.823533, -0.21326256, -0.40492964, 9.499232
516673394651704, -0.040677983, 4.895715, 9.226724, 0.27468807, 0.5751064, 10.425734
516673404290975, -0.2644069, 3.359523, 9.02453, -0.29388958, -0.63264966, 9.607907
516673413930141, -0.039481573, 4.8681974, 9.30808, 0.26582927, 0.504061, 10.488876
516673423569308, -0.26679972, 3.4504502, 9.122637, -0.28334922, -0.589689, 9.735055
516673433208475, -0.08733802, 4.5020957, 9.135797, 0.13940877, 0.27003407, 10.180713
516673442847641, -0.18664017, 3.979264, 9.103494, -0.07939446, -0.13980103, 9.93565
516673452486912, -0.16510476, 4.007978, 8.909675, -0.03629464, -0.048545122, 9.770863
516673462126079, -0.10049855, 4.5008993, 9.085547, 0.13114071, 0.2959962, 10.134623
516673471765246, -0.24765715, 3.554538, 8.829515, -0.21927989, -0.39064527, 9.510821
516673481404412, -0.04426722, 4.92084, 9.156136, 0.28063333, 0.62161255, 10.372383
516673491043683, -0.27876383, 3.3966117, 8.845069, -0.28212482, -0.5298064, 9.459897
516673500682850, -0.033499517, 4.942375, 9.090333, 0.30508566, 0.65103793, 10.322084
516673510322016, -0.24885355, 3.5006995, 8.957532, -0.23746431, -0.49159098, 9.605007
516673519961183, -0.049052864, 4.5942197, 9.142975, 0.20098823, 0.3408115, 10.224811
516673529600350, -0.17347965, 3.8991046, 9.212367, -0.095968544, -0.27052307, 10.000922
516673539239621, -0.13040884, 4.054638, 9.047262, -5.69582E-4, -0.07462096, 9.914864
516673548878787, -0.11006984, 4.4434714, 9.177671, 0.097106755, 0.20985866, 10.19474
516673558517954, -0.24526432, 3.5796626, 8.894122, -0.21158922, -0.40449286, 9.579727
516673568157121, -0.043070808, 4.8418765, 9.245867, 0.24958736, 0.51793694, 10.421186
516673577796391, -0.27517462, 3.3284163, 8.925228, -0.30278587, -0.63376427, 9.503706
516673587435558, -0.03589234, 4.9052863, 9.147761, 0.28649014, 0.60973835, 10.3581295
516673597074725, -0.2835495, 3.4576287, 8.94796, -0.29065496, -0.5108032, 9.578945
516673606713891, -0.086141616, 4.638487, 9.075976, 0.19054437, 0.41148496, 10.182863
516673616353058, -0.20697916, 3.8835511, 9.073584, -0.12192434, -0.21166515, 9.868894
516673625992329, -0.17706887, 4.132405, 9.017352, -0.026163876, 0.013071299, 9.920681
516673635631496, -0.1268196, 4.408776, 9.153743, 0.08684325, 0.18609357, 10.158849
516673645270662, -0.20697916, 3.6634114, 8.9108715, -0.1675427, -0.34316063, 9.629188
516673654909829, -0.021535404, 4.847859, 9.226724, 0.30085433, 0.50133157, 10.406382
516673664549100, -0.25722843, 3.3547373, 8.9108715, -0.30807704, -0.5965271, 9.501227
516673674188266, -0.013160525, 4.9232326, 9.158528, 0.34028018, 0.5979841, 10.375148
516673683827433, -0.25842485, 3.4109688, 8.985049, -0.29249877, -0.5701177, 9.592813
516673693466600, -0.047856454, 4.6707897, 9.138189, 0.22600746, 0.3918581, 10.252827
516673703105871, -0.18305093, 3.7890346, 9.109476, -0.12896746, -0.31589103, 9.861868
516673712745037, -0.15433706, 4.186243, 9.005388, 0.012585402, 0.06017828, 9.931852
516673722384204, -0.13399807, 4.3932223, 9.11785, 0.07568854, 0.1866591, 10.11993
516673732023371, -0.2213361, 3.7124643, 8.882157, -0.16439235, -0.2896707, 9.623573
516673741662537, -0.038285162, 4.7952166, 9.215957, 0.2667436, 0.4682591, 10.374924
516673751301808, -0.25962126, 3.3619158, 8.88455, -0.3002559, -0.58722234, 9.479986
516673760940975, -0.049052864, 4.9340005, 9.158528, 0.28833115, 0.6093569, 10.381279
516673770580141, -0.29790643, 3.4205399, 8.907282, -0.32135206, -0.5234208, 9.526348
516673780219308, -0.07537391, 4.7425747, 9.102298, 0.22299701, 0.4714446, 10.250732
516673789858579, -0.20338993, 3.7651064, 9.0436735, -0.14954221, -0.30743837, 9.792271
516673799497746, -0.13519448, 4.2867417, 9.02812, 0.0574767, 0.12976766, 9.994061
516673809136912, -0.13280165, 4.3334017, 9.145369, 0.057963252, 0.120643616, 10.120072
516673818776079, -0.18664017, 3.7172499, 8.9013, -0.12931496, -0.30430532, 9.642437
516673828415350, -0.03589234, 4.753342, 9.2590275, 0.25103754, 0.40965247, 10.396842
516673838054516, -0.2536392, 3.3870404, 8.988638, -0.30026472, -0.6059599, 9.585126
516673847693683, -0.0059820567, 4.944768, 9.2793665, 0.32770598, 0.5561633, 10.494793
516673857332850, -0.26679972, 3.37388, 8.965906, -0.3015144, -0.59934855, 9.5598955
516673866972121, -0.041874398, 4.772485, 9.062816, 0.27095705, 0.5026276, 10.226775
516673876611287, -0.23449662, 3.7507496, 9.006584, -0.1791259, -0.29603815, 9.753047
516673886250454, -0.14596218, 4.328616, 9.000603, 0.060607433, 0.177742, 9.986683
516673895889621, -0.14955142, 4.243671, 9.101101, 0.02348131, 0.06456685, 10.042731
516673905528891, -0.20458634, 3.802195, 8.859426, -0.12651682, -0.20733929, 9.639968
516673915168058, -0.05742774, 4.7018967, 9.175279, 0.22465014, 0.40270805, 10.299721
516673924807225, -0.2835495, 3.3726835, 8.958728, -0.32949847, -0.59198713, 9.552757
516673934446391, 0.0011964113, 4.9399824, 9.288938, 0.3460394, 0.5352979, 10.501499
516673944085662, -0.22851457, 3.3786657, 9.017352, -0.29033995, -0.6179414, 9.608024
516673953724829, -0.041874398, 4.8239303, 9.170493, 0.28698695, 0.50841093, 10.345491
516673963363996, -0.2440679, 3.6789649, 9.02453, -0.22203243, -0.36848855, 9.73917
516673973003162, -0.11844472, 4.402794, 9.020942, 0.10506368, 0.21865869, 10.035793
516673982642433, -0.17228323, 4.208975, 9.066405, -0.003868878, 0.05503559, 9.99709
516673992281600, -0.22971097, 3.8177485, 8.843872, -0.14568716, -0.17996216, 9.632674
516674001920766, -0.06819545, 4.668397, 9.103494, 0.21808267, 0.4014268, 10.220739
516674011559933, -0.22612174, 3.4253256, 8.830712, -0.24061894, -0.51690173, 9.4572935
516674021199204, -0.062213387, 4.8622155, 9.247063, 0.26003993, 0.5222986, 10.431335
516674030838371, -0.33260235, 3.333202, 9.073584, -0.3931594, -0.6665664, 9.641156
516674040477537, -0.032303106, 4.8705907, 9.249456, 0.29019666, 0.51006794, 10.4370365
516674050116704, -0.20937198, 3.650251, 9.092726, -0.19036144, -0.43284607, 9.788884
516674059755975, -0.08015956, 4.476971, 9.098708, 0.15317845, 0.24598694, 10.136677
516674069395141, -0.16510476, 4.159922, 9.133404, -0.018008769, -0.01681304, 10.037464
516674079034308, -0.19501504, 3.888337, 8.898908, -0.09415895, -0.15035391, 9.711657
516674088673579, -0.04426722, 4.6408796, 9.111869, 0.23310727, 0.37400627, 10.216244
516674098312746, -0.22372891, 3.4695928, 8.843872, -0.23071766, -0.48842502, 9.487383
516674107951912, -0.041874398, 4.8825545, 9.171689, 0.29255337, 0.5619705, 10.371092
516674117591079, -0.29790643, 3.3116665, 8.903693, -0.35028464, -0.62955904, 9.476952
516674127230350, -0.0634098, 4.8526444, 9.148957, 0.28211963, 0.54602885, 10.338176
516674136869516, -0.28235307, 3.5808592, 9.047262, -0.27388686, -0.44694853, 9.720106
516674146508683, -0.12323037, 4.470989, 9.134601, 0.101653695, 0.23715615, 10.167561
516674156147954, -0.17347965, 4.085745, 9.202796, -0.0487898, -0.10415006, 10.069839
516674165787121, -0.16869399, 3.979264, 8.993423, -0.051329195, -0.11853337, 9.835039
516674175426287, -0.06699903, 4.5942197, 9.162118, 0.18930376, 0.32321548, 10.242825
516674185065454, -0.20817557, 3.5090744, 8.865408, -0.1910544, -0.47338676, 9.523224
516674194704725, 0.009571291, 4.941179, 9.193225, 0.33968973, 0.5979724, 10.414306
516674204343891, -0.25603202, 3.3427732, 8.866604, -0.286166, -0.5952072, 9.456224
516674213983058, -0.046660043, 4.8646083, 9.127422, 0.27418143, 0.5717113, 10.323487
516674223622329, -0.27756742, 3.542574, 9.030513, -0.27425176, -0.47996855, 9.688728
516674233261496, -0.11246266, 4.5391846, 9.158528, 0.1318137, 0.28832865, 10.217388
516674242900662, -0.20458634, 4.019942, 9.164511, -0.09420687, -0.13959837, 10.008082
516674252539829, -0.18544376, 4.005585, 8.944371, -0.057763636, -0.075912714, 9.801622
516674262179100, -0.104087785, 4.578666, 9.102298, 0.1584351, 0.33665562, 10.18275
516674271818266, -0.26081768, 3.5892339, 8.809176, -0.22552222, -0.36631393, 9.5061655
516674281457433, -0.0634098, 4.9340005, 9.18485, 0.27091956, 0.6080415, 10.40513
516674291096704, -0.26919255, 3.3547373, 8.924032, -0.29205364, -0.61355186, 9.513324
516674300735871, 0.008374879, 4.9160542, 9.172886, 0.33099586, 0.569011, 10.386345
516674310375037, -0.25244278, 3.5042887, 8.983852, -0.24818653, -0.5080917, 9.62983
516674320014308, -0.07537391, 4.5798626, 9.077172, 0.178325, 0.33628416, 10.160266
516674329653475, -0.17347965, 3.9553359, 9.114262, -0.07904941, -0.19346285, 9.934832
516674339292641, -0.13878371, 4.071388, 9.005388, -0.001257062, -0.055370092, 9.883796
516674348931808, -0.096909314, 4.4805603, 9.193225, 0.123666644, 0.21517849, 10.224413
516674358571079, -0.24047868, 3.5653057, 8.928818, -0.22327483, -0.4360175, 9.604847
516674368210246, -0.041874398, 4.8729835, 9.276974, 0.27317464, 0.500752, 10.463489
516674377849412, -0.30029923, 3.365505, 8.924032, -0.34322762, -0.5939567, 9.517592
516674387488683, -0.0634098, 4.95075, 9.133404, 0.29399878, 0.6379926, 10.365305
516674397127850, -0.27876383, 3.4983068, 8.891729, -0.27770936, -0.4762621, 9.543309
516674406767016, -0.076570325, 4.6672006, 9.018549, 0.2092861, 0.44370794, 10.1430855
516674416406287, -0.2117648, 3.946961, 9.064013, -0.10777372, -0.16667557, 9.886368
516674426045454, -0.17228323, 4.1228333, 9.0029955, -0.019061625, -0.0021760464, 9.903585
516674435684621, -0.12083755, 4.436293, 9.206385, 0.090676844, 0.17443132, 10.218326
516674445323891, -0.21894327, 3.6107693, 8.944371, -0.19000697, -0.4116962, 9.637519
516674454963058, -0.023928227, 4.8598228, 9.253045, 0.29283625, 0.4997158, 10.435604
516674464602225, -0.24526432, 3.367898, 8.9312105, -0.26718605, -0.61110616, 9.524946
516674474241496, -0.023928227, 4.932804, 9.177671, 0.3258255, 0.5925739, 10.39738
516674483880662, -0.26081768, 3.4360933, 8.933603, -0.26846272, -0.5449264, 9.555891
516674493519829, -0.050249275, 4.6971107, 9.079565, 0.23870808, 0.43872428, 10.210504
516674503159100, -0.21535404, 3.871587, 9.0341015, -0.12702274, -0.21752644, 9.827873
516674512798266, -0.1698904, 4.2041893, 8.952746, 0.006403506, 0.0857749, 9.891833
516674522437433, -0.14356937, 4.4315076, 9.114262, 0.07614964, 0.21424794, 10.132963
516674532076704, -0.2321038, 3.7040894, 8.915657, -0.17682981, -0.31462336, 9.6505375
516674541715871, -0.040677983, 4.8191447, 9.29492, 0.26422918, 0.45090127, 10.456969
516674551355037, -0.27996024, 3.333202, 9.007781, -0.32716954, -0.65793633, 9.580648
516674560994308, -0.023928227, 4.9160542, 9.263813, 0.3138057, 0.5301769, 10.469328
516674570633475, -0.26679972, 3.4169507, 8.995817, -0.30432624, -0.58572555, 9.603948
516674580272641, -0.059820566, 4.709075, 9.081959, 0.2406205, 0.43673015, 10.218235
516674589911912, -0.21296121, 3.7962132, 8.993423, -0.14177519, -0.2647581, 9.75951
516674599551079, -0.14237295, 4.267599, 8.96471, 0.053648353, 0.13223505, 9.928661
516674609190246, -0.15792629, 4.368098, 9.068798, 0.04785204, 0.18154645, 10.06544
516674618829516, -0.23808585, 3.7447674, 8.815159, -0.15948611, -0.23894191, 9.576245
516674628468683, -0.06819545, 4.8299127, 9.194421, 0.24186468, 0.513026, 10.370554
516674638107850, -0.27158538, 3.4109688, 8.958728, -0.29475713, -0.5808089, 9.567814
516674647747121, -0.043070808, 4.932804, 9.270991, 0.29524726, 0.56432533, 10.482368
516674657386287, -0.28713873, 3.3690944, 9.004191, -0.31811386, -0.6334393, 9.59199
516674667025558, -0.04546363, 4.7629137, 9.157332, 0.25918806, 0.46508121, 10.308282
516674676664725, -0.23090738, 3.7591243, 9.05803, -0.16931158, -0.31793332, 9.803187
516674686303891, -0.15672988, 4.274778, 8.991031, 0.03817302, 0.12992477, 9.955831
516674695943162, -0.11964113, 4.243671, 9.138189, 0.054763973, 0.038425684, 10.075968
516674705582329, -0.12323037, 3.7710886, 8.9312105, -0.052065253, -0.28986025, 9.691032
516674715221496, -0.04546363, 4.725825, 9.201599, 0.23846745, 0.41894865, 10.33308
516674724860766, -0.31345975, 3.3918262, 8.892925, -0.3091451, -0.5584407, 9.50155
516674734499933, -0.032303106, 4.9639106, 9.180064, 0.30200267, 0.6403613, 10.412194
516674744139100, -0.2536392, 3.426522, 8.922835, -0.25950927, -0.5575936, 9.541704
516674753778371, -0.09930214, 4.406383, 9.12503, 0.11775702, 0.186687, 10.131314
516674763417537, -0.14955142, 4.1347976, 9.110672, 0.003460765, -0.03215742, 10.006109
516674773056808, -0.17347965, 4.174279, 9.141779, -0.014479041, -0.005697012, 10.051198
516674782695975, -0.17826529, 4.1467614, 9.108279, -0.022431433, -0.014503717, 10.009368
516674792335141, -0.16869399, 4.1671004, 9.000603, 0.0038935542, 0.04360771, 9.919785
516674801974412, -0.16749759, 4.145565, 8.977871, 0.0015660524, 0.032772064, 9.8901415
516674811613579, -0.16630118, 4.139583, 8.977871, 0.0014364719, 0.027216673, 9.88763
516674821252850, -0.16031912, 4.1312084, 8.96471, 0.0064707994, 0.023282766, 9.872084
516674830892016, -0.18424734, 4.132405, 8.971889, -0.01626128, 0.02946186, 9.879492
516674840531183, -0.19860429, 4.1407795, 9.059227, -0.0372622, 0.0057766438, 9.962614
516674850170454, -0.17228323, 4.162315, 9.135797, -0.013561606, -0.012963772, 10.040766
516674859809621, -0.16031912, 4.1431723, 9.2075815, -0.012798607, -0.058663607, 10.0978985
516674869448787, -0.14955142, 4.1551366, 9.209974, 0.0010954142, -0.05029726, 10.104882
516674879088058, -0.15194423, 4.150351, 9.139386, 0.005604446, -0.02435255, 10.038738
516674888727225, -0.14356937, 4.1491547, 9.077172, 0.019736886, -0.002956152, 9.981522
516674898366496, -0.13519448, 4.141976, 9.001799, 0.032855213, 0.017955065, 9.909856
516674908005662, -0.12562318, 4.1371903, 8.921639, 0.04802066, 0.043287992, 9.834815
516674917644829, -0.15074782, 4.150351, 8.8905325, 0.030115843, 0.0740993, 9.812406
516674927284100, -0.16749759, 4.1479583, 8.930014, 0.009108543, 0.060328245, 9.847591
516674936923266, -0.17108682, 4.1551366, 9.02453, -0.0017814636, 0.02946043, 9.936585
516674946562537, -0.19860429, 4.1587257, 9.159725, -0.038971484, -0.011453629, 10.0614805
516674956201704, -0.19740787, 4.106084, 9.230313, -0.05569291, -0.084273815, 10.10383
516674965840871, -0.17467605, 4.0881376, 9.27817, -0.0429852, -0.12529445, 10.139541
516674975480141, -0.17587246, 4.0977087, 9.213564, -0.035170376, -0.087088585, 10.084795
516674985119308, -0.17826529, 4.101298, 9.090333, -0.023693562, -0.033873558, 9.97421
516674994758579, -0.15314065, 4.1276193, 8.963513, 0.020077646, 0.032242775, 9.869339
516675004397746, -0.11844472, 4.152744, 8.900104, 0.06603563, 0.07039642, 9.821499
516675014037016, -0.14596218, 4.1611185, 8.9013, 0.041033924, 0.08399248, 9.826526
516675023676183, -0.14955142, 4.132405, 8.980264, 0.02211696, 0.028829575, 9.886504
516675033315350, -0.16151553, 4.132405, 9.0747795, 0.0012918711, -0.006055355, 9.972686
516675042954621, -0.17467605, 4.152744, 9.163314, -0.014495909, -0.018341064, 10.061888
516675052593787, -0.17347965, 4.135994, 9.174082, -0.017243087, -0.034889698, 10.06473
516675062233058, -0.17706887, 4.135994, 9.188439, -0.021245897, -0.038671494, 10.077862
516675071872225, -0.18664017, 4.1312084, 9.132208, -0.025084138, -0.016420841, 10.024871
516675081511391, -0.2009971, 4.112066, 9.046066, -0.033595502, 0.0054605007, 9.938795
516675091150662, -0.16869399, 4.115655, 8.9826565, 0.005248308, 0.024498224, 9.882032
516675100789829, -0.1363909, 4.1383867, 8.967103, 0.045010686, 0.04026127, 9.876747
516675110429100, -0.124426775, 4.1551366, 8.999406, 0.057118416, 0.038673878, 9.912878
516675120068266, -0.12801601, 4.1407795, 9.06162, 0.04237795, 0.003893137, 9.963612
516675129707537, -0.13160525, 4.1240296, 9.0951185, 0.030936062, -0.02218914, 9.987227
516675139346704, -0.13280165, 4.119244, 9.110672, 0.026493967, -0.03255272, 9.999421
516675148985871, -0.15194423, 4.1108694, 9.084352, 0.0095978975, -0.021131992, 9.972324
516675158625141, -0.14955142, 4.104887, 9.099904, 0.008686364, -0.032425404, 9.983966
516675168264308, -0.20458634, 4.0845485, 9.093923, -0.048950613, -0.030891657, 9.971031
516675177903579, -0.18783657, 4.0881376, 9.0951185, -0.031280935, -0.032667637, 9.97333
516675187542746, -0.18185452, 4.113262, 9.129815, -0.02213335, -0.02538991, 10.015209
516675197182016, -0.16749759, 4.1383867, 9.127422, -0.0010074973, -0.0058579445, 10.023178
516675206821183, -0.16390835, 4.121637, 9.119047, -9.601712E-4, -0.018251896, 10.00857
516675216460454, -0.16749759, 4.1371903, 9.060423, 0.0052238107, 0.019914865, 9.961689
516675226099621, -0.19381863, 4.1647077, 9.032906, -0.010411501, 0.0618155, 9.948459
516675235738787, -0.16749759, 4.1383867, 8.986245, 0.01340282, 0.048378706, 9.894665
516675245378058, -0.15792629, 4.115655, 8.933603, 0.021604717, 0.046540976, 9.837185
516675255017225, -0.18185452, 4.1168513, 8.979067, -0.005508125, 0.035755873, 9.879468
516675264656496, -0.17347965, 4.1108694, 9.056833, -0.006406188, -0.002993822, 9.947639
516675274295662, -0.17347965, 4.115655, 9.128618, -0.011858046, -0.026794672, 10.014965
516675283934933, -0.16630118, 4.1240296, 9.190832, -0.008145511, -0.042945385, 10.074957
516675293574100, -0.17228323, 4.112066, 9.178867, -0.015951455, -0.04688835, 10.059221
516675303213371, -0.17826529, 4.1240296, 9.153743, -0.016025484, -0.023253918, 10.041396
516675312852537, -0.16390835, 4.1144586, 9.079565, 0.0030385256, -0.0052723885, 9.969658
516675322491808, -0.17467605, 4.0869412, 9.036494, -0.009257674, -0.009916544, 9.919256
516675332130975, -0.15314065, 4.106084, 9.02453, 0.01771015, 0.0053224564, 9.915905
516675341770141, -0.16031912, 4.119244, 8.991031, 0.018041253, 0.032036066, 9.890964
516675351409412, -0.16510476, 4.1347976, 8.975478, 0.019434988, 0.053206205, 9.883309
516675361048579, -0.14955142, 4.133601, 9.018549, 0.029135704, 0.030292273, 9.921769
516675370687850, -0.13519448, 4.130012, 9.037691, 0.039616942, 0.015264034, 9.937472
516675380327016, -0.17587246, 4.1371903, 9.066405, -4.8804283E-4, 0.022981644, 9.967268
516675389966287, -0.19262223, 4.1371903, 9.134601, -0.0245924, 0.002367735, 10.029645
516675399605454, -0.17228323, 4.119244, 9.141779, -0.010696888, -0.020947695, 10.028432
516675409244725, -0.15194423, 4.1108694, 9.110672, 0.01023376, -0.022049189, 9.996304
516675418883891, -0.2009971, 4.113262, 9.078369, -0.032752395, 0.008529663, 9.968699
516675428523162, -0.23688944, 4.1144586, 9.064013, -0.064294636, 0.0259161, 9.956728
516675438162329, -0.19381863, 4.101298, 9.030513, -0.023343801, 0.014741659, 9.92006
516675447801600, -0.16630118, 4.106084, 8.995817, 0.010477543, 0.024595976, 9.889973
516675457440766, -0.18664017, 4.112066, 9.014959, -0.009455144, 0.028981209, 9.910221
516675467080037, -0.17587246, 4.1168513, 9.071191, -0.0038151145, 0.007539749, 9.963223
516675476719204, -0.14596218, 4.113262, 9.104691, 0.021381557, -0.01675272, 9.991741
516675486358475, -0.13758731, 4.0965123, 9.12503, 0.023273706, -0.039379835, 10.00322
516675495997641, -0.17228323, 4.0881376, 9.127422, -0.012449026, -0.037622213, 10.00254
516675505636912, -0.17706887, 4.119244, 9.115458, -0.0076931715, -0.0028202534, 10.004551
516675515276079, -0.1591227, 4.1072803, 9.101101, 0.007867694, -0.0125494, 9.986235
516675524915350, -0.15433706, 4.1036906, 9.065208, 0.015530646, -0.0028572083, 9.951976
516675534554516, -0.15433706, 4.0941195, 9.067601, 0.013083696, -0.01275444, 9.9502125
516675544193787, -0.16749759, 4.101298, 9.049655, 0.0041172504, 0.0037565231, 9.937048
516675553832954, -0.1591227, 4.112066, 8.995817, 0.020145178, 0.032701254, 9.8923025
516675563472225, -0.18783657, 4.1312084, 9.072387, -0.010242879, 0.026151419, 9.970435
516675573111391, -0.18903299, 4.1240296, 9.115458, -0.017281473, 0.0035748482, 10.006728
516675582750558, -0.15314065, 4.091727, 9.136993, 0.006360531, -0.041401148, 10.012422
516675592389829, -0.1698904, 4.063013, 9.109476, -0.01449573, -0.050849438, 9.975806
516675602028996, -0.1794617, 4.074977, 9.047262, -0.014665008, -0.0121405125, 9.924225
516675611668266, -0.16271193, 4.119244, 9.037691, 0.014385343, 0.02621317, 9.933459
516675621307433, -0.16749759, 4.1288157, 9.0233345, 0.014893293, 0.041280746, 9.924405
516675630946704, -0.18305093, 4.1228333, 9.0747795, -0.007098496, 0.019364595, 9.969076
516675640585871, -0.17826529, 4.126423, 9.084352, -0.0024827719, 0.017247677, 9.979194
516675650225141, -0.17587246, 4.132405, 9.081959, 0.0021166801, 0.022604704, 9.979438
516675659864308, -0.15314065, 4.1228333, 9.084352, 0.020605087, 0.0056746006, 9.977284
516675669503579, -0.1698904, 4.0941195, 9.108279, -0.0060420632, -0.02371502, 9.9875345
516675679142746, -0.19860429, 4.0905304, 9.116654, -0.035833716, -0.021784306, 9.994175
516675688782016, -0.16151553, 4.0869412, 9.120243, -5.297065E-4, -0.037045717, 9.995329
516675698421287, -0.124426775, 4.066602, 9.105886, 0.030513823, -0.060635567, 9.973229
516675708060454, -0.1363909, 4.092923, 9.038888, 0.03295034, -0.007900238, 9.923253
516675717699621, -0.17467605, 4.0941195, 9.017352, -0.0015523434, 0.012107849, 9.904787
