timestamp_acc,device_acc_x,device_acc_y,device_acc_z,earth_acc_x,earth_acc_y,earth_acc_z
779416039901091, 1.5768701, 3.6897326, 9.142975, 0.011198521, -0.0014157295, 9.9847145
779416049540257, 1.585245, 3.702893, 9.140582, 0.023164272, 0.008289814, 9.988695
779416059179424, 1.6019948, 3.7124643, 9.196814, 0.023788929, -0.008651972, 10.046369
779416068818591, 1.6115661, 3.723232, 9.172886, 0.04074955, 0.0059318542, 10.0299425
779416078457757, 1.5936198, 3.7136607, 9.159725, 0.021142483, 0.0021643639, 10.011543
779416088096820, 1.6115661, 3.731607, 9.152547, 0.043580055, 0.015798569, 10.014439
779416097735986, 1.6043876, 3.7411783, 9.11785, 0.04719448, 0.035868645, 9.985098
779416107375153, 1.5613167, 3.7220356, 9.126225, 0.0011980534, 0.027191639, 9.978905
779416117014320, 1.570888, 3.7280176, 9.073584, 0.026771307, 0.045485497, 9.934432
779416126653382, 1.5625132, 3.7124643, 9.075976, 0.018356085, 0.031621933, 9.929545
779416136292549, 1.5613167, 3.7160535, 9.075976, 0.018217564, 0.03477192, 9.93069
779416145931716, 1.564906, 3.7184465, 9.066405, 0.02403164, 0.03832817, 9.923378
779416155570882, 1.5780666, 3.702893, 9.084352, 0.028405905, 0.014673948, 9.936103
779416165210049, 1.564906, 3.7005002, 9.081959, 0.012413502, 0.016673565, 9.93097
779416174849111, 1.5577276, 3.6933217, 9.111869, -0.0056784153, 0.0036718845, 9.954558
779416184488278, 1.5900307, 3.7040894, 9.164511, 0.013583183, -0.013123512, 10.011811
779416194127445, 1.5984055, 3.7124643, 9.205189, 0.012707233, -0.019551516, 10.053471
779416203766611, 1.6091732, 3.7339997, 9.250652, 0.017562866, -0.015236139, 10.104761
779416213405778, 1.5972091, 3.7423747, 9.282955, 0.0030021667, -0.011096239, 10.135561
779416223044841, 1.564906, 3.7064822, 9.284152, -0.032292366, -0.03136444, 10.1183195
779416232684007, 1.5565311, 3.6981075, 9.298509, -0.042393446, -0.039786577, 10.127075
779416242323174, 1.5433706, 3.6873398, 9.242277, -0.04102707, -0.027628422, 10.069544
779416251962341, 1.4967105, 3.6598222, 9.18485, -0.07578659, -0.024869204, 9.9994755
779416261601507, 1.477568, 3.6634114, 9.102298, -0.07238531, 0.010434151, 9.92221
779416271240570, 1.4931214, 3.6658044, 9.075976, -0.050158262, 0.014372826, 9.901423
779416280879736, 1.4859428, 3.644269, 9.066405, -0.059077024, -0.0017113686, 9.883569
779416290518903, 1.5134603, 3.6753755, 9.0747795, -0.02708435, 0.0135166645, 9.907052
779416300158070, 1.5278172, 3.67059, 9.089137, -0.016608, 2.3508072E-4, 9.920666
779416309797236, 1.5625132, 3.6957145, 9.119047, 0.016842127, 0.003156662, 9.962757
779416319436299, 1.5864414, 3.7220356, 9.158528, 0.035502195, 0.006848097, 10.012377
779416329075466, 1.6127625, 3.7387853, 9.201599, 0.052824736, 5.455017E-4, 10.062115
779416338714632, 1.6606189, 3.7734814, 9.23151, 0.09506154, 0.0068454742, 10.109822
779416348353799, 1.6570296, 3.7674992, 9.224331, 0.09204507, 0.0058341026, 10.100474
779416357992966, 1.6031911, 3.7555351, 9.199206, 0.042850733, 0.017970324, 10.064667
779416367632028, 1.5804594, 3.7770705, 9.158528, 0.035618305, 0.054570198, 10.031875
779416377271195, 1.5888343, 3.7615173, 9.113065, 0.048992395, 0.047662973, 9.985825
779416386910361, 1.5984055, 3.7591243, 9.073584, 0.06686783, 0.05570221, 9.950291
779416396549528, 1.5744773, 3.723232, 9.026923, 0.04674697, 0.041774273, 9.890544
779416406188695, 1.5469599, 3.7064822, 9.026923, 0.012201309, 0.02887106, 9.880053
779416415827757, 1.5314065, 3.7016966, 9.046066, -0.00959444, 0.02123189, 9.893359
779416425466924, 1.5158532, 3.6861434, 9.059227, -0.030282259, 0.007554531, 9.897177
779416435106091, 1.5337993, 3.694518, 9.09153, -0.016681433, 0.0013513565, 9.932657
779416444745257, 1.5302101, 3.714857, 9.138189, -0.022851229, 0.009340048, 9.982364
779416454384424, 1.5337993, 3.7196429, 9.15135, -0.016984224, 0.011419773, 9.996754
779416464023591, 1.5122639, 3.723232, 9.19801, -0.044636488, 0.00860095, 10.037467
779416473662653, 1.5098711, 3.7136607, 9.206385, -0.05096984, -0.0021247864, 10.04121
779416483301820, 1.5062819, 3.6693935, 9.189635, -0.057210207, -0.034118652, 10.008911
779416492940986, 1.5290136, 3.6873398, 9.182457, -0.030053377, -0.02150917, 10.012518
779416502580153, 1.5529419, 3.702893, 9.1669035, -0.0018942356, -0.008725166, 10.007752
779416512219320, 1.5481563, 3.6801612, 9.139386, -0.009251595, -0.020499468, 9.973377
779416521858382, 1.5553347, 3.6837504, 9.136993, -0.002979517, -0.018556595, 9.973634
779416531497549, 1.5840486, 3.7220356, 9.186047, 0.019994497, -0.007245064, 10.037217
779416541136716, 1.6271194, 3.7543387, 9.24826, 0.0512743, -0.008778334, 10.112871
779416550775882, 1.6175481, 3.7734814, 9.21476, 0.054569244, 0.021252155, 10.087815
779416560415049, 1.6019948, 3.760321, 9.220742, 0.037616014, 0.012503624, 10.085977
779416570054111, 1.6163517, 3.772285, 9.230313, 0.05558777, 0.015737534, 10.101389
779416579693278, 1.6115661, 3.76391, 9.190832, 0.059127092, 0.021966934, 10.061391
779416589332445, 1.585245, 3.7220356, 9.096315, 0.048746586, 0.019851208, 9.955237
779416598971611, 1.5637096, 3.7016966, 9.02453, 0.037021637, 0.023136139, 9.878663
779416608610778, 1.5433706, 3.6693935, 8.963513, 0.025866747, 0.019467354, 9.80765
779416618249841, 1.5433706, 3.6933217, 8.963513, 0.027085304, 0.03771615, 9.816569
779416627889007, 1.5625132, 3.7016966, 8.969496, 0.041494846, 0.03593898, 9.828167
779416637528174, 1.5553347, 3.7172499, 9.052048, 0.017346859, 0.025911331, 9.9083605
779416647167341, 1.5278172, 3.711268, 9.116654, -0.024129868, 0.010037661, 9.960946
779416656806507, 1.5158532, 3.7160535, 9.208778, -0.05316329, -0.0077261925, 10.045177
779416666445674, 1.5349957, 3.702893, 9.236296, -0.036403894, -0.0258317, 10.068506
779416676084736, 1.5457634, 3.7160535, 9.254242, -0.026956081, -0.020707607, 10.0914955
779416685723903, 1.5804594, 3.7304106, 9.267402, 0.00429368, -0.02174306, 10.114252
779416695363070, 1.5601203, 3.7124643, 9.255438, -0.01909852, -0.030194521, 10.093475
779416705002236, 1.5302101, 3.7040894, 9.202796, -0.03866124, -0.015104532, 10.037506
779416714641403, 1.5098711, 3.690929, 9.177671, -0.056853533, -0.015793085, 10.006439
779416724280466, 1.5062819, 3.690929, 9.152547, -0.05524087, -0.008503914, 9.982876
779416733919632, 1.4991034, 3.6681972, 9.138189, -0.06322336, -0.022847176, 9.960168
779416743558799, 1.5266209, 3.682554, 9.090333, -0.0222826, -0.0037198067, 9.925996
779416753197966, 1.544567, 3.7040894, 9.092726, 0.002555132, 0.011494398, 9.938988
779416762837132, 1.5696917, 3.702893, 9.120243, 0.022360802, -0.0035705566, 9.96763
779416772476195, 1.5840486, 3.7184465, 9.111869, 0.04113865, 0.009387016, 9.967971
779416782115361, 1.5756737, 3.7244284, 9.09153, 0.042279482, 0.025503397, 9.950256
779416791754528, 1.570888, 3.7339997, 9.089137, 0.04110837, 0.0374825, 9.950869
779416801393695, 1.6067804, 3.751946, 9.120243, 0.06878877, 0.034022808, 9.991589
779416811032861, 1.5936198, 3.7483566, 9.157332, 0.046320677, 0.023018599, 10.022169
779416820671924, 1.5529419, 3.731607, 9.122637, 0.010406971, 0.028320312, 9.977882
779416830311091, 1.5397813, 3.7040894, 9.115458, -0.007421255, 0.008217573, 9.959051
779416839950257, 1.5266209, 3.7100716, 9.134601, -0.02423644, 0.010432482, 9.976746
779416849589424, 1.5613167, 3.696911, 9.159725, -8.13961E-4, -0.019066572, 10.000255
779416859228591, 1.5481563, 3.711268, 9.085547, 0.0072705746, 0.02131915, 9.93564
779416868867653, 1.5625132, 3.7052858, 9.081959, 0.020879507, 0.0137553215, 9.932367
779416878506820, 1.5517455, 3.7052858, 9.12503, 4.3535233E-4, 0.0033755302, 9.970117
779416888145986, 1.550549, 3.7064822, 9.156136, -0.008170366, -0.0032074451, 9.998848
779416897785153, 1.5529419, 3.694518, 9.136993, -0.003068924, -0.0064098835, 9.977257
779416907424320, 1.5577276, 3.7052858, 9.159725, -5.707741E-4, -0.0028288364, 10.00281
779416917063382, 1.579263, 3.7136607, 9.189635, 0.014833689, -0.009088755, 10.036654
779416926702549, 1.5960127, 3.7172499, 9.176475, 0.035137653, -0.004696369, 10.028541
779416936341716, 1.5816557, 3.7136607, 9.172886, 0.021772146, -0.0020823479, 10.02169
779416945980882, 1.5768701, 3.7124643, 9.200403, 0.008950233, -0.010331154, 10.045703
779416955620049, 1.5409778, 3.7088752, 9.206385, -0.027479887, -0.005034685, 10.044258
779416965259111, 1.5373886, 3.7052858, 9.232706, -0.037885427, -0.01672697, 10.066472
779416974898278, 1.538585, 3.6849468, 9.217153, -0.037192106, -0.030526876, 10.044883
779416984537445, 1.5146568, 3.6693935, 9.18485, -0.055129528, -0.029617071, 10.005807
779416994176611, 1.5098711, 3.6789649, 9.178867, -0.055895567, -0.018487692, 10.003132
779417003815778, 1.4943178, 3.6789649, 9.1465645, -0.0625906, -0.0064287186, 9.971131
779417013454841, 1.5038891, 3.6681972, 9.099904, -0.043141365, -0.0050554276, 9.925912
779417023094007, 1.5469599, 3.6981075, 9.115458, 0.0012159348, 0.006089449, 9.957943
779417032733174, 1.5601203, 3.7244284, 9.15135, 0.012140989, 0.015533209, 10.002607
779417042372341, 1.5684953, 3.751946, 9.162118, 0.02297616, 0.03473544, 10.023968
779417052011507, 1.5744773, 3.7627137, 9.164511, 0.033167124, 0.042207956, 10.031071
779417061650570, 1.5625132, 3.7615173, 9.132208, 0.032900333, 0.0525105, 9.999191
779417071289736, 1.5696917, 3.7411783, 9.072387, 0.049358368, 0.051791668, 9.937977
779417080928903, 1.6295122, 4.0474596, 9.131011, 0.15068889, 0.29246736, 10.114563
779417090568070, 1.4979069, 3.237489, 8.849854, -0.07648826, -0.31831336, 9.536131
779417100207132, 1.666601, 4.3968115, 9.1669035, 0.25560665, 0.5683727, 10.28364
779417109846299, 1.4763715, 2.9419754, 8.768498, -0.16026592, -0.55366087, 9.34822
779417119485466, 1.6354942, 4.4279184, 9.193225, 0.22929883, 0.5974057, 10.314419
779417129124632, 1.5194423, 3.1106694, 8.907282, -0.12541986, -0.4571929, 9.544626
779417138763799, 1.570888, 4.1108694, 9.129815, 0.09887409, 0.34777355, 10.128658
779417148402861, 1.5840486, 3.546163, 9.1465645, -0.020899296, -0.15784073, 9.935731
779417158042028, 1.5182459, 3.621537, 9.158528, -0.06357837, -0.06628752, 9.964478
779417167681195, 1.6450655, 4.0510488, 9.413364, 0.094426155, 0.19879484, 10.376909
779417177320361, 1.4799608, 3.12383, 9.140582, -0.21939182, -0.4882207, 9.757682
779417186959424, 1.6498512, 4.3836513, 9.556933, 0.1467433, 0.4531393, 10.632335
779417196598591, 1.4392828, 2.9036903, 9.136993, -0.30729485, -0.6647513, 9.667021
779417206237757, 1.5613167, 4.408776, 9.475577, 0.09278417, 0.54202175, 10.552685
779417215876924, 1.4273187, 3.0257242, 9.09153, -0.2824347, -0.5305946, 9.6688595
779417225516091, 1.4919249, 4.1407795, 9.273384, 0.023685455, 0.38223553, 10.257724
779417235155153, 1.4931214, 3.4803605, 9.152547, -0.10888457, -0.17126751, 9.903044
779417244794320, 1.4321043, 3.6251264, 9.010174, -0.088932276, 0.012895107, 9.816701
779417254433486, 1.6103697, 3.9768713, 9.178867, 0.12131405, 0.21570063, 10.129125
779417264072653, 1.4452649, 3.129812, 8.8701935, -0.16634488, -0.39971042, 9.506702
779417273711716, 1.6630118, 4.3740797, 9.26142, 0.23670363, 0.5263283, 10.360455
779417283350882, 1.463211, 2.9336007, 8.806784, -0.17983842, -0.5679536, 9.378248
779417292990049, 1.6630118, 4.447061, 9.218349, 0.26707125, 0.6072571, 10.34794
779417302629216, 1.5972091, 3.0951161, 8.913264, -0.039033413, -0.48950624, 9.556984
779417312268278, 1.7096717, 4.281956, 9.1872425, 0.26701403, 0.4470997, 10.266078
779417321907445, 1.6618153, 3.5449667, 9.102298, 0.07226133, -0.16426659, 9.906969
779417331546611, 1.5457634, 3.778267, 9.042477, 0.031838655, 0.09929967, 9.920696
779417341185778, 1.6139588, 4.0067816, 9.203992, 0.11129403, 0.23374915, 10.163937
779417350824841, 1.4739788, 3.2446675, 8.952746, -0.13718581, -0.32845283, 9.629406
779417360464007, 1.6689938, 4.354937, 9.409775, 0.19803882, 0.4610839, 10.490141
779417370103174, 1.4273187, 2.9168508, 8.970692, -0.26148534, -0.60878444, 9.51733
779417379742341, 1.6091732, 4.4374895, 9.430114, 0.15878081, 0.5593989, 10.529466
779417389381403, 1.4691931, 2.969493, 9.0951185, -0.24504161, -0.6082618, 9.657513
779417399020570, 1.5218352, 4.150351, 9.37149, 0.019866943, 0.33875394, 10.356208
779417408659736, 1.4883357, 3.32722, 9.241081, -0.1726067, -0.33835053, 9.926674
779417418298903, 1.4584254, 3.7184465, 9.183653, -0.09097266, 0.034421682, 10.014184
779417427937966, 1.585245, 3.8907297, 9.27817, 0.05050683, 0.12440729, 10.184164
779417437577132, 1.4285151, 3.2482567, 8.956335, -0.16216397, -0.30681968, 9.627425
779417447216299, 1.6319051, 4.339384, 9.327223, 0.1955638, 0.4914794, 10.402435
779417456855466, 1.4129617, 2.975475, 8.950353, -0.24547839, -0.55054426, 9.51816
779417466494528, 1.6127625, 4.4662037, 9.339187, 0.20625305, 0.60163355, 10.457719
779417476133695, 1.4739788, 3.0065815, 8.915657, -0.17283773, -0.53367186, 9.507176
779417485772861, 1.5924234, 4.278367, 9.170493, 0.19434261, 0.494864, 10.230128
779417495412028, 1.5637096, 3.3750763, 9.01137, -0.023299217, -0.26113868, 9.745378
779417505051091, 1.5361922, 3.8500516, 9.031709, 0.06328988, 0.16660166, 9.935935
779417514690257, 1.666601, 3.9098723, 9.134601, 0.17577314, 0.15118885, 10.072331
779417524329424, 1.4943178, 3.3379877, 8.9108715, -0.0730567, -0.23755169, 9.628967
779417533968591, 1.678565, 4.308277, 9.265009, 0.25047612, 0.45829248, 10.341492
779417543607653, 1.4177474, 2.9623144, 8.827123, -0.21268272, -0.5242417, 9.401242
779417553246820, 1.6019948, 4.453043, 9.211171, 0.21877766, 0.62551785, 10.334531
779417562885986, 1.416551, 2.9419754, 8.793623, -0.22227454, -0.5288341, 9.362721
779417572525153, 1.538585, 4.2508492, 9.093923, 0.1380043, 0.51075673, 10.141818
779417582164216, 1.5038891, 3.2566316, 8.991031, -0.11635685, -0.3356421, 9.673663
779417591803382, 1.4895321, 3.8273199, 9.114262, -0.024062395, 0.13748932, 9.995865
779417601442549, 1.5900307, 3.7627137, 9.230313, 0.027535915, 0.02291441, 10.09374
779417611081611, 1.4596218, 3.3212378, 9.096315, -0.16371727, -0.28670168, 9.787496
779417620720778, 1.6821543, 4.2281175, 9.515059, 0.15942788, 0.33343887, 10.540701
779417630359945, 1.477568, 2.9850461, 9.171689, -0.23957562, -0.6027968, 9.736162
779417639999111, 1.6941184, 4.4578285, 9.583255, 0.19656372, 0.54005885, 10.688815
779417649638174, 1.4991034, 2.932404, 9.158528, -0.22509074, -0.6568787, 9.707872
779417659277341, 1.6079768, 4.2915273, 9.420543, 0.11817384, 0.4547813, 10.465593
779417668916507, 1.5373886, 3.2159536, 9.178867, -0.12677526, -0.41006994, 9.837343
779417678555674, 1.5337993, 3.885944, 9.211171, 0.0037839413, 0.18057203, 10.112674
779417688194736, 1.6007984, 3.6873398, 9.211171, 0.025057316, -0.018484116, 10.050061
779417697833903, 1.4644074, 3.3379877, 8.957532, -0.11688733, -0.2210412, 9.667549
779417707473070, 1.6522441, 4.1850467, 9.304491, 0.16005182, 0.38542247, 10.326854
779417717112132, 1.4823537, 2.9982069, 8.976674, -0.18469238, -0.5375149, 9.562651
779417726751299, 1.7084754, 4.4482574, 9.404989, 0.26386094, 0.5754919, 10.524204
779417736390466, 1.5397813, 2.9252257, 8.967103, -0.13782287, -0.6188314, 9.535978
779417746029632, 1.7036897, 4.392026, 9.290133, 0.27428246, 0.56088257, 10.397558
779417755668695, 1.6127625, 3.2542388, 9.01137, -0.019973516, -0.36041784, 9.709046
779417765307861, 1.5804594, 4.0007997, 9.133404, 0.104394436, 0.28374887, 10.09118
779417774947028, 1.6319051, 3.723232, 9.133404, 0.08185506, 0.019364119, 9.996879
779417784586091, 1.4452649, 3.4396825, 8.913264, -0.11304188, -0.11422777, 9.661297
779417794225257, 1.5924234, 4.121637, 9.153743, 0.12952018, 0.3746717, 10.156652
779417803864424, 1.3866407, 2.9718857, 8.768498, -0.24895191, -0.46658325, 9.346752
779417813503591, 1.6450655, 4.4075794, 9.236296, 0.24022222, 0.58062315, 10.346369
779417823142653, 1.4919249, 2.9036903, 8.836694, -0.18785954, -0.576874, 9.400869
779417832781820, 1.6654046, 4.358526, 9.262616, 0.2455337, 0.52442145, 10.355245
779417842420986, 1.5720844, 3.1513474, 9.044869, -0.089571476, -0.44730926, 9.695566
779417852060049, 1.564906, 4.005585, 9.250652, 0.05776477, 0.2583661, 10.1979475
779417861699216, 1.5828521, 3.6263227, 9.309277, -0.033756495, -0.09360695, 10.114759
779417871338382, 1.463211, 3.455236, 9.132208, -0.13978219, -0.15430355, 9.870843
779417880977445, 1.6606189, 4.104887, 9.404989, 0.13803244, 0.28466082, 10.390452
779417890616611, 1.4464613, 3.0699914, 9.038888, -0.22547722, -0.46201587, 9.64128
779417900255778, 1.6235301, 4.3872404, 9.460024, 0.14784312, 0.53136706, 10.539049
779417909894945, 1.4093726, 2.8510482, 9.008977, -0.3002224, -0.636003, 9.527949
779417919534007, 1.5924234, 4.331009, 9.353543, 0.15876293, 0.5283663, 10.41527
779417929173174, 1.5278172, 3.062813, 9.0951185, -0.1609497, -0.5063243, 9.703297
779417938812341, 1.5517455, 3.9984066, 9.209974, 0.056359053, 0.2819934, 10.155594
779417948451403, 1.5744773, 3.5389848, 9.153743, -0.017605543, -0.11301041, 9.938879
779417958090570, 1.4991034, 3.5389848, 9.017352, -0.056370974, -0.05184436, 9.801965
779417967729736, 1.6630118, 4.082155, 9.224331, 0.17683792, 0.31952643, 10.216874
779417977368799, 1.4739788, 3.0735807, 8.8701935, -0.15078521, -0.418355, 9.492212
779417987007966, 1.6845472, 4.3836513, 9.363115, 0.22618699, 0.5393393, 10.4584875
779417996647132, 1.4883357, 2.9192436, 8.965906, -0.19329047, -0.58832884, 9.525813
779418006286195, 1.6582261, 4.401597, 9.357133, 0.20192838, 0.5844796, 10.454536
779418015925361, 1.5421742, 3.0664022, 9.035298, -0.11216283, -0.49966764, 9.6517105
779418025564528, 1.579263, 4.0965123, 9.200403, 0.09927511, 0.38103008, 10.186652
779418035203695, 1.6103697, 3.5102708, 9.132208, 0.024694204, -0.14432812, 9.9141865
779418044842757, 1.5098711, 3.586841, 8.995817, -0.02281642, -0.0038397312, 9.801497
779418054481924, 1.6462619, 3.999603, 9.251849, 0.13179302, 0.25117993, 10.208981
779418064121091, 1.4703895, 3.0855448, 8.943174, -0.1618352, -0.42574358, 9.563241
779418073760153, 1.6630118, 4.345366, 9.369097, 0.19639897, 0.5272298, 10.445632
779418083399320, 1.4967105, 2.8833513, 9.022138, -0.20966315, -0.64025474, 9.565508
779418093038486, 1.6893328, 4.430311, 9.431311, 0.23544097, 0.5646696, 10.538351
779418102677549, 1.538585, 3.0472596, 9.090333, -0.15895915, -0.50943947, 9.695483
779418112316716, 1.5972091, 4.1479583, 9.323633, 0.11241984, 0.378551, 10.321378
779418121955882, 1.6079768, 3.493521, 9.275777, -0.02732706, -0.18737006, 10.039645
779418131594945, 1.5134603, 3.6382868, 9.147761, -0.04891348, 0.0049567223, 9.960262
779418141234111, 1.6043876, 3.9457645, 9.284152, 0.07533693, 0.2119031, 10.2121525
779418150873278, 1.39023, 3.1082766, 8.922835, -0.24059582, -0.3614192, 9.540578
779418160512341, 1.591227, 4.2687955, 9.32124, 0.14081621, 0.48416638, 10.362717
779418170151507, 1.3890336, 2.8199415, 8.906086, -0.30255234, -0.6179955, 9.419469
779418179790674, 1.5960127, 4.365705, 9.296116, 0.16375136, 0.5893867, 10.375463
779418189429736, 1.4536397, 2.922833, 8.955139, -0.22408175, -0.5604055, 9.512426
779418199068903, 1.5397813, 4.112066, 9.226724, 0.070610285, 0.38938832, 10.210576
779418208708070, 1.5613167, 3.3702908, 9.147761, -0.05623722, -0.25140047, 9.869739
779418218347236, 1.5182459, 3.6897326, 9.156136, -0.030605555, 0.04202342, 9.987558
779418227986299, 1.6510476, 3.8991046, 9.347562, 0.09435177, 0.13575554, 10.260534
779418237625466, 1.4991034, 3.2207394, 9.072387, -0.1375823, -0.34447265, 9.736071
779418247264632, 1.7228323, 4.3465624, 9.516255, 0.2242043, 0.46989703, 10.590034
779418256903695, 1.5661024, 2.9682965, 9.160921, -0.1707623, -0.6174786, 9.7352705
779418266542861, 1.7682959, 4.479364, 9.656236, 0.27046204, 0.5204165, 10.7745285
779418276182028, 1.6079768, 3.034099, 9.225528, -0.1234262, -0.5919738, 9.825276
779418285821091, 1.6486548, 4.24726, 9.413364, 0.17557621, 0.4329083, 10.44751
779418295460257, 1.5696917, 3.35713, 9.227921, -0.07196593, -0.29562235, 9.939628
779418305099424, 1.4679967, 3.751946, 9.109476, -0.039683104, 0.12675428, 9.959772
779418314738486, 1.5577276, 3.8321054, 9.126225, 0.060861588, 0.15592861, 10.01856
779418324377653, 1.4009976, 3.2099717, 8.790034, -0.14936209, -0.25120664, 9.457591
779418334016820, 1.6163517, 4.253242, 9.09153, 0.2097497, 0.52259064, 10.150936
779418343655882, 1.4009976, 2.9072795, 8.702696, -0.19817805, -0.50770116, 9.265796
779418353295049, 1.6283158, 4.4279184, 9.160921, 0.24889302, 0.6460314, 10.281103
779418362934216, 1.43689, 2.9300113, 8.755338, -0.18327236, -0.5259602, 9.32713
779418372573278, 1.5481563, 4.2352962, 9.108279, 0.14717841, 0.51390624, 10.149362
779418382212445, 1.5409778, 3.3128629, 8.98146, -0.045652866, -0.27848697, 9.692093
779418391851611, 1.5361922, 3.842873, 9.083155, 0.04961419, 0.16788602, 9.980011
779418401490674, 1.6677973, 3.8751762, 9.274581, 0.13628507, 0.105608225, 10.187574
779418411129841, 1.5098711, 3.3296127, 9.075976, -0.095272064, -0.2713306, 9.780424
779418420769007, 1.6498512, 4.2723846, 9.445667, 0.17796922, 0.42103362, 10.487469
779418430408070, 1.4069797, 2.9371898, 9.040084, -0.28084278, -0.5803828, 9.587181
779418440047236, 1.5948163, 4.4195433, 9.427721, 0.15146112, 0.5727229, 10.516977
779418449686403, 1.4476577, 2.8929226, 8.98146, -0.23096347, -0.6077883, 9.524105
779418459325466, 1.5577276, 4.2520456, 9.284152, 0.113054276, 0.4783318, 10.317961
779418468964632, 1.5314065, 3.231507, 9.163314, -0.11211324, -0.3903525, 9.827981
779418478603799, 1.5170496, 3.8536408, 9.275777, -0.016885757, 0.13985753, 10.1573715
779418488242966, 1.5900307, 3.7280176, 9.379865, 0.0068967342, -0.018275976, 10.218014
779418497882028, 1.4560326, 3.31047, 9.12503, -0.14163232, -0.27964568, 9.810564
779418507521195, 1.6689938, 4.2161536, 9.424132, 0.18433714, 0.39153862, 10.449329
779418517160361, 1.4679967, 2.969493, 9.060423, -0.18303871, -0.5764942, 9.627998
779418526799424, 1.6833507, 4.4458647, 9.468399, 0.23122048, 0.5725522, 10.576799
779418536438591, 1.4691931, 2.9252257, 8.997013, -0.17290807, -0.6051607, 9.553303
779418546077757, 1.558924, 4.321438, 9.262616, 0.13603115, 0.5600846, 10.323222
779418555716820, 1.4799608, 3.205186, 8.993423, -0.11676884, -0.34176755, 9.654777
779418565355986, 1.5158532, 3.9230328, 9.098708, 0.04886651, 0.2507143, 10.020442
779418574995153, 1.6247265, 3.7447674, 9.096315, 0.11510706, 0.05368662, 9.969444
779418584634216, 1.4859428, 3.4372897, 8.861818, -0.029827356, -0.11001158, 9.619866
779418594273382, 1.6606189, 4.206582, 9.202796, 0.23354125, 0.4203248, 10.242716
779418603912549, 1.4392828, 3.028117, 8.872586, -0.17779803, -0.47018695, 9.471597
779418613551611, 1.625923, 4.4339004, 9.339187, 0.23827696, 0.5810044, 10.446491
779418623190778, 1.4464613, 2.8965118, 8.913264, -0.2295475, -0.58809924, 9.462018
779418632829945, 1.6019948, 4.334598, 9.257831, 0.19845057, 0.5391991, 10.331139
779418642469007, 1.5290136, 3.1716864, 9.016156, -0.101266384, -0.40402818, 9.670319
779418652108174, 1.544567, 3.9924245, 9.170493, 0.07921386, 0.27963543, 10.116256
779418661747341, 1.5888343, 3.656233, 9.230313, 0.020280838, -0.053817272, 10.054243
779418671386403, 1.4560326, 3.4408789, 9.111869, -0.124067545, -0.17054343, 9.84588
779418681025570, 1.6247265, 4.1180477, 9.452846, 0.110872746, 0.2853074, 10.43363
779418690664736, 1.4213367, 3.0041888, 9.11785, -0.25758457, -0.54402876, 9.685981
779418700303799, 1.6175481, 4.3932223, 9.554541, 0.14002776, 0.51579046, 10.626404
779418709942966, 1.4249259, 2.8725836, 9.084352, -0.26270628, -0.655036, 9.607783
779418719582132, 1.5732809, 4.3441696, 9.342776, 0.13009214, 0.5405028, 10.407949
779418729221299, 1.457229, 3.1022944, 9.037691, -0.16299558, -0.44777417, 9.654041
779418738860361, 1.4620147, 3.9888353, 9.176475, -0.013533115, 0.30013752, 10.107706
779418748499528, 1.524228, 3.5617166, 9.141779, -0.031284332, -0.087073326, 9.928376
779418758138695, 1.4524434, 3.4899318, 9.000603, -0.080346584, -0.09010291, 9.761429
779418767777757, 1.6677973, 4.095316, 9.306884, 0.17390704, 0.30200243, 10.29805
779418777416924, 1.4943178, 3.083152, 8.999406, -0.123205185, -0.4740746, 9.617078
779418787056091, 1.692922, 4.438686, 9.439685, 0.24223375, 0.5684726, 10.549585
779418796695153, 1.4943178, 2.932404, 8.973084, -0.15362763, -0.6024413, 9.537383
779418806334320, 1.6019948, 4.4051867, 9.316455, 0.18159437, 0.5905049, 10.410894
779418815973486, 1.5122639, 3.1190443, 8.967103, -0.09376049, -0.4279771, 9.603768
779418825612549, 1.5613167, 4.089334, 9.141779, 0.124863625, 0.37261915, 10.128082
779418835251716, 1.5517455, 3.5401812, 9.066405, -0.0014643669, -0.10056853, 9.855476
779418844890882, 1.4536397, 3.51386, 8.895318, -0.058426857, -0.037251472, 9.673788
779418854530049, 1.6103697, 4.005585, 9.176475, 0.13992643, 0.26534033, 10.13685
779418864169111, 1.4464613, 3.062813, 8.88814, -0.18620515, -0.42953157, 9.5001545
779418873808278, 1.6570296, 4.339384, 9.407382, 0.21261406, 0.47910333, 10.478555
779418883447445, 1.4679967, 2.8558338, 9.098708, -0.26829338, -0.6745353, 9.621347
779418893086507, 1.6582261, 4.421936, 9.492328, 0.22999859, 0.55463934, 10.585224
779418902725674, 1.5421742, 3.0759735, 9.260223, -0.16740537, -0.54549146, 9.862356
779418912364841, 1.5948163, 4.1467614, 9.436096, 0.10440159, 0.355649, 10.423128
779418922003903, 1.6199409, 3.5389848, 9.348758, -0.001086235, -0.18001986, 10.124994
779418931643070, 1.550549, 3.6550367, 9.241081, -0.010807991, -0.02103734, 10.057858
779418941282236, 1.6414764, 4.01396, 9.329616, 0.13545299, 0.24346709, 10.284474
779418950921403, 1.4321043, 3.121437, 8.924032, -0.1774931, -0.37445498, 9.55306
779418960560466, 1.5828521, 4.3130627, 9.312865, 0.14616919, 0.522516, 10.370295
779418970199632, 1.3639089, 2.8378878, 8.827123, -0.29472136, -0.58368206, 9.349032
779418979838799, 1.5577276, 4.369294, 9.171689, 0.17338371, 0.61154175, 10.258319
779418989477861, 1.4344971, 2.9563324, 8.787642, -0.1892333, -0.48828316, 9.367288
779418999117028, 1.5050855, 4.104887, 9.0544405, 0.084501505, 0.4303801, 10.045194
779419008756195, 1.5361922, 3.394219, 9.066405, -0.051409483, -0.21125007, 9.799644
779419018395257, 1.5134603, 3.662215, 9.128618, -0.02919054, 0.022033453, 9.951518
779419028034424, 1.6606189, 3.9481573, 9.360723, 0.116089106, 0.16469908, 10.29214
779419037673591, 1.463211, 3.1657043, 9.069994, -0.1827991, -0.38993406, 9.707831
779419047312757, 1.6761723, 4.345366, 9.479167, 0.19143796, 0.48024297, 10.54889
779419056951820, 1.4656038, 2.9156544, 9.069994, -0.25075674, -0.6104121, 9.616567
779419066590986, 1.6642082, 4.4339004, 9.499506, 0.19808793, 0.57157826, 10.597343
779419076230153, 1.5493526, 2.9910283, 9.133404, -0.16897082, -0.57651806, 9.716217
779419085869216, 1.6331015, 4.191029, 9.35833, 0.14626384, 0.409436, 10.374057
779419095508382, 1.6139588, 3.3834512, 9.280562, -0.045552254, -0.28727436, 10.004842
779419105147549, 1.5361922, 3.7064822, 9.298509, -0.04827118, 0.015079498, 10.127073
779419114786716, 1.6438692, 3.8536408, 9.359526, 0.071926594, 0.10101032, 10.253691
779419124425778, 1.4404793, 3.1669009, 9.007781, -0.19129896, -0.3563428, 9.647839
779419134064945, 1.6582261, 4.253242, 9.387043, 0.17122221, 0.43861294, 10.427592
779419143704111, 1.4392828, 2.9120653, 8.959925, -0.23998547, -0.56778646, 9.510623
779419153343174, 1.591227, 4.426722, 9.41815, 0.14388704, 0.6052878, 10.509155
779419162982341, 1.402194, 2.9192436, 9.014959, -0.29104543, -0.5789449, 9.557078
779419172621507, 1.4739788, 4.186243, 9.237492, 0.031631947, 0.47692132, 10.237189
779419182260674, 1.4919249, 3.2733815, 9.068798, -0.12528968, -0.29890585, 9.750844
779419191899736, 1.5062819, 3.743571, 9.079565, -0.0035073757, 0.10873723, 9.935286
779419201538903, 1.6163517, 3.8129628, 9.162118, 0.09342027, 0.11460042, 10.053548
779419211178070, 1.4739788, 3.2410784, 8.909675, -0.10689139, -0.2805915, 9.590067
779419220817132, 1.6773686, 4.241278, 9.340384, 0.19790125, 0.42655087, 10.383819
779419230456299, 1.463211, 2.928815, 8.939586, -0.19783211, -0.56540227, 9.501386
779419240095466, 1.6558332, 4.4482574, 9.401401, 0.19318008, 0.60259795, 10.512595
779419249734632, 1.5278172, 2.9659038, 9.016156, -0.14082098, -0.58468413, 9.594799
779419259373695, 1.6893328, 4.3298125, 9.38465, 0.20715213, 0.48944736, 10.4589815
779419269012861, 1.6654046, 3.3702908, 9.180064, 0.03685236, -0.2987771, 9.91541
779419278652028, 1.5984055, 3.9134614, 9.24467, 0.06826329, 0.1828134, 10.163462
779419288291195, 1.6642082, 3.818945, 9.318848, 0.09463334, 0.05609846, 10.206995
779419297930257, 1.4919249, 3.3224342, 9.052048, -0.11687589, -0.25810456, 9.7531395
779419307569424, 1.6570296, 4.23051, 9.334401, 0.18074131, 0.4239111, 10.371194
779419317208591, 1.4261223, 2.9072795, 8.860622, -0.24158502, -0.5543184, 9.414408
779419326847757, 1.5972091, 4.3908296, 9.27817, 0.18373823, 0.5986104, 10.369321
779419336486820, 1.4560326, 2.8929226, 8.853444, -0.20721054, -0.5703378, 9.407673
779419346125986, 1.6199409, 4.314259, 9.232706, 0.20437694, 0.5319326, 10.303164
779419355765153, 1.570888, 3.269792, 9.069994, -0.07143879, -0.3349123, 9.762517
779419365404320, 1.5314065, 3.9230328, 9.223135, 0.022459269, 0.21519876, 10.136803
779419375043382, 1.6079768, 3.7734814, 9.297313, 0.03551793, 0.032794237, 10.161814
779419384682549, 1.477568, 3.3930225, 9.105886, -0.12940979, -0.20908284, 9.826115
779419394321716, 1.6594225, 4.2161536, 9.41456, 0.16777849, 0.38226366, 10.439795
779419403960882, 1.4404793, 2.9970105, 8.997013, -0.23152971, -0.5204649, 9.5749035
779419413599945, 1.6486548, 4.438686, 9.436096, 0.21083331, 0.5694754, 10.539978
779419423239111, 1.4536397, 2.879762, 8.95155, -0.24717999, -0.61605597, 9.491876
779419432878278, 1.570888, 4.2867417, 9.226724, 0.14748073, 0.5201447, 10.280272
779419442517445, 1.4919249, 3.1561332, 8.992228, -0.14135218, -0.3893175, 9.637201
779419452156507, 1.4955142, 3.9361932, 9.128618, 0.008494854, 0.2644918, 10.049469
779419461795674, 1.5864414, 3.6729827, 9.209974, 0.009213448, -0.025639296, 10.041437
779419471434841, 1.4919249, 3.414558, 9.060423, -0.10223985, -0.18355012, 9.794497
779419481074007, 1.6797615, 4.159922, 9.431311, 0.15539646, 0.31427002, 10.438068
779419490713070, 1.4907285, 3.0352955, 9.075976, -0.19369054, -0.52374005, 9.669375
779419500352236, 1.6857436, 4.4171505, 9.524631, 0.19704294, 0.51841784, 10.619037
779419509991403, 1.5182459, 2.9096723, 9.035298, -0.18020749, -0.63968945, 9.589901
779419519630570, 1.6570296, 4.3848476, 9.314062, 0.22655654, 0.5578325, 10.409702
779419529269736, 1.5194423, 3.1716864, 8.975478, -0.11831212, -0.38632846, 9.631421
779419538908799, 1.5361922, 4.01396, 9.099904, 0.070340395, 0.3258493, 10.058274
779419548547966, 1.5960127, 3.6346977, 9.096315, 0.035939455, -0.028929949, 9.92467
779419558187132, 1.4668003, 3.4839497, 8.9348, -0.08277655, -0.0789454, 9.700875
779419567826299, 1.6354942, 4.101298, 9.232706, 0.14937067, 0.33398676, 10.2276325
779419577465361, 1.4859428, 3.0448668, 8.933603, -0.16873789, -0.4786148, 9.541014
779419587104528, 1.7252251, 4.4075794, 9.416953, 0.25611472, 0.5224507, 10.523479
779419596743695, 1.5266209, 2.9192436, 8.970692, -0.16556716, -0.6110461, 9.535464
779419606382861, 1.6594225, 4.389633, 9.340384, 0.20666862, 0.5580764, 10.436051
779419616022028, 1.5541383, 3.1046875, 9.083155, -0.12774348, -0.47950172, 9.7114315
779419625661091, 1.5744773, 4.063013, 9.27817, 0.06434631, 0.31714797, 10.245329
779419635300257, 1.5960127, 3.6059837, 9.263813, -0.012426853, -0.0890131, 10.067798
779419644939424, 1.4739788, 3.5318062, 9.147761, -0.11456108, -0.08326864, 9.915026
779419654578591, 1.6211374, 4.0366917, 9.38465, 0.0819366, 0.25755548, 10.340289
779419664217653, 1.410569, 3.0412776, 9.0747795, -0.25296235, -0.4842584, 9.658788
779419673856820, 1.6139588, 4.3405805, 9.439685, 0.12928939, 0.51517296, 10.501003
779419683495986, 1.4057833, 2.8354948, 8.968299, -0.26756382, -0.6448343, 9.484686
779419693135153, 1.5684953, 4.3130627, 9.311669, 0.11327505, 0.55204535, 10.36592
779419702774320, 1.416551, 2.9862428, 8.958728, -0.21584821, -0.50036025, 9.5334215
779419712413382, 1.4464613, 4.0091743, 9.18126, -0.04014039, 0.34116244, 10.116485
779419722052549, 1.4787644, 3.4073794, 9.122637, -0.11063576, -0.18923068, 9.847408
779419731691716, 1.4129617, 3.5270207, 9.02812, -0.13244271, -0.03680086, 9.7941
779419741330882, 1.6319051, 3.9780676, 9.266206, 0.104375124, 0.24291348, 10.211798
779419750970049, 1.4811572, 3.1286156, 8.975478, -0.14009428, -0.3945744, 9.610722
779419760609111, 1.7216359, 4.382455, 9.436096, 0.23843956, 0.5265322, 10.5297575
779419770248278, 1.5218352, 2.9072795, 9.052048, -0.17294359, -0.6211307, 9.606879
779419779887445, 1.707279, 4.429115, 9.473185, 0.2370925, 0.56285405, 10.578283
779419789526611, 1.6223338, 3.0580273, 9.103494, -0.0645268, -0.52034473, 9.725338
779419799165778, 1.7180467, 4.186243, 9.32483, 0.23887396, 0.38874483, 10.354739
779419808804945, 1.7347964, 3.525824, 9.21476, 0.11829305, -0.17119622, 10.015461
779419818444007, 1.6354942, 3.7124643, 9.085547, 0.09877753, 0.066034555, 9.949387
779419828083174, 1.7371893, 4.007978, 9.250652, 0.21455932, 0.25403, 10.22476
779419837722341, 1.5194423, 3.1513474, 8.993423, -0.117641926, -0.38446093, 9.6415615
779419847361507, 1.7096717, 4.322634, 9.446864, 0.19838262, 0.48126698, 10.515724
779419857000674, 1.4608182, 2.8773692, 9.052048, -0.24755526, -0.6251626, 9.586485
779419866639736, 1.6354942, 4.371687, 9.493524, 0.13619375, 0.5319524, 10.564655
779419876278903, 1.4955142, 2.949154, 9.148957, -0.2177043, -0.60228133, 9.707077
779419885918070, 1.5230316, 4.101298, 9.360723, 0.029797316, 0.37443924, 10.325809
779419895557236, 1.4823537, 3.3212378, 9.225528, -0.15809417, -0.28404808, 9.911241
779419905196403, 1.4249259, 3.62393, 9.152547, -0.12282562, 0.033257008, 9.945662
779419914835570, 1.5625132, 3.81057, 9.305687, 0.011523008, 0.11230087, 10.175703
779419924474632, 1.4117653, 3.1322048, 8.993423, -0.21496582, -0.36333084, 9.618068
779419934113799, 1.6187445, 4.249653, 9.391829, 0.1369462, 0.45827055, 10.423893
779419943752966, 1.4189439, 2.8630123, 8.976674, -0.25504088, -0.6050589, 9.505776
779419953392132, 1.6498512, 4.4135613, 9.416953, 0.19362688, 0.5826075, 10.51207
779419963031299, 1.5373886, 2.9850461, 9.026923, -0.131603, -0.5450034, 9.614835
779419972670466, 1.6510476, 4.240082, 9.288938, 0.19112706, 0.46383166, 10.331358
779419982309632, 1.6271194, 3.3966117, 9.132208, 0.01863718, -0.23417449, 9.875552
779419991948695, 1.5696917, 3.8129628, 9.08794, 0.07781887, 0.16365385, 9.977997
779420001587861, 1.6426728, 3.9086757, 9.127422, 0.16263437, 0.21778893, 10.060422
779420011227028, 1.4584254, 3.2554352, 8.786445, -0.08388734, -0.20905042, 9.480282
779420020866195, 1.6713866, 4.2891345, 9.19801, 0.27704263, 0.5137348, 10.269028
779420030505361, 1.4727824, 2.9312077, 8.800801, -0.16577578, -0.51907015, 9.376472
779420040144528, 1.6881363, 4.4410787, 9.21476, 0.3064568, 0.6380944, 10.343294
779420049783591, 1.550549, 2.9395826, 8.851051, -0.103692055, -0.5435567, 9.438234
779420059422757, 1.6522441, 4.2687955, 9.273384, 0.2043798, 0.47934246, 10.328438
779420069061924, 1.5756737, 3.3236306, 9.162118, -0.07267833, -0.2979355, 9.868113
779420078701091, 1.5924234, 3.7686956, 9.328419, 0.015671492, 0.05696845, 10.18601
779420088340257, 1.5684953, 3.662215, 9.37149, -0.04316902, -0.044537783, 10.182976
779420097979424, 1.5948163, 3.6921253, 9.439685, -0.023339033, -0.042717934, 10.26063
779420107618591, 1.5876378, 3.644269, 9.434899, -0.036237717, -0.07799435, 10.237735
779420117257757, 1.5481563, 3.6430724, 9.364311, -0.054292202, -0.04510355, 10.166322
779420126896820, 1.524228, 3.6323047, 9.2997055, -0.06625414, -0.031288862, 10.099311
779420136535986, 1.4823537, 3.583252, 9.254242, -0.10432887, -0.051412582, 10.033173
779420146175153, 1.4727824, 3.5760734, 9.18485, -0.10176849, -0.043267727, 9.965271
779420155814320, 1.4584254, 3.5904303, 9.162118, -0.107180834, -0.022859812, 9.9473915
779420165453486, 1.4859428, 3.5928233, 9.152547, -0.07791877, -0.02558422, 9.943783
779420175092653, 1.4991034, 3.615555, 9.136993, -0.0549376, -0.00443244, 9.939878
779420184731820, 1.5110675, 3.6227336, 9.144172, -0.039389372, -0.0030462742, 9.950973
779420194370986, 1.524228, 3.6466618, 9.162118, -0.021934748, 0.0110189915, 9.978236
779420204010049, 1.5433706, 3.6610186, 9.128618, 0.01007843, 0.031389475, 9.955684
779420213649216, 1.5625132, 3.67059, 9.085547, 0.04081464, 0.04901409, 9.922588
779420223288382, 1.5756737, 3.656233, 9.032906, 0.06304121, 0.04979348, 9.871054
779420232927549, 1.570888, 3.6550367, 9.030513, 0.055075645, 0.048481703, 9.867715
779420242566716, 1.6019948, 3.6526437, 9.066405, 0.0655663, 0.02300477, 9.904701
779420252205882, 1.6486548, 3.6897326, 9.113065, 0.10589671, 0.030206203, 9.968351
779420261845049, 1.6546369, 3.737589, 9.190832, 0.09915304, 0.04701543, 10.058168
779420271484216, 1.6677973, 3.7447674, 9.297313, 0.086651325, 0.019623995, 10.160561
779420281123382, 1.6654046, 3.7268212, 9.379865, 0.06370115, -0.018894672, 10.229381
779420290762445, 1.6606189, 3.7256248, 9.379865, 0.062001467, -0.015944242, 10.228182
779420300401611, 1.6151553, 3.7208393, 9.312865, 0.03741026, 0.015695572, 10.157814
779420310040778, 1.6091732, 3.6981075, 9.24826, 0.04394555, 0.016403675, 10.089279
779420319679945, 1.5577276, 3.6610186, 9.169296, 0.00224185, 0.014799595, 9.995265
779420329319111, 1.5314065, 3.629912, 9.115458, -0.019714117, 0.006474018, 9.930388
779420338958278, 1.5038891, 3.6023946, 9.068798, -0.04015422, 0.0038506985, 9.873216
779420348597445, 1.442872, 3.5808592, 9.042477, -0.09931874, 0.0071754456, 9.831629
779420358236611, 1.4703895, 3.5844483, 9.064013, -0.07961345, -0.0068075657, 9.85699
779420367875778, 1.4943178, 3.615555, 9.120243, -0.061923504, -0.0014731884, 9.92372
779420377514945, 1.5230316, 3.656233, 9.202796, -0.046375036, 0.0018200874, 10.018831
779420387154007, 1.538585, 3.6526437, 9.263813, -0.04347086, -0.022330523, 10.075956
779420396793174, 1.5349957, 3.65384, 9.275777, -0.04420805, -0.020498276, 10.0868435
779420406432341, 1.5457634, 3.65384, 9.29492, -0.034124613, -0.02634883, 10.106118
779420416071507, 1.599602, 3.674179, 9.296116, 0.023053646, -0.02149129, 10.122999
779420425710674, 1.6175481, 3.6753755, 9.237492, 0.051125526, -0.009421587, 10.072407
779420435349841, 1.6103697, 3.6670008, 9.174082, 0.053527355, 0.0014159679, 10.01005
779420444989007, 1.605584, 3.682554, 9.11785, 0.06628442, 0.034672737, 9.963369
779420454628174, 1.6043876, 3.674179, 9.139386, 0.04856491, 0.015385389, 9.979952
779420464267341, 1.5876378, 3.6753755, 9.169296, 0.025822163, 0.011263132, 10.005208
779420473906507, 1.6235301, 3.6957145, 9.195618, 0.055609703, 0.009786844, 10.042428
779420483545674, 1.6235301, 3.7124643, 9.241081, 0.051582575, 0.011140823, 10.090245
779420493184841, 1.6103697, 3.7040894, 9.23151, 0.03977585, 0.01005888, 10.076342
779420502824007, 1.5696917, 3.6729827, 9.209974, 0.005995989, 8.5377693E-4, 10.038841
779420512463174, 1.5684953, 3.6598222, 9.176475, 0.011213541, -6.439686E-4, 10.003101
779420522102341, 1.544567, 3.6646078, 9.1681, -0.00846529, 0.012987614, 9.993441
779420531741403, 1.5038891, 3.641876, 9.111869, -0.03852439, 0.020581245, 9.927194
779420541380570, 1.4955142, 3.6107693, 9.062816, -0.04187894, 0.008618593, 9.869499
779420551019736, 1.5086746, 3.6263227, 9.0436735, -0.02226758, 0.022846699, 9.859682
779420560658903, 1.5469599, 3.6478581, 9.080762, 0.007573843, 0.019627571, 9.907558
779420570298070, 1.5756737, 3.6574295, 9.140582, 0.0218997, 0.0012588501, 9.97042
779420579937236, 1.5637096, 3.6801612, 9.220742, -0.003934145, 0.0018327236, 10.050415
779420589576403, 1.5601203, 3.682554, 9.253045, -0.00850749, 0.0014390945, 10.080376
779420599215570, 1.5768701, 3.676572, 9.333204, -0.012951136, -0.033932924, 10.154363
779420608854736, 1.5720844, 3.6801612, 9.323633, -0.010132551, -0.0225842, 10.146159
779420618493903, 1.5672989, 3.6634114, 9.284152, -0.0052261353, -0.021097422, 10.103071
779420628133070, 1.544567, 3.6526437, 9.203992, -0.0094099045, -5.559921E-4, 10.02202
779420637772236, 1.5194423, 3.6323047, 9.148957, -0.024110794, 0.005320549, 9.960178
779420647411403, 1.5170496, 3.6335013, 9.105886, -0.01876235, 0.017568588, 9.920701
779420657050570, 1.4943178, 3.6311083, 9.081959, -0.04031825, 0.024800777, 9.894324
779420666689736, 1.5038891, 3.6251264, 9.127422, -0.04396701, 0.0025749207, 9.935348
779420676328903, 1.5302101, 3.6514473, 9.1872425, -0.027874231, 4.014969E-4, 10.0039625
779420685968070, 1.5469599, 3.6658044, 9.200403, -0.009329081, 0.0059821606, 10.023897
779420695607236, 1.5637096, 3.6681972, 9.189635, 0.012751341, 0.008535385, 10.017485
779420705246403, 1.6103697, 3.6981075, 9.241081, 0.052883387, 0.008010864, 10.082857
779420714885570, 1.6402799, 3.7124643, 9.267402, 0.077804565, 0.0042886734, 10.116896
779420724524632, 1.6139588, 3.7064822, 9.235099, 0.06013751, 0.017897844, 10.080971
779420734163903, 1.5696917, 3.6801612, 9.2075815, 0.01758027, 0.011912584, 10.039255
779420743802966, 1.5409778, 3.6514473, 9.169296, -0.0061585903, 0.005338192, 9.989175
779420753442132, 1.5194423, 3.6466618, 9.157332, -0.02784276, 0.0065112114, 9.973102
779420763081299, 1.544567, 3.650251, 9.134601, 0.0016245842, 0.008034706, 9.957454
779420772720466, 1.5361922, 3.644269, 9.127422, -0.0058043003, 0.0072054863, 9.947379
779420782359632, 1.538585, 3.6346977, 9.136993, -0.007352829, -0.006002903, 9.9530325
779420791998799, 1.5218352, 3.6430724, 9.186047, -0.033341408, -0.009391546, 9.998511
779420801637966, 1.5361922, 3.6430724, 9.226724, -0.027014256, -0.023716688, 10.038078
779420811277132, 1.5601203, 3.6717863, 9.243474, -0.0023314953, -0.009789467, 10.067656
779420820916299, 1.570888, 3.682554, 9.265009, 0.007158518, -0.008555889, 10.093025
779420830555466, 1.5577276, 3.6717863, 9.249456, -0.0031526089, -0.009968996, 10.072779
779420840194632, 1.5553347, 3.6658044, 9.196814, 0.006552696, 9.059906E-4, 10.021901
779420849833799, 1.5493526, 3.6753755, 9.169296, 0.009030342, 0.018398046, 9.999223
779420859472966, 1.5254245, 3.6574295, 9.135797, -0.00912714, 0.01931262, 9.958215
779420869112132, 1.5290136, 3.656233, 9.140582, -0.0074756145, 0.0138373375, 9.962727
779420878751299, 1.5290136, 3.6861434, 9.144172, -0.0018723011, 0.038281918, 9.976972
779420888390466, 1.5481563, 3.6717863, 9.182457, 0.0052428246, 0.00580287, 10.009807
779420898029632, 1.5601203, 3.67059, 9.160921, 0.022753477, 0.0071733, 9.991452
779420907668799, 1.5541383, 3.7005002, 9.135797, 0.029673815, 0.04387927, 9.978429
779420917307966, 1.5565311, 3.6801612, 9.102298, 0.03609562, 0.03442931, 9.940611
779420926947132, 1.5696917, 3.6729827, 9.06162, 0.05671358, 0.033789873, 9.902694
779420936586299, 1.5565311, 3.6514473, 9.02812, 0.04224205, 0.026182175, 9.862066
779420946225466, 1.5732809, 3.6634114, 9.019745, 0.06021118, 0.03435898, 9.86138
779420955864632, 1.5601203, 3.662215, 9.037691, 0.040890217, 0.033136845, 9.875367
779420965503799, 1.5601203, 3.6526437, 9.105886, 0.021475792, 0.0032954216, 9.93441
779420975142966, 1.599602, 3.6777685, 9.190832, 0.04244733, -0.0059256554, 10.027675
779420984782132, 1.6103697, 3.6861434, 9.242277, 0.042981625, -0.012746096, 10.079614
779420994421299, 1.6163517, 3.6981075, 9.335598, 0.028110266, -0.032255888, 10.170555
779421004060466, 1.5864414, 3.6957145, 9.364311, -0.003550768, -0.027055502, 10.1914015
779421013699632, 1.5373886, 3.6777685, 9.38824, -0.0583117, -0.03480649, 10.199215
779421023338799, 1.5517455, 3.65384, 9.355937, -0.040314674, -0.05061698, 10.163063
779421032977966, 1.5122639, 3.6335013, 9.3104725, -0.070982456, -0.043546915, 10.107781
