timestamp_acc,device_acc_x,device_acc_y,device_acc_z,earth_acc_x,earth_acc_y,earth_acc_z
97832472733667, -0.47976094, 5.406583, 8.395218, 0.037193656, -0.029428482, 9.996937
97832482373146, -0.50009996, 5.4029937, 8.385647, 0.017109394, -0.020436764, 9.988033
97832492012626, -0.55513483, 5.3706903, 8.35454, -0.04010153, -0.009467125, 9.947318
97832501652105, -0.58983076, 5.369494, 8.3377905, -0.068458796, 0.0108857155, 9.93445
97832511291584, -0.56350976, 5.386244, 8.305488, -0.03329718, 0.030986309, 9.915049
97832520931167, -0.506082, 5.4029937, 8.287541, 0.03180647, 0.032095432, 9.906047
97832530570646, -0.46660042, 5.4125648, 8.288737, 0.07171583, 0.023674011, 9.910147
97832540210126, -0.49052864, 5.40419, 8.250452, 0.05198741, 0.045228004, 9.874772
97832549849605, -0.5383851, 5.367101, 8.221739, -8.9251995E-4, 0.0485034, 9.833121
97832559489084, -0.5766702, 5.345566, 8.237292, -0.045953274, 0.038381577, 9.836515
97832569128667, -0.55393845, 5.3539405, 8.288737, -0.029946089, 0.0096206665, 9.883
97832578768146, -0.5072784, 5.383851, 8.340183, 0.015100837, -0.011651516, 9.939894
97832588407626, -0.4989035, 5.3826547, 8.370093, 0.018419027, -0.030258656, 9.963888
97832598047105, -0.5204389, 5.3910294, 8.374879, 0.0021089315, -0.016235828, 9.973585
97832607686584, -0.5455636, 5.363512, 8.360522, -0.02827859, -0.02035141, 9.947966
97832617326063, -0.567099, 5.377869, 8.322237, -0.03613341, 0.019081116, 9.924768
97832626965646, -0.5814559, 5.346762, 8.328219, -0.061176896, -0.0023622513, 9.9137
97832636605126, -0.53359944, 5.3611193, 8.321041, -0.011894107, -0.006840229, 9.912914
97832646244605, -0.47736812, 5.3994045, 8.336594, 0.047849298, -0.007071972, 9.943736
97832655884084, -0.48215377, 5.3946185, 8.3377905, 0.041595936, -0.009507656, 9.9424
97832665523563, -0.5192425, 5.3886366, 8.318648, 0.0068075657, 0.010161877, 9.925058
97832675163042, -0.5419743, 5.3790655, 8.334201, -0.01785779, 0.005095482, 9.934116
97832684802626, -0.57906306, 5.359923, 8.385647, -0.06373143, -0.021632195, 9.9688835
97832694442105, -0.5371887, 5.380262, 8.415557, -0.02255094, -0.03637743, 10.002777
97832704081584, -0.47018966, 5.416154, 8.445468, 0.05024004, -0.045993805, 10.043757
97832713721063, -0.49292147, 5.3922257, 8.41795, 0.02591908, -0.041531086, 10.008923
97832723360542, -0.51565325, 5.383851, 8.323434, 0.014181733, 0.008414745, 9.926281
97832733000126, -0.5383851, 5.3850474, 8.257631, -0.0033675432, 0.04570055, 9.872942
97832742639605, -0.4989035, 5.419743, 8.210971, 0.050454974, 0.07922745, 9.850571
97832752279084, -0.49052864, 5.432904, 8.203793, 0.061920047, 0.08816433, 9.851279
97832761918563, -0.5072784, 5.4317074, 8.221739, 0.043875933, 0.082978725, 9.866556
97832771558042, -0.53240305, 5.395815, 8.237292, 0.006039262, 0.056451797, 9.86144
97832781197626, -0.5479564, 5.365905, 8.29113, -0.024822474, 0.011284351, 9.891171
97832790837105, -0.57547385, 5.3407803, 8.334201, -0.06279647, -0.019756794, 9.915125
97832800476584, -0.56350976, 5.3312087, 8.360522, -0.057388544, -0.043273926, 9.931389
97832810116063, -0.54436713, 5.3443694, 8.3377905, -0.031033993, -0.027159214, 9.918451
97832819755542, -0.51206404, 5.3623157, 8.350951, 4.7051907E-4, -0.031920433, 9.937504
97832829395126, -0.49292147, 5.3922257, 8.333005, 0.028960466, -0.00680542, 9.937664
97832839034605, -0.51565325, 5.419743, 8.292327, 0.022005439, 0.04353285, 9.919668
97832848674084, -0.5204389, 5.4293146, 8.328219, 0.014010191, 0.03347969, 9.955211
97832858313563, -0.5192425, 5.430511, 8.368897, 0.008874655, 0.012802601, 9.989908
97832867953042, -0.506082, 5.4173503, 8.405986, 0.010776401, -0.02100563, 10.0131855
97832877592521, -0.50009996, 5.413761, 8.414361, 0.013737917, -0.030348778, 10.017948
97832887232105, -0.5084748, 5.4173503, 8.360522, 0.016504288, 0.004205227, 9.9751835
97832896871584, -0.4941179, 5.393422, 8.340183, 0.025954366, -0.008131981, 9.9444
97832906511063, -0.46899325, 5.386244, 8.321041, 0.04981923, -0.013246059, 9.923138
97832916150542, -0.45702913, 5.4053864, 8.333005, 0.06581044, -0.009669304, 9.942919
97832925790021, -0.47377887, 5.4125648, 8.338987, 0.052211404, -4.787445E-4, 9.952703
97832935429501, -0.5168497, 5.407779, 8.29472, 0.017262101, 0.033024788, 9.91525
97832945069084, -0.55034924, 5.4017973, 8.2456665, -0.009229898, 0.06379795, 9.872646
97832954708563, -0.54436713, 5.386244, 8.252846, -0.010061264, 0.045861244, 9.869914
97832964348042, -0.5312066, 5.3790655, 8.2660055, -0.0040768385, 0.024308681, 9.876375
97832973987521, -0.53240305, 5.3922257, 8.273184, -0.0020378828, 0.031147003, 9.889598
97832983627001, -0.55393845, 5.3718867, 8.27797, -0.02783072, 0.019033909, 9.883707
97832993266584, -0.552742, 5.373083, 8.254042, -0.023061514, 0.031778812, 9.864239
97833002906063, -0.5599205, 5.386244, 8.268398, -0.025593758, 0.03710985, 9.8838
97833012545542, -0.5706882, 5.369494, 8.362915, -0.052302957, -0.021252155, 9.954512
97833022185021, -0.5778667, 5.3718867, 8.386844, -0.06027651, -0.027942657, 9.976265
97833031824501, -0.5599205, 5.377869, 8.374879, -0.038144708, -0.022030354, 9.9685335
97833041464084, -0.5515456, 5.365905, 8.348558, -0.029168129, -0.020298958, 9.939533
97833051103563, -0.5455636, 5.3623157, 8.329415, -0.022532463, -0.015960217, 9.921213
97833060743042, -0.5587241, 5.3515477, 8.322237, -0.038013935, -0.017336845, 9.910051
97833070382521, -0.5623133, 5.345566, 8.330612, -0.04443884, -0.02519703, 9.914019
97833080022001, -0.5491528, 5.3503513, 8.331808, -0.031380177, -0.028001785, 9.91691
97833089661480, -0.5288138, 5.3814583, 8.300702, 0.0021336079, 0.0054860115, 9.906632
97833099301063, -0.54675996, 5.416154, 8.282756, -2.6011467E-4, 0.04770136, 9.91138
97833108940542, -0.5300102, 5.436493, 8.270791, 0.024686098, 0.06282854, 9.911499
97833118580021, -0.54675996, 5.4173503, 8.281559, 0.0021022558, 0.04791975, 9.911033
97833128219501, -0.5383851, 5.4436717, 8.252846, 0.02351582, 0.08017349, 9.900804
97833137858980, -0.5192425, 5.42094, 8.274381, 0.031562686, 0.044861317, 9.905483
97833147498459, -0.51206404, 5.383851, 8.30788, 0.022077799, -0.0038666725, 9.913044
97833157138042, -0.51565325, 5.3742795, 8.279166, 0.02058363, 0.0064172745, 9.883972
97833166777521, -0.5240282, 5.3479586, 8.299505, 0.0012114048, -0.021799088, 9.887192
97833176417001, -0.50009996, 5.3563333, 8.336594, 0.019928932, -0.04296589, 9.92154
97833186056480, -0.52163535, 5.363512, 8.280363, 0.008802772, -6.3943863E-4, 9.879457
97833195695959, -0.5419743, 5.3886366, 8.262417, -0.004568577, 0.033533573, 9.879146
97833205335438, -0.5419743, 5.40419, 8.252846, 0.0019080639, 0.050691128, 9.879569
97833214975021, -0.5407779, 5.410172, 8.267202, 0.001460433, 0.04636097, 9.894791
97833224614501, -0.52522457, 5.4257255, 8.281559, 0.017991304, 0.045532703, 9.914444
97833234253980, -0.53359944, 5.406583, 8.297112, 0.0017746687, 0.02538395, 9.917525
97833243893459, -0.55034924, 5.3587265, 8.329415, -0.03290379, -0.021961212, 9.919498
97833253532938, -0.59342, 5.322834, 8.344969, -0.08332896, -0.039322853, 9.915377
97833263172417, -0.59581286, 5.3156557, 8.328219, -0.085603595, -0.034757137, 9.897571
97833272812001, -0.58504516, 5.3216376, 8.327023, -0.07166982, -0.03063345, 9.899259
97833282451480, -0.5515456, 5.365905, 8.361719, -0.03047669, -0.02434206, 9.950576
97833292090959, -0.52283174, 5.383851, 8.389236, -0.0018866062, -0.035358906, 9.981845
97833301730438, -0.51565325, 5.3946185, 8.391629, 0.0044988394, -0.03065586, 9.989307
97833311369917, -0.51206404, 5.416154, 8.386844, 0.01582563, -0.012896061, 9.996781
97833321009396, -0.5300102, 5.410172, 8.338987, 0.003390789, 0.013313293, 9.954368
97833330648980, -0.53359944, 5.4257255, 8.292327, 0.010646701, 0.04784918, 9.923885
97833340288459, -0.5383851, 5.413761, 8.240881, 0.010440826, 0.06723404, 9.874521
97833349927938, -0.506082, 5.407779, 8.228917, 0.03938687, 0.055028915, 9.859549
97833359567417, -0.4749753, 5.4113684, 8.200203, 0.07302642, 0.05975485, 9.835798
97833369206896, -0.4546363, 5.410172, 8.215756, 0.087902665, 0.042155266, 9.847122
97833378846376, -0.44985065, 5.4257255, 8.246863, 0.09140062, 0.035535336, 9.881397
97833388485855, -0.4438686, 5.42094, 8.283952, 0.08849752, 0.011120319, 9.909568
97833398125438, -0.465404, 5.419743, 8.297112, 0.06600034, 0.012332916, 9.921078
97833407764917, -0.4749753, 5.4317074, 8.311469, 0.059179544, 0.018987656, 9.940105
97833417404396, -0.46181476, 5.4173503, 8.367701, 0.05829668, -0.024783611, 9.978745
97833427043876, -0.48454657, 5.4352965, 8.352147, 0.04567814, 0.007106304, 9.9766445
97833436683355, -0.5419743, 5.3910294, 8.330612, -0.020004988, 0.004069805, 9.937586
97833446322834, -0.5946164, 5.359923, 8.292327, -0.07348621, 0.018544197, 9.891374
97833455962313, -0.57547385, 5.3539405, 8.3174515, -0.06129551, -0.006269932, 9.908183
97833465601896, -0.57427746, 5.35753, 8.328219, -0.06057036, -0.010163307, 9.919094
97833475241376, -0.57547385, 5.3443694, 8.309076, -0.06261301, -0.010025978, 9.8959675
97833484880855, -0.587438, 5.328816, 8.289934, -0.073341966, -0.0066537857, 9.872129
97833494520334, -0.56829536, 5.345566, 8.303095, -0.05039084, -0.0062584877, 9.891251
97833504159813, -0.54317075, 5.3826547, 8.323434, -0.017893791, 0.00279665, 9.927095
97833513799292, -0.6197411, 5.0105705, 8.219346, -0.19928467, -0.19691849, 9.642046
97833523438771, -0.4642076, 5.9174504, 8.592627, 0.20078266, 0.2503276, 10.438485
97833533078355, -0.6364908, 4.6731825, 8.152347, -0.3088116, -0.41450024, 9.404114
97833542717834, -0.4749753, 6.1471615, 8.573483, 0.26579583, 0.43924713, 10.547711
97833552357313, -0.5479564, 4.679165, 8.153543, -0.23129237, -0.44565415, 9.403351
97833561996792, -0.5072784, 5.968896, 8.40479, 0.1981479, 0.41005468, 10.3110695
97833571636271, -0.4139583, 5.0344987, 8.285149, -0.002031684, -0.28461647, 9.699495
97833581275751, -0.59700924, 5.5298133, 8.215756, -0.0031286478, 0.1923647, 9.919521
97833590915230, -0.41635114, 5.5070815, 8.392825, 0.12693417, 0.01816988, 10.046113
97833600554709, -0.64965135, 4.996214, 8.042277, -0.20635593, -0.110387325, 9.487237
97833610194292, -0.41635114, 5.9724855, 8.505288, 0.26926816, 0.31458855, 10.3929
97833619833771, -0.5982057, 4.7018967, 8.021938, -0.2550422, -0.34703445, 9.307615
97833629473251, -0.41635114, 6.1794643, 8.456235, 0.3515482, 0.48892784, 10.464435
97833639112730, -0.506082, 4.6803613, 8.017152, -0.18198073, -0.3835969, 9.28743
97833648752209, -0.49172506, 6.01436, 8.3377905, 0.2578112, 0.45928288, 10.278894
97833658391688, -0.44865423, 4.989035, 8.268398, -0.066161275, -0.3049233, 9.66234
97833668031167, -0.59342, 5.523831, 8.316256, -0.016206264, 0.13315868, 10.000349
97833677670646, -0.36251262, 5.4436717, 8.459825, 0.144683, -0.08697319, 10.065044
97833687310126, -0.61016977, 5.0368915, 8.076973, -0.16639304, -0.10508537, 9.536317
97833696949605, -0.3900301, 5.910272, 8.573483, 0.25636852, 0.22198391, 10.41504
97833706589188, -0.66400826, 4.6672006, 8.148758, -0.35397536, -0.40611982, 9.398707
97833716228667, -0.485743, 6.1244297, 8.653643, 0.22863424, 0.38537073, 10.603271
97833725868146, -0.58504516, 4.6229334, 8.2014, -0.30842924, -0.49109578, 9.414905
97833735507626, -0.5587241, 6.0155563, 8.506484, 0.14376688, 0.40175676, 10.42484
97833745147105, -0.5168497, 4.910072, 8.347362, -0.16554797, -0.37326455, 9.689565
97833754786584, -0.6412765, 5.613562, 8.352147, -0.03184414, 0.20845127, 10.081528
97833764426063, -0.4534399, 5.4317074, 8.398808, 0.074023604, -0.021626472, 10.012147
97833774065542, -0.6161518, 5.087141, 8.067402, -0.14083934, -0.053945065, 9.556089
97833783705021, -0.37447673, 5.8839507, 8.476574, 0.2939191, 0.24458313, 10.318296
97833793344605, -0.6161518, 4.694718, 8.038688, -0.28160036, -0.3465302, 9.31886
97833802984084, -0.48933223, 6.0897336, 8.53161, 0.24021733, 0.41997957, 10.482298
97833812623563, -0.6221339, 4.5714874, 8.020741, -0.33157766, -0.4315164, 9.236973
97833822263042, -0.56350976, 6.005985, 8.349754, 0.17009664, 0.4784217, 10.288341
97833831902521, -0.52522457, 4.853841, 8.17149, -0.15904057, -0.32749057, 9.511904
97833841542001, -0.64008003, 5.645865, 8.260024, -0.008614659, 0.27694702, 10.021813
97833851181480, -0.45224348, 5.339584, 8.348558, 0.046327114, -0.07474518, 9.919999
97833860820959, -0.6472585, 5.117051, 8.060223, -0.16384494, -0.023849964, 9.567808
97833870460438, -0.3804588, 5.828916, 8.49452, 0.2567097, 0.1965704, 10.304046
97833880099917, -0.56350976, 4.74736, 8.10808, -0.22331095, -0.36216044, 9.40292
97833889739396, -0.33379877, 6.174679, 8.626125, 0.393224, 0.38717794, 10.599228
97833899378876, -0.44626144, 4.685147, 8.1679, -0.14478195, -0.47665358, 9.413619
97833909018459, -0.38285163, 6.155536, 8.556734, 0.35266542, 0.42724323, 10.533186
97833918657938, -0.40677986, 4.9028935, 8.335398, -0.06976783, -0.4066944, 9.670182
97833928297417, -0.57547385, 5.7690954, 8.427522, 0.056862354, 0.26503944, 10.225617
97833937936896, -0.46779683, 5.3312087, 8.487342, -0.0049985647, -0.14059305, 10.032736
97833947576376, -0.6855437, 5.197211, 8.185846, -0.20026624, -0.0010356903, 9.718485
97833957215855, -0.44147578, 5.7547383, 8.502895, 0.16969407, 0.16494226, 10.274004
97833966855334, -0.62452674, 4.7282176, 8.078169, -0.28926277, -0.32639432, 9.370844
97833976494813, -0.4354937, 6.0658054, 8.525627, 0.28433907, 0.3854084, 10.461386
97833986134292, -0.60658056, 4.5391846, 7.962117, -0.32446194, -0.42541552, 9.16958
97833995773771, -0.552742, 6.0227346, 8.301898, 0.18857265, 0.50815105, 10.257026
97834005413251, -0.56111693, 4.741378, 8.09133, -0.21387267, -0.3588071, 9.385661
97834015052730, -0.6269195, 5.7403817, 8.299505, 0.019349337, 0.32203722, 10.105579
97834024692209, -0.45702913, 5.259424, 8.402397, 0.008061767, -0.15858603, 9.92197
97834034331688, -0.6580262, 5.241478, 8.191829, -0.15288508, 0.0074706078, 9.746215
97834043971167, -0.40797627, 5.751149, 8.548359, 0.19256711, 0.13599968, 10.308298
97834053610646, -0.59581286, 4.807181, 8.16431, -0.22404623, -0.3323326, 9.484688
97834063250230, -0.3924229, 6.1064835, 8.669196, 0.29964137, 0.34739542, 10.601305
97834072889709, -0.53240305, 4.62413, 8.152347, -0.22705072, -0.48727822, 9.372183
97834082529188, -0.40558344, 6.1435723, 8.484949, 0.33276343, 0.45913506, 10.468085
97834092168667, -0.43788654, 4.7892346, 8.17149, -0.111317515, -0.40830946, 9.472204
97834101808146, -0.50368917, 5.832505, 8.359326, 0.15187705, 0.31983757, 10.199254
97834111447626, -0.43070808, 5.2055855, 8.409575, 0.0011429787, -0.20877123, 9.897525
97834121087105, -0.64845496, 5.2977095, 8.2014, -0.13718855, 0.046111107, 9.784082
97834130726584, -0.41874397, 5.6709895, 8.475378, 0.16156197, 0.107559204, 10.204403
97834140366063, -0.6089734, 4.822734, 8.07458, -0.23851907, -0.26339722, 9.418184
97834150005542, -0.3900301, 6.0598235, 8.615358, 0.30043793, 0.32113028, 10.531125
97834159645021, -0.552742, 4.618148, 8.172686, -0.26768756, -0.48887563, 9.386957
97834169284501, -0.43070808, 6.172286, 8.52443, 0.31042194, 0.4726882, 10.518021
97834178923980, -0.45224348, 4.7653065, 8.13799, -0.11918783, -0.39453888, 9.432376
97834188563459, -0.50368917, 5.905486, 8.329415, 0.18425381, 0.39164782, 10.213732
97834198202938, -0.3924229, 5.1876397, 8.346166, 0.042216897, -0.20620489, 9.832586
97834207842417, -0.5922236, 5.383851, 8.13799, -0.048541903, 0.12047577, 9.774796
97834217481896, -0.39720857, 5.6374903, 8.3377905, 0.1889795, 0.13594913, 10.069938
97834227121376, -0.6376872, 4.8622155, 7.958528, -0.23605943, -0.17567301, 9.343414
97834236760855, -0.45583272, 6.0227346, 8.502895, 0.23374772, 0.36759853, 10.420679
97834246400334, -0.65324056, 4.581059, 8.051848, -0.3574257, -0.4348464, 9.269749
97834256039813, -0.5300102, 6.1028943, 8.462217, 0.20271587, 0.47655106, 10.433943
97834265679292, -0.57188463, 4.6755753, 8.139186, -0.26604927, -0.43174267, 9.390272
97834275318771, -0.5922236, 5.8839507, 8.408379, 0.087010145, 0.36122704, 10.272992
97834284958251, -0.45583272, 5.0847483, 8.425129, -0.0643636, -0.30205393, 9.846313
97834294597730, -0.60777694, 5.45085, 8.306684, -0.055888176, 0.09209871, 9.953419
97834304237209, -0.42592242, 5.569295, 8.548359, 0.111858964, -0.010796547, 10.210793
97834313876688, -0.66759753, 4.894519, 8.145168, -0.2890153, -0.21494055, 9.519247
97834323516167, -0.42592242, 5.9724855, 8.669196, 0.24385738, 0.22741795, 10.530706
97834333155646, -0.6017949, 4.6097727, 8.209774, -0.34864318, -0.4832003, 9.4158125
97834342795126, -0.424726, 6.1591253, 8.586644, 0.32886016, 0.41688347, 10.562374
97834352434605, -0.5084748, 4.6899323, 8.123632, -0.21371865, -0.42687058, 9.381872
97834362074084, -0.5288138, 5.959325, 8.334201, 0.2071811, 0.43416643, 10.247959
97834371713563, -0.44506502, 5.0751767, 8.23131, -0.019708753, -0.21421003, 9.6779995
97834381353042, -0.54675996, 5.548956, 8.096115, 0.06564069, 0.25224257, 9.826954
97834390992521, -0.3684947, 5.5860443, 8.280363, 0.21471453, 0.1196599, 9.992182
97834400632001, -0.62931234, 4.9722853, 7.9704924, -0.18329388, -0.10517502, 9.412957
97834410271480, -0.4546363, 5.946164, 8.5016985, 0.21638465, 0.3156004, 10.37767
97834419910959, -0.66041905, 4.6037908, 8.069795, -0.33479548, -0.43380642, 9.2979765
97834429550438, -0.50129634, 6.0897336, 8.555537, 0.20871389, 0.4111557, 10.50337
97834439189917, -0.5563313, 4.62413, 8.122437, -0.24782836, -0.4688623, 9.347984
97834448829396, -0.5347959, 5.9724855, 8.390432, 0.16930842, 0.4193163, 10.302984
97834458468876, -0.47377887, 4.995017, 8.335398, -0.0797627, -0.32283974, 9.723319
97834468108355, -0.64965135, 5.5274205, 8.3174515, -0.07015836, 0.15984058, 10.006196
97834477747834, -0.4642076, 5.4484572, 8.487342, 0.05109203, -0.05929613, 10.096039
97834487387313, -0.67118675, 5.0141597, 8.161918, -0.236871, -0.14726543, 9.598511
97834497026792, -0.4354937, 5.9114685, 8.672786, 0.20315492, 0.18993235, 10.501189
97834506666271, -0.65682983, 4.6552362, 8.2145605, -0.3505342, -0.4530375, 9.447409
97834516305751, -0.46660042, 6.15434, 8.616554, 0.2718383, 0.41087723, 10.587536
97834525945230, -0.57906306, 4.627719, 8.106883, -0.27180398, -0.4440236, 9.338181
97834535584709, -0.5168497, 6.0311093, 8.359326, 0.22969663, 0.471519, 10.307507
97834545224188, -0.4354937, 4.9639106, 8.181061, -0.04389918, -0.28104687, 9.57491
97834554863667, -0.56111693, 5.623133, 8.176275, 0.077243805, 0.26705217, 9.935224
97834564503146, -0.39361933, 5.454439, 8.323434, 0.14154243, -7.662773E-4, 9.958179
97834574142626, -0.61854464, 5.066802, 8.020741, -0.15054, -0.05237913, 9.505892
97834583782105, -0.41515473, 5.864808, 8.530413, 0.23305237, 0.20929003, 10.355585
97834593421584, -0.66161543, 4.6612186, 8.115258, -0.34942496, -0.39606166, 9.367131
97834603061063, -0.48933223, 6.1328044, 8.56152, 0.26232576, 0.42936802, 10.530775
97834612700542, -0.5623133, 4.627719, 8.065009, -0.26650524, -0.43512082, 9.301398
97834622340021, -0.4881358, 6.0777693, 8.396415, 0.26274157, 0.4653654, 10.362999
97834631979501, -0.4331009, 4.938786, 8.216953, -0.059934616, -0.33094788, 9.590849
97834641618980, -0.57906306, 5.710471, 8.249256, 0.06904435, 0.30410147, 10.044788
97834651258459, -0.44147578, 5.3682976, 8.373683, 0.055004, -0.0741806, 9.956081
97834660897938, -0.63888365, 5.1062837, 8.143971, -0.1792525, -0.08329821, 9.63159
97834670537417, -0.40079778, 5.8229337, 8.58784, 0.21497703, 0.15009022, 10.380243
97834680176896, -0.64606214, 4.6755753, 8.200203, -0.32454443, -0.44306064, 9.445639
97834689816376, -0.47258246, 6.0825553, 8.738588, 0.21796393, 0.30736494, 10.650905
97834699455855, -0.6113662, 4.581059, 8.203793, -0.31802416, -0.5273435, 9.395897
97834709095334, -0.5694918, 6.0418773, 8.514859, 0.14420176, 0.43070936, 10.446298
97834718734813, -0.5180461, 4.8646083, 8.270791, -0.15774333, -0.38030314, 9.600483
97834728374292, -0.56590253, 5.7726846, 8.389236, 0.073375225, 0.27841473, 10.195124
97834738013771, -0.3696911, 5.3982077, 8.457432, 0.1276052, -0.1117959, 10.03876
97834747653251, -0.58624154, 5.245067, 8.110473, -0.07460725, 0.023301601, 9.676159
97834757292730, -0.36251262, 5.834898, 8.441878, 0.27947044, 0.22021198, 10.262368
97834766932209, -0.587438, 4.7485566, 7.975278, -0.22162259, -0.28835535, 9.293368
97834776571688, -0.42711884, 6.087341, 8.474181, 0.2925849, 0.4235015, 10.430003
97834786211167, -0.5587241, 4.5930233, 7.972885, -0.2547574, -0.41510987, 9.205309
97834795850646, -0.506082, 6.07418, 8.313862, 0.25672948, 0.516202, 10.292701
97834805490126, -0.51086766, 4.7916274, 8.085348, -0.16440332, -0.33914566, 9.404865
97834815129605, -0.62452674, 5.7451673, 8.251649, 0.042034626, 0.34391642, 10.068102
97834824769084, -0.5096712, 5.2510495, 8.384451, -0.048323035, -0.14898252, 9.904937
97834834408563, -0.67836523, 5.2438707, 8.248059, -0.18253875, -0.02128601, 9.795665
97834844048042, -0.424726, 5.7607207, 8.627322, 0.1709019, 0.084860325, 10.38078
97834853687521, -0.6376872, 4.8287163, 8.213364, -0.28298318, -0.3244059, 9.539245
97834863327001, -0.40917268, 6.1292152, 8.7015, 0.30071187, 0.3304119, 10.641954
97834872966480, -0.56111693, 4.599005, 8.153543, -0.2793255, -0.49843836, 9.360529
97834882605959, -0.46301118, 6.1232333, 8.457432, 0.2906345, 0.4731679, 10.436867
97834892245438, -0.48454657, 4.7892346, 8.154739, -0.1486795, -0.3878739, 9.460381
97834901884917, -0.57906306, 5.8037915, 8.364112, 0.08308613, 0.3144331, 10.191757
97834911524396, -0.47976094, 5.18405, 8.390432, -0.038952827, -0.20413828, 9.87222
97834921163876, -0.6891329, 5.2630134, 8.244471, -0.17865562, 0.014048576, 9.803745
97834930803355, -0.47856453, 5.660222, 8.560323, 0.10108197, 0.07124138, 10.272828
97834940442834, -0.70947194, 4.784449, 8.111669, -0.33968115, -0.2774868, 9.434039
97834950082313, -0.4833502, 6.0430737, 8.589037, 0.23296022, 0.34953642, 10.504642
97834959721792, -0.61854464, 4.6025944, 8.070991, -0.31852913, -0.43373346, 9.296116
97834969361271, -0.4761717, 6.1292152, 8.426325, 0.29482436, 0.48777866, 10.414996
97834979000751, -0.47976094, 4.76411, 8.100901, -0.13083744, -0.37541127, 9.40178
97834988640230, -0.5084748, 5.925825, 8.347362, 0.20384943, 0.38657045, 10.240185
97834998279709, -0.43070808, 5.2103715, 8.390432, 0.01946342, -0.2043171, 9.883862
97835007919188, -0.64247286, 5.38744, 8.219346, -0.08610988, 0.09635019, 9.847754
97835017558667, -0.4438686, 5.6614184, 8.49452, 0.147349, 0.08718395, 10.216471
97835027198042, -0.6771688, 4.877769, 8.110473, -0.27514637, -0.22514343, 9.481802
97835036837521, -0.42831525, 6.017949, 8.620144, 0.25889993, 0.289526, 10.514523
97835046477001, -0.57906306, 4.6061835, 8.096115, -0.2637424, -0.46835208, 9.317209
97835056116480, -0.45702913, 6.135197, 8.453842, 0.29812586, 0.4721098, 10.440557
97835065755959, -0.5132605, 4.705486, 8.100901, -0.18226933, -0.42287016, 9.371103
97835075395438, -0.54317075, 5.916254, 8.346166, 0.15309215, 0.3934083, 10.236081
97835085034917, -0.44147578, 5.119444, 8.32463, -0.011652112, -0.24554253, 9.779705
97835094674396, -0.6221339, 5.4341, 8.208578, -0.05478418, 0.12389374, 9.8630085
97835104313876, -0.4127619, 5.619544, 8.483752, 0.16062737, 0.04884529, 10.1831
97835113953355, -0.6520442, 4.938786, 8.159525, -0.2401526, -0.21508789, 9.554617
97835123592834, -0.4438686, 6.0191455, 8.711071, 0.23279178, 0.24815655, 10.592173
97835133232313, -0.6412765, 4.6265225, 8.200203, -0.33408427, -0.48701215, 9.418625
97835142871792, -0.51206404, 6.172286, 8.551949, 0.24680305, 0.47386408, 10.545601
97835152511271, -0.54436713, 4.692325, 8.106883, -0.20533836, -0.4144857, 9.371331
97835162150751, -0.57547385, 5.9473605, 8.344969, 0.14660275, 0.4357009, 10.253264
97835171790230, -0.5084748, 5.0105705, 8.246863, -0.090711, -0.26827955, 9.65893
97835181429709, -0.654437, 5.477171, 8.157132, -0.057922125, 0.19161034, 9.845122
97835191069188, -0.44865423, 5.532206, 8.349754, 0.12403631, 0.05944681, 10.025271
97835200708667, -0.65922266, 4.9340005, 8.006385, -0.21916902, -0.14292479, 9.424048
97835210348146, -0.4438686, 5.9497533, 8.516056, 0.24423563, 0.28915215, 10.391176
97835219987626, -0.66041905, 4.6121655, 8.109276, -0.34808302, -0.43669796, 9.335775
97835229627105, -0.4761717, 6.141179, 8.623733, 0.26866102, 0.3884101, 10.587092
97835239266584, -0.5288138, 4.686343, 8.19781, -0.2143724, -0.4705615, 9.443419
97835248906063, -0.5419743, 6.023931, 8.444271, 0.2006681, 0.4303851, 10.376014
97835258545542, -0.4977071, 5.0452666, 8.370093, -0.082541704, -0.2977991, 9.780868
97835268185021, -0.64247286, 5.5477595, 8.325827, -0.045215607, 0.16200352, 10.024046
97835277824501, -0.4211368, 5.5190454, 8.449057, 0.1316129, -0.008259296, 10.099822
97835287463980, -0.6053841, 5.06082, 8.073383, -0.13551164, -0.10013485, 9.546179
97835297103459, -0.36251262, 5.9724855, 8.562716, 0.3098848, 0.2700386, 10.438063
97835306742938, -0.63170516, 4.6564326, 8.127222, -0.29892826, -0.43932605, 9.372875
97835316382417, -0.4761717, 6.1232333, 8.572288, 0.24566472, 0.42376614, 10.533989
97835326021896, -0.57427746, 4.615755, 8.142776, -0.26001245, -0.500195, 9.3606615
97835335661376, -0.57547385, 5.985646, 8.463413, 0.12564433, 0.4057231, 10.37343
97835345300855, -0.5276174, 4.9268217, 8.30788, -0.14426231, -0.36117792, 9.665484
97835354940334, -0.65922266, 5.6123657, 8.275578, -0.04725659, 0.23368168, 10.018064
97835364579813, -0.49052864, 5.432904, 8.334201, 0.049012065, 0.0054368973, 9.960598
97835374219292, -0.6735796, 5.0751767, 7.966903, -0.18234867, -0.017318249, 9.468321
97835383858771, -0.424726, 5.907879, 8.455039, 0.24703288, 0.28938246, 10.316315
97835393498251, -0.63529444, 4.674379, 8.096115, -0.2886129, -0.40853047, 9.356833
97835403137730, -0.46181476, 6.0933228, 8.627322, 0.2417301, 0.36693716, 10.563119
97835412777209, -0.567099, 4.5894337, 8.135597, -0.24696928, -0.5234456, 9.340101
97835422416688, -0.5347959, 6.0119667, 8.410771, 0.18681765, 0.44150925, 10.341228
97835432056167, -0.5024927, 4.8969116, 8.274381, -0.11708975, -0.36538744, 9.620312
97835441695646, -0.6257231, 5.68415, 8.352147, 0.01013732, 0.24052191, 10.119364
97835451335126, -0.43070808, 5.430511, 8.433503, 0.09162593, -0.06470871, 10.03929
97835460974605, -0.6221339, 5.178068, 8.115258, -0.12366521, -0.022896767, 9.645779
97835470614084, -0.4019942, 5.892326, 8.5423765, 0.25402355, 0.22027826, 10.379801
97835480253563, -0.6329016, 4.7401814, 8.13799, -0.29764104, -0.3633952, 9.427414
97835489893042, -0.40677986, 6.1495543, 8.640483, 0.3303113, 0.36682892, 10.601733
97835499532521, -0.52283174, 4.644469, 8.151151, -0.22779608, -0.48066568, 9.38098
97835509172001, -0.45224348, 6.108876, 8.447861, 0.3075695, 0.44337416, 10.42104
97835518811480, -0.45822555, 4.9028935, 8.19781, -0.08098292, -0.3396299, 9.5567
97835528450959, -0.59581286, 5.733203, 8.309076, 0.061431646, 0.28980446, 10.108294
97835538090438, -0.44985065, 5.3359947, 8.407183, 0.047092557, -0.113594055, 9.966986
97835547729917, -0.6628119, 5.1816573, 8.124829, -0.15901566, -0.0087246895, 9.657969
97835557369396, -0.47258246, 5.791827, 8.4909315, 0.16839933, 0.19895029, 10.285746
97835567008876, -0.70588267, 4.694718, 8.0614195, -0.35329032, -0.33161235, 9.34293
97835576648355, -0.51565325, 6.0490556, 8.578269, 0.20132172, 0.3617487, 10.5010605
97835586287834, -0.64965135, 4.5559344, 8.103293, -0.35352808, -0.47987747, 9.299822
97835595927313, -0.526421, 6.0574307, 8.455039, 0.2120496, 0.43727827, 10.402938
97835605566792, -0.5024927, 4.792824, 8.230113, -0.15692365, -0.42357922, 9.52651
97835615206271, -0.6233303, 5.7667027, 8.395218, 0.036120534, 0.28372717, 10.200064
97835624845751, -0.49172506, 5.276174, 8.4682, -0.017006159, -0.17623758, 9.987936
97835634485230, -0.6843473, 5.21755, 8.199007, -0.17405248, -0.0119457245, 9.740865
97835644124709, -0.41515473, 5.7583275, 8.55793, 0.19836295, 0.1275959, 10.320524
97835653764188, -0.6269195, 4.7976093, 8.148758, -0.24578673, -0.32943964, 9.4680195
97835663403667, -0.44147578, 6.0837517, 8.670393, 0.26127207, 0.32796764, 10.5927725
97835673043146, -0.6041877, 4.5834517, 8.1344, -0.29687256, -0.4978218, 9.338394
97835682682626, -0.51086766, 6.101698, 8.413164, 0.24530804, 0.4975686, 10.3906355
97835692322105, -0.48215377, 4.81077, 8.166703, -0.116307735, -0.3815472, 9.482189
97835701961584, -0.54675996, 5.838487, 8.410771, 0.12700355, 0.3071766, 10.247801
97835711601063, -0.45224348, 5.2342997, 8.443074, 0.005600691, -0.20352793, 9.942156
97835721240542, -0.67118675, 5.3144593, 8.178668, -0.12785494, 0.07282972, 9.775631
97835730880021, -0.40677986, 5.74756, 8.469396, 0.21783948, 0.15375233, 10.240092
97835740519501, -0.6053841, 4.834698, 8.029117, -0.2054404, -0.2443018, 9.38646
97835750158980, -0.37806597, 6.0981083, 8.550752, 0.34231913, 0.36974907, 10.497206
97835759798459, -0.5096712, 4.6504507, 8.050652, -0.18162024, -0.43349838, 9.299385
97835769437938, -0.43070808, 6.148358, 8.429914, 0.32002413, 0.4923606, 10.426238
97835779077417, -0.52283174, 4.7545385, 8.103293, -0.17367733, -0.3794992, 9.4004345
97835788716896, -0.61734825, 5.858826, 8.328219, 0.081720114, 0.3946662, 10.19332
97835798356480, -0.506082, 5.160122, 8.38804, -0.063029885, -0.21993065, 9.858491
97835807995959, -0.6520442, 5.345566, 8.2049885, -0.10587323, 0.07250357, 9.813543
97835817635438, -0.4139583, 5.6650076, 8.493324, 0.1766864, 0.08390951, 10.215769
97835827274917, -0.6329016, 4.871787, 8.139186, -0.24497867, -0.25919294, 9.500212
97835836914396, -0.44027936, 6.0418773, 8.644072, 0.25696862, 0.3056345, 10.547922
97835846553876, -0.64008003, 4.6037908, 8.166703, -0.35385656, -0.46631432, 9.378538
97835856193355, -0.51565325, 6.0933228, 8.541181, 0.22529364, 0.42959738, 10.493375
97835865832834, -0.5132605, 4.682754, 8.2145605, -0.20038748, -0.492337, 9.454528
97835875472313, -0.53359944, 5.8947186, 8.463413, 0.1444434, 0.32015324, 10.321746
97835885111792, -0.41994038, 5.113462, 8.445468, -0.00816381, -0.31157207, 9.876874
97835894751271, -0.613759, 5.4352965, 8.242078, -0.047632337, 0.11346102, 9.891201
97835904390751, -0.46061835, 5.5980086, 8.421539, 0.12195742, 0.091180325, 10.12171
97835914030230, -0.6855437, 4.90409, 8.023134, -0.25938857, -0.15235758, 9.4233885
97835923669709, -0.45583272, 6.005985, 8.535198, 0.24404359, 0.34216404, 10.438037
97835933309188, -0.6305088, 4.6372905, 8.070991, -0.29930842, -0.40358758, 9.316138
97835942948667, -0.48454657, 6.1591253, 8.472985, 0.28516114, 0.498199, 10.4705105
97835952588146, -0.55393845, 4.688736, 8.084151, -0.21388102, -0.401088, 9.350826
97835962227626, -0.5587241, 5.9318075, 8.374879, 0.1572249, 0.41593266, 10.268369
97835971867105, -0.4761717, 5.042874, 8.415557, -0.06166172, -0.32335758, 9.816851
97835981506584, -0.6017949, 5.4676, 8.356933, -0.035675883, 0.07594013, 10.004404
97835991146167, -0.39361933, 5.5453663, 8.526823, 0.16013265, -0.017970562, 10.177759
97836000785646, -0.6329016, 4.9232326, 8.117651, -0.20299989, -0.21013594, 9.510503
97836010425126, -0.44626144, 5.95095, 8.560323, 0.2303598, 0.29208326, 10.428504
97836020064605, -0.68195444, 4.6265225, 8.082955, -0.3563046, -0.4047718, 9.322722
97836029704084, -0.5132605, 6.145965, 8.519645, 0.24020302, 0.4869547, 10.5036125
97836039343563, -0.573081, 4.6636114, 8.129615, -0.2495054, -0.43881774, 9.376222
97836048983042, -0.57547385, 5.9916277, 8.43111, 0.16321194, 0.43369436, 10.348897
97836058622521, -0.5240282, 4.996214, 8.405986, -0.13602734, -0.33302164, 9.78611
97836068262001, -0.66041905, 5.5070815, 8.376076, -0.0750283, 0.12539911, 10.044969
97836077901480, -0.44147578, 5.487939, 8.507681, 0.101056695, -0.03915596, 10.133177
97836087540959, -0.6269195, 5.003392, 8.097312, -0.16963732, -0.13091421, 9.53664
97836097180438, -0.39720857, 5.9246287, 8.529217, 0.2870549, 0.2700696, 10.385143
97836106819917, -0.613759, 4.6432724, 8.051848, -0.27437258, -0.39690185, 9.302481
97836116459501, -0.47138608, 6.131608, 8.505288, 0.2822888, 0.46385765, 10.481599
97836126098980, -0.5838487, 4.621737, 8.043473, -0.25931358, -0.42199945, 9.281889
97836135738459, -0.57547385, 5.994021, 8.362915, 0.15759277, 0.46579456, 10.293493
97836145377938, -0.5096712, 4.924429, 8.243274, -0.123664975, -0.31078935, 9.60986
97836155017417, -0.6053841, 5.608776, 8.280363, 0.02061534, 0.22946501, 10.016796
97836164656896, -0.38644084, 5.4723854, 8.437093, 0.14918792, -0.04201746, 10.062646
97836174296376, -0.587438, 5.076373, 8.109276, -0.11933303, -0.09828329, 9.583899
97836183935855, -0.36131623, 5.928218, 8.59143, 0.30704868, 0.21667957, 10.437709
97836193575334, -0.5766702, 4.7174497, 8.2253275, -0.25190818, -0.435503, 9.486293
97836203214813, -0.44865423, 6.148358, 8.732606, 0.28320885, 0.3569007, 10.679626
97836212854396, -0.5802595, 4.6492543, 8.218149, -0.28088284, -0.47962666, 9.443585
97836222493876, -0.5694918, 6.026324, 8.523234, 0.1597817, 0.41957188, 10.444369
97836232133355, -0.55513483, 4.88734, 8.368897, -0.20095468, -0.38726902, 9.697545
97836241772834, -0.64965135, 5.6350975, 8.364112, -0.027839184, 0.223907, 10.103655
97836251412313, -0.43070808, 5.3766723, 8.444271, 0.07262409, -0.09451914, 10.019263
97836261051792, -0.6329016, 5.1158547, 8.051848, -0.14182997, -0.018109322, 9.559517
97836270691271, -0.44147578, 5.851648, 8.415557, 0.23333907, 0.2801895, 10.253066
97836280330751, -0.6735796, 4.682754, 8.003992, -0.3233043, -0.3142445, 9.286686
97836289970230, -0.45583272, 6.101698, 8.520842, 0.29097736, 0.42548418, 10.477479
97836299609813, -0.5587241, 4.595416, 8.04467, -0.24796116, -0.44179273, 9.267691
97836309249292, -0.4869394, 6.07418, 8.398808, 0.26856458, 0.48333025, 10.361805
97836318888771, -0.4833502, 4.8729835, 8.199007, -0.11069226, -0.34438705, 9.543189
97836328528251, -0.6017949, 5.73081, 8.311469, 0.056812286, 0.29950285, 10.109003
97836338167730, -0.42711884, 5.367101, 8.382058, 0.079840064, -0.07818508, 9.961657
97836347807209, -0.61734825, 5.231907, 8.097312, -0.09734571, 0.03638649, 9.659691
97836357446688, -0.35174492, 5.845666, 8.506484, 0.288669, 0.1992917, 10.321471
97836367086167, -0.5982057, 4.723432, 8.128419, -0.25750428, -0.37927818, 9.409022
97836376725646, -0.39361933, 6.108876, 8.6548395, 0.30784237, 0.3432331, 10.590891
97836386365230, -0.57427746, 4.5798626, 8.163115, -0.28820598, -0.51149154, 9.359312
97836396004709, -0.5072784, 6.053841, 8.514859, 0.21262813, 0.4315958, 10.4488125
97836405644188, -0.49292147, 4.7856455, 8.365308, -0.15937757, -0.48630452, 9.636484
97836415283667, -0.59342, 5.7355957, 8.538788, 0.020745158, 0.19869518, 10.301465
97836424923146, -0.46660042, 5.267799, 8.58784, -0.017011046, -0.22893238, 10.082943
97836434562626, -0.67118675, 5.2235317, 8.270791, -0.17533517, -0.02522564, 9.803591
97836444202105, -0.41994038, 5.7655063, 8.53161, 0.20104814, 0.16995811, 10.302257
97836453841688, -0.66041905, 4.8035913, 8.079366, -0.27832103, -0.2525437, 9.415176
97836463481167, -0.41754755, 6.0921264, 8.580662, 0.30611932, 0.39182281, 10.519926
97836473120646, -0.57547385, 4.570291, 8.085348, -0.27887774, -0.46318078, 9.28974
97836482760126, -0.5084748, 6.0753765, 8.415557, 0.24552107, 0.48553753, 10.377588
97836492399605, -0.5204389, 4.7222357, 8.151151, -0.19707787, -0.40748858, 9.423733
97836502039084, -0.52283174, 5.6350975, 8.380861, 0.08041322, 0.1729312, 10.110892
97836511678563, -0.552742, 5.3204412, 8.311469, -0.041044593, -0.014302254, 9.883888
97836521318146, -0.587438, 5.369494, 8.319844, -0.058706403, 0.029117584, 9.919277
97836530957626, -0.58504516, 5.3204412, 8.304291, -0.06760609, -0.0021324158, 9.879578
97836540597105, -0.54317075, 5.35753, 8.338987, -0.021697879, -0.006495476, 9.926548
97836550236584, -0.4941179, 5.3946185, 8.353344, 0.035588622, -0.0018911362, 9.956062
97836559876063, -0.45822555, 5.428118, 8.350951, 0.079351306, 0.013528347, 9.970273
97836569515542, -0.4977071, 5.410172, 8.3377905, 0.038547873, 0.020480156, 9.951609
97836579155126, -0.5084748, 5.410172, 8.312666, 0.029833436, 0.036516666, 9.931098
97836588794605, -0.5383851, 5.40419, 8.301898, -2.1898746E-4, 0.046937466, 9.920404
97836598434084, -0.5204389, 5.3910294, 8.316256, 0.00855279, 0.02229023, 9.924395
97836608073563, -0.50488555, 5.4029937, 8.349754, 0.022671938, 0.00959444, 9.958165
97836617713042, -0.5300102, 5.375476, 8.38804, -0.0145071745, -0.021474838, 9.976733
97836627352521, -0.5395815, 5.343173, 8.372486, -0.029838324, -0.033691883, 9.946716
97836636992105, -0.5599205, 5.312066, 8.367701, -0.057867646, -0.048639297, 9.926947
97836646631584, -0.54675996, 5.3144593, 8.394022, -0.046263933, -0.06197548, 9.949676
97836656271063, -0.50009996, 5.343173, 8.410771, 0.0044806004, -0.06406927, 9.976801
97836665910542, -0.50009996, 5.380262, 8.374879, 0.021324754, -0.015097141, 9.966706
97836675550021, -0.5072784, 5.4029937, 8.360522, 0.02141416, 0.01221323, 9.967318
97836685189501, -0.5276174, 5.4029937, 8.359326, 0.0024502277, 0.019504547, 9.967381
97836694829084, -0.5024927, 5.413761, 8.322237, 0.033062696, 0.037166595, 9.940748
97836704468563, -0.50488555, 5.444868, 8.268398, 0.046890736, 0.08857298, 9.912511
97836714108042, -0.51086766, 5.4125648, 8.270791, 0.028787136, 0.06008339, 9.897392
97836723747521, -0.5132605, 5.3982077, 8.246863, 0.025393605, 0.062304974, 9.869667
97836733387001, -0.51565325, 5.380262, 8.2348995, 0.01954186, 0.054585457, 9.850041
97836743026584, -0.5300102, 5.346762, 8.248059, -0.005233288, 0.026547432, 9.843705
97836752666063, -0.54436713, 5.339584, 8.286345, -0.024873495, 0.0069618225, 9.872707
97836762305542, -0.5371887, 5.3407803, 8.352147, -0.023783922, -0.024106026, 9.92823
97836771945021, -0.52522457, 5.3383875, 8.41795, -0.021995187, -0.06208706, 9.981572
97836781584501, -0.5240282, 5.3383875, 8.46461, -0.028404951, -0.08665705, 10.020692
97836791223980, -0.506082, 5.367101, 8.452646, -0.0027036667, -0.061837196, 10.025233
97836800863563, -0.48454657, 5.3970113, 8.403593, 0.0345757, -0.02046299, 9.9990635
97836810503042, -0.4642076, 5.416154, 8.421539, 0.051446438, -0.02389574, 10.023439
97836820142521, -0.50009996, 5.4017973, 8.441878, 0.010215521, -0.033005238, 10.034622
97836829782001, -0.506082, 5.4185467, 8.445468, 0.0074169636, -0.020691872, 10.046999
97836839421584, -0.5240282, 5.395815, 8.423932, -0.013341665, -0.021300316, 10.017556
97836849061063, -0.5491528, 5.380262, 8.395218, -0.0337919, -0.010313988, 9.986353
97836858700542, -0.55513483, 5.383851, 8.35454, -0.03025043, 0.014735699, 9.954457
97836868340021, -0.552742, 5.3814583, 8.297112, -0.020238042, 0.041840553, 9.904823
97836877979501, -0.526421, 5.3563333, 8.219346, 0.007916212, 0.051624775, 9.824579
97836887619084, -0.50368917, 5.3718867, 8.187042, 0.0363245, 0.06726408, 9.8047285
97836897258563, -0.49172506, 5.3718867, 8.155936, 0.05243683, 0.07906532, 9.777999
97836906898042, -0.4869394, 5.3682976, 8.140383, 0.05489397, 0.08020306, 9.762793
97836916537521, -0.53240305, 5.343173, 8.209774, -0.00628531, 0.04069519, 9.809774
97836926177001, -0.56470615, 5.355137, 8.29472, -0.0457325, 0.017238617, 9.889205
97836935816584, -0.6029913, 5.3479586, 8.32463, -0.08587551, 0.012309551, 9.912426
97836945456063, -0.6029913, 5.3443694, 8.360522, -0.091591716, -0.007575512, 9.940613
97836955095542, -0.5946164, 5.3515477, 8.374879, -0.08340573, -0.0119485855, 9.956112
97836964735021, -0.5694918, 5.3647084, 8.397611, -0.059333563, -0.022598267, 9.980995
97836974374605, -0.5204389, 5.3790655, 8.411968, -0.012029171, -0.035042763, 9.998252
97836984014084, -0.50368917, 5.375476, 8.426325, -4.0769577E-5, -0.051425934, 10.007484
97836993653563, -0.49052864, 5.3946185, 8.447861, 0.01508379, -0.048961163, 10.03525
97837003293042, -0.47856453, 5.4089756, 8.484949, 0.02496624, -0.061662197, 10.073528
97837012932521, -0.46660042, 5.436493, 8.502895, 0.044654965, -0.051011086, 10.102861
97837022572105, -0.47018966, 5.432904, 8.4502535, 0.048738122, -0.024790287, 10.056906
97837032211584, -0.526421, 5.393422, 8.409575, -0.01053834, -0.015426636, 10.004334
97837041851063, -0.5276174, 5.4125648, 8.364112, 0.0014657974, 0.021237373, 9.976582
97837051490542, -0.51565325, 5.38744, 8.312666, 0.012334943, 0.024242878, 9.919179
97837061130126, -0.48933223, 5.383851, 8.263613, 0.04076624, 0.030743122, 9.874714
97837070769605, -0.51086766, 5.369494, 8.202596, 0.026199102, 0.05898285, 9.816868
97837080409084, -0.526421, 5.35753, 8.163115, 0.011775613, 0.073210716, 9.778097
97837090048563, -0.5371887, 5.3682976, 8.155936, 0.005313158, 0.08666992, 9.778494
97837099688146, -0.53240305, 5.3611193, 8.1942215, 1.4328957E-4, 0.057884216, 9.806477
97837109327626, -0.485743, 5.3994045, 8.22772, 0.05080998, 0.05190277, 9.852899
97837118967105, -0.46181476, 5.426922, 8.258827, 0.07737279, 0.04825592, 9.892657
97837128606584, -0.46899325, 5.4496536, 8.295917, 0.072977304, 0.049994946, 9.936454
97837138246167, -0.50368917, 5.4149575, 8.3581295, 0.01799798, 0.0049295425, 9.971634
97837147885646, -0.5300102, 5.383851, 8.437093, -0.030736327, -0.047115803, 10.022383
97837157525126, -0.52283174, 5.3706903, 8.483752, -0.03565085, -0.0820322, 10.05404
97837167164605, -0.4953143, 5.367101, 8.457432, -0.004394412, -0.07929754, 10.028607
97837176804188, -0.5395815, 5.349155, 8.403593, -0.041995883, -0.047331333, 9.97602
97837186443667, -0.5515456, 5.3479586, 8.37129, -0.048187613, -0.026713848, 9.948887
97837196083146, -0.5479564, 5.3790655, 8.347362, -0.031337738, 0.006825447, 9.945453
97837205722626, -0.5599205, 5.3814583, 8.330612, -0.038973093, 0.02090931, 9.933315
97837215362209, -0.552742, 5.3587265, 8.322237, -0.039652348, 0.003795147, 9.913603
97837225001688, -0.5180461, 5.3611193, 8.3174515, -0.0058231354, -0.0047926903, 9.909081
97837234641167, -0.49651068, 5.3766723, 8.319844, 0.019669414, -0.0018744469, 9.918394
97837244280751, -0.46660042, 5.3886366, 8.35454, 0.046670437, -0.020437717, 9.952429
97837253920230, -0.5072784, 5.3886366, 8.347362, 0.01035893, -0.0016446114, 9.948522
97837263559709, -0.52163535, 5.380262, 8.297112, 0.0034776926, 0.023072243, 9.902569
97837273199188, -0.5371887, 5.386244, 8.319844, -0.012675285, 0.021413326, 9.9256935
97837282838771, -0.5204389, 5.38744, 8.370093, -0.0030881166, -0.0101418495, 9.967633
97837292478251, -0.526421, 5.389833, 8.384451, -0.009189367, -0.01423502, 9.981291
97837302117730, -0.5455636, 5.3970113, 8.325827, -0.015547156, 0.027660847, 9.936988
97837311757209, -0.54436713, 5.3970113, 8.269595, -0.00746572, 0.053081036, 9.889763
97837321396792, -0.5371887, 5.383851, 8.271988, -0.0067857504, 0.037042618, 9.88427
97837331036271, -0.5240282, 5.359923, 8.257631, -8.944273E-4, 0.020242214, 9.858574
97837340675751, -0.5072784, 5.35753, 8.260024, 0.013549805, 0.01111269, 9.858406
97837350315230, -0.5180461, 5.3611193, 8.256434, 0.0053932667, 0.019752502, 9.857904
97837359954813, -0.54436713, 5.367101, 8.319844, -0.024951458, 0.003103733, 9.915709
97837369594292, -0.5563313, 5.367101, 8.389236, -0.047154546, -0.02837038, 9.9745455
97837379233771, -0.567099, 5.367101, 8.391629, -0.05546105, -0.022815704, 9.977136
97837388873355, -0.5479564, 5.4053864, 8.359326, -0.019465923, 0.016556263, 9.969761
97837398512834, -0.5192425, 5.4293146, 8.328219, 0.019116998, 0.039954185, 9.955116
97837408152313, -0.47377887, 5.4113684, 8.368897, 0.048745394, -0.011238098, 9.97714
97837417791792, -0.43669012, 5.4317074, 8.405986, 0.08128381, -0.029131413, 10.017349
97837427431376, -0.47856453, 5.406583, 8.377272, 0.038334608, -0.018737316, 9.981834
97837437070855, -0.5419743, 5.3682976, 8.343773, -0.029963851, -0.009227276, 9.936293
97837446710334, -0.5407779, 5.3587265, 8.342576, -0.03178382, -0.016535759, 9.930039
97837456349917, -0.5084748, 5.3970113, 8.342576, 0.010560155, 3.914833E-4, 9.949108
97837465989396, -0.4869394, 5.440082, 8.306684, 0.04928243, 0.043720245, 9.941241
