timestamp_acc,device_acc_x,device_acc_y,device_acc_z,earth_acc_x,earth_acc_y,earth_acc_z
1130766948238652, 9.419347, -0.92602235, 3.6011982, 0.10592863, 0.31993842, 10.121099
1130766957878391, 9.444471, -1.026521, 4.1108694, 0.19678606, -0.13866758, 10.348578
1130766967518131, 9.399008, -1.0193424, 4.1072803, 0.20153129, -0.16586018, 10.304466
1130766977157870, 9.32124, -1.0001999, 3.7615173, 0.19726841, 0.12209797, 10.098569
1130766986797610, 9.219545, -1.0336994, 3.9146578, 0.24377975, -0.023037195, 10.066437
1130766996437350, 9.21476, -0.9284152, 4.389633, 0.13048849, -0.43994308, 10.238752
1130767006077089, 9.02453, -0.7501499, 3.973282, -0.020157456, -0.10390115, 9.88841
1130767015716829, 8.857033, -0.6652047, 3.641876, -0.08576342, 0.1481049, 9.598099
1130767025356568, 8.95155, -0.7070791, 3.6670008, -0.050974235, 0.16324377, 9.697827
1130767034996308, 9.067601, -0.8446664, 3.7998023, 0.07348968, 0.08906722, 9.867118
1130767044636048, 9.142975, -0.8422736, 3.9804604, 0.06035507, -0.053426266, 10.007047
1130767054275787, 9.157332, -0.76689965, 3.9421754, -0.020680292, -0.015301466, 9.999248
1130767063915527, 9.180064, -0.68075806, 3.926622, -0.10831084, 0.005438328, 10.007177
1130767073555266, 9.115458, -0.66041905, 3.7459638, -0.12174035, 0.15104699, 9.8753395
1130767083195006, 9.02812, -0.72741807, 3.7268212, -0.044402733, 0.14865708, 9.792918
1130767092834745, 8.967103, -0.7573284, 3.6993039, -0.009255947, 0.15085125, 9.728541
1130767102474485, 8.988638, -0.74895346, 3.682554, -0.021402063, 0.18001628, 9.740887
1130767112114225, 9.026923, -0.80159557, 3.7998023, 0.021509461, 0.093301535, 9.826352
1130767121753964, 9.114262, -0.80997044, 3.9888353, 0.014123112, -0.041922092, 9.981718
1130767131393704, 9.23151, -0.85902333, 4.1814575, 0.044970132, -0.16365004, 10.169291
1130767141033443, 9.345169, -0.8650054, 4.2460637, 0.031814568, -0.14681792, 10.299852
1130767150673183, 9.300901, -0.7896315, 4.109673, -0.03876895, -0.027780056, 10.198894
1130767160312923, 9.226724, -0.7405786, 4.085745, -0.078323215, -0.031703234, 10.11766
1130767169952662, 9.19801, -0.7405786, 4.1718864, -0.07090537, -0.121963024, 10.126034
1130767179592402, 9.205189, -0.71425754, 4.0642095, -0.0990401, -0.02173829, 10.087276
1130767189232141, 9.0544405, -0.66999036, 3.7746778, -0.12993538, 0.18479562, 9.830003
1130767198871881, 8.933603, -0.53599226, 3.4887354, -0.2592118, 0.38751864, 9.594293
1130767208511620, 8.834301, -0.55513483, 3.5521452, -0.2326767, 0.28511333, 9.530759
1130767218151360, 8.941978, -0.7429714, 4.019942, -0.048867453, -0.09068084, 9.831597
1130767227791100, 9.293723, -1.0408778, 4.342973, 0.19928652, -0.21588111, 10.306881
1130767237430839, 9.485149, -1.0360922, 4.5152564, 0.16501562, -0.27556014, 10.55111
1130767247070579, 9.426525, -0.75613195, 4.476971, -0.115258195, -0.25061226, 10.459363
1130767256710318, 9.3104725, -0.5312066, 4.369294, -0.3208922, -0.18818474, 10.291716
1130767266350058, 9.29492, -0.5587241, 4.3788652, -0.29415134, -0.20018983, 10.283754
1130767275989798, 9.251849, -0.79920274, 4.3633122, -0.03624154, -0.19227004, 10.258443
1130767285629537, 9.15494, -1.0839486, 4.4004006, 0.2751249, -0.24380445, 10.208638
1130767295269277, 8.968299, -1.0432707, 4.0414777, 0.2554022, 0.012788534, 9.888727
1130767304909016, 8.739784, -0.9272188, 3.6849468, 0.16270536, 0.24162245, 9.525625
1130767314548756, 8.889337, -0.94396853, 3.8057845, 0.16288453, 0.1934607, 9.712438
1130767324188495, 9.086744, -0.8913264, 4.045067, 0.08284602, 0.040498972, 9.985864
1130767333828235, 9.165708, -0.762114, 4.141976, -0.05583072, -0.019471884, 10.086799
1130767343467975, 9.202796, -0.74536425, 4.2077785, -0.07485335, -0.06600523, 10.146058
1130767353107714, 9.225528, -0.6987042, 4.26401, -0.11717133, -0.09153533, 10.186178
1130767362747454, 9.144172, -0.69152576, 4.165904, -0.11088829, -0.024145126, 10.071542
1130767372387193, 9.047262, -0.6867401, 4.0414777, -0.107363954, 0.050088882, 9.931972
1130767382026933, 8.968299, -0.5886344, 4.048656, -0.1913444, 0.01452899, 9.855539
1130767391666673, 9.0029955, -0.6436693, 4.037888, -0.1287957, 0.04173374, 9.887086
1130767401306412, 9.080762, -0.76331043, 4.019942, -0.015546691, 0.09393692, 9.959607
1130767410946152, 9.135797, -0.8279166, 4.1694937, 0.047638882, -0.01658082, 10.076228
1130767420585891, 9.097511, -0.94636136, 4.339384, 0.16679299, -0.18445444, 10.1207075
1130767430225631, 9.11785, -1.0217353, 4.322634, 0.24094452, -0.15044236, 10.1382265
1130767439865370, 9.046066, -0.9906286, 4.011567, 0.22018497, 0.1344657, 9.941769
1130767449505110, 8.927621, -0.84347, 3.7531424, 0.085928425, 0.32290125, 9.7153635
1130767459144850, 8.846265, -0.7513463, 3.7172499, -5.251281E-4, 0.31498003, 9.619754
1130767468784589, 8.792427, -0.73579293, 3.7974095, -0.014559094, 0.21219563, 9.603294
1130767478424329, 8.85823, -0.5814559, 4.071388, -0.18461694, -0.015921354, 9.764641
1130767488064068, 8.845069, -0.76570326, 3.1286156, 0.015442375, 0.83946586, 9.375759
1130767497703808, 9.437292, -0.88414794, 5.023731, 0.053026207, -0.6365888, 10.708595
1130767507343548, 9.7399845, -0.82672024, 5.245067, -0.04705389, -0.7371321, 11.068691
1130767516983287, 9.383454, -0.88295156, 4.377669, 0.048278805, -0.07643962, 10.391567
1130767526623027, 9.144172, -0.9631111, 4.304688, 0.16485173, -0.07974315, 10.150875
1130767536262766, 9.12144, -0.93679005, 4.182654, 0.1425696, 0.02131033, 10.077305
1130767545902506, 9.066405, -0.9379865, 3.7172499, 0.16201016, 0.42091823, 9.833313
1130767555542245, 8.962317, -0.8961121, 3.6323047, 0.13245864, 0.42567015, 9.701601
1130767565181985, 8.841479, -0.8602197, 3.9840498, 0.10366753, 0.05414009, 9.735024
1130767574821725, 8.846265, -0.8542377, 4.3537407, 0.075612456, -0.31329036, 9.891275
1130767584461464, 9.101101, -1.0109676, 4.2077785, 0.2065379, -0.07061362, 10.075211
1130767594101204, 9.282955, -1.1940185, 4.2867417, 0.37314883, -0.065671206, 10.287445
1130767603740943, 9.303294, -1.1557333, 4.506881, 0.31738892, -0.25844288, 10.393819
1130767613380683, 9.236296, -0.85064846, 4.4817567, 0.007537827, -0.2655573, 10.2979765
1130767623020423, 9.040084, -0.46181476, 4.345366, -0.37608233, -0.21926522, 10.031405
1130767632660162, 9.141779, -0.89491564, 4.1874394, 0.054902926, -0.038057566, 10.094711
1130767642299902, 9.48156, -0.72263247, 4.007978, -0.14165372, 0.2555871, 10.31507
1130767651939641, 8.841479, -0.58983076, 4.046263, -0.2257834, -0.055398226, 9.738473
1130767661579381, 8.653643, -0.7728817, 3.7938204, -0.020135596, 0.09724736, 9.479773
1130767671219120, 9.147761, -0.88414794, 4.125226, 0.043299504, -0.00800705, 10.073669
1130767680858860, 9.585648, -0.7477571, 4.9866424, -0.16752312, -0.6425793, 10.810616
1130767690498600, 9.657433, -0.6735796, 4.599005, -0.24882719, -0.2477951, 10.712015
1130767700138339, 9.702896, -0.39840496, 4.4841495, -0.5261602, -0.12914515, 10.68265
1130767709778079, 8.769695, -1.2957134, 3.8751762, 0.48196104, 0.08016825, 9.66254
1130767719417818, 8.478967, -1.9298115, 4.267599, 1.1335415, -0.38123775, 9.61245
1130767729057558, 8.571091, -2.1834507, 4.3178487, 1.3965693, -0.41926265, 9.733892
1130767738697298, 9.004191, -1.6713866, 3.3786657, 0.8462319, 0.6172991, 9.705009
1130767748337037, 9.038888, -1.1700903, 2.9120653, 0.3485669, 0.99929905, 9.509503
1130767757976777, 8.865408, -0.6999006, 3.2769706, -0.115598954, 0.4681859, 9.465269
1130767767616516, 9.01137, -0.07058827, 3.574877, -0.75918895, 0.2236383, 9.662459
1130767777256256, 9.209974, 0.22013968, 3.3320055, -1.0754951, 0.47245598, 9.725969
1130767786895995, 9.334401, -0.30269206, 3.2614172, -0.5660182, 0.60645056, 9.8575535
1130767796535735, 9.515059, -1.1150553, 3.7005002, 0.2296636, 0.2994063, 10.263091
1130767806175475, 9.700503, -1.302892, 4.0701914, 0.39754763, 0.02726674, 10.592685
1130767815815214, 9.536594, -1.0935199, 4.1491547, 0.1878989, -0.12810445, 10.454959
1130767825454902, 8.967103, -1.1617154, 4.3238306, 0.29940912, -0.5429294, 10.003479
1130767835094641, 8.678768, -1.262214, 4.2424746, 0.42844525, -0.57443595, 9.715928
1130767844734381, 8.919247, -1.2203395, 3.9517467, 0.3936549, -0.21201372, 9.821334
1130767854374120, 8.916854, -0.91525465, 3.4863427, 0.09689628, 0.20909643, 9.615065
1130767864013860, 8.852247, -0.5515456, 3.4851463, -0.24464439, 0.18533564, 9.52463
1130767873653600, 8.969496, -0.54675996, 3.6837504, -0.25474906, 0.054501295, 9.708397
1130767883293339, 8.941978, -0.6963114, 3.8871403, -0.1053872, -0.12978244, 9.773726
1130767892933079, 8.98146, -1.1318051, 4.1587257, 0.31701556, -0.35093307, 9.950827
1130767902572818, 9.281759, -1.5732809, 4.2951164, 0.73340684, -0.35028076, 10.315702
1130767912212558, 9.565309, -1.4763715, 4.2687955, 0.6165161, -0.23938417, 10.557463
1130767921852298, 9.600004, -1.0348958, 4.0905304, 0.18706585, -0.11039162, 10.484099
1130767931492037, 9.510274, -0.49292147, 3.92064, -0.32121336, -0.05257106, 10.293384
1130767941131777, 9.437292, -0.06460621, 3.682554, -0.7482655, 0.10889697, 10.102282
1130767950771516, 9.35833, 0.16630118, 3.4827533, -0.92607796, 0.20277286, 9.94167
1130767960411256, 9.172886, -0.029910283, 3.4779677, -0.71493566, 0.14528942, 9.782984
1130767970050995, 8.969496, -0.4881358, 3.6789649, -0.20905466, -0.067688465, 9.704464
1130767979690735, 8.971889, -0.65922266, 3.7806597, -0.025941908, -0.12860584, 9.757333
1130767989330475, 9.189635, -0.60658056, 3.9577286, -0.09163141, -0.19645953, 10.021676
1130767998970214, 9.46481, -0.5312066, 4.0163527, -0.19962132, -0.13780594, 10.292574
1130768008609954, 9.420543, -0.47856453, 3.7124643, -0.2744516, 0.123514175, 10.132496
1130768018249693, 9.251849, -0.4749753, 3.4337006, -0.2822643, 0.31383348, 9.87089
1130768027889433, 8.959925, -0.54436713, 3.5246277, -0.1619645, 0.090729475, 9.641842
1130768037529173, 8.9108715, -0.78723866, 3.4839497, 0.08119917, 0.13614583, 9.598758
1130768047168912, 8.833105, -0.32183465, 3.751946, -0.32508513, -0.20118475, 9.594701
1130768056808652, 8.82473, -0.88414794, 3.554538, 0.22066969, 0.03565836, 9.552086
1130768066448391, 8.889337, 0.28713873, 1.9154545, -1.0408694, 1.4751452, 8.9169655
1130768076088131, 8.946764, -0.44985065, 3.3762727, -0.17823592, 0.22301292, 9.568943
1130768085727818, 9.543773, 1.1282159, 4.1204405, -1.7422782, -0.41995478, 10.301582
1130768095367558, 9.413364, -0.27996024, 3.493521, -0.3835281, 0.284014, 10.033281
1130768105007298, 9.564112, -0.023928227, 3.4899318, -0.6816536, 0.39575315, 10.150427
1130768114647037, 9.669396, -1.1294123, 4.3633122, 0.41428056, -0.29538584, 10.656098
1130768124286777, 10.005588, -0.96550393, 4.6695933, 0.23232001, -0.4665873, 11.071468
1130768133926516, 9.564112, -0.76689965, 4.078566, 0.020790204, -0.121040344, 10.424969
1130768143566256, 9.171689, -1.5517455, 3.5653057, 0.79833853, 0.19509816, 9.927931
1130768153205995, 9.080762, -0.1794617, 3.5569308, -0.5672269, 0.035642385, 9.737617
1130768162845735, 8.787642, -1.1449656, 3.278167, 0.3996916, 0.23756337, 9.437362
1130768172485475, 9.036494, 0.40558344, 3.7998023, -1.1652069, -0.27911973, 9.737844
1130768182125214, 9.164511, -1.166501, 3.7172499, 0.38280702, -0.03701639, 9.9508295
1130768191764954, 9.792626, -0.54317075, 3.8907297, -0.34983772, -0.010457039, 10.545418
1130768201404693, 9.585648, -1.4500505, 4.0869412, 0.5585392, -0.22392297, 10.503727
1130768211044433, 9.640682, -1.0648061, 4.208975, 0.17353828, -0.34463906, 10.566132
1130768220684173, 9.818948, -0.72263247, 4.8191447, -0.18130244, -0.9133458, 10.922041
1130768230323912, 9.897911, -1.0193424, 4.482953, 0.097705275, -0.63851213, 10.894372
1130768239963652, 9.559326, 0.124426775, 3.798606, -1.0146859, -0.20190096, 10.235002
1130768249603339, 8.811569, -1.3339987, 3.3152559, 0.51788867, 0.04924941, 9.494399
1130768259243079, 8.55793, -0.22612174, 1.599602, -0.5878204, 1.4823349, 8.561845
1130768268882818, 8.496913, -1.8891335, 1.3435699, 1.096189, 1.7722367, 8.5574
1130768278522558, 9.263813, -0.34456646, 4.7174497, -0.5094994, -1.2364967, 10.315172
1130768288162298, 9.273384, -1.1593226, 3.2733815, 0.27968186, 0.09197521, 9.897881
1130768297802037, 9.067601, -0.9068798, 3.0640094, 0.038978584, 0.19122577, 9.612174
1130768307441777, 9.224331, -0.86979103, 3.8823547, -0.03398316, -0.5374744, 10.031324
1130768317081516, 9.603594, -1.4009976, 3.6394832, 0.46213838, -0.16860557, 10.353533
1130768326721256, 9.585648, -0.35653058, 3.7531424, -0.56647485, -0.28295255, 10.280899
1130768336360995, 9.466006, -1.5182459, 3.5724843, 0.6091987, -0.10477996, 10.21229
1130768346000735, 9.629914, -0.12921242, 3.7806597, -0.77748406, -0.28183198, 10.313167
1130768355640423, 9.367901, -1.4751751, 3.31047, 0.580685, 0.13706946, 10.026811
1130768365280162, 9.450453, -0.2416751, 3.2422748, -0.6492003, 0.16093421, 9.971683
1130768374919902, 9.075976, -1.2059826, 3.2075787, 0.35983124, 0.14146543, 9.693648
1130768384559641, 9.233903, -0.72741807, 3.2961133, -0.12987886, 0.08231211, 9.830301
1130768394199381, 9.06162, -0.8602197, 3.845266, 0.03959348, -0.4360528, 9.87154
1130768403839120, 9.403793, -1.1246266, 3.8691943, 0.26779878, -0.3236642, 10.222051
1130768413478860, 9.622736, -0.1902294, 3.888337, -0.6898116, -0.20760322, 10.35536
1130768423118600, 9.522238, -1.3986049, 3.7818563, 0.5199717, -0.076254606, 10.327409
1130768432758339, 9.605987, -0.1591227, 3.918247, -0.7098073, -0.16518927, 10.34997
1130768442398079, 9.311669, -1.713261, 3.546163, 0.8608745, 0.14450431, 10.072525
1130768452037818, 9.548559, -0.3912265, 3.67059, -0.4654313, 0.06670451, 10.226447
1130768461677558, 9.180064, -1.1425728, 3.4899318, 0.32088777, 0.13314891, 9.881193
1130768471317298, 9.172886, -0.23928227, 3.4564323, -0.56348765, 0.07844734, 9.78889
1130768480956985, 9.062816, -0.47258246, 3.3439696, -0.3239002, 0.15853381, 9.664889
1130768490596725, 9.272188, -0.971486, 3.3726835, 0.15711102, 0.22189212, 9.910517
1130768500236464, 9.35833, -0.28953153, 3.6263227, -0.5190827, -0.04228139, 10.027021
1130768509876204, 9.23151, -1.5314065, 3.4253256, 0.72197, 0.1828618, 9.937011
1130768519515943, 9.360723, -0.2727818, 3.7040894, -0.53121847, -0.1013186, 10.056112
1130768529155683, 9.195618, -1.7060826, 3.3439696, 0.909297, 0.2403245, 9.887752
1130768538795423, 9.458828, -0.42951167, 3.7040894, -0.37035888, -0.037935495, 10.160491
1130768548435162, 9.200403, -1.3280165, 3.6681972, 0.5548532, -0.061822414, 9.977729
1130768558074902, 9.274581, -0.44626144, 3.6658044, -0.32533443, -0.06043482, 9.977256
1130768567714641, 9.120243, -0.70229346, 3.5928233, -0.05500648, -0.039936304, 9.827301
1130768577354381, 9.242277, -0.90448695, 3.5844483, 0.1361217, 0.012746096, 9.953259
1130768586994120, 9.298509, -0.2644069, 3.6729827, -0.5094727, -0.08981061, 9.98776
1130768596633860, 9.282955, -1.3854443, 3.5557344, 0.604265, 0.057218075, 10.018361
1130768606273548, 9.513863, 0.0071784677, 4.037888, -0.7943925, -0.38464975, 10.297531
1130768615913287, 9.454042, -1.2418749, 3.674179, 0.44297877, -0.016631603, 10.209028
1130768625553027, 9.52822, 0.12323037, 3.8763726, -0.9146222, -0.2672894, 10.24307
1130768635192766, 9.12144, -1.0600204, 3.6478581, 0.3015593, -0.107506275, 9.875661
1130768644832506, 9.352347, -0.41754755, 3.6167514, -0.35120893, -0.01579237, 10.029859
1130768654472245, 9.12144, -0.9631111, 3.4576287, 0.21722426, 0.10893655, 9.799204
1130768664111985, 9.110672, -1.2155539, 3.385844, 0.47287387, 0.2111826, 9.781494
1130768673751725, 9.215957, -0.78843504, 3.3236306, 0.04203419, 0.2807355, 9.824532
1130768683391464, 9.201599, -1.6953149, 3.2709885, 0.9439095, 0.37548208, 9.859562
1130768693031152, 9.345169, -0.13160525, 3.8153558, -0.6251241, -0.1478107, 10.074414
1130768702670891, 9.132208, -1.0959128, 3.6753755, 0.3382331, -0.06984687, 9.898857
1130768712310631, 9.336794, 0.35413775, 3.8703907, -1.1373575, -0.2766328, 10.045445
1130768721950370, 9.229117, -1.1581261, 3.8297126, 0.37794462, -0.21313238, 10.049692
1130768731590110, 9.521041, -0.4881358, 3.824927, -0.31482962, -0.12912345, 10.266585
1130768741229850, 9.315259, -1.1294123, 3.731607, 0.3410768, -0.09799504, 10.092005
1130768750869589, 9.2997055, -1.0839486, 3.8739798, 0.31345502, -0.18702602, 10.125906
1130768760509329, 9.229117, -0.46899325, 3.8129628, -0.29367018, -0.18455791, 9.990745
1130768770149068, 9.133404, -1.274178, 3.5270207, 0.5198712, 0.13147116, 9.858748
1130768779788808, 9.300901, -0.11724831, 3.702893, -0.652434, -0.020974398, 9.990287
1130768789428548, 9.123833, -1.4835501, 3.662215, 0.7334032, 0.017084122, 9.915588
1130768799068287, 9.377472, -0.0047856453, 3.9302113, -0.75773054, -0.20702839, 10.137384
1130768808708027, 9.457631, -0.910469, 3.7710886, 0.11926727, 0.017309189, 10.22166
1130768818347714, 10.079765, 0.88295156, 3.6011982, -1.7245415, 0.3260808, 10.595732
1130768827987454, 9.370294, 0.083748795, 3.3966117, -0.8379976, 0.30999112, 9.927138
1130768837627193, 9.11785, -0.16869399, 3.4887354, -0.5452398, 0.15516543, 9.74749
1130768847266933, 9.364311, 0.47856453, 3.2841492, -1.2171327, 0.39843583, 9.852148
1130768856906673, 9.41815, -0.44745782, 3.2147572, -0.28204727, 0.5949106, 9.939967
1130768866546412, 9.046066, 0.009571291, 3.3056846, -0.6958246, 0.38808918, 9.598134
1130768876186152, 8.622537, -1.8664017, 3.438486, 1.2160399, 0.19676065, 9.388148
1130768885825891, 8.85464, -0.4546363, 3.9673, -0.19279411, -0.16368103, 9.710142
1130768895465631, 8.590233, -1.8711873, 3.9900317, 1.2401127, -0.1824894, 9.573014
1130768905105370, 8.9013, -1.227518, 4.2951164, 0.5685702, -0.32418275, 9.937787
1130768914745110, 8.955139, -1.8592232, 4.633701, 1.1993234, -0.5841992, 10.165764
1130768924384798, 9.559326, -1.2442678, 5.005785, 0.5096882, -0.65218234, 10.83059
1130768934024537, 9.742377, -0.38404804, 5.0105705, -0.39051098, -0.5859928, 10.939441
1130768943664277, 9.870394, -1.2095718, 4.5726843, 0.425061, -0.11222601, 10.936358
1130768953304016, 9.897911, -0.27996024, 4.6025944, -0.5444351, -0.17034149, 10.904379
1130768962943756, 9.458828, -1.7001005, 4.4721856, 0.90740633, -0.16540456, 10.559806
1130768972583495, 9.180064, -0.14237295, 4.432704, -0.6351317, -0.32688594, 10.1701765
1130768982223235, 8.620144, -1.463211, 3.938586, 0.7178879, -0.088276386, 9.562279
1130768991862975, 8.681161, -0.29192436, 3.906283, -0.45418304, -0.06601834, 9.512948
1130769001502714, 8.578269, -1.253839, 3.6335013, 0.51748174, 0.14828062, 9.384636
1130769011142454, 8.7577305, -0.96909314, 3.6993039, 0.22182545, 0.13696957, 9.55269
1130769020782193, 8.708678, -1.0169497, 3.7447674, 0.27755925, 0.05206728, 9.52989
1130769030421933, 8.76132, -1.5218352, 3.7459638, 0.7947911, 0.04352331, 9.616411
1130769040061673, 8.98146, -0.6305088, 3.6646078, -0.10500944, 0.17219234, 9.718685
1130769049701360, 9.02453, -1.8089739, 3.4923246, 1.0666538, 0.36894393, 9.779417
1130769059341100, 9.249456, -0.3278167, 3.95055, -0.43351752, -0.007309437, 10.053793
1130769068980839, 9.099904, -1.6211374, 4.098905, 0.8576066, -0.20414138, 10.072744
1130769078620579, 9.322437, -0.25004998, 4.2927237, -0.53162456, -0.33194327, 10.247196
1130769088260318, 9.022138, -0.9822537, 3.9230328, 0.22514494, -0.10161662, 9.883976
1130769097900058, 9.004191, -0.65682983, 3.897908, -0.07885018, -0.08858085, 9.832931
1130769107539798, 8.922835, -0.9391829, 3.7998023, 0.22912215, -0.035348415, 9.740833
1130769117179537, 8.987442, -1.3818551, 3.650251, 0.6896783, 0.13424611, 9.773142
1130769126819277, 8.963513, -0.4761717, 3.6789649, -0.18791679, 0.056593895, 9.698846
1130769136459016, 9.052048, -1.4871392, 3.7483566, 0.8394813, 0.041327238, 9.87395
1130769146098756, 9.229117, 0.11964113, 3.9170506, -0.75826913, -0.07784891, 9.997659
1130769155738495, 9.132208, -1.2454642, 3.7184465, 0.62248206, 0.1380806, 9.918098
1130769165378235, 9.420543, -0.08733802, 4.0869412, -0.5515199, -0.12556815, 10.253652
1130769175017975, 9.176475, -1.2777673, 4.024728, 0.6571852, -0.11389947, 10.079383
1130769184657714, 9.284152, -0.81595254, 4.046263, 0.19187732, -0.07783151, 10.158278
1130769194297454, 9.083155, -1.0372887, 4.0091743, 0.42490846, -0.114809275, 9.972934
1130769203937193, 9.013762, -1.3555341, 3.863212, 0.7655104, -0.041265488, 9.870262
1130769213576881, 9.0233345, 0.06819545, 3.8093736, -0.6402287, -0.03292823, 9.773719
1130769223216620, 8.659625, -0.78364944, 3.4743786, 0.23650917, 0.13983274, 9.359435
1130769232856360, 8.615358, 0.010767702, 3.8548372, -0.47694173, -0.34846663, 9.419946
1130769242496100, 9.19801, -1.7694924, 3.842873, 1.2719021, -0.09572816, 10.043669
1130769252135839, 9.956535, -0.05503492, 4.219743, -0.41423404, -0.30198503, 10.801809
1130769261775579, 9.785448, -0.6376872, 3.9170506, 0.17128974, -0.060928583, 10.558025
1130769271415318, 9.820144, 0.20937198, 3.804588, -0.6762719, 0.026759863, 10.511702
1130769281055058, 9.269794, -0.20458634, 3.9014974, -0.25110567, -0.19705224, 10.054388
1130769290694798, 8.987442, -0.7800602, 4.2628136, 0.3397192, -0.62362266, 9.952379
1130769300334537, 9.0341015, -0.23688944, 4.4542394, -0.20966318, -0.72209144, 10.047189
1130769309974277, 9.032906, -1.2873386, 4.7174497, 0.86710966, -0.9299929, 10.192555
1130769319614016, 9.426525, -0.111266255, 4.8598228, -0.29061392, -0.9108715, 10.562929
1130769329253756, 9.4636135, -1.3770695, 4.2125645, 0.9608375, -0.3028679, 10.401301
1130769338893495, 9.763913, 0.33140594, 3.8033917, -0.71257406, 0.21961904, 10.45723
1130769348533235, 9.649057, -0.47138608, 3.2685957, 0.15446049, 0.6733537, 10.175115
1130769358172975, 9.795019, 0.5623133, 3.1680973, -0.8673964, 0.8105533, 10.241388
1130769367812714, 9.37149, 0.25004998, 3.0125637, -0.5347225, 0.7716224, 9.802119
1130769377452454, 9.273384, -0.083748795, 3.1716864, -0.19817886, 0.56143665, 9.783035
1130769387092193, 8.919247, 0.28594232, 2.9682965, -0.5733572, 0.57641816, 9.369339
1130769396731933, 8.799605, -1.1629118, 3.01376, 0.88007665, 0.49825072, 9.319088
1130769406371673, 9.250652, -0.07776674, 3.8213377, -0.24640903, -0.16663599, 10.004738
1130769416011412, 9.260223, -1.5254245, 4.078566, 1.205512, -0.37077546, 10.154931
1130769425651152, 9.556933, -0.23569304, 4.389633, -0.09124169, -0.56480145, 10.503909
1130769435290891, 9.255438, -0.69272214, 3.3044882, 0.37505433, 0.42446995, 9.835741
1130769444930631, 9.089137, 0.6891329, 3.8273199, -0.9947032, -0.15680361, 9.834719
1130769454570370, 8.800801, 0.3062813, 3.641876, -0.5956702, -0.00447011, 9.510854
1130769464210110, 9.158528, 0.2536392, 3.528217, -0.54359716, 0.34389377, 9.796812
1130769473849850, 9.492328, 0.4749753, 4.0354953, -0.7712078, -0.01564002, 10.296607
1130769483489589, 9.524631, -0.88414794, 3.739982, 0.58319056, 0.30557895, 10.249599
1130769493129329, 9.580862, -0.0047856453, 4.106084, -0.2970738, -0.07283521, 10.41918
1130769502769068, 9.407382, -1.3100704, 4.045067, 0.998729, -0.1871543, 10.2735195
1130769512408808, 9.58804, 0.23928227, 4.0103707, -0.55820453, -0.14935493, 10.379641
1130769522048548, 8.906086, -0.86141616, 3.749553, 0.5680861, -0.13528252, 9.68393
1130769531688287, 9.030513, 0.23330021, 3.505485, -0.53487104, 0.10315466, 9.674517
1130769541328027, 8.906086, -0.29072794, 3.3631122, -0.01623074, 0.2686658, 9.520555
1130769550967766, 9.122637, -0.25004998, 3.4839497, -0.06287381, 0.2381041, 9.765363
1130769560607506, 9.157332, 0.22372891, 3.7411783, -0.54888105, 0.054479837, 9.879219
1130769570247245, 9.311669, -0.77766734, 3.9170506, 0.42659155, 0.0018684864, 10.122908
1130769579887037, 9.792626, 0.20817557, 4.5690947, -0.6039812, -0.38695788, 10.78429
1130769589526777, 9.573684, -1.2562319, 4.5834517, 0.84367126, -0.49805856, 10.643389
1130769599166516, 9.656236, 0.22013968, 4.517649, -0.64890283, -0.44586182, 10.633937
1130769608806256, 9.254242, -0.8757731, 4.0965123, 0.46342298, -0.25842214, 10.144351
1130769618445995, 9.391829, 0.2943172, 3.9134614, -0.6962563, 0.01609993, 10.154961
1130769628085735, 9.037691, -0.15433706, 3.5174494, -0.22128232, 0.22803473, 9.694078
1130769637725475, 9.195618, 0.038285162, 3.3786657, -0.4117903, 0.42247176, 9.778965
1130769647365214, 9.177671, 0.27158538, 3.6693935, -0.6737922, 0.162606, 9.86344
1130769657004954, 9.102298, -0.8315059, 3.9445682, 0.42012948, -0.14680791, 9.945088
1130769666644693, 9.285348, 0.014356935, 4.2352962, -0.44986713, -0.32530046, 10.190556
1130769676284433, 9.221938, -1.5074782, 3.9218364, 1.072655, -0.09091258, 10.076634
1130769685924225, 9.65145, 0.18544376, 4.2556353, -0.64186305, -0.19848037, 10.528245
1130769695563964, 9.446864, -0.66759753, 4.091727, 0.20020068, -0.07894087, 10.314304
1130769705203704, 9.675379, 0.5599205, 3.9361932, -1.0465055, 0.18809628, 10.406225
1130769714843443, 9.24826, -0.32422748, 3.8476589, -0.14441028, 0.089081526, 10.0205345
1130769724483183, 9.103494, -0.38883367, 4.0271206, -0.09416998, -0.13274693, 9.960724
1130769734122923, 8.986245, -0.35413775, 4.15394, -0.1501454, -0.3386786, 9.899293
1130769743762662, 8.991031, -1.0552348, 3.7100716, 0.5670954, 0.024961233, 9.767014
1130769753402402, 9.213564, 0.17826529, 3.6131623, -0.6738821, 0.20891166, 9.873132
1130769763042141, 9.0951185, -1.1988041, 3.7543387, 0.6967881, -0.016064405, 9.88775
1130769772681881, 9.385847, 0.2835495, 4.341777, -0.8303374, -0.37337446, 10.305177
1130769782321620, 9.145369, -1.0289137, 4.226921, 0.4869883, -0.3520608, 10.10951
1130769791961412, 9.309277, 0.11844472, 4.115655, -0.6688532, -0.085502386, 10.156801
1130769801601152, 9.081959, -0.7429714, 3.2015967, 0.23983686, 0.704396, 9.629669
1130769811240891, 9.389436, -0.67118675, 2.1714866, 0.17271304, 1.8186564, 9.486308
1130769820880631, 9.348758, -0.79800636, 4.664808, 0.16366658, -0.45784664, 10.467096
1130769830520370, 8.993423, -1.4189439, 4.5822554, 0.80124915, -0.5532973, 10.146132
1130769840160110, 8.624929, -0.7752745, 4.334598, 0.16552278, -0.41984153, 9.673446
1130769849799850, 8.53161, -2.2181466, 4.2975097, 1.612849, -0.5013778, 9.6604595
1130769859439641, 8.8701935, -0.7369894, 4.345366, 0.12794584, -0.3748634, 9.896908
1130769869079381, 8.665607, -1.8903298, 4.4398823, 1.284061, -0.5836148, 9.817801
1130769878719120, 8.920443, -0.3361916, 4.4207397, -0.2497451, -0.43729186, 9.948702
1130769888358860, 8.76132, -1.1796615, 4.0031924, 0.62420374, -0.16152096, 9.683087
1130769897998600, 9.089137, -0.506082, 4.1072803, -0.058353186, -0.075090885, 9.986453
1130769907638391, 9.040084, -0.7429714, 4.202993, 0.17595083, -0.17429113, 9.993945
1130769917278131, 9.272188, -1.1174482, 4.2041893, 0.5455878, -0.06512666, 10.227193
1130769926917870, 9.525827, -0.22013968, 3.9218364, -0.34131724, 0.33458877, 10.292823
1130769936557610, 9.365508, -1.2215359, 3.7052858, 0.67572373, 0.4293797, 10.114003
1130769946197350, 9.42174, 0.043070808, 3.9960139, -0.5954728, 0.24189115, 10.214012
1130769955837141, 8.961121, -1.3507484, 3.7100716, 0.83209217, 0.31144953, 9.751997
1130769965476881, 8.989835, -0.0059820567, 4.095316, -0.52493644, 0.0054166317, 9.864744
1130769975116620, 8.669196, -0.88414794, 3.9086757, 0.3737402, 0.040869713, 9.543221
1130769984756360, 8.827123, -0.20219351, 4.2352962, -0.32317626, -0.17991948, 9.785698
1130769994396100, 8.919247, -0.5347959, 4.2460637, 0.004393108, -0.15140748, 9.891667
1130770004035891, 9.030513, -0.7609176, 4.325027, 0.22053857, -0.18133235, 10.037604
1130770013675631, 9.0341015, -0.16031912, 4.3968115, -0.37872303, -0.23100424, 10.038718
1130770023315370, 9.06162, -1.1365907, 4.074977, 0.6075028, 0.077399015, 9.981743
1130770032955110, 9.297313, 0.10289137, 4.17069, -0.64087415, 0.110790014, 10.169675
1130770042594850, 9.111869, -1.2287145, 3.9565322, 0.70412505, 0.18766332, 9.982939
1130770052234641, 9.238688, 0.11485548, 4.2723846, -0.6542716, -0.023390532, 10.158307
1130770061874381, 8.868998, -1.0911272, 4.106084, 0.5699717, -0.04895854, 9.817451
1130770071514120, 9.086744, -0.3804588, 4.284349, -0.15706146, -0.07260847, 10.051835
1130770081153912, 8.980264, -0.7106683, 4.098905, 0.18597592, 0.040850878, 9.895198
1130770090793652, 9.017352, -0.63888365, 4.274778, 0.104639456, -0.08039975, 9.9988575
1130770100433391, 8.99821, -0.07058827, 4.3262234, -0.467067, -0.07630777, 9.973214
1130770110073183, 8.971889, -1.0205388, 4.220939, 0.49088866, -0.020594597, 9.955461
1130770119712923, 9.239884, 0.04546363, 4.426722, -0.5929421, -0.057881594, 10.228316
1130770129352662, 9.099904, -1.2981063, 4.273581, 0.7606833, -0.031025887, 10.108275
1130770138992402, 9.232706, 0.08255238, 4.5726843, -0.63625014, -0.20042276, 10.281739
1130770148632141, 8.928818, -1.0492527, 4.2723846, 0.5208249, -0.087248564, 9.9397745
1130770158271933, 9.1872425, -0.13998012, 4.557131, -0.40500903, -0.21495914, 10.246084
1130770167911673, 9.0747795, -0.64845496, 4.4315076, 0.110450804, -0.13819098, 10.118256
1130770177551412, 9.105886, -0.66400826, 4.402794, 0.12758571, -0.09699297, 10.13494
1130770187191204, 9.031709, -0.30149564, 4.274778, -0.22859251, 0.0032541752, 9.994205
1130770196830943, 8.928818, -1.1509477, 4.2053857, 0.62158966, 0.048275232, 9.916905
1130770206470683, 9.008977, -0.020338992, 4.392026, -0.5213611, -0.102236986, 10.008483
1130770216110475, 8.792427, -1.2526426, 4.165904, 0.72402817, 0.013286829, 9.782958
1130770225750214, 9.052048, 0.12562318, 4.2771707, -0.66949457, 0.01567173, 9.990047
1130770235389954, 8.885747, -1.0396814, 4.0570307, 0.50904274, 0.1354599, 9.809153
1130770245029745, 9.066405, -0.12562318, 4.3728833, -0.4206608, -0.058335066, 10.057697
1130770254669485, 8.930014, -0.7286145, 4.2077785, 0.1951179, 0.04925394, 9.896511
1130770264309225, 9.128618, -0.55034924, 4.408776, 0.0011091381, -0.028545856, 10.152391
1130770273949016, 9.129815, -0.19501504, 4.3728833, -0.35545933, 0.022882223, 10.118635
1130770283588756, 9.0951185, -0.8135597, 4.3202415, 0.2617699, 0.041169405, 10.098382
1130770293228495, 9.253045, 0.19740787, 4.5475593, -0.76390254, -0.07217646, 10.283451
1130770302868287, 9.048459, -1.1162517, 4.4482574, 0.55857396, -0.10724664, 10.128383
1130770312508027, 9.12503, 0.04426722, 4.554738, -0.6076651, -0.14287019, 10.179592
1130770322147766, 8.863015, -1.329213, 4.0701914, 0.78013, 0.16546082, 9.810725
1130770331787558, 9.010174, -0.3469593, 4.402794, -0.21665429, -0.06921148, 10.031774
1130770341427298, 8.72782, -1.0600204, 4.249653, 0.51342696, -0.06548691, 9.751418
1130770351067037, 8.797213, -0.7429714, 4.4243293, 0.18415198, -0.16674662, 9.871977
1130770360706829, 8.898908, -0.4426722, 4.4315076, -0.12425423, -0.10256815, 9.949816
1130770370346620, 8.967103, -1.0229317, 4.485346, 0.44957173, -0.13637877, 10.06742
1130770379986360, 9.133404, -0.0011964113, 4.625326, -0.5854624, -0.13928127, 10.220106
1130770389626100, 8.915657, -1.302892, 4.351348, 0.73460007, -0.040538073, 9.9789505
1130770399265891, 9.1465645, -0.09092726, 4.578666, -0.49675173, -0.07405472, 10.216647
1130770408905631, 8.933603, -1.3854443, 4.260421, 0.8098202, 0.03054738, 9.961083
1130770418545370, 9.081959, -0.23449662, 4.3932223, -0.34434396, 0.0520463, 10.085439
1130770428185162, 8.915657, -0.9068798, 4.1694937, 0.33271554, 0.13637328, 9.877588
1130770437824902, 9.0029955, -0.45702913, 4.3525443, -0.13147867, 0.029882908, 10.0094595
1130770447464641, 8.891729, -0.33379877, 4.2006, -0.24034631, 0.12281585, 9.835978
1130770457104433, 8.787642, -0.9092726, 4.229314, 0.33464387, 0.036204338, 9.788934
1130770466744225, 8.900104, -0.13160525, 4.4231324, -0.4630776, -0.046093464, 9.92858
1130770476383964, 8.865408, -1.3567305, 4.486542, 0.7575028, -0.16578078, 9.998198
1130770486023704, 9.145369, 0.014356935, 4.8035913, -0.63407224, -0.27910805, 10.306917
1130770495663495, 9.000603, -1.2287145, 4.4039903, 0.6272013, -0.024398088, 10.075799
1130770505303287, 9.200403, -0.07178468, 4.554738, -0.5436022, -0.014957428, 10.25195
1130770514943027, 9.012567, -0.90089774, 4.223332, 0.30203626, 0.15802908, 9.987907
1130770524582766, 9.065208, -0.40438703, 4.3800616, -0.19326371, 0.06393623, 10.073979
1130770534222558, 8.963513, -0.4223332, 4.3525443, -0.16627663, 0.047644854, 9.971846
1130770543862298, 8.967103, -0.89730847, 4.4614177, 0.30553988, -0.057771683, 10.050954
1130770553502037, 9.134601, -0.09810573, 4.5188456, -0.51104295, -0.020062447, 10.17885
1130770563141829, 9.0029955, -1.2335001, 4.4243293, 0.63227826, -0.013256311, 10.08713
1130770572781620, 9.1669035, 0.022731815, 4.741378, -0.656692, -0.22643852, 10.297125
1130770582421360, 8.88455, -1.3663018, 4.5415773, 0.75956535, -0.19898343, 10.040488
1130770592061100, 9.067601, -0.17347965, 4.7425747, -0.45980906, -0.28917146, 10.220005
1130770601700891, 8.874979, -1.0719845, 4.382455, 0.45906985, -0.056299686, 9.94517
1130770611340683, 8.969496, -0.47856453, 4.398008, -0.13121912, -0.01645565, 10.000294
1130770620980475, 8.863015, -0.6149554, 3.9972103, 0.026169613, 0.29496288, 9.7376175
1130770630620214, 8.79482, -0.8997013, 4.0498524, 0.3213244, 0.21609259, 9.716465
1130770640259954, 8.807981, -0.15792629, 4.2963133, -0.4289786, 0.012371063, 9.791814
1130770649899745, 8.813962, -1.2287145, 4.2592244, 0.640536, 0.034429073, 9.845059
1130770659539537, 9.256635, 0.0634098, 4.476971, -0.6791854, 0.05048561, 10.2600565
1130770669179277, 9.081959, -1.2693924, 4.3800616, 0.64838237, 0.04900384, 10.14177
1130770678819016, 9.229117, -0.040677983, 4.7629137, -0.6069236, -0.21076107, 10.36585
1130770688458808, 8.906086, -1.0301101, 4.418347, 0.42311808, -0.0625329, 9.9859085
1130770698098600, 9.010174, -0.37328035, 4.634897, -0.24784867, -0.1987729, 10.134294
1130770707738339, 8.928818, -0.6257231, 4.386044, 0.015847325, -0.01702547, 9.967556
1130770717378079, 8.851051, -0.90448695, 4.3800616, 0.3040349, -0.055991173, 9.912044
1130770727017870, 8.885747, -0.27996024, 4.3932223, -0.31554493, -0.024137259, 9.911364
1130770736657662, 8.8187475, -1.2490535, 4.369294, 0.65765834, -0.058326006, 9.89875
1130770746297454, 9.016156, 0.051445685, 4.5535417, -0.6560125, -0.0962944, 10.079128
1130770755937193, 8.849854, -1.2346965, 4.325027, 0.6395485, 0.013720512, 9.906616
1130770765576933, 9.110672, 0.032303106, 4.6552362, -0.65200424, -0.13684416, 10.209446
1130770775216725, 8.938389, -1.0133604, 4.3836513, 0.40645826, 0.0014343262, 9.998645
1130770784856516, 9.134601, -0.2536392, 4.5595236, -0.36842385, -0.049841404, 10.205699
1130770794496308, 9.035298, -0.5982057, 4.2388854, -0.008280173, 0.18178868, 9.996473
1130770804136100, 9.0029955, -0.7573284, 4.314259, 0.15177174, 0.095837116, 10.010401
1130770813775839, 8.935996, -0.19262223, 4.254439, -0.4043936, 0.11888933, 9.88998
1130770823415579, 8.770891, -1.154537, 4.223332, 0.5737954, 0.051423073, 9.786016
1130770833055370, 8.950353, -0.013160525, 4.436293, -0.5827831, -0.038659096, 9.972387
1130770842695162, 8.87139, -1.3076776, 4.2855453, 0.7077393, 0.049675703, 9.91333
1130770852334954, 9.1465645, -0.0035892338, 4.658826, -0.6114805, -0.14916229, 10.245396
1130770861974693, 8.945567, -1.0935199, 4.4075794, 0.48535407, 0.0045809746, 10.020487
1130770871614433, 9.1681, -0.20937198, 4.6301117, -0.42400485, -0.09954643, 10.263826
1130770881254225, 9.022138, -0.654437, 4.3908296, 0.042739935, 0.04429269, 10.054993
1130770890894016, 9.020942, -0.71425754, 4.5391846, 0.098315924, -0.09049678, 10.12294
1130770900533808, 9.0436735, -0.25722843, 4.476971, -0.35423937, -0.0314188, 10.088161
1130770910173600, 8.9312105, -1.119841, 4.368098, 0.5160705, 0.012757778, 9.991715
1130770919813339, 9.0747795, 0.034695927, 4.4231324, -0.64110976, 0.039535522, 10.074936
1130770929453079, 8.865408, -1.308874, 4.1898327, 0.72031355, 0.13144445, 9.865454
1130770939092870, 9.010174, -0.02871387, 4.4745784, -0.5633309, -0.02707076, 10.044296
1130770948732662, 8.775677, -1.1856437, 4.2628136, 0.6011109, 0.03790307, 9.809539
1130770958372454, 9.007781, -0.19621146, 4.6205406, -0.412462, -0.15428448, 10.116032
1130770968012245, 8.957532, -0.69272214, 4.421936, 0.09437209, -0.011471748, 10.013078
1130770977652037, 9.067601, -0.5694918, 4.5798626, -0.03478633, -0.09663391, 10.174002
1130770987291777, 9.013762, -0.68075806, 4.5212383, 0.084359005, -0.07162452, 10.106469
1130770996931516, 8.999406, -0.62452674, 4.5798626, 0.027527079, -0.12890768, 10.11618
1130771006571308, 9.012567, -0.63170516, 4.3334017, 0.044708297, 0.099601984, 10.019573
1130771016211100, 9.042477, -0.5886344, 4.290331, 0.0029948652, 0.15382981, 10.024777
1130771025850891, 8.973084, -0.5814559, 4.421936, -0.002677627, -0.008677006, 10.020369
1130771035490683, 8.912068, -0.5599205, 4.462614, -0.021646038, -0.07221913, 9.98237
1130771045130475, 8.9013, -0.60777694, 4.465007, 0.028344825, -0.082834005, 9.97653
1130771054770266, 8.885747, -0.6113662, 4.3848476, 0.0338657, -0.017523766, 9.927522
1130771064410006, 8.945567, -0.6053841, 4.2484565, 0.026194517, 0.13322997, 9.920717
1130771074049745, 8.91805, -0.6520442, 4.301099, 0.0753225, 0.071718454, 9.921966
1130771083689537, 8.979067, -0.66161543, 4.4171505, 0.07913259, -0.0086295605, 10.028274
1130771093329329, 9.099904, -0.5778667, 4.520042, -0.013294324, -0.04843712, 10.176957
1130771102969120, 9.120243, -0.5419743, 4.621737, -0.05334942, -0.13198471, 10.23781
1130771112608912, 9.11785, -0.4953143, 4.6097727, -0.090486124, -0.11952877, 10.227808
1130771122248704, 9.068798, -0.47736812, 4.4674, -0.09497353, -0.014437199, 10.120249
1130771131888495, 9.0029955, -0.54436713, 4.3932223, -0.014562145, 0.017152071, 10.032455
1130771141528287, 8.926425, -0.55513483, 4.3154554, 0.0015911907, 0.053348303, 9.930234
1130771151168079, 8.920443, -0.60658056, 4.26401, 0.06272604, 0.081311226, 9.905224
1130771160807818, 8.906086, -0.634098, 4.2723846, 0.08956737, 0.06117797, 9.8975725
1130771170447558, 8.906086, -0.67118675, 4.342973, 0.12523873, -0.0012068748, 9.930488
1130771180087350, 8.945567, -0.6580262, 4.389633, 0.10479502, -0.029228926, 9.985649
1130771189727141, 8.963513, -0.6197411, 4.476971, 0.05818294, -0.09907317, 10.037865
1130771199366933, 8.99462, -0.58504516, 4.551149, 0.017316893, -0.14928293, 10.096329
1130771209006725, 9.022138, -0.5419743, 4.5559344, -0.025401741, -0.13303494, 10.120814
1130771218646516, 8.99462, -0.5240282, 4.5152564, -0.035598308, -0.105287075, 10.077351
1130771228286308, 8.955139, -0.53359944, 4.395615, -0.021535523, -0.015090942, 9.989995
1130771237926100, 9.016156, -0.57188463, 4.3322053, 0.023500852, 0.06368232, 10.019058
1130771247565891, 8.986245, -0.6197411, 4.23051, 0.07583727, 0.14158583, 9.950282
1130771257205683, 8.938389, -0.62452674, 4.15394, 0.08477812, 0.18090987, 9.874215
1130771266845475, 8.953942, -0.5946164, 4.1407795, 0.04800103, 0.17807364, 9.88123
1130771276485266, 8.971889, -0.56350976, 4.173083, 0.016186893, 0.15673184, 9.909699
1130771286125058, 8.970692, -0.52522457, 4.253242, -0.028121807, 0.077876806, 9.941448
1130771295764798, 8.956335, -0.51206404, 4.260421, -0.044219673, 0.069164276, 9.930891
1130771305404589, 8.941978, -0.5276174, 4.2759743, -0.029181868, 0.054474115, 9.925598
1130771315044381, 8.932407, -0.55513483, 4.336991, -0.0043506473, 1.3685226E-4, 9.9451275
1130771324684120, 8.963513, -0.5407779, 4.456632, -0.023464948, -0.09387493, 10.024431
1130771334323912, 9.025727, -0.567099, 4.65404, -0.013891444, -0.23591876, 10.168069
1130771343963704, 9.056833, -0.5982057, 4.8263235, 0.0056401193, -0.3699901, 10.273293
1130771353603495, 9.083155, -0.67477596, 4.6899323, 0.08295439, -0.22842717, 10.241848
1130771363243287, 9.098708, -0.7082755, 4.5296135, 0.123160884, -0.078333616, 10.187454
1130771372883079, 9.038888, -0.6939186, 4.476971, 0.109338626, -0.05997157, 10.109932
1130771382522870, 9.040084, -0.61734825, 4.4446683, 0.033903822, -0.029782295, 10.092436
1130771392162662, 8.992228, -0.5192425, 4.2341, -0.056083232, 0.1323936, 9.951718
1130771401802454, 8.927621, -0.45224348, 4.1288157, -0.11684105, 0.19582748, 9.8438835
1130771411442245, 8.9013, -0.41874397, 4.0941195, -0.14707072, 0.21411991, 9.803206
1130771421082037, 8.9013, -0.42951167, 4.091727, -0.13414402, 0.21810532, 9.80277
1130771430721829, 8.882157, -0.46660042, 4.23051, -0.09844868, 0.090675354, 9.848336
1130771440361620, 8.9312105, -0.5347959, 4.408776, -0.038912117, -0.044801235, 9.974283
1130771450001412, 9.0747795, -0.56470615, 4.487739, -0.019035116, -0.052756786, 10.139387
1130771459641204, 9.111869, -0.61854464, 4.5762734, 0.028020784, -0.11256862, 10.214577
1130771469280995, 9.09153, -0.695115, 4.5595236, 0.10756573, -0.102225065, 10.193446
1130771478920787, 9.069994, -0.63888365, 4.4518466, 0.05695142, -0.010982275, 10.123662
1130771488560579, 9.029316, -0.6197411, 4.3968115, 0.04196371, 0.020501375, 10.061928
1130771498200370, 8.992228, -0.60658056, 4.2963133, 0.036814854, 0.091175795, 9.983825
1130771507840162, 8.9312105, -0.59342, 4.2999024, 0.026116908, 0.056679487, 9.929952
1130771517479954, 8.902496, -0.5982057, 4.412365, 0.028146312, -0.057007074, 9.953754
1130771527119745, 8.956335, -0.52522457, 4.453043, -0.05087781, -0.069838285, 10.015683
1130771536759537, 8.992228, -0.5491528, 4.5212383, -0.033911884, -0.1056447, 10.079237
1130771546399329, 8.983852, -0.62452674, 4.5738807, 0.039993763, -0.1580112, 10.099182
1130771556039120, 9.09153, -0.6257231, 4.534399, 0.0367423, -0.066903114, 10.178527
1130771565678912, 9.116654, -0.613759, 4.51406, 0.024621516, -0.037301064, 10.19141
1130771575318704, 9.053245, -0.6221339, 4.4614177, 0.03763315, -0.021830797, 10.111907
1130771584958495, 8.99821, -0.6221339, 4.274778, 0.049116373, 0.11748028, 9.9806
1130771594598287, 8.96471, -0.5838487, 4.220939, 0.014220774, 0.14936519, 9.924752
1130771604238079, 8.895318, -0.6221339, 4.1922255, 0.056238934, 0.13990283, 9.852197
1130771613877870, 8.859426, -0.6125626, 4.2006, 0.046982467, 0.11309028, 9.823173
1130771623517662, 8.847462, -0.56829536, 4.197011, 0.001536794, 0.10812998, 9.8083515
1130771633157454, 8.894122, -0.5096712, 4.321438, -0.06453055, 0.015115261, 9.901293
1130771642797245, 8.967103, -0.48095736, 4.392026, -0.101848826, -0.016121864, 9.995975
1130771652437037, 9.05803, -0.4833502, 4.473382, -0.1048794, -0.047650576, 10.11333
1130771662076881, 9.109476, -0.5312066, 4.6408796, -0.06307881, -0.17528796, 10.235615
1130771671716673, 9.037691, -0.567099, 4.5966125, -0.01557114, -0.15953517, 10.154046
1130771681356464, 9.000603, -0.61016977, 4.426722, 0.032836244, -0.022919893, 10.048753
1130771690996308, 9.031709, -0.6269195, 4.339384, 0.05935511, 0.06741238, 10.039273
1130771700636100, 9.008977, -0.6113662, 4.339384, 0.04749602, 0.053137064, 10.018016
1130771710275891, 8.894122, -0.5706882, 4.2508492, 0.016669095, 0.08169556, 9.873898
1130771719915683, 8.88455, -0.5778667, 4.3070807, 0.021188721, 0.025863409, 9.890348
1130771729555475, 8.940782, -0.57547385, 4.341777, 0.013219088, 0.020672321, 9.95586
1130771739195266, 8.925228, -0.573081, 4.5044885, 0.002332002, -0.13214469, 10.013044
1130771748835058, 8.96471, -0.56350976, 4.575077, -0.017174155, -0.16927457, 10.078985
1130771758474850, 9.110672, -0.56470615, 4.557131, -0.022122175, -0.08600807, 10.202098
1130771768114641, 9.18485, -0.57547385, 4.5882373, -0.015636876, -0.08373976, 10.282866
1130771777754433, 9.0951185, -0.5814559, 4.5631127, -0.0050026476, -0.100903034, 10.191716
1130771787394225, 9.056833, -0.55752766, 4.4410787, -0.020424753, -0.010002375, 10.102462
1130771797034016, 9.005388, -0.5599205, 4.278367, -0.0062832534, 0.111837864, 9.985108
1130771806673808, 8.941978, -0.5922236, 4.191029, 0.034456, 0.15875411, 9.891817
1130771816313600, 8.885747, -0.5766702, 4.141976, 0.024432778, 0.17318344, 9.819085
1130771825953391, 8.816355, -0.56111693, 4.1443686, 0.012989864, 0.13587451, 9.757055
1130771835593235, 8.847462, -0.5563313, 4.1982074, 0.0041291118, 0.09970641, 9.808266
1130771845233079, 8.968299, -0.54317075, 4.3070807, -0.018947557, 0.055055857, 9.963583
1130771854872870, 9.032906, -0.53359944, 4.4171505, -0.04046783, -0.010083914, 10.069142
1130771864512662, 9.068798, -0.54675996, 4.508078, -0.03156156, -0.076327085, 10.141893
1130771874152454, 9.072387, -0.5599205, 4.517649, -0.02129206, -0.07666564, 10.150101
1130771883792245, 9.11785, -0.57547385, 4.520042, -0.0072360784, -0.058483124, 10.192825
1130771893432037, 9.101101, -0.64247286, 4.4925246, 0.06126894, -0.041998386, 10.169567
1130771903071829, 9.007781, -0.64965135, 4.4135613, 0.0778501, -0.013944626, 10.051638
1130771912711620, 8.94796, -0.60777694, 4.3202415, 0.043827593, 0.04269743, 9.954704
1130771922351412, 8.9108715, -0.59581286, 4.278367, 0.036722302, 0.06283784, 9.9024105
1130771931991204, 8.898908, -0.5778667, 4.325027, 0.01677756, 0.016142845, 9.911095
1130771941631048, 8.9348, -0.567099, 4.3537407, 0.002045393, 0.0079808235, 9.955263
1130771951270891, 8.958728, -0.54436713, 4.339384, -0.020931154, 0.031922102, 9.969149
