timestamp_acc,device_acc_x,device_acc_y,device_acc_z,earth_acc_x,earth_acc_y,earth_acc_z
266243147272361, 6.3972116, 0.30269206, 7.8257265, -0.024228841, -0.015832901, 10.112225
266243156912986, 6.398408, 0.28953153, 7.792227, -0.009376287, 0.0061774254, 10.086731
266243166553611, 6.4031935, 0.276371, 7.8029947, 0.0037311018, 0.0017766953, 10.097721
266243176194236, 6.3972116, 0.2847459, 7.771888, -0.003910601, 0.018066406, 10.07012
266243185834861, 6.3972116, 0.28713873, 7.732406, -0.0055493414, 0.043794632, 10.039666
266243195475486, 6.364908, 0.27756742, 7.7156568, 0.0022165775, 0.028728485, 10.00598
266243205116111, 6.3625154, 0.27158538, 7.752745, 0.0072502643, 0.0021176338, 10.032963
266243214756840, 6.37089, 0.27158538, 7.798209, 0.0060132593, -0.02041912, 10.073412
266243224397465, 6.355337, 0.26679972, 7.838887, 0.008692175, -0.058509827, 10.094858
266243234038090, 6.367301, 0.2536392, 7.8113694, 0.02363199, -0.03239584, 10.080811
266243243678715, 6.4008007, 0.24885355, 7.7742805, 0.031411514, 0.017936707, 10.073248
266243253319340, 6.38764, 0.276371, 7.746763, 0.0033034831, 0.026387215, 10.044401
266243262959965, 6.373283, 0.26919255, 7.751549, 0.00937888, 0.011698246, 10.0388
266243272600590, 6.3684974, 0.27158538, 7.728817, 0.0065910816, 0.02294445, 10.018261
266243282241215, 6.38764, 0.26679972, 7.751549, 0.011765555, 0.02357006, 10.047834
266243291881944, 6.3744793, 0.28594232, 7.776674, -0.008897573, -0.0010986328, 10.059441
266243301522569, 6.3948183, 0.27038896, 7.806584, 0.006956771, -0.0049791336, 10.095023
266243311163194, 6.373283, 0.27158538, 7.77787, 0.004725039, -0.0024023056, 10.059213
266243320803819, 6.37089, 0.25722843, 7.751549, 0.019058675, 0.01263237, 10.036951
266243330444444, 6.381658, 0.26919255, 7.818548, 0.004963711, -0.019322395, 10.095905
266243340085069, 6.352944, 0.30269206, 7.838887, -0.030778557, -0.052192688, 10.094355
266243349725694, 6.375676, 0.30987054, 7.7347994, -0.034124047, 0.0343709, 10.028461
266243359366319, 6.38764, 0.3074777, 7.725228, -0.030890726, 0.04947424, 10.02857
266243369006944, 6.361319, 0.26919255, 7.751549, 0.0058103725, 0.009619713, 10.031212
266243378647673, 6.3996043, 0.26081768, 7.7682986, 0.016669549, 0.027328014, 10.068188
266243388288298, 6.422336, 0.2536392, 7.733603, 0.023557715, 0.06937313, 10.055546
266243397928923, 6.3792653, 0.25962126, 7.757531, 0.015052557, 0.021253586, 10.046942
266243407569548, 6.35773, 0.2739782, 7.793423, -0.0028751567, -0.01587677, 10.0614605
266243417210173, 6.393622, 0.27756742, 7.832905, -0.0053731427, -0.010996342, 10.114826
266243426850798, 6.352944, 0.29192436, 7.7814593, -0.021566868, -0.006851673, 10.049662
266243436491423, 6.3086767, 0.27038896, 7.7671022, -0.0030708313, -0.032680035, 10.00996
266243446132048, 6.337391, 0.27996024, 7.82453, -0.013071045, -0.046260357, 10.072828
266243455772778, 6.390033, 0.27756742, 7.830512, -0.0067456067, -0.009693146, 10.110704
266243465413403, 6.381658, 0.29790643, 7.8460655, -0.02844511, -0.024566174, 10.117988
266243475054028, 6.3804617, 0.317049, 7.7814593, -0.046130955, 0.017013073, 10.067747
266243484694653, 6.367301, 0.2847459, 7.752745, -0.013517037, 0.02298069, 10.036331
266243494335278, 6.3684974, 0.25962126, 7.789834, 0.011599854, -0.0022506714, 10.065117
266243503975903, 6.3457656, 0.20817557, 7.82453, 0.06172447, -0.046310425, 10.07618
266243513616528, 6.343373, 0.20817557, 7.7754774, 0.06194648, -0.015032291, 10.036717
266243523257153, 6.385247, 0.25124636, 7.7587276, 0.021162838, 0.0317235, 10.051414
266243532897882, 6.390033, 0.2548356, 7.765906, 0.017761841, 0.031087399, 10.060093
266243542538507, 6.3684974, 0.27876383, 7.7587276, -0.007325828, 0.020335197, 10.041555
266243552179132, 6.378069, 0.2883351, 7.7204423, -0.015581295, 0.05227518, 10.018241
266243561819757, 6.3948183, 0.2883351, 7.756335, -0.014897883, 0.042554855, 10.056616
266243571460382, 6.4008007, 0.30388847, 7.756335, -0.03002081, 0.046668053, 10.060827
266243581101007, 6.3948183, 0.32422748, 7.789834, -0.05108782, 0.021015167, 10.083515
266243590741632, 6.3768725, 0.2847459, 7.8089767, -0.012201652, -0.010651112, 10.085903
266243600382257, 6.3457656, 0.26799613, 7.789834, 0.0028668344, -0.02351904, 10.050945
266243610022882, 6.3278193, 0.2644069, 7.7994056, 0.005397007, -0.04525709, 10.046884
266243619663611, 6.334998, 0.25722843, 7.797013, 0.012555696, -0.039361, 10.049382
266243629304236, 6.350551, 0.28953153, 7.8077803, -0.01939413, -0.030841827, 10.068438
266243638944861, 6.3457656, 0.26679972, 7.8053875, 0.0036762506, -0.03283024, 10.062946
266243648585486, 6.363712, 0.25962126, 7.795816, 0.012072533, -0.013232231, 10.066711
266243658226111, 6.3888364, 0.24646074, 7.7874413, 0.027390368, 0.011903286, 10.07578
266243667866736, 6.3864436, 0.2428715, 7.7503524, 0.032047138, 0.033285618, 10.045471
266243677507361, 6.3804617, 0.276371, 7.753942, -0.0016168654, 0.028046131, 10.045372
266243687147986, 6.37089, 0.29312077, 7.7407813, -0.018201828, 0.02872467, 10.0295925
266243696788611, 6.3924255, 0.29910284, 7.743174, -0.02251266, 0.044348717, 10.04524
266243706429340, 6.393622, 0.3062813, 7.749156, -0.02917707, 0.041815758, 10.050821
266243716069965, 6.3768725, 0.2943172, 7.732406, -0.017388731, 0.038764954, 10.026935
266243725710590, 6.3696938, 0.28115666, 7.7994056, -0.005520448, -0.010668278, 10.07386
266243735351215, 6.352944, 0.24765715, 7.8484583, 0.025874287, -0.058678627, 10.100269
266243744991840, 6.3661046, 0.2620141, 7.8281193, 0.01367493, -0.033251286, 10.093271
266243754632465, 6.3696938, 0.26799613, 7.7503524, 0.0108085275, 0.019798756, 10.035552
266243764273090, 6.34098, 0.2883351, 7.733603, -0.011209905, 0.009731293, 10.004979
266243773913715, 6.3385873, 0.2548356, 7.771888, 0.023909882, -0.019364357, 10.032145
266243783554340, 6.3661046, 0.276371, 7.759924, 0.0046358407, 0.010975838, 10.040913
266243793195069, 6.363712, 0.2835495, 7.7706914, -0.0012490004, 0.00615263, 10.047927
266243802835694, 6.3565335, 0.3074777, 7.780263, -0.025782004, -0.0037679672, 10.051462
266243812476319, 6.3744793, 0.30987054, 7.789834, -0.02621521, 0.00438118, 10.070293
266243822116944, 6.3864436, 0.26679972, 7.7994056, 0.017388359, 0.004641533, 10.084059
266243831757569, 6.3828545, 0.27996024, 7.7742805, 0.005084902, 0.016234875, 10.062721
266243841398194, 6.398408, 0.31944183, 7.708478, -0.03187035, 0.0725193, 10.022776
266243851038819, 6.393622, 0.2955136, 7.722835, -0.008657858, 0.057780266, 10.03018
266243860679444, 6.3864436, 0.28713873, 7.780263, -0.0014801174, 0.014204025, 10.069826
266243870320069, 6.367301, 0.2548356, 7.816155, 0.028805196, -0.026372433, 10.084553
266243879960694, 6.3493547, 0.25124636, 7.798209, 0.032030642, -0.028514385, 10.059208
266243889601423, 6.326623, 0.26919255, 7.7790666, 0.013185561, -0.030964851, 10.030521
266243899242048, 6.375676, 0.3074777, 7.818548, -0.022529207, -0.014549255, 10.0932045
266243908882673, 6.3625154, 0.30269206, 7.816155, -0.017393216, -0.02297306, 10.08289
266243918523298, 6.35773, 0.3074777, 7.7407813, -0.020323955, 0.020859718, 10.021683
266243928163923, 6.352944, 0.30867413, 7.7001033, -0.020379186, 0.04114914, 9.9872265
266243937804548, 6.367301, 0.30269206, 7.728817, -0.013751373, 0.033730984, 10.018354
266243947445173, 6.3684974, 0.31944183, 7.7826557, -0.031958967, -0.0016069412, 10.061239
266243957085798, 6.378069, 0.3074777, 7.8173513, -0.019885391, -0.01630354, 10.09379
266243966726423, 6.3421764, 0.2727818, 7.806584, 0.012323603, -0.039776802, 10.061741
266243976367048, 6.3493547, 0.24765715, 7.7742805, 0.039340094, -0.012546539, 10.040586
266243986007673, 6.3696938, 0.25244278, 7.7886376, 0.0357531, -0.0055451393, 10.064707
266243995648298, 6.3768725, 0.26919255, 7.800602, 0.018785104, -0.005844593, 10.078987
266244005289028, 6.363712, 0.30987054, 7.743174, -0.021775007, 0.02297306, 10.027392
266244014929653, 6.378069, 0.32662028, 7.7156568, -0.036521673, 0.051032543, 10.01568
266244024570278, 6.3684974, 0.32542387, 7.6546397, -0.03477277, 0.08034897, 9.962405
266244034210903, 6.430711, 0.29072794, 7.84128, -5.6272745E-4, 0.0023908615, 10.145157
266244043851528, 6.337391, 0.32303107, 7.847262, -0.039114505, -0.07214451, 10.091562
266244053492153, 6.3421764, 0.28953153, 7.739585, -0.0035415739, -0.0022363663, 10.010404
266244063132778, 6.3864436, 0.2620141, 7.749156, 0.027323224, 0.026641369, 10.045063
266244072773403, 6.3361945, 0.2847459, 7.800602, 3.6097318E-4, -0.04312992, 10.053656
266244082414028, 6.375676, 0.30867413, 7.793423, -0.020943262, -0.006886959, 10.073803
266244092054653, 6.3960147, 0.31944183, 7.8173513, -0.029829942, -0.004468918, 10.105499
266244101695278, 6.3948183, 0.34217364, 7.8317084, -0.051615134, -0.012341499, 10.116503
266244111335903, 6.391229, 0.3074777, 7.789834, -0.016642563, 0.0096235275, 10.080848
266244120976528, 6.3864436, 0.2847459, 7.713264, 0.008701131, 0.054288864, 10.017941
266244130617257, 6.3828545, 0.24885355, 7.6977105, 0.045815542, 0.059156418, 10.002595
266244140257882, 6.3684974, 0.2321038, 7.7120676, 0.06192437, 0.03617525, 10.004124
266244149898507, 6.4055862, 0.25842485, 7.702496, 0.037090182, 0.06987524, 10.021004
266244159539132, 6.3792653, 0.276371, 7.7443705, 0.016528755, 0.024217129, 10.037223
266244169179757, 6.3385873, 0.29192436, 7.7706914, -0.0036094338, -0.023427486, 10.032248
266244178820382, 6.3625154, 0.3278167, 7.7886376, -0.038554654, -0.012788773, 10.062321
266244188461007, 6.3074803, -0.07298109, 7.725228, 0.3598851, -0.039562702, 9.96683
266244198101632, 6.413961, 0.8566305, 7.9357963, -0.56975317, -0.021199703, 10.223722
266244207742257, 6.2321067, -0.2105684, 7.598408, 0.4887097, -0.028944492, 9.817313
266244217382882, 6.4331036, 0.69152576, 7.972885, -0.4039032, -0.036022186, 10.259897
266244227023507, 6.29432, 0.16869399, 7.6678, 0.120719746, 0.0058016777, 9.921063
266244236664132, 6.3924255, 0.19262223, 7.7826557, 0.09969795, 0.010560513, 10.072731
266244246304757, 6.3792653, 0.6197411, 7.726424, -0.32517636, 0.07072258, 10.033245
266244255945382, 6.3254266, -0.28953153, 7.678568, 0.57514185, -0.011284351, 9.93601
266244265586007, 6.4761744, 0.95712906, 7.91785, -0.6555772, 0.0545125, 10.252636
266244275226632, 6.2775702, -0.45583272, 7.641479, 0.74520886, -0.034187317, 9.871748
266244284867257, 6.471389, 1.0217353, 7.9764743, -0.7336143, 0.013157368, 10.296049
266244294507882, 6.24766, -0.28115666, 7.5433736, 0.57121164, 0.02762413, 9.782013
266244304148507, 6.442675, 0.7286145, 7.946564, -0.43930158, -0.0068626404, 10.246648
266244313789132, 6.302695, 0.1268196, 7.643872, 0.15756129, 0.032783985, 9.906712
266244323429861, 6.3804617, 0.2739782, 7.8173513, 0.01718904, -0.0040364265, 10.094355
266244333070486, 6.3541408, 0.64008003, 7.7096744, -0.34725916, 0.07009888, 10.004917
266244342711111, 6.3326054, -0.1902294, 7.678568, 0.4845081, 0.013624668, 9.943015
266244352351736, 6.4151573, 0.9726824, 7.9680996, -0.67544055, -0.01988554, 10.253505
266244361992361, 6.2261243, -0.44865423, 7.6941214, 0.7361369, -0.09518576, 9.880004
266244371632986, 6.4474607, 0.9523434, 7.954939, -0.6620078, 0.027276993, 10.262493
266244381273611, 6.2321067, -0.40917268, 7.5637126, 0.6883896, -0.010127544, 9.7848015
266244390914236, 6.437889, 0.6891329, 8.012366, -0.3903901, -0.04641533, 10.293919
266244400554861, 6.229714, 0.011964113, 7.643872, 0.27367198, -0.021744728, 9.857124
266244410195486, 6.350551, 0.2835495, 7.8113694, 0.0043607056, -0.013471603, 10.071108
266244419836111, 6.3326054, 0.5407779, 7.6893353, -0.25057554, 0.068203926, 9.972602
266244429476736, 6.3110695, -0.16510476, 7.716853, 0.45063302, -0.016160011, 9.960089
266244439117361, 6.424729, 0.9236295, 7.9310107, -0.6262641, 0.018367767, 10.229302
266244448757986, 6.2787666, -0.4319045, 7.665407, 0.7225436, -0.040062428, 9.891624
266244458398611, 6.5084777, 1.0612168, 7.975278, -0.7668888, 0.07661486, 10.319763
266244468039236, 6.2644095, -0.33379877, 7.564909, 0.6271619, 0.020033836, 9.807568
266244477679861, 6.4295144, 0.8207382, 7.978867, -0.5324779, -0.015035152, 10.266003
266244487320486, 6.236892, -0.02751746, 7.6223364, 0.30741483, -0.015546799, 9.8440275
266244496961111, 6.3804617, 0.357727, 7.8580294, -0.063622236, -0.017012596, 10.128305
266244506601736, 6.3278193, 0.47258246, 7.704889, -0.18177584, 0.049569607, 9.979702
266244516242361, 6.303891, -0.18185452, 7.725228, 0.4673245, -0.04107046, 9.961485
266244525882986, 6.385247, 0.84347, 7.905886, -0.54849917, -0.013063431, 10.182575
266244535523611, 6.273981, -0.4534399, 7.649854, 0.7339307, -0.031714916, 9.876692
266244545164236, 6.501299, 1.0145568, 7.98126, -0.70936215, 0.058528423, 10.319404
266244554804861, 6.2512493, -0.4319045, 7.5732837, 0.7100898, -0.0026040077, 9.803829
266244564445486, 6.431907, 0.8315059, 7.972885, -0.54569685, -0.017654896, 10.263022
266244574086111, 6.245267, -0.050249275, 7.6390862, 0.336268, -0.020739079, 9.861441
266244583726736, 6.381658, 0.46181476, 7.880761, -0.16961387, -0.030135632, 10.149658
266244593367361, 6.3122663, 0.44745782, 7.6343007, -0.15971787, 0.07174015, 9.914475
266244603007986, 6.3290157, -0.058624156, 7.7001033, 0.34690017, 0.0053477287, 9.961482
266244612648611, 6.3924255, 0.85902333, 7.8352976, -0.57085836, 0.02709961, 10.132439
266244622289236, 6.285945, -0.424726, 7.6630144, 0.7060688, -0.020199776, 9.895269
266244631929861, 6.4977098, 1.0624132, 7.9070826, -0.7593305, 0.07242155, 10.261045
266244641570486, 6.2955165, -0.46779683, 7.624729, 0.7458698, 0.0032753944, 9.870791
266244651211111, 6.4498534, 0.8865408, 8.037491, -0.6051948, -0.06316042, 10.325579
266244660851736, 6.250053, -0.14476576, 7.6067834, 0.4270696, -0.013304234, 9.8369055
266244670492361, 6.445068, 0.42951167, 7.874779, -0.13735437, 0.008131981, 10.184135
266244680132986, 6.2919273, 0.34456646, 7.609176, -0.063922405, 0.047671318, 9.879286
266244689773611, 6.3684974, -0.0071784677, 7.753942, 0.28983867, -0.020586014, 10.029805
266244699414236, 6.4259253, 0.8219346, 7.850851, -0.53434956, 0.03166771, 10.164518
266244709054861, 6.3278193, -0.39481574, 7.6594253, 0.6704893, -0.022132397, 9.920381
266244718695486, 6.506085, 1.0229317, 7.9477606, -0.73959655, 0.035362244, 10.295347
266244728336111, 6.2668023, -0.4235296, 7.5517483, 0.7059241, 5.674362E-4, 9.79708
266244737976736, 6.4977098, 0.95353985, 7.9154572, -0.6716118, 0.03859234, 10.263107
266244747617361, 6.2787666, -0.16151553, 7.5960155, 0.43193236, -0.006198406, 9.84692
266244757257986, 6.430711, 0.54317075, 7.920243, -0.25643703, -0.057236195, 10.213241
266244766898611, 6.309873, 0.3062813, 7.6259255, -0.030262008, 0.024460316, 9.902603
266244776539236, 6.3804617, 0.029910283, 7.6977105, 0.25447816, 0.016580582, 9.995043
266244786179757, 6.418747, 0.71665037, 7.7994056, -0.42969775, 0.03472662, 10.11725
266244795820382, 6.2871413, -0.41874397, 7.698907, 0.6892636, -0.09692478, 9.924323
266244805461007, 6.448657, 0.95712906, 7.972885, -0.68019456, -0.023857117, 10.276428
266244815101632, 6.270392, -0.44865423, 7.580462, 0.71849227, -0.029729366, 9.82168
266244824742257, 6.4977098, 0.9834501, 7.9011, -0.68899214, 0.04610634, 10.253682
266244834382882, 6.263213, -0.19142582, 7.54457, 0.4617467, 0.007913113, 9.796517
266244844023507, 6.45105, 0.6125626, 7.9190464, -0.32364202, -0.031857967, 10.22726
266244853664132, 6.3254266, 0.2440679, 7.647461, 0.033309847, 0.018275738, 9.927376
266244863304757, 6.4091754, 0.106480606, 7.749156, 0.17922017, 0.009960175, 10.055151
266244872945382, 6.4271216, 0.701097, 7.765906, -0.41300467, 0.055427074, 10.096291
266244882586007, 6.314659, -0.37567315, 7.7036924, 0.65106994, -0.060300827, 9.946628
266244892226632, 6.465407, 0.96909314, 7.9597244, -0.6773905, -0.027531624, 10.278047
266244901867257, 6.259624, -0.4953143, 7.5529447, 0.777475, -0.01361084, 9.791351
266244911507882, 6.506085, 0.96430755, 7.9034934, -0.6811239, 0.04863882, 10.25953
266244921148507, 6.2751775, -0.24765715, 7.5230346, 0.5193004, 0.029003143, 9.785946
266244930789132, 6.485746, 0.68075806, 7.926225, -0.38882875, -0.011034012, 10.256805
266244940429757, 6.3541408, 0.22372891, 7.641479, 0.05535294, 0.04015112, 9.940457
266244950070382, 6.439086, 0.1591227, 7.813762, 0.12830533, -0.009067535, 10.125488
266244959710903, 6.3864436, 0.64845496, 7.763513, -0.36260873, 0.0079398155, 10.067163
266244969351528, 6.309873, -0.27876383, 7.6570325, 0.5567186, -0.03366804, 9.910162
266244978992153, 6.4498534, 0.9822537, 7.8963146, -0.68998986, -0.0010786057, 10.219645
266244988632778, 6.2727847, -0.44865423, 7.588837, 0.7214392, -0.025333405, 9.82947
266244998273403, 6.4941206, 0.96550393, 7.9130645, -0.66940105, 0.01238966, 10.260318
266245007914028, 6.2787666, -0.33260235, 7.495517, 0.6064343, 0.035015106, 9.764595
266245017554653, 6.4977098, 0.6652047, 7.87119, -0.3704625, 0.028279305, 10.221561
266245027195278, 6.3218374, 0.104087785, 7.5457664, 0.17250074, 0.060741425, 9.842846
266245036835903, 6.463014, 0.17826529, 7.8484583, 0.10620794, -0.02434969, 10.168026
266245046476528, 6.3792653, 0.64965135, 7.763513, -0.3759727, -0.0024271011, 10.062201
266245056117153, 6.3421764, -0.18065812, 7.706085, 0.44988903, -0.064379215, 9.971613
266245065757778, 6.468996, 0.971486, 7.91785, -0.6884326, -0.0024442673, 10.247444
266245075398403, 6.2548385, -0.49651068, 7.6343007, 0.755964, -0.12360954, 9.852173
266245085039028, 6.533602, 0.971486, 7.984849, -0.69402444, -0.0039172173, 10.339626
266245094679548, 6.3493547, -0.3469593, 7.661818, 0.61474365, -0.05134201, 9.937687
266245104320173, 6.5898337, 0.7728817, 7.8664045, -0.47407797, 0.09944773, 10.279539
266245113960798, 6.314659, 0.0011964113, 7.4715886, 0.28450766, 0.07524395, 9.778189
266245123601423, 6.452246, 0.26799613, 7.773084, 0.017295748, 0.005437374, 10.105631
266245133242048, 6.4175506, 0.56470615, 7.645068, -0.27809918, 0.08134651, 9.993344
266245142882673, 6.3960147, -0.20338993, 7.62114, 0.4919532, 0.016098022, 9.93931
266245152523298, 6.4558353, 0.9068798, 7.8699937, -0.61671317, -0.009979725, 10.200814
266245162163923, 6.302695, -0.45104706, 7.5936227, 0.7237583, -0.060638428, 9.852057
266245171804548, 6.506085, 1.006182, 7.8963146, -0.7097926, 0.021280766, 10.256173
266245181445173, 6.3074803, -0.4103691, 7.54457, 0.6835716, -0.02187872, 9.818629
266245191085798, 6.5001025, 0.77407813, 7.966903, -0.48177946, -0.051297188, 10.299871
266245200726319, 6.3086767, -0.03708875, 7.7012997, 0.30638915, -0.096553326, 9.950258
266245210366944, 6.4414787, 0.3278167, 7.8687973, -0.043633312, -0.07115126, 10.174042
266245220007569, 6.398408, 0.4941179, 7.648658, -0.21121277, 0.04751396, 9.981928
266245229648194, 6.391229, -0.08255238, 7.6390862, 0.36368427, 0.007616043, 9.953791
266245239288819, 6.4737816, 0.9343972, 7.8053875, -0.6501014, 0.026539803, 10.162858
266245248929444, 6.3493547, -0.40558344, 7.5996046, 0.6819289, -0.031532764, 9.887709
266245258570069, 6.558727, 1.0683953, 7.8831544, -0.77895474, 0.053246498, 10.2807045
266245268210694, 6.309873, -0.38165522, 7.4476604, 0.6594446, 0.04116726, 9.7463455
266245277851319, 6.526424, 0.85064846, 7.90469, -0.5627022, -0.0021100044, 10.270605
266245287491944, 6.314659, -0.07178468, 7.6402826, 0.3569888, -0.055752754, 9.905727
266245297132569, 6.4737816, 0.41754755, 7.8963146, -0.12502797, -0.06732178, 10.218407
266245306773090, 6.38764, 0.4139583, 7.7096744, -0.12956735, -0.012790203, 10.0197525
266245316413715, 6.418747, -0.16031912, 7.664211, 0.4482125, 0.003241539, 9.988255
266245326054340, 6.5072813, 0.8446664, 7.7647095, -0.5477667, 0.06508064, 10.151089
266245335694965, 6.3457656, -0.42711884, 7.615158, 0.71580756, -0.043233395, 9.895836
266245345335590, 6.521638, 1.006182, 7.9154572, -0.70755243, -0.012885094, 10.280945
266245354976215, 6.326623, -0.48215377, 7.5146594, 0.759746, -0.007030964, 9.805687
266245364616840, 6.546763, 0.8673982, 7.8723865, -0.56546974, 0.034244537, 10.259923
266245374257465, 6.3122663, -0.076570325, 7.5409803, 0.36380994, -0.012094021, 9.82774
266245383898090, 6.474978, 0.5312066, 7.879565, -0.24323377, -0.049054623, 10.209481
266245393538611, 6.375676, 0.41515473, 7.6737823, -0.12483972, -8.0251694E-4, 9.984636
266245403179236, 6.422336, -0.0035892338, 7.6809607, 0.29980165, -0.004404545, 10.007681
266245412819861, 6.471389, 0.8386843, 7.7479596, -0.53695667, 0.06330109, 10.1153755
266245422460486, 6.3361945, -0.36729828, 7.576873, 0.6537201, -0.03442049, 9.862187
266245432101111, 6.552745, 1.0372887, 7.9070826, -0.7381805, 0.040700912, 10.2951355
266245441741736, 6.3218374, -0.43669012, 7.5673018, 0.7339862, -0.043371677, 9.842752
266245451382361, 6.530013, 0.9056834, 7.928618, -0.6085497, 0.004453182, 10.293395
266245461022986, 6.3086767, -0.17706887, 7.5385876, 0.46380934, -0.010443211, 9.820684
266245470663611, 6.4941206, 0.5587241, 7.861619, -0.25343287, -0.014969349, 10.209133
266245480304132, 6.3924255, 0.33020952, 7.678568, -0.031805873, 0.004977703, 9.996574
266245489944757, 6.4558353, 0.051445685, 7.7312098, 0.24953698, -0.0027680397, 10.069248
266245499585382, 6.4761744, 0.7788638, 7.7300134, -0.4765423, 0.06417847, 10.10294
266245509226007, 6.35773, -0.3589234, 7.5469627, 0.6621478, 0.0154390335, 9.852285
266245518866632, 6.5455666, 1.0336994, 7.865208, -0.7315578, 0.03822136, 10.258549
266245528507257, 6.3218374, -0.4426722, 7.5409803, 0.7323006, 6.341934E-4, 9.823019
266245538147882, 6.5276203, 0.9595219, 7.895118, -0.6466918, -0.006300926, 10.26865
266245547788507, 6.3361945, -0.17706887, 7.5637126, 0.47812438, 0.0016608238, 9.856972
266245557429132, 6.498906, 0.6161518, 7.958528, -0.31551644, -0.07986736, 10.288231
266245567069653, 6.337391, 0.23330021, 7.7036924, 0.06588217, -0.05976963, 9.977771
266245576710278, 6.4438715, 0.061016977, 7.739585, 0.24417555, -0.011610985, 10.068197
266245586350903, 6.4366927, 0.6939186, 7.719246, -0.38688985, 0.040268898, 10.067172
266245595991528, 6.3493547, -0.31345975, 7.588837, 0.6176262, -0.010313511, 9.880358
266245605632153, 6.524031, 1.0468599, 7.88794, -0.74253833, 0.024961472, 10.262871
266245615272778, 6.3278193, -0.4019942, 7.548159, 0.695276, -0.00869751, 9.833317
266245624913403, 6.532406, 1.038485, 7.8281193, -0.73013663, 0.061800003, 10.222197
266245634554028, 6.330212, -0.18424734, 7.4883385, 0.49312428, 0.054180145, 9.794624
266245644194653, 6.5252275, 0.6735796, 7.966903, -0.35570538, -0.059396744, 10.313768
266245653835173, 6.3493547, 0.19621146, 7.725228, 0.10393334, -0.06540966, 10.000843
266245663475798, 6.4163537, 0.1363909, 7.7826557, 0.1700229, -0.051238537, 10.085953
266245673116423, 6.4175506, 0.63888365, 7.716853, -0.3338837, 0.02887106, 10.0514
266245682757048, 6.3589263, -0.35294133, 7.641479, 0.6580668, -0.03810215, 9.925634
266245692397673, 6.4773707, 0.95353985, 7.905886, -0.65322137, -0.026193619, 10.2440815
266245702038298, 6.2955165, -0.46181476, 7.5254273, 0.7638624, -0.02924776, 9.792574
266245711678923, 6.5479593, 1.0133604, 7.853244, -0.70614326, 0.087617874, 10.250357
266245721319548, 6.3278193, -0.25842485, 7.5326056, 0.5513813, 0.012782574, 9.825682
266245730960069, 6.5431733, 0.7860422, 7.8867435, -0.4698272, 0.035963535, 10.266919
266245740600694, 6.364908, 0.19740787, 7.628319, 0.10103226, 0.019985199, 9.93638
266245750241319, 6.45105, 0.23090738, 7.826923, 0.07520515, -0.037769318, 10.1451
266245759881944, 6.3924255, 0.5982057, 7.733603, -0.29507813, 0.005154133, 10.047014
266245769522569, 6.3493547, -0.25842485, 7.6570325, 0.55713594, -0.045291424, 9.934727
266245779163194, 6.463014, 0.95712906, 7.9393854, -0.6476949, -0.04309559, 10.261538
266245788803819, 6.2751775, -0.4546363, 7.649854, 0.7410374, -0.113155365, 9.87638
266245798444444, 6.472585, 0.97866446, 7.9597244, -0.6689342, -0.04100752, 10.283979
266245808084965, 6.2440705, -0.37686956, 7.5493555, 0.67317694, -0.073163986, 9.780834
266245817725590, 6.4977098, 0.7585248, 7.8963146, -0.44580564, 0.008509159, 10.244441
266245827366215, 6.334998, 0.096909314, 7.5433736, 0.20722288, 0.048294067, 9.848797
266245837006840, 6.4941206, 0.32422748, 7.783852, -0.012935281, 0.037445545, 10.142264
266245846647465, 6.4534426, 0.59342, 7.7503524, -0.28569746, 0.055481434, 10.098631
266245856288090, 6.4091754, -0.18544376, 7.685746, 0.48559815, -0.023519993, 9.997313
266245865928715, 6.4977098, 0.91884387, 7.8699937, -0.6066828, 0.0345273, 10.22898
266245875569340, 6.303891, -0.45702913, 7.6067834, 0.75616074, -0.07047939, 9.860747
266245885209965, 6.5072813, 0.98943216, 7.9537425, -0.6775851, -0.0064582825, 10.301774
266245894850486, 6.2775702, -0.39960137, 7.5326056, 0.6867119, -0.03679657, 9.789523
266245904491111, 6.502496, 0.7920243, 7.9011, -0.48063338, 0.011572361, 10.252122
266245914131736, 6.309873, 0.034695927, 7.5900335, 0.2557513, -0.008500576, 9.867058
266245923772361, 6.445068, 0.42951167, 7.856833, -0.13031997, -0.045200825, 10.17026
266245933412986, 6.393622, 0.5766702, 7.706085, -0.27715537, 0.022682667, 10.025835
266245943053611, 6.3972116, -0.086141616, 7.676175, 0.38604325, -0.00638628, 9.985305
266245952694236, 6.4773707, 0.951147, 7.8580294, -0.6481171, 0.0052933693, 10.207329
266245962334861, 6.320641, -0.44626144, 7.609176, 0.7509701, -0.036750317, 9.873394
266245971975486, 6.5288167, 1.0049855, 7.941778, -0.6882783, -0.011012554, 10.30696
266245981616007, 6.3074803, -0.4426722, 7.4656067, 0.74635124, 0.04245472, 9.754829
266245991256632, 6.5252275, 0.8279166, 7.9154572, -0.513546, -0.0048480034, 10.27885
266246000897257, 6.309873, -0.032303106, 7.6402826, 0.3215364, -0.04984188, 9.903717
266246010537882, 6.483353, 0.43908295, 7.8687973, -0.13276918, -0.032034874, 10.204214
266246020178507, 6.3948183, 0.4546363, 7.611569, -0.15319198, 0.068517685, 9.950287
266246029819132, 6.4295144, -0.10289137, 7.6271224, 0.40597147, 0.047007084, 9.96771
266246039459757, 6.515656, 0.83030945, 7.8173513, -0.51850635, 0.06273508, 10.197126
266246049100382, 6.3565335, -0.46779683, 7.641479, 0.7668538, -0.054201126, 9.920965
266246058741007, 6.491728, 0.9762716, 7.966903, -0.68431175, -0.039124012, 10.300358
266246068381528, 6.2751775, -0.45822555, 7.570891, 0.73939204, -0.065182686, 9.816072
266246078022153, 6.4761744, 0.8650054, 7.972885, -0.5641794, -0.057393074, 10.292444
266246087662778, 6.2871413, -0.104087785, 7.600801, 0.384858, -0.043379784, 9.857037
266246097303403, 6.478567, 0.5168497, 7.895118, -0.22221042, -0.0286026, 10.223583
266246106944028, 6.3696938, 0.45942193, 7.664211, -0.1666758, 0.032534122, 9.974736
266246116584653, 6.4163537, 0.033499517, 7.6749787, 0.26907697, 0.024568558, 10.000151
266246126225278, 6.501299, 0.86859465, 7.8257265, -0.5655662, 0.06927967, 10.195032
266246135865903, 6.3601227, -0.3361916, 7.631908, 0.6285144, -0.019509792, 9.920423
266246145506528, 6.5228343, 1.0636097, 7.945368, -0.7515972, 0.028877258, 10.307365
266246155147048, 6.2715883, -0.46061835, 7.5864444, 0.75954604, -0.056262493, 9.824411
266246164787673, 6.4737816, 0.8554341, 7.9764743, -0.5457754, -0.053197384, 10.293934
266246174428298, 6.2931237, -0.22372891, 7.6223364, 0.5120465, -0.046684265, 9.873657
266246184068923, 6.4797635, 0.485743, 7.905886, -0.17802559, -0.026198387, 10.232006
266246193709548, 6.3182483, 0.26799613, 7.6343007, 0.029124841, 0.010858536, 9.913307
266246203350173, 6.4343, 0.023928227, 7.7216387, 0.2790556, 0.027511597, 10.047182
266246212990798, 6.4606214, 0.7956135, 7.7706914, -0.49031475, 0.07716513, 10.124718
266246222631423, 6.363712, -0.28953153, 7.60798, 0.5981984, 0.021019936, 9.904732
266246232272048, 6.509674, 1.0779666, 7.9357963, -0.7705084, 0.037165165, 10.291729
266246241912673, 6.3158555, -0.39720857, 7.550552, 0.70796144, 0.005895138, 9.826363
266246251553194, 6.5276203, 0.9726824, 7.945368, -0.6618486, 0.040431976, 10.307528
266246261193819, 6.2847486, -0.1902294, 7.5696945, 0.48732966, -0.010997772, 9.828374
266246270834444, 6.485746, 0.60658056, 7.908279, -0.28827396, 0.0046844482, 10.2416115
266246280475069, 6.306284, 0.2847459, 7.664211, 0.016619533, -0.0072689056, 9.9292555
266246290115694, 6.361319, 0.11844472, 7.7706914, 0.1882239, -0.047328472, 10.041233
266246299756319, 6.3744793, 0.75254273, 7.832905, -0.44357866, -0.022497177, 10.117184
266246309396944, 6.273981, -0.29312077, 7.7240314, 0.59793305, -0.11285162, 9.936759
266246319037569, 6.4438715, 1.0480564, 8.015956, -0.74141085, -0.061026096, 10.311356
266246328678194, 6.239285, -0.4331009, 7.6307116, 0.7432554, -0.07115793, 9.838013
266246338318819, 6.489335, 1.0468599, 7.9501534, -0.7327794, 0.011116028, 10.28957
266246347959444, 6.2871413, -0.1591227, 7.519445, 0.4630791, 0.05569887, 9.79173
266246357600069, 6.4941206, 0.7609176, 7.8556366, -0.4332668, 0.051526546, 10.211428
266246367240590, 6.3314085, 0.25722843, 7.661818, 0.053633865, 0.020692825, 9.942487
266246376881215, 6.4008007, 0.15553348, 7.8580294, 0.16145226, -0.059137344, 10.134768
266246386521840, 6.393622, 0.64845496, 7.7742805, -0.32982907, 0.013953686, 10.081137
266246396162465, 6.303891, -0.3397808, 7.641479, 0.64790493, -0.023549557, 9.89072
266246405803090, 6.4462643, 0.9320044, 7.954939, -0.62241405, -0.031257153, 10.262341
266246415443715, 6.2524457, -0.5168497, 7.6977105, 0.81228966, -0.12803698, 9.8964
266246425084340, 6.472585, 0.9595219, 7.999206, -0.651397, -0.031426907, 10.313925
266246434724965, 6.263213, -0.30269206, 7.5756764, 0.6124423, -0.023623943, 9.815024
266246444365590, 6.4941206, 0.71306115, 7.9238324, -0.3897785, 0.017440319, 10.262405
266246454006215, 6.330212, 0.13878371, 7.649854, 0.16768906, 0.014175892, 9.928887
266246463646840, 6.4235325, 0.24047868, 7.8352976, 0.07363078, -0.02499628, 10.13437
266246473287465, 6.378069, 0.66759753, 7.773084, -0.35484418, 0.022636414, 10.070744
266246482927986, 6.3385873, -0.19381863, 7.6953177, 0.50111437, -0.04425907, 9.95892
266246492568611, 6.4462643, 1.0037891, 7.928618, -0.6822276, 0.005988598, 10.244971
266246502209236, 6.2548385, -0.41156548, 7.631908, 0.7216268, -0.08279848, 9.849407
266246511849861, 6.4642105, 1.018146, 7.9657063, -0.7061726, 0.004108429, 10.284768
266246521490486, 6.2416778, -0.3469593, 7.5613194, 0.6579547, -0.029641628, 9.7887
266246531131111, 6.4821568, 0.75972116, 7.9740815, -0.4470451, -0.018061161, 10.294724
266246540771736, 6.2979093, 0.11964113, 7.678568, 0.19057249, -0.024508953, 9.929827
266246550412361, 6.4295144, 0.31585258, 7.8496547, 0.0014176667, -0.016182423, 10.151612
266246560052986, 6.3661046, 0.60658056, 7.698907, -0.29267392, 0.05088997, 10.004005
266246569693611, 6.3744793, -0.14596218, 7.685746, 0.45737132, 0.00987196, 9.975805
266246579334236, 6.474978, 0.9762716, 7.911868, -0.65408504, 0.014688969, 10.249296
266246588974861, 6.3074803, -0.43429732, 7.6223364, 0.73713154, -0.02392912, 9.875678
266246598615486, 6.5204415, 1.0432707, 7.9393854, -0.7175432, 0.01607132, 10.301617
266246608256111, 6.2955165, -0.37208393, 7.520642, 0.68258256, 0.028269768, 9.791082
266246617896736, 6.515656, 0.7908279, 7.9334035, -0.46898916, 0.0015034676, 10.285821
266246627537361, 6.302695, 0.015553347, 7.685746, 0.28168035, -0.048399925, 9.935453
266246637177882, 6.4151573, 0.3182454, 7.874779, -0.009196579, -0.0683012, 10.161837
266246646818507, 6.3804617, 0.4642076, 7.6809607, -0.15977673, 0.03543663, 9.994805
266246656459132, 6.424729, -0.13878371, 7.6869426, 0.44344306, 0.04038143, 10.009357
266246666099757, 6.4737816, 0.9391829, 7.877172, -0.6366638, -0.0062241554, 10.219412
266246675740382, 6.3134627, -0.34576288, 7.5960155, 0.6493271, -0.023378372, 9.861878
266246685381007, 6.501299, 1.1306087, 7.9166536, -0.82867134, -0.0063467026, 10.27287
266246695021632, 6.290731, -0.32662028, 7.568498, 0.6284324, -0.0326972, 9.826807
266246704662257, 6.524031, 0.8458628, 7.9764743, -0.5318322, -0.036585808, 10.325619
266246714302882, 6.3397837, -0.09810573, 7.658229, 0.39074746, -0.034857273, 9.934638
266246723943507, 6.5443697, 0.3589234, 7.8580294, -0.053994857, 0.021465778, 10.232443
266246733584132, 6.5252275, 0.40677986, 7.631908, -0.09505488, 0.15403652, 10.047752
266246743224757, 6.5455666, -0.148355, 7.649854, 0.45889106, 0.10989332, 10.058036
266246752865382, 6.562316, 0.83748794, 7.698907, -0.5277173, 0.16957712, 10.135645
266246762506007, 6.37089, -0.40438703, 7.5062847, 0.69991565, 0.035287857, 9.828781
266246772146632, 6.502496, 1.0444671, 7.893922, -0.7331685, 0.02207756, 10.254235
266246781787257, 6.262017, -0.3924229, 7.570891, 0.6931667, -0.06910992, 9.80816
266246791427882, 6.5108705, 0.9607183, 7.972885, -0.6455151, -0.03848982, 10.318098
266246801068507, 6.282356, -0.01794617, 7.690532, 0.31081945, -0.08934641, 9.92512
266246810709132, 6.4343, 0.48215377, 7.9920278, -0.16927564, -0.123312, 10.269436
266246820349757, 6.3290157, 0.37208393, 7.63789, -0.062764645, 0.024667263, 9.926112
266246829990382, 6.3074803, -0.0047856453, 7.7479596, 0.31605595, -0.07457304, 9.985477
266246839631007, 6.343373, 0.80877405, 7.9130645, -0.50082725, -0.09744215, 10.16114
266246849271632, 6.2775702, -0.43788654, 7.7120676, 0.7424081, -0.092831135, 9.925514
266246858912257, 6.491728, 1.0432707, 7.9704924, -0.7276674, -0.0036821365, 10.306803
266246868552882, 6.2751775, -0.37567315, 7.556534, 0.67970157, 0.011046886, 9.806022
266246878193507, 6.5168524, 0.9726824, 7.9369926, -0.65084314, 0.046586514, 10.2949295
266246887834132, 6.3014984, -0.08015956, 7.554141, 0.40256006, 0.049699783, 9.829334
266246897474757, 6.463014, 0.6125626, 7.8963146, -0.28280133, 0.004087448, 10.2184925
266246907115382, 6.309873, 0.38644084, 7.665407, -0.06890611, 0.021316528, 9.935649
266246916756007, 6.32423, 0.04546363, 7.7647095, 0.2792475, -0.042951584, 10.010437
266246926396632, 6.3457656, 0.77766734, 7.8556366, -0.4556531, -0.031354904, 10.118099
266246936037257, 6.256035, -0.3469593, 7.7120676, 0.66198814, -0.08788061, 9.914051
266246945677882, 6.4438715, 1.0492527, 8.000402, -0.71268904, -0.026875496, 10.301563
266246955318507, 6.2237315, -0.44506502, 7.6019974, 0.76912546, -0.03951025, 9.804599
266246964959132, 6.4570317, 1.0049855, 7.9980097, -0.6665739, -0.024938107, 10.3066225
266246974599757, 6.2261243, -0.1268196, 7.618747, 0.44774312, -0.030766964, 9.8297825
266246984240382, 6.4008007, 0.6472585, 7.9800634, -0.31741747, -0.078038216, 10.245184
266246993880903, 6.256035, 0.2943172, 7.7300134, 0.02220036, -0.056450367, 9.94857
266247003521528, 6.3254266, 0.08733802, 7.8376904, 0.23172106, -0.085072994, 10.0691185
266247013162257, 6.373283, 0.7262217, 7.838887, -0.4039802, -0.009790897, 10.120822
266247022802882, 6.290731, -0.37686956, 7.732406, 0.69069326, -0.078639984, 9.95099
266247032443507, 6.4474607, 0.99900347, 7.9657063, -0.69050014, -0.034439564, 10.273375
266247042084028, 6.2931237, -0.46181476, 7.624729, 0.7619003, -0.027173042, 9.867722
266247051724653, 6.5168524, 0.9762716, 7.9836526, -0.65389395, -0.0016670227, 10.331196
266247061365382, 6.296713, -0.25962126, 7.5696945, 0.55595255, 0.008942604, 9.833977
266247071006007, 6.5288167, 0.67118675, 7.9034934, -0.35287637, 0.028580666, 10.26722
266247080646632, 6.418747, 0.2416751, 7.611569, 0.063593686, 0.097298145, 9.958977
266247090287257, 6.538388, 0.19381863, 7.7347994, 0.12031308, 0.092535496, 10.1287775
266247099927882, 6.538388, 0.7262217, 7.702496, -0.4140281, 0.14307117, 10.120005
266247109568507, 6.439086, -0.2536392, 7.5792656, 0.565532, 0.06153822, 9.932159
266247119209132, 6.550352, 1.0432707, 7.8281193, -0.7235453, 0.105193615, 10.234276
266247128849757, 6.3361945, -0.43908295, 7.4739814, 0.7338288, 0.030433655, 9.780651
266247138490382, 6.550352, 1.0145568, 7.8556366, -0.6960346, 0.07517862, 10.254625
266247148131007, 6.323034, -0.29072794, 7.576873, 0.5911406, -0.030055523, 9.855148
266247157771632, 6.519245, 0.69152576, 8.005188, -0.38314342, -0.08025694, 10.33966
266247167412257, 6.3326054, 0.032303106, 7.706085, 0.26294994, -0.07851505, 9.970526
266247177052882, 6.4235325, 0.40797627, 7.8436728, -0.112575755, -0.069404125, 10.145636
266247186693507, 6.418747, 0.32183465, 7.7850485, -0.025152147, -0.042437077, 10.094971
266247196334132, 6.407979, 0.31345975, 7.7994056, -0.015600473, -0.060995102, 10.098873
266247205974757, 6.4199433, 0.26081768, 7.7144604, 0.040106714, -0.0015258789, 10.03967
266247215615382, 6.458228, 0.27038896, 7.7001033, 0.033106126, 0.03774357, 10.053401
266247225256007, 6.471389, 0.27038896, 7.6893353, 0.03399335, 0.054184914, 10.053546
266247234896632, 6.4701924, 0.28115666, 7.6833534, 0.022290707, 0.05727625, 10.0485115
266247244537257, 6.4701924, 0.27517462, 7.7001033, 0.027974285, 0.04486513, 10.061207
266247254177882, 6.4474607, 0.31106696, 7.726424, -0.009466633, 0.011751175, 10.067966
266247263818507, 6.4498534, 0.3385844, 7.7479596, -0.035539508, 0.005642414, 10.086864
266247273459132, 6.4008007, 0.36131623, 7.739585, -0.058917385, -0.02314949, 10.049775
266247283099757, 6.3684974, 0.3505485, 7.756335, -0.04802099, -0.055644512, 10.041712
266247292740382, 6.37089, 0.31944183, 7.776674, -0.015544347, -0.06428146, 10.0579605
266247302381007, 6.393622, 0.28953153, 7.786245, 0.015840955, -0.050638676, 10.078939
266247312021632, 6.407979, 0.24646074, 7.8149586, 0.05903557, -0.060750484, 10.108874
266247321662257, 6.407979, 0.25244278, 7.810173, 0.050934196, -0.053858757, 10.105406
266247331302882, 6.4331036, 0.22492532, 7.7742805, 0.07980135, -0.01436758, 10.092981
266247340943507, 6.430711, 0.27517462, 7.776674, 0.027984276, -0.016218185, 10.094817
266247350584236, 6.4235325, 0.30987054, 7.7001033, -0.0057628006, 0.029485703, 10.0323715
266247360224861, 6.424729, 0.33379877, 7.6773715, -0.029018402, 0.04597187, 10.016369
266247369865486, 6.418747, 0.33379877, 7.6713896, -0.028233409, 0.04483509, 10.007955
266247379506111, 6.431907, 0.33140594, 7.7276206, -0.023625344, 0.019939423, 10.059544
266247389146736, 6.4295144, 0.34337005, 7.756335, -0.036265597, 4.3582916E-4, 10.080476
266247398787361, 6.4366927, 0.31226337, 7.7682986, -0.0039268136, 5.645752E-4, 10.093313
266247408427986, 6.4127645, 0.2883351, 7.780263, 0.018008165, -0.025273323, 10.086536
266247418068611, 6.3960147, 0.29790643, 7.8173513, 0.007254854, -0.061261177, 10.104698
266247427709236, 6.4055862, 0.3278167, 7.783852, -0.022790432, -0.028062344, 10.085933
266247437349861, 6.391229, 0.3684947, 7.7503524, -0.06362323, -0.014806271, 10.052228
266247446990486, 6.3661046, 0.36729828, 7.751549, -0.063811325, -0.03507042, 10.037102
266247456631111, 6.407979, 0.34217364, 7.746763, -0.034931287, -1.5592575E-4, 10.059343
266247466271736, 6.431907, 0.32662028, 7.7551384, -0.01643154, 0.014260769, 10.080566
266247475912361, 6.4271216, 0.29910284, 7.756335, 0.011448383, 0.009446621, 10.077594
266247485552986, 6.428318, 0.27756742, 7.7671022, 0.033138886, 0.0041422844, 10.085985
266247495193715, 6.40439, 0.24885355, 7.7383885, 0.060617805, 0.0014243126, 10.047743
266247504834340, 6.413961, 0.23569304, 7.7742805, 0.073122606, -0.014601707, 10.081088
266247514474965, 6.439086, 0.3062813, 7.7790666, 0.0025607198, 0.008265018, 10.102942
266247524115590, 6.3888364, 0.30149564, 7.7479596, 0.0044546276, -0.011212349, 10.046833
266247533756215, 6.3589263, 0.32063824, 7.77787, -0.017529413, -0.052069664, 10.051418
266247543396840, 6.375676, 0.33738798, 7.818548, -0.032329485, -0.064241886, 10.093939
266247553037465, 6.407979, 0.34456646, 7.793423, -0.036149107, -0.022424221, 10.095374
266247562678090, 6.4031935, 0.36251262, 7.737192, -0.052398868, 0.010820389, 10.049557
266247572318715, 6.4055862, 0.38644084, 7.728817, -0.07598993, 0.019440651, 10.045363
266247581959340, 6.4151573, 0.37806597, 7.7156568, -0.06584875, 0.034101963, 10.041068
266247591599965, 6.424729, 0.31345975, 7.749156, 1.269728E-4, 0.01704216, 10.070974
266247601240590, 6.4295144, 0.29192436, 7.773084, 0.021976471, 0.005010128, 10.091789
266247610881319, 6.4354963, 0.28115666, 7.8077803, 0.03189478, -0.01087141, 10.122004
266247620521944, 6.398408, 0.22731815, 7.820941, 0.08287449, -0.050031662, 10.106882
266247630162569, 6.384051, 0.23688944, 7.8233337, 0.07237771, -0.062045574, 10.099886
266247639803194, 6.4163537, 0.29072794, 7.752745, 0.0204692, 0.011481285, 10.067701
266247649443819, 6.3792653, 0.29790643, 7.7216387, 0.01090426, 0.0022540092, 10.020348
266247659084444, 6.381658, 0.3278167, 7.7443705, -0.01890605, -0.01148653, 10.04031
266247668725069, 6.4235325, 0.33738798, 7.732406, -0.026406644, 0.026668072, 10.058046
266247678365694, 6.418747, 0.31106696, 7.735996, -1.9711442E-6, 0.018929958, 10.056955
266247688006319, 6.384051, 0.3062813, 7.753942, 0.002899412, -0.021089554, 10.048535
266247697646944, 6.401997, 0.28594232, 7.757531, 0.023406161, -0.010941029, 10.062103
266247707287673, 6.4031935, 0.30867413, 7.783852, -6.108172E-4, -0.027224064, 10.0838375
266247716928298, 6.413961, 0.32303107, 7.7886376, -0.014619678, -0.021195412, 10.094824
266247726568923, 6.4498534, 0.3361916, 7.759924, -0.025823317, 0.024239063, 10.09598
266247736209548, 6.4570317, 0.36011982, 7.6713896, -0.047627456, 0.08690071, 10.0331135
266247745850173, 6.4642105, 0.3505485, 7.6713896, -0.03756518, 0.09020376, 10.037409
266247755490798, 6.4402823, 0.33738798, 7.7240314, -0.026363894, 0.03419733, 10.0623
266247765131423, 6.4259253, 0.33738798, 7.746763, -0.026918828, 0.005683899, 10.070648
266247774772048, 6.437889, 0.33260235, 7.7886376, -0.02176468, -0.012339115, 10.110357
266247784412778, 6.410372, 0.30149564, 7.826923, 0.0081713125, -0.05579424, 10.121329
266247794053403, 6.413961, 0.2943172, 7.7910304, 0.016615711, -0.028655052, 10.095772
266247803694028, 6.4163537, 0.27038896, 7.746763, 0.041555893, -1.6975403E-4, 10.062471
266247813334653, 6.4259253, 0.2727818, 7.7156568, 0.039865818, 0.027086735, 10.044699
266247822975278, 6.4498534, 0.30269206, 7.6977105, 0.010586198, 0.052397728, 10.047094
266247832615903, 6.4414787, 0.34576288, 7.7240314, -0.03306085, 0.031206131, 10.063339
266247842256528, 6.4402823, 0.33020952, 7.6833534, -0.01725573, 0.05215454, 10.030811
266247851897153, 6.411568, 0.30987054, 7.733603, 0.0021630228, -0.0072336197, 10.050512
266247861537882, 6.4259253, 0.33499518, 7.7300134, -0.021971323, 0.0074677467, 10.057699
266247871178507, 6.45105, 0.29671, 7.756335, 0.018167302, 0.008079529, 10.092789
266247880819132, 6.4331036, 0.3397808, 7.749156, -0.024815321, 0.0049061775, 10.077156
266247890459757, 6.418747, 0.35653058, 7.789834, -0.042636603, -0.03126812, 10.099811
266247900100382, 6.398408, 0.33499518, 7.793423, -0.022423051, -0.050661564, 10.088917
266247909741007, 6.422336, 0.3278167, 7.7826557, -0.012725472, -0.026847363, 10.095678
266247919381632, 6.3972116, 0.3469593, 7.771888, -0.033444613, -0.039315224, 10.071955
266247929022257, 6.3696938, 0.31106696, 7.6953177, 9.914562E-4, -0.014518738, 9.994371
266247938662986, 6.398408, 0.29072794, 7.7300134, 0.022154912, -0.01776743, 10.038749
266247948303611, 6.4211397, 0.2644069, 7.733603, 0.049993463, -0.004126072, 10.055201
266247957944236, 6.40439, 0.2644069, 7.728817, 0.047071084, -0.013083935, 10.040834
266247967584861, 6.4008007, 0.26081768, 7.7407813, 0.05024159, -0.023614883, 10.047631
266247977225486, 6.4235325, 0.2727818, 7.7814593, 0.036464214, -0.029932976, 10.093815
266247986866111, 6.442675, 0.29671, 7.8113694, 0.012298912, -0.032756805, 10.129776
266247996506736, 6.4414787, 0.2943172, 7.7874413, 0.015150547, -0.01859188, 10.110537
266248006147465, 6.4414787, 0.33260235, 7.7144604, -0.020987406, 0.029916763, 10.055588
266248015788090, 6.4570317, 0.3361916, 7.6570325, -0.022159457, 0.07389307, 10.0215
266248025428715, 6.448657, 0.37208393, 7.6402826, -0.0582204, 0.080730915, 10.004381
266248035069340, 6.463014, 0.38404804, 7.688139, -0.07047008, 0.059387684, 10.050722
266248044709965, 6.463014, 0.36490545, 7.7682986, -0.05210966, 0.004822254, 10.111747
266248054350590, 6.4259253, 0.3493521, 7.7240314, -0.037383825, 0.004902363, 10.053547
266248063991215, 6.4331036, 0.3361916, 7.746763, -0.024249882, -0.005121708, 10.075196
266248073631944, 6.4498534, 0.33499518, 7.800602, -0.021432653, -0.025474072, 10.127247
266248083272569, 6.4534426, 0.34456646, 7.7754774, -0.029439215, -0.0066156387, 10.110527
266248092913194, 6.4331036, 0.33738798, 7.743174, -0.023210138, -0.0018496513, 10.072479
266248102553819, 6.413961, 0.30867413, 7.696514, 0.0057587177, 0.010494232, 10.023491
266248112194444, 6.4211397, 0.2883351, 7.708478, 0.0258703, 0.0065846443, 10.036638
266248121835069, 6.4343, 0.2835495, 7.7312098, 0.030575484, 0.0026164055, 10.06237
266248131475694, 6.4163537, 0.2656033, 7.7276206, 0.04737839, -0.009874821, 10.047585
266248141116423, 6.422336, 0.2548356, 7.7216387, 0.058155306, 1.1777878E-4, 10.046475
