timestamp_acc,device_acc_x,device_acc_y,device_acc_z,earth_acc_x,earth_acc_y,earth_acc_z
271464093578859, 5.5334024, 0.0035892338, 8.338987, -0.020787716, 0.018136203, 10.007822
271464103219067, 5.535795, 0.008374879, 8.408379, 0.013341427, 0.006506413, 10.06706
271464112859172, 5.535795, 0.040677983, 8.472985, 0.044540882, -0.03011334, 10.121033
271464122499380, 5.517849, 0.015553347, 8.487342, 0.06775236, -0.006934583, 10.123104
271464132139484, 5.503492, 0.010767702, 8.5016985, 0.08798599, -0.004053533, 10.127176
271464141779692, 5.515456, 0.010767702, 8.484949, 0.06766844, -0.0019619465, 10.11979
271464151419901, 5.517849, 0.031106694, 8.463413, 0.050147057, -0.019144535, 10.103174
271464161060005, 5.5429735, 0.04426722, 8.407183, -0.004053116, -0.026218891, 10.070082
271464170700213, 5.584848, 0.06819545, 8.397611, -0.04616928, -0.044881552, 10.085181
271464180340422, 5.599205, 0.06819545, 8.3784685, -0.06753206, -0.040942848, 10.077114
271464189980526, 5.582455, 0.046660043, 8.346166, -0.06878233, -0.01977697, 10.040883
271464199620734, 5.535795, 0.031106694, 8.35454, -0.021665573, -0.008317947, 10.022166
271464209260942, 5.56092, 0.010767702, 8.376076, -0.026120186, 0.012191385, 10.053943
271464218901047, 5.5429735, -0.01794617, 8.376076, -0.0055732727, 0.037808865, 10.044007
271464228541255, 5.511867, -0.0526421, 8.389236, 0.030620575, 0.069396794, 10.037779
271464238181463, 5.5190454, -0.049052864, 8.389236, 0.023203373, 0.06477028, 10.041754
271464247821567, 5.508278, -0.061016977, 8.390432, 0.034115314, 0.07573998, 10.036797
271464257461776, 5.517849, -0.01794617, 8.4012, 0.026794434, 0.03248611, 10.051138
271464267101984, 5.558527, 0.040677983, 8.411968, -0.007707119, -0.02444604, 10.082632
271464276742088, 5.5573306, 0.076570325, 8.410771, -0.0109062195, -0.061115503, 10.081023
271464286382297, 5.584848, 0.08733802, 8.397611, -0.042531013, -0.06882271, 10.085211
271464296022401, 5.582455, 0.101694964, 8.402397, -0.037285805, -0.08258414, 10.087924
271464305662609, 5.5573306, 0.07537391, 8.383254, -0.023186207, -0.056231618, 10.058075
271464315302817, 5.5573306, 0.025124637, 8.350951, -0.036429405, -0.0048004985, 10.031032
271464324942922, 5.5262237, -0.014356935, 8.319844, -0.023543358, 0.03465259, 9.987864
271464334583130, 5.4963136, -0.04546363, 8.306684, -5.264282E-4, 0.062966615, 9.96035
271464344223338, 5.517849, -0.059820566, 8.299505, -0.019693375, 0.077632666, 9.966225
271464353863442, 5.487939, -0.050249275, 8.295917, 0.0025987625, 0.064723074, 9.94676
271464363503651, 5.5130634, -0.03708875, 8.306684, -0.013504505, 0.052948326, 9.969616
271464373143859, 5.5369916, -0.021535404, 8.289934, -0.04844904, 0.038913637, 9.968845
271464382783963, 5.538188, 0.02632105, 8.315059, -0.039379597, -0.009568721, 9.990535
271464392424172, 5.5513487, 0.059820566, 8.330612, -0.049325466, -0.041855216, 10.010794
271464402064276, 5.5573306, 0.0741775, 8.3581295, -0.04240179, -0.05605328, 10.037073
271464411704484, 5.538188, 0.0634098, 8.433503, 0.015609264, -0.050106347, 10.08944
271464421344692, 5.5274205, 0.05742774, 8.444271, 0.026416779, -0.042621136, 10.092515
271464430984797, 5.538188, 0.05503492, 8.472985, 0.03340006, -0.040742815, 10.122413
271464440625005, 5.5202417, 0.04546363, 8.496913, 0.058931828, -0.032285422, 10.132528
271464450265213, 5.532206, 0.0047856453, 8.469396, 0.030635834, 0.013961852, 10.11607
271464459905317, 5.528617, 0.0071784677, 8.4813595, 0.03999567, 0.010587603, 10.124101
271464469545526, 5.5573306, 0.022731815, 8.4705925, 0.0073599815, -0.0010458231, 10.13091
271464479185734, 5.581259, 0.032303106, 8.420342, -0.04179716, -0.0049538612, 10.102075
271464488825838, 5.5716877, 0.0047856453, 8.4012, -0.04186201, 0.023120195, 10.080755
271464498466047, 5.5274205, -0.05383851, 8.376076, -0.01305151, 0.07990378, 10.035307
271464508106255, 5.517849, -0.08255238, 8.374879, -0.0038275719, 0.10731867, 10.028985
271464517746359, 5.4891353, -0.078963146, 8.414361, 0.041288853, 0.09812367, 10.046242
271464527386567, 5.5130634, -0.041874398, 8.437093, 0.030999184, 0.057283223, 10.078487
271464537026776, 5.4963136, -0.0059820567, 8.43111, 0.038396835, 0.020564377, 10.064355
271464546666880, 5.511867, 0.043070808, 8.396415, -0.0010771751, -0.024884492, 10.043987
271464556307088, 5.541777, 0.083748795, 8.368897, -0.047058582, -0.059045225, 10.037482
271464565947192, 5.5094743, 0.10767702, 8.333005, -0.041625023, -0.084159106, 9.989799
271464575587401, 5.48076, 0.12801601, 8.3581295, -0.0048627853, -0.10613221, 9.995108
271464585227609, 5.501099, 0.12921242, 8.365308, -0.016480446, -0.10422, 10.012294
271464594867713, 5.4819565, 0.09571291, 8.3581295, -0.0016951561, -0.06955513, 9.995724
271464604507922, 5.51426, 0.021535404, 8.394022, -0.0021357536, 0.0050694942, 10.043261
271464614148130, 5.521438, -0.020338992, 8.427522, 0.0114068985, 0.046310842, 10.075095
271464623788234, 5.5513487, -0.040677983, 8.419147, -0.017914772, 0.06879732, 10.08445
271464633428442, 5.5573306, -0.061016977, 8.413164, -0.025522709, 0.08944923, 10.082674
271464643068651, 5.56092, -0.039481573, 8.380861, -0.048211098, 0.069951236, 10.057684
271464652708755, 5.534599, 0.008374879, 8.353344, -0.045690536, 0.022298574, 10.020361
271464662348963, 5.4927244, 0.059820566, 8.335398, -0.026512623, -0.028723687, 9.982532
271464671989172, 5.473582, 0.08973085, 8.32463, -0.020092964, -0.058649868, 9.9631195
271464681629276, 5.474778, 0.10767702, 8.3784685, 0.006755829, -0.0784404, 10.0088625
271464691269484, 5.485546, 0.0849452, 8.4502535, 0.038244724, -0.058021903, 10.07474
271464700909692, 5.5046883, 0.07298109, 8.489735, 0.044346333, -0.046329826, 10.118222
271464710549797, 5.5166526, 0.07178468, 8.49452, 0.035390854, -0.044648692, 10.128782
271464720190005, 5.5274205, 0.04426722, 8.49811, 0.027791977, -0.016440332, 10.137611
271464729830109, 5.528617, 0.008374879, 8.474181, 0.0140218735, 0.02120322, 10.118141
271464739470317, 5.5226345, -0.0023928226, 8.471788, 0.016999245, 0.03327003, 10.112829
271464749110526, 5.5166526, -0.022731815, 8.441878, 0.007390976, 0.05553022, 10.084452
271464758750630, 5.5046883, 0.023928227, 8.421539, 0.0027303696, 0.010458678, 10.061033
271464768390838, 5.501099, 0.09092726, 8.432307, 0.0074338913, -0.056764185, 10.068311
271464778031047, 5.5106707, 0.083748795, 8.421539, -0.0064024925, -0.04842353, 10.064514
271464787671151, 5.4927244, 0.0741775, 8.37129, -0.017056465, -0.037148297, 10.01261
271464797311359, 5.5573306, 0.0849452, 8.3581295, -0.076070786, -0.042398483, 10.037027
271464806951463, 5.5405807, 0.059820566, 8.352147, -0.06281185, -0.019335598, 10.022758
271464816591672, 5.5334024, 0.038285162, 8.343773, -0.056932926, 0.0026508868, 10.011758
271464826231880, 5.501099, 0.020338992, 8.325827, -0.036096573, 0.019292772, 9.97899
271464835871984, 5.4640107, -0.02871387, 8.3174515, -0.003499508, 0.0661664, 9.951473
271464845512192, 5.456832, -0.03589234, 8.298309, -0.0059518814, 0.07403758, 9.931501
271464855152401, 5.48076, 0.013160525, 8.303095, -0.030727863, 0.025819033, 9.948803
271464864792505, 5.4687963, 0.043070808, 8.325827, -0.012752533, -0.006033689, 9.961365
271464874432713, 5.4640107, 0.049052864, 8.3784685, 0.017029762, -0.0152567625, 10.002801
271464884072817, 5.460421, 0.02632105, 8.415557, 0.04291439, 0.0042179227, 10.031781
271464893713026, 5.508278, 0.06699903, 8.477771, 0.025825977, -0.034905434, 10.11021
271464903353234, 5.517849, 0.0849452, 8.52443, 0.041123867, -0.05464533, 10.154562
271464912993338, 5.532206, 0.078963146, 8.567501, 0.04798603, -0.04759693, 10.198482
271464922633547, 5.5393844, 0.07298109, 8.5938225, 0.057547092, -0.041609764, 10.224424
271464932273755, 5.54417, 0.06819545, 8.585447, 0.04718685, -0.034546047, 10.220027
271464941913859, 5.5896335, 0.09092726, 8.56152, -0.007888317, -0.048505366, 10.224943
271464951554067, 5.552545, 0.06819545, 8.518449, 0.0038108826, -0.023789555, 10.16852
271464961194172, 5.4999027, 0.038285162, 8.445468, 0.010230541, 0.0053226054, 10.078501
271464970834380, 5.4903316, 0.015553347, 8.398808, 0.0016555786, 0.031290233, 10.03409
271464980474588, 5.4843497, -0.02871387, 8.37129, -4.9829483E-4, 0.07526773, 10.007584
271464990114692, 5.491528, 0.013160525, 8.344969, -0.024205208, 0.03518161, 9.989681
271464999754901, 5.5070815, 0.039481573, 8.310273, -0.053701878, 0.009463817, 9.969313
271465009395109, 5.491528, 0.038285162, 8.289934, -0.04368353, 0.008091271, 9.943812
271465019035213, 5.4676, 0.02751746, 8.279166, -0.027356148, 0.015995294, 9.921642
271465028675422, 5.4963136, 0.031106694, 8.282756, -0.049560547, 0.014688045, 9.9404125
271465038315526, 5.511867, 0.011964113, 8.300702, -0.05278015, 0.02876854, 9.963879
271465047955734, 5.51426, 0.05742774, 8.365308, -0.023247719, -0.019507527, 10.019372
271465057595942, 5.5405807, 0.07537391, 8.421539, -0.015724182, -0.041100353, 10.080879
271465067236047, 5.5405807, 0.11006984, 8.43111, -0.013180256, -0.07776898, 10.088982
271465076876255, 5.511867, 0.078963146, 8.411968, 0.0024204254, -0.048093826, 10.057126
271465086516359, 5.5070815, 0.02871387, 8.398808, 0.0024518967, 0.0054760277, 10.043341
271465096156567, 5.501099, 0.013160525, 8.364112, -0.011127949, 0.02303654, 10.010992
271465105796776, 5.5046883, -0.0059820567, 8.353344, -0.018382072, 0.04284802, 10.00389
271465115436880, 5.5046883, 0.02632105, 8.360522, -0.017477512, 0.010249168, 10.010006
271465125077088, 5.5130634, -0.11246266, 8.362915, -0.012786388, 0.14820415, 10.016125
271465134717192, 5.548956, 0.38404804, 8.446664, -0.034663677, -0.34776345, 10.107541
271465144357401, 5.4592247, -0.50368917, 8.3784685, 0.06795502, 0.53032535, 9.998485
271465153997609, 5.6207404, 0.6879365, 8.523234, -0.07621288, -0.6484666, 10.212011
271465163637713, 5.367101, -0.69152576, 8.437093, 0.1964407, 0.7123755, 9.996122
271465173277922, 5.6482577, 0.67118675, 8.545966, -0.093176365, -0.6430001, 10.24523
271465182918026, 5.406583, -0.5204389, 8.432307, 0.13810253, 0.5343251, 10.015051
271465192558234, 5.6004014, 0.38883367, 8.46102, -0.06831455, -0.35924742, 10.147455
271465202198442, 5.454439, -0.09212367, 8.405986, 0.0567708, 0.11371666, 10.020172
271465211838547, 5.49751, -0.11844472, 8.327023, -0.01690054, 0.15220091, 9.9776
271465221478755, 5.5298133, 0.38404804, 8.362915, -0.056791782, -0.34922388, 10.026938
271465231118859, 5.4616175, -0.5096712, 8.271988, 0.011672974, 0.5448889, 9.910488
271465240759067, 5.6303115, 0.7262217, 8.416754, -0.118302345, -0.6857923, 10.128437
271465250399172, 5.386244, -0.6735796, 8.310273, 0.08954811, 0.7058542, 9.90049
271465260039380, 5.651847, 0.7692925, 8.428718, -0.13090897, -0.7410327, 10.149493
271465269679588, 5.3826547, -0.52283174, 8.35454, 0.10792017, 0.54165506, 9.936782
271465279319692, 5.599205, 0.43669012, 8.446664, -0.060178757, -0.4082984, 10.134971
271465288959901, 5.436493, -0.12203395, 8.398808, 0.07426071, 0.15251593, 10.004077
271465298600005, 5.5190454, -0.023928227, 8.370093, -0.013634205, 0.05767499, 10.025738
271465308240213, 5.521438, 0.32063824, 8.377272, -0.025613308, -0.28770456, 10.034159
271465317880317, 5.4460645, -0.506082, 8.288737, 0.028466225, 0.5425212, 9.915833
271465327520526, 5.629115, 0.6664011, 8.449057, -0.09181595, -0.62487704, 10.1547365
271465337160734, 5.4149575, -0.6939186, 8.352147, 0.08064413, 0.7200891, 9.9517145
271465346800838, 5.690132, 0.7405786, 8.46461, -0.13218355, -0.6964903, 10.201622
271465356441047, 5.4029937, -0.5623133, 8.353344, 0.087602615, 0.5985419, 9.945902
271465366081151, 5.6123657, 0.4977071, 8.458628, -0.0651412, -0.45618376, 10.15295
271465375721359, 5.4424753, -0.17587246, 8.398808, 0.06743765, 0.20357832, 10.007269
271465385361463, 5.528617, 0.02751746, 8.38804, -0.013504505, 0.010721639, 10.046156
271465395001672, 5.5310097, 0.29671, 8.377272, -0.029856205, -0.26079145, 10.039416
271465404641880, 5.4867425, -0.46660042, 8.318648, -1.9598007E-4, 0.50645137, 9.963207
271465414281984, 5.6171513, 0.62811595, 8.402397, -0.102525234, -0.5924694, 10.108693
271465423922192, 5.395815, -0.7082755, 8.336594, 0.10626793, 0.74607563, 9.927102
271465433562297, 5.6386867, 0.7645068, 8.46102, -0.088778496, -0.71890455, 10.170715
271465443202505, 5.380262, -0.5886344, 8.321041, 0.10177183, 0.627385, 9.906032
271465452842609, 5.613562, 0.55513483, 8.432307, -0.07578945, -0.50952816, 10.132063
271465462482817, 5.3994045, -0.18065812, 8.395218, 0.11059475, 0.21894443, 9.980267
271465472122922, 5.517849, 0.10767702, 8.384451, -0.003191471, -0.069639176, 10.037549
271465481763130, 5.503492, 0.27996024, 8.409575, 0.01576233, -0.24239922, 10.051307
271465491403338, 5.5106707, -0.37447673, 8.330612, -0.013298035, 0.41708535, 9.986625
271465501043442, 5.6506505, 0.6305088, 8.453842, -0.08045578, -0.5939998, 10.170326
271465510683651, 5.485546, -0.6652047, 8.353344, 0.021564484, 0.6997164, 9.9910965
271465520323755, 5.71765, 0.7501499, 8.398808, -0.17520714, -0.7095325, 10.161697
271465529963963, 5.42094, -0.6520442, 8.215756, 0.019753933, 0.6991457, 9.839777
271465539604067, 5.6506505, 0.56111693, 8.319844, -0.15200281, -0.5083987, 10.058973
271465549244276, 5.3994045, -0.3062813, 8.270791, 0.06348705, 0.34094346, 9.875884
271465558884380, 5.5453663, 0.111266255, 8.322237, -0.052662373, -0.068027414, 10.000785
271465568524588, 5.4783673, 0.16749759, 8.336594, 0.007791519, -0.127514, 9.976122
271465578164692, 5.4257255, -0.3481557, 8.334201, 0.073424816, 0.38567883, 9.943061
271465587804901, 5.5908303, 0.62811595, 8.477771, -0.03191614, -0.5844796, 10.157849
271465597445005, 5.4412785, -0.634098, 8.452646, 0.13613081, 0.66243446, 10.04985
271465607085213, 5.6817575, 0.81834537, 8.59143, -0.05112219, -0.7724008, 10.303663
271465616725422, 5.4388857, -0.587438, 8.4705925, 0.14067411, 0.62781006, 10.062981
271465626365526, 5.686543, 0.66999036, 8.5423765, -0.07411957, -0.62111187, 10.264823
271465636005734, 5.4460645, -0.31226337, 8.465807, 0.11399746, 0.34613776, 10.064503
271465645645838, 5.6207404, 0.2117648, 8.422736, -0.06675768, -0.16076484, 10.126685
271465655286047, 5.501099, 0.11485548, 8.342576, -0.008529186, -0.069936216, 9.9934435
271465664926151, 5.4819565, -0.3385844, 8.258827, -0.012195587, 0.38720307, 9.910834
271465674566359, 5.584848, 0.5132605, 8.346166, -0.0861783, -0.45990318, 10.044577
271465684206463, 5.400601, -0.66161543, 8.256434, 0.0801754, 0.6999724, 9.862887
271465693846672, 5.629115, 0.74177504, 8.394022, -0.101139545, -0.7019744, 10.109094
271465703486776, 5.363512, -0.70229346, 8.26122, 0.11428356, 0.74312663, 9.84596
271465713126984, 5.625526, 0.6221339, 8.391629, -0.10111666, -0.5706421, 10.105305
271465722767088, 5.406583, -0.3924229, 8.361719, 0.12495422, 0.41765866, 9.955573
271465732407297, 5.605187, 0.29790643, 8.440681, -0.041687965, -0.2530842, 10.133419
271465742047401, 5.554938, 0.14237295, 8.398808, -0.013814449, -0.105655074, 10.070066
271465751687609, 5.552545, -0.18903299, 8.349754, -0.02117014, 0.23190962, 10.026497
271465761327713, 5.615955, 0.55513483, 8.440681, -0.0582304, -0.5089257, 10.140504
271465770967922, 5.4317074, -0.6125626, 8.373683, 0.11181593, 0.65146834, 9.977992
271465780608026, 5.663811, 0.7369894, 8.443074, -0.10559225, -0.6774627, 10.170413
271465790248234, 5.3850474, -0.70947194, 8.280363, 0.09514141, 0.75056165, 9.873911
271465799888338, 5.645865, 0.6305088, 8.34138, -0.13276863, -0.5694416, 10.075221
271465809528547, 5.416154, -0.45702913, 8.292327, 0.056111813, 0.49965534, 9.902196
271465819168651, 5.5920267, 0.32183465, 8.384451, -0.05320692, -0.2764955, 10.07939
271465828808859, 5.4628143, 0.010767702, 8.323434, 0.02711296, 0.03632269, 9.955901
271465838448963, 5.48076, -0.19381863, 8.2660055, -0.015336037, 0.2410785, 9.916894
271465848089172, 5.5980086, 0.4953143, 8.376076, -0.07213926, -0.44603002, 10.076583
271465857729276, 5.4723854, -0.56350976, 8.316256, 0.035359383, 0.61191744, 9.952335
271465867369484, 5.660222, 0.81236327, 8.495717, -0.07965231, -0.77040297, 10.211533
271465877009588, 5.4233327, -0.64606214, 8.325827, 0.093640804, 0.68026316, 9.933669
271465886649797, 5.706882, 0.76331043, 8.439486, -0.16217184, -0.70291555, 10.190959
271465896289901, 5.48076, -0.42711884, 8.395218, 0.07458353, 0.47385305, 10.023509
271465905930109, 5.6327047, 0.4139583, 8.493324, -0.05019474, -0.36029214, 10.193281
271465915570213, 5.4592247, -0.010767702, 8.437093, 0.089571476, 0.049519256, 10.048746
271465925210422, 5.477171, -0.148355, 8.428718, 0.08031368, 0.19432813, 10.050895
271465934850526, 5.5130634, 0.37567315, 8.439486, 0.023061752, -0.32596508, 10.082317
271465944490734, 5.444868, -0.58624154, 8.370093, 0.10101843, 0.62980163, 9.982077
271465954130838, 5.6554365, 0.695115, 8.4705925, -0.08865404, -0.6467386, 10.187834
271465963771047, 5.4221363, -0.7118647, 8.322237, 0.0848279, 0.7529077, 9.929344
271465973411151, 5.6961145, 0.72502524, 8.398808, -0.16318607, -0.6766351, 10.150215
271465983051359, 5.471189, -0.48095736, 8.329415, 0.041600227, 0.5202882, 9.9635315
271465992691463, 5.6877394, 0.48095736, 8.356933, -0.16507292, -0.4225908, 10.110104
271466002331672, 5.49751, -0.04426722, 8.370093, 0.02768135, 0.088106096, 10.013718
271466011971776, 5.54417, -0.02632105, 8.370093, -0.011722565, 0.069679305, 10.03952
271466021611984, 5.535795, 0.4354937, 8.385647, -0.021343231, -0.3942861, 10.049767
271466031252088, 5.3922257, -0.465404, 8.343773, 0.12864685, 0.49881566, 9.932062
271466040892297, 5.5633125, 0.7298109, 8.471788, -0.012459755, -0.69017553, 10.1379385
271466050532401, 5.3814583, -0.6963114, 8.305488, 0.1337986, 0.72821605, 9.893325
271466060172505, 5.6530433, 0.73818576, 8.409575, -0.11986351, -0.692376, 10.135532
271466069812713, 5.424529, -0.57427746, 8.289934, 0.07452774, 0.61067134, 9.904535
271466079452817, 5.6530433, 0.44865423, 8.383254, -0.11260891, -0.40414906, 10.112425
271466089093026, 5.5094743, -0.14237295, 8.3581295, 0.021030426, 0.18120697, 10.009975
271466098733130, 5.611169, -0.0023928226, 8.365308, -0.06660986, 0.050449386, 10.072567
271466108373338, 5.5944195, 0.31106696, 8.433503, -0.029664516, -0.27004218, 10.121485
271466118013442, 5.5250273, -0.5024927, 8.389236, 0.0424366, 0.54126585, 10.043056
271466127653651, 5.6685967, 0.6161518, 8.499306, -0.053718567, -0.58418334, 10.217958
271466137293755, 5.400601, -0.77407813, 8.411968, 0.16316986, 0.7992792, 9.993071
271466146933963, 5.656633, 0.6867401, 8.419147, -0.086327076, -0.6435751, 10.145417
271466156574067, 5.3682976, -0.6017949, 8.263613, 0.114106655, 0.63713616, 9.851352
271466166214276, 5.5968122, 0.55034924, 8.3377905, -0.06960249, -0.509118, 10.043999
271466175854380, 5.440082, -0.13878371, 8.273184, 0.041651726, 0.16680184, 9.900998
271466185494484, 5.5501523, 0.14237295, 8.310273, -0.03684187, -0.10446747, 9.99364
271466195134692, 5.5226345, 0.357727, 8.361719, 0.0049057007, -0.32565212, 10.021964
271466204774797, 5.5202417, -0.32422748, 8.384451, 0.051437855, 0.3560269, 10.037321
271466214415005, 5.6985073, 0.70588267, 8.502895, -0.080281734, -0.6770428, 10.237465
271466224055109, 5.4676, -0.66161543, 8.415557, 0.13467789, 0.6916234, 10.032822
271466233695317, 5.7116675, 0.7298109, 8.507681, -0.08386278, -0.6899199, 10.249555
271466243335422, 5.45085, -0.6855437, 8.279166, 0.06757021, 0.70795107, 9.910629
271466252975630, 5.669793, 0.45702913, 8.306684, -0.14656258, -0.42233968, 10.057661
271466262615734, 5.4699926, -0.36011982, 8.267202, 0.03885269, 0.39555067, 9.911568
271466272255942, 5.5800624, 0.0526421, 8.263613, -0.07587576, -0.011638746, 9.971022
271466281896047, 5.534599, 0.18544376, 8.244471, -0.056667805, -0.15059957, 9.930336
271466291536255, 5.511867, -0.41515473, 8.221739, -0.02052164, 0.44883847, 9.896875
271466301176359, 5.611169, 0.6053841, 8.392825, -0.07037258, -0.56668735, 10.097778
271466310816463, 5.4484572, -0.6436693, 8.359326, 0.13029099, 0.67004514, 9.97559
271466320456672, 5.6937213, 0.7956135, 8.510074, -0.10173416, -0.7550316, 10.241698
271466330096776, 5.440082, -0.5910272, 8.425129, 0.17702007, 0.6114689, 10.026035
271466339736984, 5.6889358, 0.6520442, 8.536395, -0.07437897, -0.61384225, 10.26045
271466349377088, 5.4520464, -0.2644069, 8.4502535, 0.14619541, 0.2775689, 10.055002
271466359017297, 5.6171513, 0.22492532, 8.476574, -0.0071263313, -0.19055027, 10.16951
271466368657401, 5.541777, 0.19142582, 8.429914, 0.02905941, -0.16294686, 10.088805
271466378297609, 5.505885, -0.34097722, 8.3377905, 0.027461529, 0.37403357, 9.990452
271466387937713, 5.625526, 0.53359944, 8.415557, -0.056074142, -0.4935909, 10.12453
271466397577817, 5.428118, -0.7190432, 8.3377905, 0.10065174, 0.74897873, 9.946313
271466407218026, 5.6709895, 0.6879365, 8.398808, -0.09936714, -0.643127, 10.136561
271466416858130, 5.389833, -0.7190432, 8.260024, 0.08533907, 0.7475687, 9.860485
271466426498338, 5.6781683, 0.62811595, 8.364112, -0.11767626, -0.5836797, 10.111378
271466436138442, 5.4388857, -0.38404804, 8.287541, 0.06311846, 0.41172394, 9.91155
271466445778651, 5.602794, 0.22253251, 8.367701, -0.04320717, -0.18204612, 10.07096
271466455418755, 5.5465627, 0.11964113, 8.366505, 0.0032653809, -0.087501645, 10.038398
271466465058963, 5.5369916, -0.23569304, 8.300702, -0.013993263, 0.2727711, 9.977017
271466474699067, 5.6147585, 0.5802595, 8.438289, -0.02699852, -0.5469774, 10.137407
271466484339276, 5.4867425, -0.5802595, 8.366505, 0.07785082, 0.62060213, 10.002412
271466493979380, 5.7188463, 0.8063812, 8.459825, -0.106396675, -0.7701892, 10.2136965
271466503619484, 5.428118, -0.69152576, 8.297112, 0.07615709, 0.72319317, 9.912415
271466513259692, 5.6853466, 0.64845496, 8.421539, -0.084507465, -0.61179894, 10.162901
271466522899797, 5.440082, -0.40438703, 8.335398, 0.08455515, 0.4485374, 9.951309
271466532540005, 5.615955, 0.2847459, 8.368897, -0.05020857, -0.23872499, 10.079632
271466542180109, 5.495117, 0.03708875, 8.370093, 0.052520275, 0.0035312562, 10.012661
271466551820317, 5.5453663, -0.23688944, 8.304291, -0.023125172, 0.27787086, 9.984522
271466561460422, 5.605187, 0.47736812, 8.396415, -0.038062572, -0.43568692, 10.097254
271466571100630, 5.4687963, -0.58983076, 8.32463, 0.052423477, 0.63000154, 9.957684
271466580740734, 5.697311, 0.75613195, 8.447861, -0.103729725, -0.7233328, 10.191343
271466590380838, 5.4257255, -0.695115, 8.331808, 0.10802364, 0.7207867, 9.940298
271466600021047, 5.6674004, 0.695115, 8.423932, -0.0978713, -0.6627773, 10.154624
271466609661151, 5.42094, -0.40917268, 8.370093, 0.12807894, 0.43186414, 9.970435
271466619301359, 5.619544, 0.34576288, 8.400003, -0.05626011, -0.30367798, 10.107595
271466628941463, 5.511867, -0.020338992, 8.386844, 0.045258522, 0.05055228, 10.035717
271466638581672, 5.5896335, -0.17706887, 8.356933, -0.02403307, 0.21722648, 10.053154
271466648221776, 5.651847, 0.4546363, 8.355737, -0.112653255, -0.40967083, 10.088999
271466657861984, 5.4903316, -0.526421, 8.311469, 0.062316895, 0.5597786, 9.959125
271466667502088, 5.6279187, 0.73579293, 8.573483, 0.004529953, -0.690671, 10.258774
271466677142297, 5.42094, -0.6652047, 8.338987, 0.12941599, 0.6962919, 9.94315
271466686782401, 5.6985073, 0.7178468, 8.415557, -0.15702248, -0.6555053, 10.166393
271466696422505, 5.4113684, -0.49651068, 8.319844, 0.11193657, 0.5309987, 9.922436
271466706062713, 5.6243296, 0.37686956, 8.420342, -0.06832647, -0.31861052, 10.12774
271466715702817, 5.51426, -0.061016977, 8.384451, 0.029258251, 0.10588013, 10.034826
271466725343026, 5.521438, -0.1052842, 8.359326, 0.015064716, 0.15667856, 10.01753
271466734983130, 5.5190454, 0.4235296, 8.391629, 0.009654045, -0.37347388, 10.04585
271466744623338, 5.473582, -0.5084748, 8.328219, 0.05305338, 0.55340004, 9.963373
271466754263442, 5.6590257, 0.73818576, 8.438289, -0.089292526, -0.6818097, 10.163728
271466763903651, 5.4029937, -0.66161543, 8.301898, 0.093562126, 0.71115345, 9.901368
271466773543755, 5.6889358, 0.75613195, 8.385647, -0.13291883, -0.7141087, 10.135443
271466783183859, 5.407779, -0.5300102, 8.293523, 0.084815025, 0.5761272, 9.8979
271466792824067, 5.6745787, 0.45224348, 8.38804, -0.12267399, -0.40822166, 10.128323
271466802464172, 5.471189, -0.13758731, 8.409575, 0.08735609, 0.1782688, 10.03167
271466812104380, 5.582455, -0.031106694, 8.402397, -0.013259411, 0.07569723, 10.087574
271466821744484, 5.578866, 0.35653058, 8.421539, -0.016681671, -0.31523564, 10.103145
271466831384692, 5.410172, -0.50368917, 8.359326, 0.12405777, 0.54641676, 9.954298
271466841024797, 5.623133, 0.71425754, 8.474181, -0.044749737, -0.6645841, 10.17339
271466850665005, 5.3910294, -0.6735796, 8.327023, 0.12685919, 0.7192681, 9.915785
271466860305109, 5.6949177, 0.7393822, 8.420342, -0.13199425, -0.6969106, 10.16749
271466869945317, 5.4556355, -0.6257231, 8.301898, 0.050945282, 0.6616398, 9.931599
271466879585422, 5.6554365, 0.4211368, 8.392825, -0.10421848, -0.38360286, 10.121405
271466889225526, 5.4795637, -0.2440679, 8.356933, 0.04835272, 0.276012, 9.992247
271466898865734, 5.5513487, -0.008374879, 8.365308, -0.020051956, 0.042653754, 10.039606
271466908505838, 5.5022955, 0.32662028, 8.400003, 0.01718235, -0.29605153, 10.042612
271466918146047, 5.432904, -0.4139583, 8.2456665, 0.031228065, 0.45158535, 9.8728895
271466927786151, 5.608776, 0.71306115, 8.46102, -0.05868578, -0.6710787, 10.153912
271466937426359, 5.383851, -0.6257231, 8.352147, 0.14690733, 0.66478527, 9.93339
271466947066463, 5.7080784, 0.8446664, 8.445468, -0.15958548, -0.7886822, 10.196766
271466956706672, 5.474778, -0.50009996, 8.276773, 0.022231579, 0.53769624, 9.921626
271466966346776, 5.6877394, 0.59940207, 8.352147, -0.17805195, -0.5364569, 10.106856
271466975986984, 5.4987063, -0.21894327, 8.319844, 0.0041480064, 0.2657373, 9.971604
271466985627088, 5.576473, 0.02871387, 8.309076, -0.08044624, 0.03152263, 10.006556
271466995267297, 5.5369916, 0.14596218, 8.333005, -0.042645454, -0.092351556, 10.005409
271467004907401, 5.4520464, -0.50488555, 8.335398, 0.06332016, 0.5508729, 9.957465
271467014547505, 5.582455, 0.5240282, 8.475378, -0.022899628, -0.47471085, 10.151087
271467024187713, 5.343173, -0.78364944, 8.397611, 0.19351196, 0.80936277, 9.949421
271467033827817, 5.6183476, 0.6771688, 8.566305, -0.011189938, -0.65488154, 10.245825
271467043468026, 5.380262, -0.65922266, 8.443074, 0.15399837, 0.67724186, 10.00924
271467053108130, 5.6386867, 0.6029913, 8.52443, -0.04219389, -0.5874454, 10.221419
271467062748338, 5.4233327, -0.23090738, 8.4909315, 0.12519121, 0.25254396, 10.073845
271467072388442, 5.5872407, 0.27158538, 8.487342, -0.016592026, -0.24897924, 10.161877
271467082028651, 5.523831, 0.3361916, 8.467003, 0.01778698, -0.31952107, 10.110068
271467091668755, 5.5046883, -0.21774685, 8.395218, 0.011497498, 0.23741198, 10.038536
271467101308963, 5.6243296, 0.721436, 8.493324, -0.068390846, -0.6935576, 10.188444
271467110949067, 5.45085, -0.57427746, 8.352147, 0.05145645, 0.59359765, 9.972208
271467120589276, 5.692525, 0.78843504, 8.437093, -0.16678524, -0.7470888, 10.179639
271467130229380, 5.3910294, -0.6687939, 8.279166, 0.06227684, 0.69122803, 9.877925
271467139869588, 5.599205, 0.5814559, 8.355737, -0.13258982, -0.53500396, 10.060007
271467149509692, 5.395815, -0.38763726, 8.323434, 0.07484341, 0.4122517, 9.918119
271467159149901, 5.535795, 0.15792629, 8.365308, -0.061919212, -0.1212752, 10.031442
271467168790005, 5.460421, 0.12323037, 8.316256, -0.024802208, -0.08703974, 9.949034
271467178430213, 5.453243, -0.3385844, 8.428718, 0.06854153, 0.37061304, 10.037615
271467188070317, 5.5740805, 0.506082, 8.512466, -0.03792286, -0.47325736, 10.1765995
271467197710526, 5.4029937, -0.68195444, 8.487342, 0.15464687, 0.70562255, 10.058358
271467207350630, 5.649454, 0.7298109, 8.639286, -0.04728222, -0.6981957, 10.324559
271467216990838, 5.363512, -0.72263247, 8.523234, 0.202878, 0.7568809, 10.065832
271467226630942, 5.625526, 0.5312066, 8.590233, -0.039658546, -0.48619407, 10.270486
271467236271047, 5.386244, -0.5168497, 8.510074, 0.16074657, 0.5435349, 10.0687065
271467245911255, 5.576473, 0.18185452, 8.5112705, -0.016845703, -0.13943568, 10.176056
271467255551359, 5.48076, 0.0634098, 8.443074, 0.031082153, -0.02999562, 10.066101
271467265191567, 5.5070815, -0.2632105, 8.340183, -0.035633564, 0.30097094, 9.9932
271467274831672, 5.6039906, 0.5288138, 8.394022, -0.10328531, -0.49309197, 10.094065
271467284471880, 5.4341, -0.59700924, 8.306684, 0.024394512, 0.63714075, 9.923725
271467294111984, 5.6171513, 0.8207382, 8.347362, -0.14886713, -0.77518564, 10.063864
271467303752192, 5.3144593, -0.6305088, 8.203793, 0.0710845, 0.657147, 9.772736
271467313392297, 5.601598, 0.73340017, 8.297112, -0.17379189, -0.6974952, 10.01205
271467323032505, 5.352744, -0.3900301, 8.232507, 0.056087494, 0.42394954, 9.81811
271467332672609, 5.534599, 0.3361916, 8.390432, -0.045259476, -0.29726738, 10.05255
271467342312817, 5.4341, 0.041874398, 8.410771, 0.059577942, -0.015656486, 10.013416
271467351952922, 5.4676, -0.20578274, 8.398808, 0.035879612, 0.23313022, 10.021045
271467361593130, 5.5573306, 0.43788654, 8.516056, -0.016747475, -0.40817088, 10.170153
271467371233234, 5.389833, -0.5922236, 8.478967, 0.16237211, 0.61632943, 10.044285
271467380873442, 5.6303115, 0.75493556, 8.60459, -0.048874855, -0.7199745, 10.285356
271467390513651, 5.377869, -0.6987042, 8.476574, 0.1832676, 0.7106055, 10.036105
271467400153755, 5.6350975, 0.73459655, 8.538788, -0.09831953, -0.70194983, 10.232423
271467409793859, 5.407779, -0.40797627, 8.402397, 0.09275532, 0.42953178, 9.990882
271467419434067, 5.5944195, 0.43669012, 8.495717, -0.07549572, -0.39054778, 10.173849
271467429074276, 5.4520464, 0.029910283, 8.435896, 0.040032387, 0.009689122, 10.044319
271467438714380, 5.5274205, -0.10289137, 8.383254, -0.042510033, 0.14932683, 10.040808
271467448354588, 5.554938, 0.41515473, 8.496913, -0.04073143, -0.36948133, 10.153276
271467457994692, 5.4149575, -0.56829536, 8.409575, 0.10271883, 0.6021192, 9.99963
271467467634901, 5.6004014, 0.6879365, 8.534002, -0.0667181, -0.6387521, 10.21051
271467477275005, 5.3587265, -0.7298109, 8.395218, 0.14233589, 0.7561152, 9.95672
271467486915213, 5.615955, 0.6939186, 8.472985, -0.114311695, -0.65854895, 10.166867
271467496555317, 5.35753, -0.54675996, 8.327023, 0.09141588, 0.57181066, 9.899801
271467506195526, 5.5453663, 0.4031906, 8.395218, -0.07995844, -0.359877, 10.062675
271467515835630, 5.4221363, -0.08015956, 8.355737, 0.023829937, 0.107675835, 9.96053
271467525475838, 5.5274205, -0.038285162, 8.370093, -0.05985689, 0.07316595, 10.030123
271467535115942, 5.5597234, 0.40558344, 8.465807, -0.05519533, -0.3764843, 10.129171
271467544756151, 5.444868, -0.4953143, 8.367701, 0.0249362, 0.52845675, 9.981505
271467554396255, 5.5980086, 0.701097, 8.58784, -0.03489685, -0.6655693, 10.253586
271467564036463, 5.3216376, -0.7393822, 8.392825, 0.14766073, 0.77324444, 9.934099
271467573676567, 5.601598, 0.70348984, 8.52443, -0.05889511, -0.6743338, 10.201984
271467583316776, 5.367101, -0.59342, 8.40479, 0.10819435, 0.6307057, 9.9693985
271467592956880, 5.605187, 0.45583272, 8.482556, -0.0758791, -0.42252204, 10.168353
271467602597088, 5.4484572, -0.18424734, 8.445468, 0.05336666, 0.21366948, 10.04973
271467612237297, 5.521438, -0.0526421, 8.446664, -0.009120941, 0.09200404, 10.090919
271467621877401, 5.474778, 0.30867413, 8.488539, 0.04404688, -0.27492234, 10.101795
271467631517609, 5.3682976, -0.4881358, 8.372486, 0.09664869, 0.5196811, 9.943644
271467641157713, 5.534599, 0.66400826, 8.514859, -0.013727188, -0.6236261, 10.1580715
271467650797922, 5.3096733, -0.70348984, 8.423932, 0.20247173, 0.73060596, 9.953661
271467660438026, 5.6075797, 0.7704889, 8.550752, -0.07490969, -0.7271451, 10.228373
271467670078234, 5.4149575, -0.57188463, 8.453842, 0.120726585, 0.6011824, 10.036945
271467679718338, 5.6757755, 0.54317075, 8.492127, -0.15347004, -0.50679964, 10.214954
271467689358547, 5.485546, -0.15553348, 8.420342, 0.021212101, 0.19060224, 10.048919
271467698998651, 5.5860443, 0.13998012, 8.37129, -0.1094203, -0.097070694, 10.063826
271467708638859, 5.56092, 0.31106696, 8.310273, -0.12337446, -0.2640226, 9.999815
271467718279067, 5.447261, -0.43070808, 8.1942215, -0.052156925, 0.48063964, 9.837159
271467727919172, 5.6004014, 0.61734825, 8.352147, -0.14521503, -0.56202596, 10.058182
271467737559380, 5.359923, -0.6771688, 8.280363, 0.08091211, 0.71487564, 9.860737
271467747199484, 5.5657053, 0.7393822, 8.408379, -0.09260464, -0.6962733, 10.086191
271467756839692, 5.279763, -0.634098, 8.353344, 0.19003963, 0.6733383, 9.877592
271467766479797, 5.5166526, 0.5838487, 8.530413, 0.020530224, -0.5361357, 10.161417
271467776120005, 5.325227, -0.24646074, 8.543573, 0.2305398, 0.26920894, 10.064084
271467785760109, 5.5130634, 0.11365908, 8.585447, 0.062220097, -0.078275084, 10.20327
271467795400317, 5.49751, 0.23090738, 8.616554, 0.083888054, -0.19710946, 10.221304
271467805040526, 5.5022955, -0.3074777, 8.53161, 0.06281376, 0.34591076, 10.150595
271467814680630, 5.6877394, 0.66759753, 8.599805, -0.110259056, -0.615695, 10.3131695
271467824320838, 5.460421, -0.6843473, 8.439486, 0.046592712, 0.7372292, 10.048074
271467833960942, 5.741578, 0.77647096, 8.544769, -0.1754713, -0.72636676, 10.296761
271467843601151, 5.4113684, -0.64965135, 8.313862, 0.032519817, 0.7040706, 9.916073
271467853241255, 5.6470613, 0.60777694, 8.368897, -0.1789794, -0.54567105, 10.097889
271467862881463, 5.375476, -0.31944183, 8.338987, 0.07072306, 0.36974102, 9.9194145
271467872521672, 5.4987063, 0.19621146, 8.4012, -0.009927273, -0.15036085, 10.0415
271467882161776, 5.410172, 0.16749759, 8.347362, 0.036230564, -0.12297179, 9.947865
271467891801984, 5.4173503, -0.36131623, 8.286345, 0.018416405, 0.40643153, 9.898294
271467901442088, 5.5046883, 0.5312066, 8.447861, -0.011126995, -0.49277252, 10.084998
271467911082297, 5.3718867, -0.6903293, 8.374879, 0.13589668, 0.7215657, 9.946517
271467920722505, 5.6350975, 0.75254273, 8.495717, -0.10653591, -0.7008003, 10.197813
271467930362609, 5.3814583, -0.64965135, 8.364112, 0.1168313, 0.6876763, 9.9425335
271467940002817, 5.6745787, 0.6687939, 8.467003, -0.15612602, -0.6146916, 10.194902
271467949642922, 5.4317074, -0.31106696, 8.397611, 0.06987429, 0.34005946, 9.999978
271467959283130, 5.629115, 0.27996024, 8.396415, -0.13626957, -0.23342717, 10.109007
271467968923338, 5.495117, 0.13519448, 8.386844, -0.017140865, -0.09748928, 10.02716
271467978563442, 5.4987063, -0.24047868, 8.361719, -0.0065927505, 0.2815404, 10.006631
271467988203651, 5.575277, 0.56350976, 8.43111, -0.070142746, -0.52063394, 10.109843
271467997843755, 5.339584, -0.6472585, 8.405986, 0.15830755, 0.68459845, 9.954746
271468007483963, 5.593223, 0.72023964, 8.532805, -0.012268543, -0.67765707, 10.2055025
271468017124172, 5.3790655, -0.71665037, 8.432307, 0.13003159, 0.755667, 9.99819
271468026764276, 5.669793, 0.68195444, 8.543573, -0.0748353, -0.6388447, 10.256244
271468036404484, 5.440082, -0.39601216, 8.435896, 0.06865406, 0.42507815, 10.036446
271468046044588, 5.615955, 0.34456646, 8.499306, -0.0496397, -0.3020481, 10.188335
271468055684797, 5.5070815, 0.12801601, 8.4909315, 0.037541866, -0.091935255, 10.120791
271468065325005, 5.51426, -0.09332009, 8.423932, -6.299019E-4, 0.135639, 10.067771
271468074965109, 5.5633125, 0.6041877, 8.446664, -0.06023836, -0.5594791, 10.11657
271468084605317, 5.3742795, -0.58983076, 8.411968, 0.12668943, 0.6373532, 9.978463
271468094245526, 5.5573306, 0.70348984, 8.589037, 0.014356136, -0.66091657, 10.232956
271468103885630, 5.3359947, -0.74177504, 8.4347, 0.15522861, 0.7912024, 9.975828
271468113525838, 5.5657053, 0.38404804, 8.483752, -0.053833008, -0.34027225, 10.147904
271468123165942, 5.491528, -0.09810573, 8.446664, 0.003920555, 0.1464281, 10.074284
271468132806151, 5.5022955, 0.07537391, 8.484949, 0.0083909035, -0.028115295, 10.113084
271468142446359, 5.4903316, 0.015553347, 8.484949, 0.021765232, 0.0334045, 10.106274
271468152086463, 5.4963136, 0.0634098, 8.422736, -0.019393444, -0.012789518, 10.057606
271468161726672, 5.491528, 0.013160525, 8.348558, -0.048069477, 0.04324408, 9.992562
271468171366880, 5.453243, 0.039481573, 8.364112, -0.008909225, 0.014686018, 9.984862
271468181006984, 5.4795637, 0.019142581, 8.3784685, -0.012193203, 0.03842792, 10.011148
271468190647192, 5.5453663, 0.06699903, 8.359326, -0.076869965, -0.0029757917, 10.03135
271468200287297, 5.535795, 0.11844472, 8.435896, -0.02747345, -0.056536943, 10.090562
271468209927505, 5.6004014, 0.10887343, 8.486146, -0.051558495, -0.041631788, 10.167921
271468219567713, 5.5262237, 0.062213387, 8.410771, -0.024407864, 0.0049910545, 10.063969
271468229207817, 5.440082, 0.032303106, 8.421539, 0.058818817, 0.027632862, 10.025649
271468238848026, 5.4628143, 0.043070808, 8.426325, 0.04121399, 0.018710524, 10.042166
271468248488234, 5.515456, 0.050249275, 8.414361, -0.009659767, 0.016414315, 10.0610075
271468258128338, 5.5094743, 0.038285162, 8.416754, -0.003121376, 0.027080089, 10.05966
271468267768547, 5.4795637, 0.047856454, 8.391629, 0.012262821, 0.015733764, 10.022323
271468277408755, 5.534599, 0.0526421, 8.353344, -0.051169872, 0.011925515, 10.020487
271468287048859, 5.4843497, 0.069391854, 8.380861, 0.0102472305, -0.005659569, 10.0160675
271468296689067, 5.4903316, 0.09212367, 8.338987, -0.01563549, -0.028827347, 9.984482
271468306329276, 5.528617, 0.16031912, 8.3581295, -0.035722256, -0.09727161, 10.021921
271468315969380, 5.4759746, 0.09212367, 8.321041, -0.013228416, -0.029334903, 9.961601
271468325609588, 5.541777, 0.13998012, 8.433503, -0.005982876, -0.0765076, 10.092026
271468335249692, 5.5393844, 0.12801601, 8.425129, -0.011782169, -0.06643616, 10.083621
271468344889901, 5.562116, 0.12203395, 8.458628, -0.016034603, -0.060378313, 10.124056
271468354530109, 5.5633125, 0.0741775, 8.474181, -0.007028103, -0.010873109, 10.137433
271468364170213, 5.562116, 0.047856454, 8.4502535, -0.016804695, 0.018411547, 10.116598
271468373810422, 5.521438, -0.031106694, 8.365308, -0.02084446, 0.100149095, 10.022731
271468383450630, 5.5130634, -0.019142581, 8.395218, 0.0016088486, 0.086384356, 10.043228
271468393090838, 5.4783673, -0.040677983, 8.340183, 0.0048303604, 0.10854599, 9.978026
271468402730942, 5.4903316, -0.023928227, 8.344969, -9.3364716E-4, 0.09227389, 9.988709
271468412371151, 5.51426, 0.040677983, 8.331808, -0.033135414, 0.030661225, 9.9912815
271468422011359, 5.5226345, 0.111266255, 8.402397, -0.0057930946, -0.04564914, 10.055349
271468431651463, 5.5465627, 0.13758731, 8.465807, 0.005988598, -0.0728991, 10.121652
271468441291672, 5.5310097, 0.13040884, 8.478967, 0.02717495, -0.0690746, 10.124051
271468450931880, 5.535795, 0.096909314, 8.519645, 0.048758984, -0.03791803, 10.160461
271468460571984, 5.5250273, 0.07298109, 8.559127, 0.08126354, -0.019616842, 10.187391
271468470212192, 5.523831, 0.07058827, 8.555537, 0.08048773, -0.017236173, 10.18372
271468479852401, 5.538188, 0.076570325, 8.5423765, 0.059240818, -0.022941947, 10.180647
271468489492505, 5.541777, 0.076570325, 8.465807, 0.014585972, -0.018919796, 10.118621
271468499132713, 5.5537415, 0.09571291, 8.428718, -0.016978264, -0.03544739, 10.094303
271468508772922, 5.521438, 0.11006984, 8.3784685, -0.015699387, -0.0489538, 10.034665
271468518413026, 5.517849, 0.08733802, 8.331808, -0.028950691, -0.02173704, 9.993599
271468528053234, 5.538188, 0.04426722, 8.289934, -0.061576366, 0.024736851, 9.969559
271468537693442, 5.548956, 0.07058827, 8.316256, -0.05842781, -0.0019753873, 9.997628
271468547333547, 5.5501523, 0.05623133, 8.309076, -0.058229446, 0.010905206, 9.992228
271468556973755, 5.523831, 0.039481573, 8.299505, -0.03595352, 0.022643954, 9.969666
271468566613963, 5.508278, 0.031106694, 8.359326, 0.01050806, 0.02519527, 10.01098
271468576254172, 5.5190454, 0.011964113, 8.383254, 0.014481068, 0.042130947, 10.036781
271468585894276, 5.5465627, 0.049052864, 8.4012, -0.0016055107, 0.0064353943, 10.067119
271468595534484, 5.5477595, 0.051445685, 8.420342, 0.0054764748, 0.0018507242, 10.083771
271468605174692, 5.5250273, 0.022731815, 8.440681, 0.036886692, 0.027491242, 10.088083
271468614814797, 5.5262237, 0.025124637, 8.429914, 0.029216766, 0.024750471, 10.079771
271468624455005, 5.552545, 0.04426722, 8.396415, -0.013123512, 0.00892821, 10.066392
271468634095213, 5.5573306, 0.09571291, 8.389236, -0.024415016, -0.042245984, 10.0633
271468643735422, 5.582455, 0.06580263, 8.383254, -0.04592228, -0.010341823, 10.071984
271468653375526, 5.575277, 0.021535404, 8.397611, -0.026369572, 0.03227094, 10.079796
271468663015734, 5.5716877, 0.029910283, 8.380861, -0.03160143, 0.023060024, 10.063892
271468672655942, 5.5513487, 0.062213387, 8.413164, 0.0012950897, -0.014378697, 10.079805
271468682296047, 5.558527, 0.08853444, 8.446664, 0.011962414, -0.04392609, 10.111832
271468691936255, 5.505885, 0.09451649, 8.451449, 0.057206154, -0.05504203, 10.0868435
271468701576463, 5.4699926, 0.069391854, 8.438289, 0.08044052, -0.031381547, 10.055988
271468711216672, 5.495117, 0.03708875, 8.4347, 0.05759144, 0.0028484464, 10.066703
271468720856776, 5.5274205, 0.05503492, 8.396415, 0.0041279793, -0.010059893, 10.052615
271468730496984, 5.562116, 0.059820566, 8.390432, -0.028402805, -0.012276679, 10.066732
271468740137192, 5.56092, 0.050249275, 8.397611, -0.02331829, -0.0020505786, 10.072023
271468749777297, 5.575277, 0.061016977, 8.380861, -0.045528412, -0.0103036165, 10.065987
271468759417505, 5.602794, 0.069391854, 8.377272, -0.069698334, -0.015031576, 10.078181
271468769057713, 5.54417, 0.038285162, 8.389236, -0.01164341, 0.011065096, 10.055761
271468778697922, 5.5226345, 0.0, 8.360522, -0.0024261475, 0.04844123, 10.019754
271468788338026, 5.5166526, 0.022731815, 8.38804, 0.015535355, 0.024134725, 10.039539
271468797978234, 5.4556355, 0.013160525, 8.374879, 0.0613842, 0.026429266, 9.994912
271468807618442, 5.495117, 0.02751746, 8.397611, 0.03904867, 0.012107819, 10.0357
271468817258651, 5.4927244, 0.0526421, 8.413164, 0.046570778, -0.015545487, 10.047474
271468826898755, 5.54417, 0.06699903, 8.447861, 0.02139473, -0.027982652, 10.10482
271468836538963, 5.576473, 0.09092726, 8.435896, -0.015565872, -0.04983163, 10.112711
271468846179172, 5.608776, 0.0849452, 8.422736, -0.04992056, -0.04114127, 10.119479
271468855819380, 5.6183476, 0.08015956, 8.398808, -0.070363045, -0.034145087, 10.104757
271468865459484, 5.6183476, 0.062213387, 8.398808, -0.0672369, -0.015953839, 10.104698
271468875099692, 5.552545, 0.038285162, 8.420342, 0.003063202, 0.0027590692, 10.086348
271468884739901, 5.5633125, 0.047856454, 8.395218, -0.01892519, -0.0041603744, 10.071348
271468894380109, 5.501099, 0.013160525, 8.408379, 0.04628563, 0.024691254, 10.047903
271468904020213, 5.4819565, 0.040677983, 8.427522, 0.07067728, -0.0047089458, 10.053436
271468913660422, 5.515456, 0.04426722, 8.421539, 0.03826952, -0.0052925944, 10.06693
271468923300630, 5.576473, 0.02751746, 8.428718, -0.007718563, 0.015559316, 10.106473
271468932940838, 5.588437, 0.096909314, 8.301898, -0.09031582, -0.04697004, 10.007557
271468942580942, 5.593223, 0.046660043, 8.391629, -0.03596735, 8.9484453E-4, 10.084864
271468952221151, 5.6374903, 0.039481573, 8.313862, -0.11208105, 0.015132219, 10.04442
271468961861359, 5.5393844, 0.025124637, 8.328219, -0.021365643, 0.02190891, 10.002186
271468971501567, 5.5250273, 0.05742774, 8.352147, 0.0051903725, -0.012665629, 10.014359
271468981141672, 5.49751, 0.041874398, 8.368897, 0.042892933, -0.001326263, 10.013039
271468990781880, 5.495117, 0.022731815, 8.419147, 0.07419491, 0.01538527, 10.053512
271469000422088, 5.4759746, 0.016749758, 8.429914, 0.098180294, 0.018682033, 10.0518675
271469010062297, 5.515456, 0.0741775, 8.43111, 0.0622859, -0.039183527, 10.074917
271469019702401, 5.5872407, 0.13040884, 8.423932, -0.006072998, -0.08960086, 10.108849
271469029342609, 5.6374903, 0.13519448, 8.383254, -0.07039642, -0.08916497, 10.102753
271469038982817, 5.651847, 0.11485548, 8.346166, -0.100663185, -0.061498195, 10.079739
271469048623026, 5.6350975, 0.06699903, 8.306684, -0.10411978, -0.012942493, 10.037371
271469058263130, 5.6099725, -0.0011964113, 8.306684, -0.07530689, 0.05507964, 10.023178
271469067903338, 5.54417, -0.06580263, 8.310273, -0.007874489, 0.114569426, 9.989476
271469077543547, 5.54417, -0.07776674, 8.346166, 0.013802528, 0.122906685, 10.019334
271469087183755, 5.4891353, -0.025124637, 8.383254, 0.07532787, 0.062084347, 10.020013
