timestamp_acc,device_acc_x,device_acc_y,device_acc_z,earth_acc_x,earth_acc_y,earth_acc_z
356021893745086, -0.22013968, 5.7834525, 7.940582, 0.08986235, 0.071303844, 9.825297
356021903383628, -0.24885355, 5.7559347, 7.9944205, 0.037923098, 0.034994125, 9.853975
356021913022274, -0.32542387, 5.7020965, 8.053044, -0.06609917, 0.005106449, 9.872536
356021922660815, -0.41874397, 5.6614184, 8.086544, -0.17307949, 0.0066690445, 9.878726
356021932299357, -0.4319045, 5.645865, 8.053044, -0.17948174, 0.01926136, 9.84283
356021941937899, -0.4019942, 5.6614184, 8.04467, -0.14105248, 0.019080639, 9.844273
356021951576440, -0.37328035, 5.686543, 8.047063, -0.10317588, 0.02022934, 9.860035
356021961215086, -0.3792624, 5.6709895, 8.082955, -0.12106609, -0.0074653625, 9.880456
356021970853628, -0.39481574, 5.663811, 8.127222, -0.14922953, -0.02874279, 9.912784
356021980492170, -0.40917268, 5.6506505, 8.129615, -0.16583157, -0.03079319, 9.907546
356021990130711, -0.39361933, 5.680561, 8.122437, -0.1352191, -0.013361454, 9.918631
356021999769357, -0.39601216, 5.68415, 8.127222, -0.13437808, -0.012663364, 9.924713
356022009407899, -0.3804588, 5.6937213, 8.117651, -0.1116724, -0.008597851, 9.922043
356022019046440, -0.36251262, 5.7152567, 8.097312, -0.08186126, 0.0076646805, 9.917423
356022028684982, -0.34217364, 5.7116675, 8.055437, -0.05544126, 0.017032623, 9.880635
356022038323524, -0.31585258, 5.729614, 8.029117, -0.018588543, 0.03123045, 9.868821
356022047962170, -0.27038896, 5.733203, 8.019546, 0.023927212, 0.016588688, 9.861794
356022057600711, -0.26679972, 5.7427745, 7.993224, 0.035590887, 0.036135674, 9.845796
356022067239253, -0.27158538, 5.7631135, 7.975278, 0.043667436, 0.06222391, 9.843095
356022076877795, -0.2416751, 5.7667027, 8.015956, 0.05678022, 0.030985355, 9.877482
356022086516440, -0.20458634, 5.7966127, 8.075776, 0.08712697, 0.0042710304, 9.942492
356022096154982, -0.16510476, 5.818148, 8.110473, 0.1183815, -0.017318249, 9.982162
356022105793524, -0.13280165, 5.8468623, 8.114061, 0.15307593, -0.012430668, 10.000893
356022115432065, -0.11724831, 5.861219, 8.10449, 0.16684437, -0.004462242, 10.001126
356022125070607, -0.13758731, 5.8480587, 8.109276, 0.14247203, -0.0068235397, 9.997935
356022134709253, -0.18424734, 5.828916, 8.09133, 0.095477104, 0.010621548, 9.9734955
356022144347795, -0.2117648, 5.800202, 8.085348, 0.0600183, 0.007065773, 9.952709
356022153986336, -0.20219351, 5.7990055, 8.084151, 0.06831503, 0.0035214424, 9.9507885
356022163624878, -0.2117648, 5.797809, 8.103293, 0.053597927, -0.0030164719, 9.965939
356022173263524, -0.24765715, 5.77747, 8.049456, 0.02745533, 0.027639389, 9.9112425
356022182902065, -0.276371, 5.7631135, 8.002795, 0.0069258213, 0.05350256, 9.865683
356022192540607, -0.28235307, 5.7391853, 8.020741, -0.012511015, 0.029963493, 9.86657
356022202179149, -0.29312077, 5.7451673, 8.053044, -0.027237177, 0.02191639, 9.8966255
356022211817795, -0.31465617, 5.7140603, 8.072187, -0.05956316, 7.624626E-4, 9.894755
356022221456336, -0.3505485, 5.6733823, 8.087741, -0.11132133, -0.019225597, 9.884784
356022231094878, -0.3469593, 5.6590257, 8.127222, -0.11942792, -0.048786163, 9.908586
356022240733420, -0.3505485, 5.6745787, 8.153543, -0.12356424, -0.04856682, 9.939135
356022250371961, -0.33738798, 5.706882, 8.1679, -0.10090041, -0.03816986, 9.969216
356022260010607, -0.32542387, 5.7391853, 8.140383, -0.06889868, -0.006064892, 9.9652
356022269649149, -0.34097722, 5.7343993, 8.103293, -0.07417035, 0.017075539, 9.932631
356022279287690, -0.2835495, 5.7403817, 8.097312, -0.019073725, -0.00279665, 9.929677
356022288926232, -0.25004998, 5.770292, 8.100901, 0.022696495, 9.403229E-4, 9.949013
356022298564878, -0.24885355, 5.7667027, 8.105687, 0.021251202, -0.0042715073, 9.950804
356022308203420, -0.25244278, 5.74756, 8.069795, 0.01924777, 0.0016293526, 9.910569
356022317841961, -0.24047868, 5.749953, 8.048259, 0.036073208, 0.009311676, 9.894081
356022327480503, -0.23090738, 5.771488, 8.053044, 0.051502705, 0.018310547, 9.910193
356022337119149, -0.19262223, 5.791827, 8.050652, 0.09373522, 0.01816082, 9.918984
356022346757690, -0.19262223, 5.802595, 8.031509, 0.101678014, 0.035828114, 9.909629
356022356396232, -0.19501504, 5.8013983, 8.043473, 0.09535134, 0.029250622, 9.918758
356022366034774, -0.1902294, 5.7930236, 8.078169, 0.085035205, 3.6478043E-4, 9.942077
356022375673315, -0.21894327, 5.791827, 8.085348, 0.057083964, 0.008180618, 9.948001
356022385311961, -0.23449662, 5.7858453, 8.067402, 0.043558717, 0.018315792, 9.930344
356022394950503, -0.2213361, 5.7750773, 8.079366, 0.04642129, -0.003953457, 9.933504
356022404589045, -0.2321038, 5.770292, 8.1020975, 0.02930379, -0.014240742, 9.949526
356022414227586, -0.25722843, 5.7655063, 8.133204, -8.752346E-4, -0.022639751, 9.972751
356022423866232, -0.2440679, 5.7463636, 8.140383, 0.002813816, -0.04635191, 9.967144
356022433504774, -0.23808585, 5.767899, 8.148758, 0.014570236, -0.038369656, 9.986286
356022443143315, -0.2632105, 5.7631135, 8.17149, -0.0136499405, -0.04137802, 10.002707
356022452781857, -0.30388847, 5.733203, 8.187042, -0.06460357, -0.0510664, 9.999142
356022462420503, -0.33140594, 5.716453, 8.160722, -0.08750844, -0.036283016, 9.968755
356022472059045, -0.33140594, 5.7140603, 8.143971, -0.080080986, -0.03196287, 9.9537525
356022481697586, -0.3278167, 5.710471, 8.100901, -0.06528449, -0.016533852, 9.916501
356022491336128, -0.36131623, 5.7116675, 8.014759, -0.07191777, 0.04492712, 9.847987
356022500974670, -0.36490545, 5.709275, 7.954939, -0.059898853, 0.07302189, 9.798016
356022510613315, -0.36131623, 5.721239, 7.911868, -0.041126847, 0.09836435, 9.769823
356022520251857, -0.3278167, 5.7583275, 7.8963146, 0.007276058, 0.11386919, 9.77776
356022529890399, -0.32183465, 5.771488, 7.9154572, 0.014194965, 0.1049304, 9.800862
356022539528940, -0.32303107, 5.76431, 7.899904, 0.015121341, 0.10659742, 9.784094
356022549167586, -0.33140594, 5.7451673, 7.9130645, -0.0041707754, 0.089996815, 9.783928
356022558806128, -0.2955136, 5.736792, 7.98126, 0.009172559, 0.03005886, 9.833496
356022568444670, -0.2943172, 5.727221, 7.9968133, 0.002810955, 0.014428616, 9.840554
356022578083211, -0.29671, 5.7284174, 8.033902, -0.007488966, -0.0013847351, 9.871491
356022587721753, -0.27876383, 5.73081, 8.0817585, -0.0027861595, -0.03173065, 9.911291
356022597360399, -0.29790643, 5.736792, 8.126026, -0.029143095, -0.040013313, 9.951352
356022606998940, -0.30867413, 5.743971, 8.126026, -0.035819173, -0.028517723, 9.955836
356022616637482, -0.31106696, 5.7559347, 8.130812, -0.034340262, -0.021540165, 9.966745
356022626276024, -0.27876383, 5.782256, 8.141579, 0.0016748905, -0.020629406, 9.989848
356022635914565, -0.23330021, 5.81097, 8.136793, 0.053725243, -0.017595291, 10.001301
356022645553211, -0.22731815, 5.81097, 8.140383, 0.05814767, -0.022241116, 10.004049
356022655191753, -0.21296121, 5.808577, 8.124829, 0.07125044, -0.02224493, 9.989605
356022664830295, -0.21655045, 5.8217373, 8.088937, 0.08202088, 0.0077085495, 9.968131
356022674468836, -0.21774685, 5.79422, 8.049456, 0.07894015, 0.009404182, 9.920071
356022684107482, -0.22492532, 5.8013983, 8.009974, 0.08438897, 0.036973476, 9.892321
356022693746024, -0.2428715, 5.802595, 7.958528, 0.08097327, 0.07001352, 9.851691
356022703384565, -0.23688944, 5.782256, 7.9393854, 0.08307433, 0.06279659, 9.824135
356022713023107, -0.2536392, 5.771488, 7.9238324, 0.06637919, 0.068211555, 9.8057375
356022722661649, -0.25124636, 5.7607207, 7.969296, 0.051789403, 0.035427094, 9.836401
356022732300295, -0.29312077, 5.7583275, 8.008778, 0.003950119, 0.032173634, 9.8683195
356022741938836, -0.2847459, 5.743971, 8.062616, -0.0084728, -0.009859562, 9.90353
356022751577378, -0.317049, 5.7260246, 8.10449, -0.05566597, -0.028300285, 9.928079
356022761215920, -0.3278167, 5.7391853, 8.109276, -0.061237097, -0.01619196, 9.939923
356022770854565, -0.34217364, 5.7427745, 8.100901, -0.06962383, -0.0010709763, 9.935606
356022780493107, -0.3361916, 5.7391853, 8.110473, -0.06822717, -0.011482239, 9.94114
356022790131649, -0.34337005, 5.741578, 8.106883, -0.06929636, -0.0037674904, 9.939837
356022799770190, -0.3469593, 5.727221, 8.111669, -0.079259396, -0.015588284, 9.935497
356022809408732, -0.3505485, 5.7116675, 8.110473, -0.08398187, -0.02396059, 9.925632
356022819047378, -0.33260235, 5.7152567, 8.085348, -0.058916926, -0.017185211, 9.906759
356022828685920, -0.30987054, 5.727221, 8.031509, -0.020956278, 0.009084225, 9.869229
356022838324461, -0.2739782, 5.7343993, 8.015956, 0.017568827, 0.0059041977, 9.859695
356022847963003, -0.25842485, 5.759524, 7.999206, 0.04328561, 0.02571392, 9.860208
356022857601545, -0.24646074, 5.770292, 8.012366, 0.053064227, 0.020875454, 9.87683
356022867240190, -0.2321038, 5.79422, 8.042277, 0.0645386, 0.015856266, 9.914669
356022876878732, -0.24646074, 5.784649, 8.054241, 0.044216156, 0.008878708, 9.919258
356022886517274, -0.2632105, 5.759524, 8.114061, 0.0054222345, -0.033572197, 9.953807
356022896155815, -0.28953153, 5.7726846, 8.151151, -0.02203536, -0.03101778, 9.992374
356022905794357, -0.28713873, 5.7810597, 8.122437, -0.010099053, -0.010629654, 9.973808
356022915432899, -0.29192436, 5.767899, 8.087741, -0.010760784, 3.4236908E-4, 9.938074
356022925071545, -0.30269206, 5.7726846, 8.069795, -0.014454126, 0.017426014, 9.92656
356022934710086, -0.20219351, 5.6327047, 7.948957, 0.048506975, -0.06731272, 9.744089
356022944348628, -0.44027936, 6.0119667, 8.199007, -0.0716815, 0.18465853, 10.174579
356022953987170, -0.061016977, 5.7116675, 7.818548, 0.23677254, -0.01689148, 9.679888
356022963625711, -0.4546363, 5.643472, 7.928618, -0.16387773, 0.069497585, 9.740984
356022973264357, -0.031106694, 6.108876, 8.042277, 0.36825156, 0.12770796, 10.09186
356022982902899, -0.44985065, 5.21755, 7.7850485, -0.3008182, -0.15989804, 9.376359
356022992541440, -0.20338993, 6.375676, 8.440681, 0.2211833, 0.19911528, 10.575781
356023002179982, -0.3493521, 5.0620165, 7.7587276, -0.26545835, -0.30000663, 9.261936
356023011818524, -0.32183465, 6.363712, 8.532805, 0.08874369, 0.19561768, 10.647208
356023021457170, -0.19262223, 5.2510495, 7.7479596, -0.053113222, -0.2369101, 9.358555
356023031095711, -0.47258246, 6.1184473, 8.382058, -0.10234237, 0.1838255, 10.386211
356023040734253, -0.09212367, 5.6350975, 7.874779, 0.16243887, -0.081150055, 9.682045
356023050372795, -0.5132605, 5.643472, 8.096115, -0.25635028, 0.0219903, 9.878922
356023060011336, -0.07776674, 6.0777693, 8.142776, 0.28893232, 0.08852482, 10.156712
356023069649878, -0.49172506, 5.2008, 7.850851, -0.35569644, -0.17596507, 9.421703
356023079288524, -0.19381863, 6.3385873, 8.415557, 0.22750497, 0.18854189, 10.53326
356023088927065, -0.3505485, 5.0213385, 7.708478, -0.25951183, -0.30021048, 9.19782
356023098565607, -0.2955136, 6.4163537, 8.486146, 0.14614654, 0.25712585, 10.638803
356023108204149, -0.13280165, 5.2402816, 7.6462646, 0.031529546, -0.21567488, 9.268013
356023117842690, -0.4235296, 6.1710896, 8.359326, -0.03762746, 0.2077837, 10.396896
356023127481232, -0.05623133, 5.6267223, 7.8687973, 0.19423914, -0.09485388, 9.671319
356023137119878, -0.4881358, 5.7284174, 8.142776, -0.21610022, 0.03881979, 9.965422
356023146758420, -0.041874398, 6.078966, 8.127222, 0.32422376, 0.0802412, 10.143755
356023156396961, -0.45224348, 5.267799, 7.8400836, -0.2953689, -0.14814901, 9.450501
356023166035503, -0.13998012, 6.3828545, 8.366505, 0.2949772, 0.21214533, 10.517927
356023175674045, -0.3385844, 5.093123, 7.623533, -0.20740795, -0.2132144, 9.16975
356023185312586, -0.2632105, 6.437889, 8.376076, 0.19925189, 0.3084097, 10.561226
356023194951128, -0.18305093, 5.194818, 7.542177, -0.008846283, -0.17664099, 9.158209
356023204589774, -0.4319045, 6.195018, 8.312666, -0.033289433, 0.24150515, 10.373319
356023214228315, -0.07058827, 5.6039906, 7.812566, 0.18134105, -0.07982063, 9.612837
356023223866857, -0.48215377, 5.7523456, 8.148758, -0.20823753, 0.03717327, 9.983961
356023233505399, -0.02632105, 6.0358953, 8.076973, 0.32496905, 0.065732, 10.077713
356023243143940, -0.43070808, 5.3479586, 7.8699937, -0.25211096, -0.12550998, 9.520697
356023252782482, -0.07537391, 6.384051, 8.37129, 0.3426783, 0.17213774, 10.521087
356023262421128, -0.3361916, 5.1062837, 7.706085, -0.23525393, -0.255399, 9.243936
356023272059670, -0.2548356, 6.4618177, 8.447861, 0.19962049, 0.26843548, 10.633648
356023281698211, -0.21655045, 5.1661043, 7.6666036, -0.09716582, -0.24469948, 9.243538
356023291336753, -0.44745782, 6.1938214, 8.429914, -0.0741055, 0.18739367, 10.468358
356023300975295, -0.15074782, 5.5094743, 7.8592257, 0.055616617, -0.13764739, 9.598043
356023310613836, -0.5383851, 5.76431, 8.19781, -0.26464128, 0.05319786, 10.032365
356023320252378, -0.086141616, 5.948557, 8.073383, 0.24154782, 0.029034138, 10.025622
356023329891024, -0.51445687, 5.291727, 7.867601, -0.34304, -0.13219547, 9.488469
356023339529565, -0.13399807, 6.309873, 8.301898, 0.28288555, 0.19284773, 10.422896
356023349168107, -0.40677986, 5.06082, 7.692925, -0.29935515, -0.256248, 9.208864
356023358806649, -0.30029923, 6.4259253, 8.452646, 0.13474154, 0.27036858, 10.617847
356023368445190, -0.22971097, 5.1385865, 7.598408, -0.08841503, -0.22720122, 9.172469
356023378083732, -0.39720857, 6.257231, 8.377272, 0.009830475, 0.2318635, 10.4611435
356023387722274, -0.096909314, 5.5190454, 7.7276206, 0.14624023, -0.09053373, 9.495041
356023397360920, -0.50009996, 5.866005, 8.130812, -0.17213249, 0.13310432, 10.036079
356023406999461, -0.0059820567, 5.9724855, 7.9860454, 0.34090686, 0.043470383, 9.9664135
356023416638003, -0.4127619, 5.426922, 7.8604226, -0.20178556, -0.07890272, 9.558302
356023426276545, -0.01794617, 6.3589263, 8.274381, 0.41082287, 0.17867613, 10.425975
356023435915086, -0.33499518, 5.131408, 7.685746, -0.21476042, -0.23400688, 9.241936
356023445553628, -0.2105684, 6.4761744, 8.459825, 0.24161053, 0.25527287, 10.650365
356023455192170, -0.20697916, 5.1457653, 7.6749787, -0.08930004, -0.2750528, 9.238152
356023464830711, -0.37806597, 6.2979093, 8.445468, 0.020982027, 0.21477127, 10.539733
356023474469357, -0.15314065, 5.4233327, 7.7946196, 0.033593178, -0.16966009, 9.495378
356023484107899, -0.55752766, 5.851648, 8.275578, -0.2686826, 0.08352375, 10.146854
356023493746440, -0.08853444, 5.885147, 8.045866, 0.21399689, -0.010410786, 9.966587
356023503384982, -0.5204389, 5.4125648, 7.928618, -0.32977033, -0.059601784, 9.608195
356023513023524, -0.10887343, 6.2715883, 8.26481, 0.29910374, 0.15089607, 10.370128
356023522662065, -0.41515473, 5.076373, 7.716853, -0.32603145, -0.23948026, 9.23732
356023532300607, -0.25603202, 6.4055862, 8.4347, 0.17773509, 0.23136044, 10.590379
356023541939149, -0.3074777, 5.063213, 7.611569, -0.20165348, -0.24802113, 9.141361
356023551577690, -0.41635114, 6.276374, 8.444271, -0.017108202, 0.21634865, 10.527337
356023561216336, -0.15074782, 5.400601, 7.7994056, 0.034950018, -0.1867187, 9.485983
356023570854878, -0.51086766, 5.9449677, 8.273184, -0.18477774, 0.12168741, 10.198051
356023580493420, -0.05383851, 5.8911295, 7.9657063, 0.273803, 0.028315067, 9.903789
356023590131961, -0.49052864, 5.491528, 7.905886, -0.25418985, -0.025217533, 9.635108
356023599770503, -0.040677983, 6.29432, 8.191829, 0.38021827, 0.18817472, 10.322123
356023609409045, -0.3589234, 5.180461, 7.6833534, -0.21653032, -0.19402742, 9.269055
356023619047586, -0.148355, 6.472585, 8.403593, 0.29527354, 0.24851799, 10.601312
356023628686128, -0.22253251, 5.0883374, 7.5792656, -0.108561635, -0.2684741, 9.126997
356023638324670, -0.34097722, 6.343373, 8.422736, 0.067561865, 0.23487806, 10.546913
356023647963211, -0.12323037, 5.3706903, 7.7706914, 0.047926545, -0.20954728, 9.444412
356023657601857, -0.47736812, 5.977271, 8.380861, -0.18682504, 0.058844566, 10.303208
356023667240399, -0.03589234, 5.8337016, 8.10449, 0.21973264, -0.09499931, 9.982926
356023676878940, -0.51565325, 5.5250273, 8.128419, -0.3350693, -0.11186218, 9.83556
356023686517482, -0.08255238, 6.257231, 8.382058, 0.27260423, 0.08642864, 10.456428
356023696156024, -0.43788654, 5.1661043, 7.85444, -0.32905233, -0.2617035, 9.401907
356023705794565, -0.20697916, 6.468996, 8.4502535, 0.23120117, 0.25174618, 10.638642
356023715433107, -0.2835495, 5.0751767, 7.57448, -0.16242862, -0.2522769, 9.117046
356023725071649, -0.36610186, 6.3541408, 8.356933, 0.06751704, 0.28497076, 10.500558
356023734710190, -0.14596218, 5.3180485, 7.5637126, 0.05461383, -0.14108968, 9.24607
356023744348732, -0.4761717, 6.0215383, 8.132008, -0.09975803, 0.21496153, 10.127144
356023753987274, -0.038285162, 5.8013983, 7.7216387, 0.30291224, 0.06040287, 9.653288
356023763625920, -0.49172506, 5.5860443, 7.77787, -0.19952536, 0.09795332, 9.586009
356023773264461, -0.020338992, 6.2644095, 8.026724, 0.4245057, 0.21120644, 10.170877
356023782903003, -0.39601216, 5.221139, 7.6678, -0.23843682, -0.15247846, 9.280743
356023792541545, -0.18305093, 6.4701924, 8.377272, 0.27231383, 0.25640106, 10.579967
356023802180086, -0.30508488, 5.1026945, 7.6163545, -0.19204235, -0.2530849, 9.167252
356023811818628, -0.32542387, 6.3972116, 8.392825, 0.1123333, 0.26017046, 10.55412
356023821457170, -0.16630118, 5.3108697, 7.631908, 0.015734076, -0.17607045, 9.297729
356023831095711, -0.4953143, 6.0526447, 8.288737, -0.15185952, 0.15400457, 10.273084
356023840734253, -0.1052842, 5.6889358, 7.9334035, 0.13969421, -0.09502888, 9.761426
356023850372795, -0.56829536, 5.5537415, 8.093722, -0.36230314, -0.05130434, 9.825551
356023860011336, -0.1160519, 6.142376, 8.270791, 0.2317524, 0.05591154, 10.300068
356023869649878, -0.47377887, 5.178068, 7.885547, -0.3753444, -0.24356866, 9.434962
356023879288420, -0.2105684, 6.40439, 8.483752, 0.20334291, 0.17692518, 10.628358
356023888927065, -0.35413775, 5.0476594, 7.685746, -0.27165163, -0.29217386, 9.193249
356023898565607, -0.3469593, 6.3792653, 8.462217, 0.0792017, 0.23882389, 10.600059
356023908204149, -0.13998012, 5.2570314, 7.652247, 0.011231542, -0.23077965, 9.282212
356023917842690, -0.4426722, 6.1100726, 8.301898, -0.078406334, 0.17570066, 10.31569
356023927481232, -0.04426722, 5.703293, 7.836494, 0.2273426, -0.05435705, 9.689453
356023937119774, -0.49292147, 5.663811, 8.01117, -0.23110867, 0.038651943, 9.820676
356023946758315, -0.022731815, 6.1399827, 8.111669, 0.34675932, 0.099262714, 10.167053
356023956396857, -0.38404804, 5.258228, 7.7814593, -0.24063861, -0.18079972, 9.394519
356023966035399, -0.069391854, 6.489335, 8.451449, 0.35769486, 0.18482924, 10.648061
356023975673940, -0.2440679, 5.133801, 7.725228, -0.1603446, -0.30208206, 9.272413
356023985312482, -0.26919255, 6.4666033, 8.510074, 0.15731859, 0.23506117, 10.687879
356023994951024, -0.15792629, 5.261817, 7.688139, -0.022602558, -0.23063469, 9.314796
356024004589565, -0.41515473, 6.1998034, 8.403593, -0.052047014, 0.17586136, 10.44972
356024014228107, -0.05503492, 5.6913285, 7.88794, 0.19066954, -0.08528566, 9.724723
356024023866649, -0.5312066, 5.6781683, 8.072187, -0.27835524, 0.038159847, 9.879525
356024033505295, -0.0634098, 6.0897336, 8.082955, 0.29318166, 0.095419884, 10.11573
356024043143836, -0.46061835, 5.2570314, 7.804191, -0.3152622, -0.15357995, 9.414403
356024052782378, -0.13998012, 6.3960147, 8.364112, 0.2780106, 0.19645119, 10.524785
356024062420920, -0.33499518, 5.0751767, 7.6031938, -0.22651875, -0.23635149, 9.141719
356024072059461, -0.25004998, 6.448657, 8.433503, 0.18567419, 0.24885035, 10.614861
356024081698003, -0.17347965, 5.2139606, 7.6223364, -0.034778357, -0.2276547, 9.233768
356024091336545, -0.42831525, 6.2081785, 8.356933, -0.047616243, 0.20680475, 10.417209
356024100975086, -0.076570325, 5.6303115, 7.8281193, 0.1638434, -0.090548754, 9.641094
356024110613628, -0.5276174, 5.7451673, 8.149954, -0.2667278, 0.043620586, 9.981686
356024120252170, -0.111266255, 6.0550375, 8.09133, 0.2385354, 0.085758686, 10.103526
356024129890711, -0.53599226, 5.2546387, 7.8089767, -0.37920833, -0.12552023, 9.41908
356024139529253, -0.14237295, 6.346962, 8.346166, 0.2711544, 0.17346811, 10.481367
356024149167795, -0.35653058, 5.0596237, 7.648658, -0.26366234, -0.26481867, 9.170017
356024158806336, -0.30269206, 6.4163537, 8.408379, 0.1364913, 0.26447344, 10.577025
356024168444878, -0.2428715, 5.1326046, 7.605587, -0.12497258, -0.24507856, 9.174524
356024178083420, -0.44626144, 6.1878395, 8.414361, -0.07663298, 0.17235231, 10.452484
356024187721961, -0.08973085, 5.528617, 7.928618, 0.08696246, -0.20900106, 9.663612
356024197360607, -0.53599226, 5.76431, 8.304291, -0.3025601, -0.012811184, 10.118503
356024206999149, -0.07537391, 5.9700923, 8.250452, 0.1938355, -0.0777812, 10.182044
356024216637690, -0.49292147, 5.3216376, 8.026724, -0.3829949, -0.19566536, 9.633594
356024226276232, -0.10767702, 6.3996043, 8.46102, 0.29254055, 0.13104486, 10.604369
356024235914774, -0.38763726, 5.1290154, 7.63789, -0.2620945, -0.18371892, 9.202826
356024245553315, -0.3074777, 6.503692, 8.263613, 0.20906758, 0.40299463, 10.51065
356024255191857, -0.25004998, 5.1852465, 7.3926253, -0.04797733, -0.096637964, 9.03264
356024264830399, -0.43070808, 6.2644095, 8.142776, 0.03528762, 0.3487196, 10.276686
356024274468940, -0.062213387, 5.5106707, 7.5517483, 0.20589137, -0.048808575, 9.346416
356024284107482, -0.45702913, 5.8743796, 7.978867, -0.10539174, 0.17373276, 9.916565
356024293746024, 0.033499517, 5.9916277, 7.8963146, 0.3914671, 0.063011646, 9.904306
356024303384565, -0.39601216, 5.3946185, 7.816155, -0.20586658, -0.10745764, 9.50248
356024313023107, -0.009571291, 6.375676, 8.343773, 0.38603067, 0.12168217, 10.493048
356024322661649, -0.29790643, 5.109873, 7.8173513, -0.23930049, -0.35262918, 9.334288
356024332300190, -0.19621146, 6.4905314, 8.624929, 0.19546437, 0.14769554, 10.793281
356024341938732, -0.21535404, 5.1696935, 7.810173, -0.13896894, -0.33606887, 9.36155
356024351577274, -0.40917268, 6.3158555, 8.610572, -0.045111418, 0.15326977, 10.685218
356024361215815, -0.13758731, 5.493921, 7.946564, 0.030353785, -0.2105732, 9.659437
356024370854461, -0.5515456, 5.901897, 8.336594, -0.26309884, 0.07589054, 10.225479
356024380493003, -0.12323037, 5.9066825, 8.078169, 0.18507695, 4.5919418E-4, 10.0063305
356024390131545, -0.552742, 5.373083, 7.8891363, -0.36147797, -0.066203594, 9.554004
356024399770086, -0.1268196, 6.273981, 8.2014, 0.30071926, 0.19009495, 10.320625
356024409408628, -0.40917268, 5.076373, 7.5960155, -0.27911794, -0.18729424, 9.139116
356024419047170, -0.22971097, 6.4067826, 8.342576, 0.23150373, 0.2643323, 10.515453
356024428685711, -0.26799613, 5.056034, 7.560123, -0.14943326, -0.26254368, 9.093927
356024438324253, -0.40558344, 6.2679987, 8.392825, 0.0074863434, 0.22817421, 10.480444
356024447962795, -0.15433706, 5.3718867, 7.771888, 0.022029877, -0.19999814, 9.446836
356024457601336, -0.5802595, 5.871987, 8.260024, -0.27293086, 0.10381842, 10.146904
356024467239878, -0.13758731, 5.8217373, 8.030313, 0.15377545, -0.027507305, 9.918322
356024476878420, -0.57427746, 5.432904, 7.9740815, -0.3709433, -0.05560875, 9.658754
356024486516961, -0.11365908, 6.2991056, 8.269595, 0.31619072, 0.17457151, 10.389775
356024496155503, -0.39481574, 5.151747, 7.728817, -0.26163602, -0.21470213, 9.290665
356024505794045, -0.22612174, 6.454639, 8.480164, 0.22033286, 0.22943068, 10.654835
356024515432586, -0.27158538, 5.0644093, 7.68455, -0.1709907, -0.31477523, 9.200325
356024525071128, -0.35174492, 6.323034, 8.499306, 0.047505856, 0.19624186, 10.59726
356024534709670, -0.05742774, 5.4029937, 7.8029947, 0.12399733, -0.22948885, 9.487589
356024544348315, -0.40438703, 6.0227346, 8.329415, -0.08065879, 0.09347153, 10.285951
356024553986857, 0.020338992, 5.8887367, 8.021938, 0.32229602, -0.030604362, 9.946072
356024563625399, -0.4438686, 5.56092, 7.993224, -0.20987022, -0.04482174, 9.745071
356024573263940, -0.040677983, 6.3050876, 8.2660055, 0.3673253, 0.16281366, 10.388514
356024582902482, -0.41156548, 5.188836, 7.773084, -0.2722504, -0.20625424, 9.348669
356024592541024, -0.21415763, 6.4761744, 8.465807, 0.22846508, 0.259377, 10.65538
356024602179565, -0.2727818, 5.109873, 7.584051, -0.13644779, -0.22469139, 9.14516
356024611818107, -0.33738798, 6.3684974, 8.298309, 0.11459255, 0.3231969, 10.460208
356024621456649, -0.12801601, 5.359923, 7.5529447, 0.09741509, -0.09939027, 9.26136
356024631095190, -0.4833502, 6.0083776, 8.128419, -0.11666739, 0.21410036, 10.116617
356024640733732, -0.062213387, 5.7690954, 7.8903327, 0.22647417, -0.020755291, 9.771999
356024650372274, -0.51206404, 5.5094743, 8.000402, -0.30233622, -0.06343937, 9.722527
356024660010815, -0.096909314, 6.168697, 8.273184, 0.25198567, 0.08121824, 10.316865
356024669649357, -0.46779683, 5.1326046, 7.874779, -0.37438834, -0.2783239, 9.39984
356024679287899, -0.23808585, 6.4055862, 8.589037, 0.15007234, 0.15362453, 10.715112
356024688926545, -0.34217364, 5.0512486, 7.7671022, -0.26954937, -0.3315029, 9.261616
356024698565086, -0.37686956, 6.378069, 8.572288, 0.028986454, 0.20964003, 10.689299
356024708203628, -0.18664017, 5.3012986, 7.800602, -0.04121089, -0.23859954, 9.430237
356024717842170, -0.4941179, 6.0526447, 8.390432, -0.1555233, 0.13060188, 10.355518
356024727480711, -0.09092726, 5.7355957, 7.946564, 0.18622899, -0.056993008, 9.798739
356024737119253, -0.5180461, 5.5920267, 8.001599, -0.2611605, 0.017448425, 9.772217
356024746757795, -0.040677983, 6.181857, 8.17149, 0.34837198, 0.11530924, 10.239902
356024756396336, -0.4019942, 5.2103715, 7.7419777, -0.25144064, -0.17948008, 9.335543
356024766034878, -0.12083755, 6.454639, 8.38804, 0.33335948, 0.22993183, 10.576965
356024775673420, -0.2727818, 5.0919266, 7.57448, -0.1485318, -0.23521614, 9.126745
356024785311961, -0.3074777, 6.3960147, 8.394022, 0.13841915, 0.2708249, 10.553229
356024794950503, -0.17467605, 5.255835, 7.649854, -0.00907135, -0.20434499, 9.280774
356024804589045, -0.4749753, 6.078966, 8.321041, -0.10957742, 0.17272234, 10.313938
356024814227690, -0.11724831, 5.6877394, 7.911868, 0.14729476, -0.06402254, 9.74351
356024823866232, -0.5455636, 5.601598, 8.097312, -0.30993485, -0.014650822, 9.856253
356024833504774, -0.09930214, 6.135197, 8.232507, 0.2630446, 0.07293272, 10.264023
356024843143315, -0.46181476, 5.2534423, 7.8352976, -0.310014, -0.16453767, 9.438254
356024852781857, -0.16749759, 6.442675, 8.334201, 0.29934454, 0.2663622, 10.527794
356024862420399, -0.29910284, 5.0859447, 7.5517483, -0.16089427, -0.2181437, 9.105587
356024872058940, -0.24765715, 6.4331036, 8.400003, 0.20060325, 0.25960684, 10.578213
356024881697482, -0.11844472, 5.2642097, 7.6941214, 0.02517867, -0.2517271, 9.319948
356024891336024, -0.4211368, 6.1399827, 8.394022, -0.0742712, 0.14497566, 10.407201
356024900974565, -0.0526421, 5.639883, 7.90469, 0.17721415, -0.1302967, 9.708078
356024910613107, -0.52163535, 5.6733823, 8.10449, -0.2718469, 0.0133161545, 9.902931
356024920251649, -0.07178468, 6.0897336, 8.148758, 0.28254604, 0.0754323, 10.16891
356024929890295, -0.4941179, 5.227121, 7.885547, -0.36384475, -0.20224357, 9.464434
356024939528836, -0.17347965, 6.378069, 8.505288, 0.21551085, 0.13750172, 10.629415
356024949167378, -0.36370903, 5.0620165, 7.757531, -0.2755921, -0.3109765, 9.260829
356024958805920, -0.3278167, 6.4295144, 8.559127, 0.08537269, 0.22408581, 10.707345
356024968444461, -0.22372891, 5.204389, 7.746763, -0.094364166, -0.26968837, 9.33094
356024978083003, -0.45702913, 6.175875, 8.449057, -0.09950304, 0.15979528, 10.4738455
356024987721545, -0.13998012, 5.6099725, 7.905886, 0.10070944, -0.09807348, 9.694054
356024997360086, -0.58504516, 5.7056856, 8.090134, -0.30363357, 0.07153273, 9.912119
356025006998628, -0.08015956, 6.02752, 8.018349, 0.28872442, 0.10398674, 10.026822
356025016637170, -0.465404, 5.2845488, 7.726424, -0.2656058, -0.09506273, 9.36809
356025026275711, -0.1052842, 6.4067826, 8.255239, 0.35720706, 0.25740576, 10.440932
356025035914357, -0.33260235, 5.0883374, 7.54457, -0.18253267, -0.19758868, 9.102196
356025045552899, -0.22612174, 6.442675, 8.367701, 0.23815227, 0.27827978, 10.556679
356025055191440, -0.14596218, 5.221139, 7.6019974, 0.015807271, -0.22185469, 9.220764
356025064829982, -0.3924229, 6.2512493, 8.392825, 0.0037252903, 0.21098566, 10.470298
356025074468524, -0.05383851, 5.5980086, 7.88794, 0.1719693, -0.1474824, 9.669999
356025084107065, -0.46301118, 5.8265233, 8.240881, -0.18856442, 0.020117283, 10.101432
356025093745607, 0.0071784677, 6.0777693, 8.166703, 0.34540677, 0.025309086, 10.174205
356025103384149, -0.45104706, 5.3814583, 7.9298143, -0.2790259, -0.13638067, 9.589006
356025113022690, -0.101694964, 6.37089, 8.383254, 0.30403113, 0.16727448, 10.52412
356025122661336, -0.3589234, 5.0775695, 7.704889, -0.255543, -0.27615166, 9.226825
356025132299878, -0.27038896, 6.4127645, 8.446664, 0.15504289, 0.2403121, 10.604764
356025141938420, -0.23449662, 5.117051, 7.6199436, -0.11019969, -0.25797963, 9.177366
356025151576961, -0.44027936, 6.1878395, 8.392825, -0.057849646, 0.19567585, 10.434611
356025161215503, -0.15074782, 5.477171, 7.8604226, 0.044859648, -0.16711068, 9.580107
356025170854045, -0.55513483, 5.7858453, 8.212168, -0.27328265, 0.06951189, 10.0570545
356025180492586, -0.08733802, 5.9521465, 8.031509, 0.25365782, 0.042330742, 9.993732
356025190131128, -0.49172506, 5.3443694, 7.8400836, -0.29958963, -0.08302331, 9.496017
356025199769774, -0.13040884, 6.3385873, 8.318648, 0.2992139, 0.19035816, 10.453174
356025209408315, -0.42951167, 5.076373, 7.7383885, -0.3280673, -0.24799061, 9.255678
356025219046857, -0.29790643, 6.4211397, 8.519645, 0.1317637, 0.22787762, 10.669342
356025228685399, -0.24885355, 5.0955157, 7.678568, -0.13637483, -0.29586005, 9.21306
356025238323940, -0.39720857, 6.2668023, 8.445468, -0.0033266544, 0.19995451, 10.522192
356025247962482, -0.08973085, 5.4616175, 7.8257265, 0.11010635, -0.18733978, 9.541074
356025257601024, -0.52163535, 5.845666, 8.19781, -0.21852624, 0.08659506, 10.079324
356025267239565, -0.050249275, 5.919843, 8.006385, 0.2781527, 0.027616978, 9.953448
356025276878211, -0.5204389, 5.40419, 7.865208, -0.30850863, -0.048007965, 9.551971
356025286516753, -0.11964113, 6.3338017, 8.249256, 0.31843424, 0.22755384, 10.393671
356025296155295, -0.4127619, 5.1086764, 7.6546397, -0.27500427, -0.20383263, 9.205722
356025305793836, -0.2213361, 6.4737816, 8.423932, 0.23728848, 0.2824607, 10.620047
356025315432378, -0.23928227, 5.113462, 7.635497, -0.11805725, -0.2684152, 9.188014
356025325070920, -0.40677986, 6.282356, 8.474181, -0.018067598, 0.20032883, 10.554846
356025334709461, -0.12921242, 5.3946185, 7.861619, 0.031003237, -0.23536515, 9.532434
356025344348107, -0.5132605, 5.895915, 8.343773, -0.22905803, 0.05156374, 10.226861
356025353986649, -0.09212367, 5.8863435, 8.123632, 0.20026612, -0.034914017, 10.030436
356025363625190, -0.5407779, 5.419743, 8.063812, -0.36527455, -0.12651253, 9.723257
356025373263732, -0.14356937, 6.2644095, 8.43111, 0.22699642, 0.094088554, 10.501746
356025382902274, -0.43429732, 5.117051, 7.820941, -0.33974016, -0.25004864, 9.346764
356025392540815, -0.25244278, 6.4474607, 8.462217, 0.20681334, 0.251956, 10.636557
356025402179357, -0.26919255, 5.0979085, 7.5385876, -0.12374449, -0.19972014, 9.10144
356025411818003, -0.30987054, 6.3493547, 8.27797, 0.16646194, 0.30625868, 10.431376
356025421456545, -0.02871387, 5.465207, 7.568498, 0.22590446, -0.088069916, 9.332348
356025431095086, -0.3900301, 6.0346985, 8.069795, 0.013581514, 0.23003387, 10.081577
356025440733628, 0.043070808, 5.9030933, 7.8149586, 0.40176272, 0.059440136, 9.785551
356025450372170, -0.4031906, 5.5369916, 7.8723865, -0.15864766, -0.010199547, 9.631721
356025460010711, -0.0071784677, 6.3110695, 8.239685, 0.40852928, 0.15552664, 10.369715
356025469649357, -0.37088752, 5.1649075, 7.8197446, -0.27351952, -0.25771308, 9.371285
356025479287899, -0.16869399, 6.4666033, 8.597412, 0.2375586, 0.15632343, 10.7554655
356025488926440, -0.24885355, 5.1254263, 7.786245, -0.17545271, -0.32218838, 9.317883
356025498564982, -0.32662028, 6.3661046, 8.575876, 0.057640314, 0.17619944, 10.683879
356025508203524, -0.14596218, 5.345566, 7.873583, -0.021077871, -0.25925112, 9.514307
356025517842065, -0.5096712, 5.9880385, 8.422736, -0.20677662, 0.09237099, 10.344447
356025527480711, -0.1052842, 5.7690954, 8.093722, 0.14044642, -0.09329796, 9.938485
356025537119253, -0.54436713, 5.4891353, 8.098508, -0.35481906, -0.07541847, 9.791894
356025546757795, -0.10289137, 6.196214, 8.322237, 0.26616478, 0.08791113, 10.372305
356025556396336, -0.45942193, 5.111069, 7.8197446, -0.3559134, -0.25380778, 9.342987
356025566034878, -0.23808585, 6.38764, 8.495717, 0.17368627, 0.1967802, 10.62859
356025575673420, -0.35533416, 5.029713, 7.655836, -0.25325942, -0.2680707, 9.159699
356025585312065, -0.40079778, 6.323034, 8.422736, 0.026719093, 0.2643857, 10.5362835
356025594950607, -0.2009971, 5.2630134, 7.7001033, -0.031266928, -0.20431781, 9.326766
356025604589149, -0.5288138, 6.0011992, 8.316256, -0.1804887, 0.15483618, 10.266334
356025614227690, -0.09571291, 5.733203, 7.891529, 0.20271206, -0.022622585, 9.752611
356025623866232, -0.49292147, 5.5633125, 7.90469, -0.22201586, 0.037741184, 9.676096
356025633504878, -0.043070808, 6.198607, 8.059027, 0.39398265, 0.18338156, 10.157934
356025643143420, -0.42951167, 5.224728, 7.6737823, -0.24389327, -0.10578489, 9.2897005
356025652781961, -0.14237295, 6.452246, 8.379665, 0.32492924, 0.2457509, 10.569039
356025662420503, -0.2943172, 5.0644093, 7.649854, -0.19341874, -0.27626872, 9.172862
356025672059045, -0.3385844, 6.381658, 8.465807, 0.0987165, 0.24322367, 10.603828
356025681697690, -0.18783657, 5.279763, 7.737192, -0.030602217, -0.2185998, 9.366249
356025691336232, -0.4881358, 6.0370917, 8.411968, -0.15959454, 0.105653286, 10.363848
356025700974774, -0.08733802, 5.68415, 7.9860454, 0.15835619, -0.11570072, 9.800798
356025710613315, -0.5312066, 5.575277, 8.116454, -0.3070302, -0.03784275, 9.856319
356025720251857, -0.10049855, 6.114858, 8.275578, 0.2521212, 0.051172733, 10.286913
356025729890503, -0.47258246, 5.1852465, 7.9298143, -0.3653326, -0.2409761, 9.476314
356025739529045, -0.1902294, 6.411568, 8.577073, 0.22133565, 0.14404964, 10.707046
356025749167586, -0.3684947, 5.040481, 7.7850485, -0.3014742, -0.3166883, 9.271357
356025758806128, -0.37567315, 6.3948183, 8.505288, 0.07376838, 0.2616334, 10.644287
356025768444670, -0.19740787, 5.239085, 7.6199436, -0.019141197, -0.17660785, 9.247647
356025778083315, -0.43669012, 6.15434, 8.257631, -0.018588543, 0.24554014, 10.305068
356025787721857, 0.0011964113, 5.716453, 7.77787, 0.31053317, -0.0208807, 9.647602
356025797360399, -0.4426722, 5.741578, 7.9357963, -0.10873926, 0.12258005, 9.803657
356025806998940, 0.025124637, 6.1806607, 7.9944205, 0.45972943, 0.1728301, 10.093103
356025816637586, -0.35653058, 5.312066, 7.68455, -0.1544944, -0.09527063, 9.3469
356025826276128, -0.03589234, 6.4941206, 8.34138, 0.43392706, 0.25013924, 10.559483
356025835914670, -0.24047868, 5.13739, 7.682157, -0.116847515, -0.27223587, 9.240043
356025845553211, -0.23808585, 6.463014, 8.52443, 0.19598556, 0.22675085, 10.69595
356025855191753, -0.14237295, 5.267799, 7.745567, -0.003625989, -0.2584176, 9.364667
356025864830399, -0.4223332, 6.1842504, 8.444271, -0.05686283, 0.15914154, 10.473801
356025874468940, -0.08255238, 5.621937, 7.978867, 0.12892461, -0.15650988, 9.7588005
356025884107482, -0.506082, 5.71765, 8.236095, -0.26739144, -0.013160706, 10.0353985
356025893746024, -0.083748795, 6.0658054, 8.207381, 0.25830984, 0.036080837, 10.20265
356025903384670, -0.526421, 5.2546387, 7.8664045, -0.37568688, -0.13300848, 9.466248
356025913023211, -0.2009971, 6.096912, 8.32463, 0.13747811, 0.051496983, 10.319429
356025922661753, -0.36729828, 5.621937, 8.029117, -0.121667385, -0.040510654, 9.807718
356025932300295, -0.33020952, 5.721239, 8.085348, -0.061266184, -0.020350456, 9.910111
356025941938940, -0.34217364, 5.71765, 8.087741, -0.07444, -0.01856947, 9.910312
356025951577482, -0.33499518, 5.703293, 8.036295, -0.059979916, -0.0071077347, 9.859926
356025961216024, -0.3505485, 5.7200427, 8.021938, -0.062729836, 0.018030643, 9.85845
356025970854565, -0.33738798, 5.729614, 8.026724, -0.04741168, 0.014754772, 9.867529
356025980493211, -0.3290131, 5.7583275, 8.005188, -0.020620584, 0.04139948, 9.866486
356025990131753, -0.3361916, 5.759524, 8.002795, -0.023898363, 0.046913147, 9.86545
356025999770295, -0.357727, 5.741578, 8.047063, -0.06191051, 0.020196915, 9.891647
356026009408836, -0.34456646, 5.741578, 8.076973, -0.05630815, -0.0012965202, 9.915583
356026019047482, -0.33260235, 5.743971, 8.093722, -0.048848033, -0.013794422, 9.930237
356026028686024, -0.29192436, 5.753542, 8.080562, -0.0073280334, -0.018327236, 9.923889
356026038324565, -0.26919255, 5.7631135, 8.085348, 0.013345718, -0.024540901, 9.9326725
356026047963107, -0.2656033, 5.782256, 8.111669, 0.015033007, -0.026135445, 9.965105
356026057601753, -0.25244278, 5.790631, 8.109276, 0.029098988, -0.024422646, 9.967649
356026067240295, -0.25722843, 5.788238, 8.105687, 0.024989605, -0.02065754, 9.963484
356026076878836, -0.26919255, 5.8013983, 8.087741, 0.02496028, 0.0042643547, 9.956886
356026086517378, -0.26919255, 5.770292, 8.087741, 0.01207304, -0.01774168, 9.938805
356026096156024, -0.26919255, 5.7894344, 8.062616, 0.026082635, 0.009434223, 9.929504
356026105794565, -0.2739782, 5.784649, 8.049456, 0.022366285, 0.015349865, 9.916161
356026115433107, -0.27038896, 5.7726846, 8.035098, 0.02335763, 0.012190342, 9.8974285
356026125071753, -0.26799613, 5.790631, 8.037491, 0.030636072, 0.023253918, 9.909743
356026134710295, -0.26679972, 5.7786665, 8.0614195, 0.02157247, 0.0013628006, 9.922207
356026144348836, -0.27756742, 5.7858453, 8.072187, 0.013465285, 0.0074214935, 9.935444
356026153987378, -0.2727818, 5.782256, 8.130812, 0.0032219887, -0.027639866, 9.980893
356026163626024, -0.2955136, 5.7583275, 8.135597, -0.02727294, -0.03682232, 9.971535
356026173264565, -0.3074777, 5.743971, 8.13799, -0.044272065, -0.04284239, 9.965482
356026182903107, -0.31106696, 5.753542, 8.086544, -0.031840086, -0.006983757, 9.929307
356026192541753, -0.2835495, 5.771488, 8.043473, 0.010509729, 0.01510191, 9.903917
356026202180295, -0.28953153, 5.7583275, 8.066205, -0.0056678057, -0.0034313202, 9.9149275
356026211818836, -0.30388847, 5.759524, 8.070991, -0.01878786, 0.0013046265, 9.9199295
356026221457378, -0.3290131, 5.733203, 8.079366, -0.052343488, -0.009723663, 9.912173
356026231096024, -0.34217364, 5.71765, 8.068598, -0.06422901, -0.009545326, 9.894781
356026240734565, -0.32063824, 5.7343993, 8.036295, -0.029121995, 0.009566784, 9.877614
356026250373107, -0.32422748, 5.743971, 8.035098, -0.027769208, 0.018569946, 9.882309
356026260011753, -0.31106696, 5.7547383, 8.025527, -0.009541392, 0.025340557, 9.880392
356026269650295, -0.29790643, 5.7559347, 8.039884, -6.610155E-4, 0.012608051, 9.892377
356026279288836, -0.30269206, 5.751149, 8.070991, -0.0146923065, -0.00504303, 9.915039
356026288927482, -0.2847459, 5.7631135, 8.106883, -0.0038466454, -0.023349762, 9.950657
356026298566024, -0.27996024, 5.7810597, 8.115258, 0.0032638311, -0.015870571, 9.967758
356026308204565, -0.27158538, 5.779863, 8.153543, -6.477833E-4, -0.040462017, 9.997959
356026317843211, -0.2548356, 5.7607207, 8.145168, 0.008767128, -0.057428837, 9.979541
356026327481753, -0.2632105, 5.773881, 8.143971, 0.0057270527, -0.04317665, 9.986458
356026337120295, -0.27158538, 5.7583275, 8.133204, -0.0050178766, -0.044152737, 9.968908
356026346758836, -0.29910284, 5.7655063, 8.106883, -0.01988244, -0.012124538, 9.952464
356026356397482, -0.29671, 5.7762737, 8.116454, -0.015048265, -0.010656834, 9.966437
356026366036024, -0.26799613, 5.7858453, 8.100901, 0.018008351, -0.0087714195, 9.958515
356026375674565, -0.2548356, 5.791827, 8.055437, 0.043036938, 0.012311935, 9.92463
356026385313211, -0.27158538, 5.8037915, 8.006385, 0.04411578, 0.05336809, 9.892178
356026394951753, -0.24646074, 5.791827, 7.999206, 0.062231064, 0.03575802, 9.878672
356026404590295, -0.23808585, 5.7750773, 7.999206, 0.062051177, 0.01950121, 9.868702
356026414228940, -0.27517462, 5.7631135, 8.020741, 0.018647075, 0.0153980255, 9.880331
356026423867482, -0.2847459, 5.7631135, 8.056634, 0.0014694929, 0.0010838509, 9.909789
356026433506024, -0.2727818, 5.7690954, 8.086544, 0.007450938, -0.0155649185, 9.9372425
356026443144670, -0.30149564, 5.782256, 8.111669, -0.01955986, -0.0062532425, 9.966148
356026452783211, -0.29312077, 5.77747, 8.094919, -0.009572387, -0.0043087006, 9.949506
356026462421753, -0.31465617, 5.784649, 8.105687, -0.028397202, 0.0045809746, 9.9630575
356026472060399, -0.33260235, 5.767899, 8.0614195, -0.040139914, 0.02423048, 9.917842
356026481698940, -0.3290131, 5.7355957, 8.026724, -0.04007566, 0.017228127, 9.87075
356026491337482, -0.31465617, 5.741578, 7.9968133, -0.015890002, 0.030081272, 9.849497
356026500976128, -0.30388847, 5.743971, 8.032705, -0.014144301, 0.007400036, 9.879761
356026510614670, -0.31585258, 5.733203, 8.042277, -0.03125727, 9.012222E-5, 9.881632
356026520253211, -0.32422748, 5.7451673, 8.082955, -0.044114828, -0.007949829, 9.921906
356026529891857, -0.29072794, 5.753542, 8.130812, -0.022663355, -0.04178381, 9.96472
356026539530399, -0.2847459, 5.779863, 8.130812, -0.0069470406, -0.025766373, 9.979845
356026549168940, -0.2847459, 5.771488, 8.112865, -0.0057905912, -0.020849705, 9.960386
356026558807586, -0.29790643, 5.7834525, 8.124829, -0.015821338, -0.012564182, 9.97745
356026568446128, -0.29072794, 5.7990055, 8.084151, 0.007150173, 0.016530514, 9.953199
356026578084670, -0.28953153, 5.7930236, 8.024331, 0.020624995, 0.043239594, 9.901039
356026587723315, -0.25722843, 5.802595, 7.9764743, 0.064327836, 0.059892654, 9.866747
356026597361857, -0.22731815, 5.8097734, 8.001599, 0.084733725, 0.036509037, 9.8905115
356026607000503, -0.22372891, 5.8013983, 7.989635, 0.08787453, 0.034579754, 9.875811
356026616639045, -0.25004998, 5.770292, 7.9980097, 0.046652675, 0.019368172, 9.865314
356026626277586, -0.22971097, 5.773881, 8.015956, 0.06073773, 0.0042066574, 9.8814125
356026635916232, -0.24765715, 5.7726846, 8.076973, 0.029407382, -0.020747662, 9.930832
356026645554774, -0.27876383, 5.7547383, 8.142776, -0.022186995, -0.05106926, 9.97479
356026655193315, -0.3074777, 5.7547383, 8.172686, -0.05507052, -0.053534985, 9.999923
356026664831961, -0.33379877, 5.74756, 8.191829, -0.08392179, -0.052676678, 10.012099
356026674470503, -0.33020952, 5.7726846, 8.160722, -0.061607838, -0.019717693, 10.001307
356026684109045, -0.28953153, 5.7726846, 8.146365, -0.02213192, -0.03183937, 9.988468
356026693747690, -0.29072794, 5.7690954, 8.10449, -0.014940262, -0.0128388405, 9.952353
356026703386232, -0.29790643, 5.751149, 8.072187, -0.02019918, -0.0054631233, 9.915859
356026713024878, -0.30269206, 5.7391853, 8.04467, -0.023255348, 0.0013895035, 9.886661
356026722663420, -0.28953153, 5.733203, 8.0614195, -0.018200755, -0.018671513, 9.896427
356026732301961, -0.317049, 5.729614, 8.066205, -0.044442534, -0.011842728, 9.899017
356026741940607, -0.34217364, 5.727221, 8.032705, -0.059578776, 0.0157485, 9.871105
356026751579149, -0.33260235, 5.743971, 8.039884, -0.04531753, 0.01922369, 9.886412
356026761217690, -0.30867413, 5.767899, 8.026724, -0.010264754, 0.031700134, 9.888939
356026770856336, -0.30987054, 5.771488, 8.002795, -0.0049823523, 0.046708107, 9.871608
356026780494878, -0.30388847, 5.7726846, 7.9920278, 0.0034024715, 0.05070734, 9.863375
356026790133524, -0.2943172, 5.7607207, 7.9884386, 0.0073167086, 0.03802681, 9.853232
356026799772065, -0.27038896, 5.770292, 7.9776707, 0.034265876, 0.039928436, 9.849357
356026809410607, -0.2536392, 5.7810597, 8.005188, 0.045907736, 0.026063442, 9.877512
356026819049253, -0.23569304, 5.7834525, 8.018349, 0.059663296, 0.01331234, 9.889089
356026828687795, -0.23090738, 5.790631, 8.063812, 0.054947615, -0.007027149, 9.930092
356026838326440, -0.2428715, 5.7990055, 8.123632, 0.03115046, -0.027045727, 9.983946
356026847964982, -0.24765715, 5.812166, 8.140383, 0.024879456, -0.021902561, 10.005365
356026857603524, -0.24047868, 5.812166, 8.159525, 0.026224375, -0.035464287, 10.020731
356026867242170, -0.23688944, 5.812166, 8.163115, 0.027570724, -0.03801489, 10.023554
356026876880711, -0.24047868, 5.797809, 8.141579, 0.023849964, -0.033731937, 9.997801
356026886519253, -0.2620141, 5.784649, 8.122437, 0.004826784, -0.02253151, 9.9751835
