timestamp_acc,device_acc_x,device_acc_y,device_acc_z,earth_acc_x,earth_acc_y,earth_acc_z
699357389244291, 0.3074777, 4.4147577, 7.9764743, 0.12093508, 0.2772727, 9.116866
699357398882208, 0.27038896, 4.4051867, 8.123632, 0.07194394, 0.21233916, 9.242397
699357408520229, 0.27876383, 4.4518466, 8.246863, 0.07583308, 0.20463395, 9.373354
699357418158145, 0.24885355, 4.490132, 8.395218, 0.034986973, 0.18550777, 9.5219345
699357427796062, 0.23928227, 4.546363, 8.571091, 0.014440119, 0.16847801, 9.703695
699357437434083, 0.21415763, 4.5655055, 8.699107, -0.023270607, 0.14313626, 9.825638
699357447071999, 0.20937198, 4.584648, 8.852247, -0.038757384, 0.092585325, 9.97071
699357456709916, 0.20937198, 4.5655055, 9.02812, -0.060891867, 0.02272749, 10.118814
699357466347833, 0.20937198, 4.5092745, 9.19801, -0.08337885, -0.087571144, 10.2453
699357475985854, 0.2321038, 4.432704, 9.328419, -0.08019787, -0.21637964, 10.328064
699357485623770, 0.24885355, 4.358526, 9.440882, -0.08057988, -0.3197503, 10.396161
699357495261687, 0.23330021, 4.3118663, 9.466006, -0.10160816, -0.35582185, 10.397834
699357504899708, 0.14596218, 4.2520456, 9.454042, -0.19443452, -0.37714434, 10.358577
699357514537624, 0.10289137, 4.2281175, 9.347562, -0.22630417, -0.31960368, 10.252372
699357524175541, 0.078963146, 4.2556353, 9.2997055, -0.24552959, -0.2687409, 10.220993
699357533813562, 0.09930214, 4.301099, 9.293723, -0.21774846, -0.21627975, 10.236621
699357543451479, 0.13280165, 4.3561335, 9.408579, -0.18662572, -0.21209049, 10.365088
699357553089395, 0.18544376, 4.3800616, 9.413364, -0.13063991, -0.19342256, 10.381535
699357562727416, 0.2213361, 4.4135613, 9.457631, -0.09478778, -0.1818204, 10.437111
699357572365333, 0.2727818, 4.4111686, 9.531809, -0.05161661, -0.2191155, 10.5041685
699357582003249, 0.317049, 4.418347, 9.54497, -0.0036853552, -0.22391987, 10.5203905
699357591641270, 0.36610186, 4.4255257, 9.476774, 0.050649524, -0.1983726, 10.463586
699357601279187, 0.41156548, 4.4662037, 9.335598, 0.112864375, -0.10688114, 10.355947
699357610917104, 0.38883367, 4.4817567, 9.215957, 0.102175474, -0.04410529, 10.254697
699357620555124, 0.3684947, 4.5320063, 9.12144, 0.09232086, 0.022996664, 10.19149
699357630193041, 0.37328035, 4.5738807, 8.889337, 0.11872429, 0.16117096, 10.001998
699357639830958, 0.37328035, 4.5894337, 8.707481, 0.13431722, 0.24139857, 9.846125
699357649468874, 0.36011982, 4.6145587, 8.610572, 0.12997258, 0.28222442, 9.770838
699357659106895, 0.36729828, 4.601398, 8.590233, 0.13615316, 0.2675078, 9.747297
699357668744812, 0.38644084, 4.5631127, 8.592627, 0.15069687, 0.23038292, 9.732872
699357678382729, 0.3696911, 4.505685, 8.52802, 0.12767124, 0.19395852, 9.649407
699357688020749, 0.3397808, 4.442275, 8.458628, 0.09707838, 0.17181444, 9.558174
699357697658666, 0.29072794, 4.3800616, 8.426325, 0.04395914, 0.12953138, 9.5001955
699357707296583, 0.30149564, 4.388437, 8.421539, 0.055074632, 0.13309717, 9.500045
699357716934604, 0.25004998, 4.4051867, 8.40479, 0.0061807632, 0.15787506, 9.491244
699357726572520, 0.23808585, 4.4147577, 8.395218, -0.003374219, 0.16784191, 9.486742
699357736210437, 0.21415763, 4.4147577, 8.426325, -0.031333864, 0.15608811, 9.513861
699357745848458, 0.18903299, 4.4195433, 8.488539, -0.058753967, 0.13652754, 9.570858
699357755486374, 0.19740787, 4.4231324, 8.571091, -0.055822194, 0.10215044, 9.646406
699357765124291, 0.18185452, 4.392026, 8.691928, -0.08122414, 0.027371407, 9.739878
699357774762312, 0.19262223, 4.377669, 8.811569, -0.07913911, -0.03170514, 9.840609
699357784400229, 0.19740787, 4.406383, 8.956335, -0.077651024, -0.04965186, 9.983119
699357794038145, 0.20338993, 4.4350967, 9.055637, -0.076465786, -0.06852317, 10.084914
699357803676062, 0.10887343, 4.3441696, 9.27817, -0.19125709, -0.22757578, 10.24108
699357813314083, 0.40558344, 4.712664, 8.5938225, 0.1843391, 0.37896037, 9.800507
699357822951999, 0.2955136, 4.7318068, 9.554541, 0.01111275, -0.007220745, 10.666134
699357832589916, 0.16749759, 4.336991, 9.400204, -0.14788467, -0.27853465, 10.349008
699357842227937, 0.3792624, 4.5930233, 8.694321, 0.13518506, 0.23675728, 9.836493
699357851865854, 0.4761717, 4.470989, 9.515059, 0.16239125, -0.23828316, 10.519965
699357861503770, 0.33260235, 3.9816568, 9.482756, -0.023951828, -0.6448765, 10.269881
699357871141791, 0.29312077, 4.024728, 9.276974, -0.039644122, -0.48788404, 10.104801
699357880779708, 0.27517462, 4.1347976, 9.4636135, -0.06160152, -0.4691832, 10.320288
699357890417624, 0.20937198, 4.162315, 9.164511, -0.088694155, -0.28945684, 10.063066
699357900055645, 0.17706887, 4.409972, 8.865408, -0.07673299, 0.06542683, 9.902752
699357909693562, 0.2416751, 4.6564326, 8.8905325, 0.0053141713, 0.258003, 10.035724
699357919331479, 0.23808585, 4.746164, 8.775677, 0.013524413, 0.37536454, 9.972672
699357928969395, 0.22013968, 4.773681, 8.7469635, 7.702708E-4, 0.41448474, 9.958618
699357938607416, 0.28115666, 4.6899323, 8.897711, 0.036625803, 0.25451517, 10.05871
699357948245333, 0.30388847, 4.5212383, 9.0029955, 0.032301545, 0.044619083, 10.078932
699357957883249, 0.2883351, 4.3322053, 9.053245, -0.0020506382, -0.1413467, 10.039544
699357967521270, 0.26679972, 4.162315, 9.072387, -0.039494216, -0.29882503, 9.980652
699357977159187, 0.20338993, 4.0701914, 9.078369, -0.10797614, -0.37098002, 9.943607
699357986797104, 0.17108682, 4.112066, 8.973084, -0.124981105, -0.2787261, 9.867182
699357996435124, 0.18305093, 4.249653, 8.797213, -0.0851714, -0.07755494, 9.770913
699358006073041, 0.18305093, 4.449454, 8.666803, -0.05685234, 0.15569067, 9.742544
699358015710958, 0.23449662, 4.651647, 8.583055, 0.019381464, 0.3610673, 9.758631
699358025348874, 0.28713873, 4.752146, 8.608179, 0.08097285, 0.4239185, 9.827502
699358034986895, 0.33020952, 4.7306104, 8.719446, 0.11222279, 0.33991098, 9.919089
699358044624812, 0.38165522, 4.62413, 8.839087, 0.14345443, 0.17653203, 9.980278
699358054262729, 0.3912265, 4.476971, 8.971889, 0.12694895, -0.019678354, 10.033675
699358063900749, 0.3182454, 4.3118663, 9.073584, 0.029485762, -0.20307565, 10.048944
699358073538666, 0.2009971, 4.220939, 9.042477, -0.090518296, -0.25368452, 9.977504
699358083176583, 0.17826529, 4.220939, 8.840283, -0.09448886, -0.15712261, 9.796178
699358092814499, 0.19501504, 4.3154554, 8.57468, -0.045109093, 0.04488325, 9.60116
699358102452520, 0.21535404, 4.5020957, 8.423932, 0.0032752156, 0.27397633, 9.550015
699358112090437, 0.25603202, 4.570291, 8.512466, 0.04052657, 0.28601623, 9.660836
699358121728354, 0.2835495, 4.5930233, 8.705089, 0.04899746, 0.21095848, 9.844182
699358131366374, 0.3278167, 4.587041, 8.877372, 0.07416004, 0.120153666, 9.996812
699358141004291, 0.32422748, 4.520042, 9.040084, 0.04988861, -0.006737709, 10.112194
699358150642208, 0.32662028, 4.4207397, 9.190832, 0.036991537, -0.1529758, 10.202758
699358160280229, 0.2727818, 4.321438, 9.233903, -0.028187811, -0.25536203, 10.195499
699358169918145, 0.20458634, 4.281956, 9.188439, -0.088142216, -0.2436266, 10.1359415
699358179556062, 0.19980069, 4.325027, 9.065208, -0.07758832, -0.14550447, 10.04473
699358189193979, 0.19860429, 4.4004006, 8.935996, -0.06373501, -0.021035433, 9.962456
699358198831999, 0.21655045, 4.496114, 8.874979, -0.03484541, 0.08705616, 9.950798
699358208469916, 0.24646074, 4.5690947, 8.847462, 0.0033230782, 0.16112804, 9.959368
699358218107833, 0.29910284, 4.604987, 8.880961, 0.05463147, 0.16801023, 10.006779
699358227745749, 0.34337005, 4.5631127, 8.878569, 0.093170464, 0.1224339, 9.987254
699358237383770, 0.36011982, 4.499703, 8.876176, 0.099622905, 0.06296468, 9.95739
699358247021687, 0.35413775, 4.408776, 8.938389, 0.07995832, -0.04203081, 9.972431
699358256659604, 0.36370903, 4.371687, 9.012567, 0.08112621, -0.108918905, 10.022567
699358266297624, 0.3385844, 4.339384, 9.056833, 0.05012846, -0.1491313, 10.047208
699358275935541, 0.26799613, 4.3405805, 8.991031, -0.016690254, -0.10700202, 9.9869585
699358285573458, 0.21655045, 4.3405805, 8.865408, -0.058811247, -0.043388844, 9.873077
699358295211374, 0.18903299, 4.3669014, 8.73141, -0.07381207, 0.042378187, 9.764008
699358304849395, 0.18065812, 4.4039903, 8.72782, -0.07837725, 0.07576728, 9.777052
699358314487312, 0.2117648, 4.4446683, 8.770891, -0.047186196, 0.087034225, 9.834564
699358324125229, 0.22731815, 4.4554358, 8.855837, -0.037269235, 0.055742264, 9.915842
699358333763249, 0.22612174, 4.4398823, 8.938389, -0.04668343, 0.005402088, 9.982799
699358343401166, 0.23928227, 4.4231324, 8.98146, -0.03849137, -0.028630018, 10.014274
699358353039083, 0.23330021, 4.4171505, 8.979067, -0.042006493, -0.028196573, 10.009332
699358362676999, 0.23569304, 4.395615, 8.930014, -0.037870347, -0.026194572, 9.955904
699358372315020, 0.2416751, 4.3932223, 8.944371, -0.031634152, -0.034638166, 9.967867
699358381952937, 0.22253251, 4.418347, 8.9013, -0.04450518, 0.008326769, 9.9399395
699358391590854, 0.25124636, 4.421936, 8.841479, -0.010788262, 0.03223896, 9.888743
699358401228770, 0.25603202, 4.432704, 8.812766, -0.002474308, 0.04994178, 9.867968
699358410866791, 0.27876383, 4.45065, 8.809176, 0.021582246, 0.060796738, 9.87337
699358420504708, 0.31106696, 4.4602213, 8.807981, 0.053842068, 0.061593533, 9.877456
699358430142624, 0.31106696, 4.2017965, 8.88455, 0.024840951, -0.2017541, 9.830857
699358439780541, 0.38524446, 4.84068, 8.979067, 0.15140277, 0.32257795, 10.201825
699358449418562, 0.27996024, 4.1754756, 9.052048, -0.023460269, -0.29187608, 9.968289
699358459056479, 0.2835495, 4.4614177, 9.000603, 0.011118054, -0.015091181, 10.049633
699358468694395, 0.31106696, 4.6468616, 9.066405, 0.05702412, 0.123012304, 10.191731
699358478332312, 0.20578274, 3.9984066, 8.8187475, -0.090762556, -0.3375063, 9.678728
699358487970333, 0.38883367, 5.09073, 8.991031, 0.18319845, 0.539196, 10.323809
699358497608249, 0.17228323, 3.751946, 8.760123, -0.14759284, -0.5240853, 9.515781
699358507246166, 0.32183465, 5.180461, 8.946764, 0.13209432, 0.63776946, 10.322845
699358516884083, 0.09332009, 3.7567315, 8.775677, -0.23772132, -0.53276134, 9.528584
699358526522104, 0.33499518, 4.9579287, 8.883354, 0.11811042, 0.45503235, 10.167904
699358536160020, 0.2739782, 4.1347976, 8.919247, -0.026723444, -0.28289032, 9.83076
699358545797937, 0.29790643, 4.4841495, 8.873783, 0.03760183, 0.05126238, 9.946674
699358555435854, 0.30269206, 4.615755, 8.944371, 0.050556898, 0.13630748, 10.068637
699358565073770, 0.17347965, 3.9649072, 8.742178, -0.12907249, -0.33639812, 9.594085
699358574711791, 0.32183465, 4.983053, 9.013762, 0.09714264, 0.43059492, 10.295023
699358584349708, 0.16031912, 3.6849468, 8.857033, -0.18689507, -0.62550735, 9.572115
699358593987624, 0.40677986, 5.2223353, 9.150154, 0.19793999, 0.5871868, 10.525189
699358603625541, 0.21894327, 3.8297126, 9.017352, -0.13493913, -0.57638216, 9.781452
699358613263562, 0.40438703, 5.0548377, 9.12144, 0.17938095, 0.45017576, 10.425007
699358622901479, 0.22372891, 4.1635113, 9.019745, -0.083692074, -0.2750218, 9.932675
699358632539395, 0.27158538, 4.5942197, 8.879765, 0.018137991, 0.15234709, 10.000364
699358642177312, 0.29072794, 4.625326, 8.865408, 0.044644713, 0.1839726, 10.00189
699358651815333, 0.2321038, 4.028317, 8.560323, -0.051965475, -0.21685338, 9.461005
699358661453249, 0.38644084, 5.009374, 8.732606, 0.18059075, 0.56525373, 10.057309
699358671091166, 0.16510476, 3.6993039, 8.483752, -0.14371002, -0.4645691, 9.2439
699358680729083, 0.38165522, 5.1720862, 8.703893, 0.18667197, 0.7159159, 10.104777
699358690366999, 0.22013968, 3.731607, 8.602198, -0.09379691, -0.5015905, 9.365402
699358700005020, 0.4127619, 5.0213385, 8.839087, 0.20624346, 0.52889156, 10.158318
699358709642937, 0.26919255, 4.065406, 8.919247, -0.04586488, -0.3427105, 9.7996645
699358719280854, 0.28115666, 4.57747, 9.052048, 0.007644236, 0.052550554, 10.1473675
699358728918770, 0.23688944, 4.5116673, 9.233903, -0.05683434, -0.07121563, 10.2794895
699358738556687, 0.15314065, 4.0414777, 9.0544405, -0.1737889, -0.39621854, 9.907204
699358748194708, 0.32183465, 4.9986067, 9.225528, 0.08676779, 0.36367273, 10.490957
699358757832624, 0.09930214, 3.6993039, 8.992228, -0.27103156, -0.6612251, 9.6976385
699358767470541, 0.27876383, 5.17089, 9.267402, 0.06649649, 0.5061188, 10.603773
699358777108458, 0.0634098, 3.7076788, 8.983852, -0.29313487, -0.63948894, 9.693588
699358786746374, 0.29671, 5.0309095, 9.029316, 0.07457292, 0.47306967, 10.329439
699358796384395, 0.22253251, 4.0103707, 8.919247, -0.0886963, -0.38245797, 9.774017
699358806022312, 0.30269206, 4.6085763, 8.8187475, 0.05935037, 0.18348622, 9.953076
699358815660229, 0.3074777, 4.5008993, 8.848659, 0.051389217, 0.07722831, 9.931909
699358825298145, 0.2644069, 4.085745, 8.648857, -0.016007006, -0.20504498, 9.5668
699358834936062, 0.38285163, 4.961518, 8.851051, 0.17370892, 0.466079, 10.141842
699358844574083, 0.19262223, 3.7674992, 8.612965, -0.1164, -0.46394372, 9.390714
699358854211999, 0.36011982, 5.194818, 8.851051, 0.17786652, 0.6699157, 10.245805
699358863849916, 0.12083755, 3.6981075, 8.666803, -0.20693612, -0.5360651, 9.406057
699358873487833, 0.3397808, 5.089534, 8.786445, 0.16363186, 0.6147535, 10.13981
699358883125749, 0.20817557, 4.040281, 8.790034, -0.08371192, -0.30052757, 9.671329
699358892763666, 0.29671, 4.699504, 8.846265, 0.06613499, 0.23950219, 10.018386
699358902401687, 0.23928227, 4.4817567, 8.946764, -0.02081263, 0.014150143, 10.009363
699358912039604, 0.20697916, 4.159922, 8.835498, -0.07886869, -0.22429013, 9.765107
699358921677520, 0.3696911, 4.9543395, 9.048459, 0.14315325, 0.36519098, 10.31518
699358931315437, 0.24047868, 3.7878382, 8.85464, -0.09157938, -0.5691893, 9.61654
699358940953354, 0.43908295, 5.2079782, 9.113065, 0.23457152, 0.54145, 10.488833
699358950591374, 0.21296121, 3.7088752, 8.817552, -0.122642696, -0.6207087, 9.547251
699358960229291, 0.38763726, 5.1266227, 8.908479, 0.19656575, 0.5625508, 10.268322
699358969867208, 0.20338993, 3.979264, 8.853444, -0.11624074, -0.3989079, 9.699833
699358979505124, 0.31465617, 4.749753, 8.908479, 0.08321369, 0.25227857, 10.09701
699358989143041, 0.27517462, 4.459025, 9.059227, -0.003939867, -0.06571174, 10.100686
699358998780958, 0.26919255, 4.2448673, 8.944371, -0.025117874, -0.20469213, 9.902051
699359008418874, 0.3397808, 4.90409, 9.140582, 0.09888166, 0.28526115, 10.37423
699359018056895, 0.15672988, 3.760321, 8.907282, -0.16755688, -0.611639, 9.648942
699359027694812, 0.34576288, 5.1457653, 9.078369, 0.13453376, 0.52331305, 10.427048
699359037332729, 0.09212367, 3.6646078, 8.806784, -0.24154565, -0.63374305, 9.51511
699359046970645, 0.31106696, 5.1122656, 8.88814, 0.10685438, 0.5864904, 10.240883
699359056608562, 0.13878371, 3.9349968, 8.695518, -0.15357324, -0.36982918, 9.537041
699359066246479, 0.23928227, 4.8059845, 8.685946, 0.021624982, 0.39837313, 9.921757
699359075884499, 0.19381863, 4.456632, 8.745767, -0.055064082, 0.071225405, 9.817304
699359085522416, 0.18544376, 4.2927237, 8.675179, -0.075045586, -0.047130108, 9.680534
699359095160333, 0.31226337, 4.90409, 8.927621, 0.091526866, 0.36904883, 10.183586
699359104798249, 0.19740787, 3.8321054, 8.776874, -0.118062854, -0.499789, 9.565238
699359114436166, 0.44147578, 5.1290154, 9.055637, 0.22737426, 0.51367664, 10.401476
699359124074083, 0.23330021, 3.6203406, 8.785249, -0.10418415, -0.68479323, 9.479561
699359133712104, 0.44147578, 5.089534, 8.889337, 0.24254549, 0.54060674, 10.2355995
699359143350020, 0.25842485, 3.8368912, 8.749356, -0.058546066, -0.4744873, 9.545218
699359152987937, 0.3804588, 4.792824, 8.788837, 0.14816928, 0.33562636, 10.011242
699359162625854, 0.28115666, 4.358526, 8.863015, 0.0073913336, -0.06603336, 9.880507
699359172263770, 0.2213361, 4.331009, 8.829515, -0.054766178, -0.07439065, 9.836586
699359181901687, 0.23928227, 4.8658047, 9.08794, -0.006209135, 0.2868204, 10.30736
699359191539604, 0.10049855, 3.8835511, 8.973084, -0.23700124, -0.5139935, 9.761556
699359201177624, 0.31465617, 5.206782, 9.300901, 0.0906204, 0.49226236, 10.652034
699359210815541, 0.09810573, 3.6921253, 9.065208, -0.25611648, -0.7239201, 9.758574
699359220453458, 0.2943172, 5.1409793, 9.135797, 0.07188219, 0.49980402, 10.474928
699359230091374, 0.1363909, 3.8081772, 8.87139, -0.1878351, -0.53865147, 9.638309
699359239729291, 0.34097722, 4.8299127, 8.833105, 0.119589925, 0.3605826, 10.065969
699359249367208, 0.31226337, 4.328616, 8.801998, 0.04194945, -0.07511306, 9.81337
699359259005124, 0.31465617, 4.3788652, 8.669196, 0.060088992, 0.029377222, 9.717198
699359268643041, 0.34217364, 4.837091, 8.774481, 0.12227619, 0.38720202, 10.017044
699359278281062, 0.17587246, 3.9134614, 8.603394, -0.11192894, -0.3414936, 9.446447
699359287918979, 0.3278167, 5.1625147, 8.993423, 0.10735685, 0.57711506, 10.358384
699359297556895, 0.124426775, 3.6574295, 8.961121, -0.22006407, -0.7190001, 9.650315
699359307194812, 0.36610186, 5.1852465, 9.242277, 0.13434893, 0.47830057, 10.592152
699359316832729, 0.1902294, 3.8536408, 9.113065, -0.14696437, -0.6173191, 9.875831
699359326470645, 0.36131623, 4.9340005, 9.111869, 0.12060696, 0.31350613, 10.36283
699359336108562, 0.2644069, 4.2723846, 9.035298, -0.0301283, -0.22154236, 9.99549
699359345746479, 0.27158538, 4.398008, 8.797213, 0.005887568, -0.014967203, 9.839053
699359355384499, 0.36131623, 4.76411, 8.865408, 0.126288, 0.267637, 10.066537
699359365022416, 0.23569304, 3.9170506, 8.632108, -0.0698728, -0.36985016, 9.474728
699359374660333, 0.38404804, 5.0943193, 8.823533, 0.19533819, 0.5678699, 10.178099
699359384298249, 0.1591227, 3.6789649, 8.618947, -0.16157812, -0.5681443, 9.354007
699359393936166, 0.37328035, 5.2019963, 8.823533, 0.19435602, 0.6763575, 10.225439
699359403574083, 0.15074782, 3.8333018, 8.673982, -0.15356553, -0.44528246, 9.472753
699359413211999, 0.30508488, 4.9734817, 8.819944, 0.09554881, 0.47946715, 10.118351
699359422849916, 0.22253251, 4.2664027, 8.886943, -0.06411582, -0.17886615, 9.858669
699359432487833, 0.30029923, 4.5188456, 8.876176, 0.03622204, 0.041161537, 9.96462
699359442125749, 0.36370903, 4.770092, 9.01137, 0.11327469, 0.19640851, 10.199974
699359451763770, 0.24526432, 3.9673, 8.782856, -0.06509411, -0.40335464, 9.6317835
699359461401687, 0.3912265, 5.144569, 8.983852, 0.18043542, 0.5285394, 10.344919
699359471039604, 0.18065812, 3.7160535, 8.725428, -0.15320629, -0.5895841, 9.465924
699359480677520, 0.34576288, 5.209175, 8.913264, 0.15218419, 0.6220467, 10.309766
699359490315437, 0.106480606, 3.7710886, 8.790034, -0.22903639, -0.5531776, 9.546659
699359499953354, 0.28713873, 4.9782677, 8.946764, 0.07481843, 0.4250896, 10.23347
699359509591270, 0.20578274, 4.2041893, 8.983852, -0.090920866, -0.2683077, 9.917
699359519229187, 0.3062813, 4.523631, 8.930014, 0.039360404, 0.021175861, 10.014999
699359528867104, 0.35533416, 4.7198424, 9.077172, 0.095777035, 0.12882805, 10.235843
699359538505124, 0.27038896, 4.0151563, 8.892925, -0.042372465, -0.4068365, 9.752506
699359548143041, 0.4235296, 5.0679984, 9.132208, 0.18638396, 0.4015298, 10.443432
699359557780958, 0.18065812, 3.6681972, 8.906086, -0.16722286, -0.7076123, 9.606143
699359567418874, 0.35653058, 5.206782, 9.067601, 0.13164532, 0.5602174, 10.446432
699359577056791, 0.101694964, 3.749553, 8.822337, -0.23571378, -0.5938208, 9.565298
699359586694708, 0.29312077, 5.022535, 8.873783, 0.08708829, 0.49818802, 10.18823
699359596332624, 0.16630118, 4.1431723, 8.82473, -0.13419831, -0.25174093, 9.746181
699359605970541, 0.24885355, 4.59063, 8.774481, 0.0011743903, 0.1555233, 9.904703
699359615608458, 0.2620141, 4.6911287, 8.886943, 0.018735647, 0.19103551, 10.050684
699359625246479, 0.18783657, 4.0570307, 8.6548395, -0.09891105, -0.2607093, 9.55632
699359634884395, 0.36011982, 5.0847483, 8.87139, 0.16046596, 0.53384256, 10.216416
699359644522312, 0.18903299, 3.7531424, 8.693125, -0.13203555, -0.54637575, 9.453901
699359654160229, 0.39481574, 5.2223353, 8.968299, 0.1973108, 0.61383104, 10.365487
699359663798145, 0.1794617, 3.735196, 8.807981, -0.16060787, -0.60613036, 9.548364
699359673436062, 0.4127619, 5.0177493, 8.897711, 0.20026577, 0.46514463, 10.210827
699359683073979, 0.24885355, 4.078566, 8.867801, -0.055517077, -0.33454156, 9.758051
699359692711895, 0.28594232, 4.5834517, 8.8905325, 0.026011169, 0.09224248, 10.006108
699359702349812, 0.3062813, 4.6097727, 9.005388, 0.039857745, 0.065161705, 10.121017
699359711987729, 0.22612174, 4.126423, 8.819944, -0.07253045, -0.27371, 9.736004
699359721625645, 0.37447673, 5.072784, 9.041281, 0.14874125, 0.45039797, 10.363067
699359731263666, 0.17587246, 3.8033917, 8.834301, -0.16054004, -0.56237745, 9.60206
699359740901583, 0.38883367, 5.2630134, 9.077172, 0.17819971, 0.61031914, 10.480522
699359750539499, 0.148355, 3.7746778, 8.866604, -0.18881172, -0.5982659, 9.617343
699359760177416, 0.36610186, 5.0979085, 8.985049, 0.14399713, 0.510643, 10.323387
699359769815333, 0.23928227, 4.101298, 8.863015, -0.06191933, -0.30733013, 9.7638445
699359779453249, 0.3385844, 4.6815577, 8.825927, 0.09054494, 0.21020293, 9.99381
699359789091166, 0.28594232, 4.5487556, 8.903693, 0.02033037, 0.05772972, 10.002248
699359798729083, 0.20338993, 4.1168513, 8.691928, -0.08913177, -0.22388864, 9.616722
699359808366999, 0.33140594, 5.0213385, 8.896515, 0.114418805, 0.47136688, 10.2096195
699359818004916, 0.17108682, 3.76391, 8.755338, -0.16044784, -0.55919623, 9.513873
699359827642833, 0.3792624, 5.2199426, 9.036494, 0.16522121, 0.57383156, 10.425608
699359837280854, 0.11964113, 3.682554, 8.836694, -0.23978311, -0.65594316, 9.548555
699359846918770, 0.31585258, 5.022535, 8.932407, 0.08694881, 0.45300007, 10.2421055
699359856556687, 0.15672988, 3.9338005, 8.872586, -0.17263812, -0.45380497, 9.694658
699359866194604, 0.23928227, 4.625326, 8.928818, -0.01639241, 0.12387085, 10.057788
699359875832520, 0.24047868, 4.475775, 8.974281, -0.035069585, -0.029564142, 10.031253
699359885470437, 0.22612174, 4.176672, 8.822337, -0.06564671, -0.22858858, 9.760778
699359895108354, 0.3385844, 5.0273204, 9.031709, 0.11098671, 0.42332697, 10.332901
699359904746270, 0.15792629, 3.888337, 8.772088, -0.16200036, -0.45838094, 9.584221
699359914384187, 0.36610186, 5.3240304, 8.989835, 0.17454886, 0.69973254, 10.42959
699359924022104, 0.15792629, 3.784249, 8.772088, -0.15848836, -0.5476184, 9.537819
699359933660020, 0.37567315, 5.151747, 8.916854, 0.18489033, 0.5741093, 10.287279
699359943297937, 0.20697916, 3.9601214, 8.867801, -0.11221069, -0.43666673, 9.703609
699359952935958, 0.32183465, 4.6803613, 8.892925, 0.07939792, 0.17707229, 10.052653
699359962573874, 0.30987054, 4.392026, 8.962317, 0.028108597, -0.1089685, 9.984807
699359972211791, 0.2943172, 4.1838503, 8.829515, 5.9747696E-4, -0.2329402, 9.772271
699359981849708, 0.3900301, 4.932804, 8.950353, 0.15437609, 0.37186885, 10.219167
699359991487624, 0.19262223, 3.8261235, 8.72782, -0.13155097, -0.4988966, 9.517612
699360001125541, 0.3792624, 5.265406, 9.014959, 0.17804962, 0.63314414, 10.426182
699360010763458, 0.13758731, 3.7794633, 8.847462, -0.19673479, -0.58154345, 9.602288
699360020401374, 0.35413775, 5.204389, 9.000603, 0.14745235, 0.5862212, 10.385402
699360030039291, 0.16510476, 3.9816568, 8.882157, -0.15567166, -0.43169785, 9.724349
699360039677208, 0.32303107, 4.8011985, 8.865408, 0.0890888, 0.2913351, 10.082584
699360049315229, 0.27756742, 4.3932223, 8.904889, -0.0012782216, -0.08213878, 9.933165
699360058953145, 0.22731815, 4.182654, 8.748159, -0.063720345, -0.19508624, 9.697136
699360068591062, 0.30269206, 4.837091, 8.921639, 0.069877446, 0.3067565, 10.14819
699360078228979, 0.17467605, 3.8201413, 8.676374, -0.13935053, -0.47159982, 9.468983
699360087866895, 0.4127619, 5.2055855, 8.968299, 0.20847434, 0.60569525, 10.358019
699360097504812, 0.19381863, 3.737589, 8.762517, -0.12564993, -0.58292675, 9.509641
699360107142729, 0.40438703, 5.2366924, 8.940782, 0.19354284, 0.63798356, 10.347924
699360116780645, 0.1902294, 3.9720855, 8.860622, -0.12138772, -0.41801858, 9.702311
699360126418562, 0.3074777, 4.8586264, 8.937193, 0.06346494, 0.31159782, 10.172173
699360136056479, 0.21296121, 4.368098, 9.016156, -0.075594604, -0.14197421, 10.019523
699360145694395, 0.19860429, 4.267599, 8.941978, -0.090456486, -0.20291877, 9.907647
699360155332416, 0.30987054, 4.8263235, 9.077172, 0.0535959, 0.22729445, 10.282506
699360164970333, 0.16869399, 3.8261235, 8.79482, -0.13833934, -0.5208626, 9.577375
699360174608249, 0.40079778, 5.144569, 8.980264, 0.17971969, 0.54288316, 10.341438
699360184246166, 0.16869399, 3.6777685, 8.815159, -0.15506303, -0.65840364, 9.529109
699360193884083, 0.4019942, 5.2259245, 9.050852, 0.18263382, 0.5778656, 10.441385
699360203521999, 0.19501504, 3.9445682, 8.928818, -0.12507218, -0.47596073, 9.750859
699360213159916, 0.28235307, 4.9064827, 8.980264, 0.048164487, 0.33542657, 10.2315
699360222797833, 0.18664017, 4.382455, 8.952746, -0.09415209, -0.1157372, 9.968459
699360232435749, 0.17108682, 4.409972, 8.819944, -0.09318316, -0.033610344, 9.861986
699360242073666, 0.24526432, 4.851448, 8.920443, 0.020779371, 0.3029337, 10.152774
699360251711687, 0.11365908, 3.897908, 8.700303, -0.1885598, -0.43396902, 9.522498
699360261349604, 0.30987054, 5.157729, 8.95155, 0.1116187, 0.5356395, 10.321293
699360270987520, 0.1160519, 3.6873398, 8.696713, -0.21581352, -0.62423944, 9.423721
699360280625437, 0.37088752, 5.188836, 8.775677, 0.19614124, 0.6286738, 10.180392
699360290263354, 0.2321038, 3.8763726, 8.563912, -0.07936609, -0.42742872, 9.393175
699360299901270, 0.4019942, 4.9459643, 8.640483, 0.21339297, 0.46706533, 9.9508
699360309539187, 0.32542387, 4.314259, 8.707481, 0.054285765, -0.10904193, 9.722352
699360319177104, 0.36131623, 4.4434714, 8.696713, 0.10211587, 0.012895107, 9.772268
699360328815020, 0.4331009, 4.8418765, 8.909675, 0.20045763, 0.2588873, 10.144282
699360338453041, 0.3182454, 4.0163527, 8.792427, -0.0022676587, -0.3922205, 9.663606
699360348090958, 0.48933223, 5.2199426, 9.123833, 0.26749843, 0.50615215, 10.507323
699360357728874, 0.22612174, 3.7471602, 8.971889, -0.113258004, -0.68867207, 9.700517
699360367366791, 0.37806597, 5.2438707, 9.202796, 0.13826126, 0.52001524, 10.585037
699360377004708, 0.12562318, 3.8608193, 9.053245, -0.2130658, -0.60775304, 9.821823
699360386642624, 0.24765715, 4.9531426, 9.133404, -0.013154864, 0.32799816, 10.3877945
699360396280541, 0.11964113, 4.2077785, 9.114262, -0.18926367, -0.32115722, 10.032474
699360405918458, 0.18185452, 4.453043, 8.985049, -0.10400486, -0.04798889, 10.028992
699360415556374, 0.26919255, 4.773681, 9.0544405, 0.008681834, 0.20245457, 10.237301
699360425194395, 0.13280165, 3.9373896, 8.859426, -0.18898618, -0.43814802, 9.684132
699360434832312, 0.30388847, 5.0739803, 9.126225, 0.080916464, 0.43806887, 10.436817
699360444470229, 0.09212367, 3.6454654, 8.883354, -0.2657646, -0.70093274, 9.573398
699360454108145, 0.3481557, 5.1876397, 9.017352, 0.15840107, 0.5807123, 10.391494
699360463746062, 0.18664017, 3.7866418, 8.797213, -0.14410132, -0.55323863, 9.562302
699360473383979, 0.36490545, 4.9722853, 8.886943, 0.1649707, 0.43940878, 10.179108
699360483021895, 0.20578274, 4.199404, 8.859426, -0.079515696, -0.2109108, 9.803874
699360492659812, 0.22612174, 4.510471, 8.762517, -0.020472765, 0.09666729, 9.857353
699360502297729, 0.2739782, 4.7138605, 8.836694, 0.04272586, 0.23969817, 10.016157
699360511935749, 0.21894327, 4.0211387, 8.618947, -0.059424758, -0.27624345, 9.509148
699360521573666, 0.40677986, 5.1326046, 8.8701935, 0.20499748, 0.57476425, 10.238021
699360531211583, 0.23569304, 3.7363925, 8.6345005, -0.066883445, -0.54844975, 9.394974
699360540849499, 0.43429732, 5.239085, 8.834301, 0.25171363, 0.6741111, 10.254937
699360550487416, 0.20578274, 3.790231, 8.703893, -0.097485244, -0.52832794, 9.480364
699360560125333, 0.36729828, 5.0309095, 8.848659, 0.16480535, 0.49025273, 10.172326
699360569763249, 0.26679972, 4.1814575, 8.839087, -0.01596582, -0.23740911, 9.778988
699360579401270, 0.30029923, 4.601398, 8.836694, 0.05405259, 0.12514663, 9.966524
699360589039187, 0.34097722, 4.7007003, 9.013762, 0.09013355, 0.13479948, 10.170273
699360598677104, 0.22013968, 4.091727, 8.878569, -0.08275437, -0.33273435, 9.772518
699360608315020, 0.33140594, 5.093123, 9.127422, 0.102191985, 0.44156408, 10.447687
699360617952937, 0.1160519, 3.7268212, 8.946764, -0.21530837, -0.66991997, 9.667064
699360627590854, 0.35294133, 5.2127643, 9.178867, 0.13368034, 0.5162363, 10.54821
699360637228770, 0.12921242, 3.7256248, 8.916854, -0.19600546, -0.6512885, 9.640782
699360646866687, 0.31226337, 4.9902315, 8.9826565, 0.08811426, 0.4174993, 10.271611
699360656504708, 0.1794617, 4.0570307, 8.925228, -0.11870617, -0.3661456, 9.798124
699360666142624, 0.23330021, 4.575077, 8.894122, -0.018358469, 0.10284209, 10.004013
699360675780541, 0.2620141, 4.599005, 8.914461, 0.01268971, 0.11576009, 10.033622
699360685418458, 0.16749759, 4.0390844, 8.693125, -0.11095536, -0.27809215, 9.582434
699360695056374, 0.3182454, 5.0440702, 8.9108715, 0.111397326, 0.5033171, 10.231413
699360704694291, 0.12323037, 3.7555351, 8.744571, -0.18398815, -0.5522876, 9.499887
699360714332208, 0.34576288, 5.2402816, 9.029316, 0.1408596, 0.6301863, 10.4255295
699360723970229, 0.14955142, 3.7292142, 8.82114, -0.16540378, -0.6118262, 9.557208
699360733608145, 0.3493521, 5.069195, 8.919247, 0.13939798, 0.52830505, 10.2505245
699360743246062, 0.18544376, 4.0558343, 8.861818, -0.111460626, -0.32881308, 9.741432
699360752883979, 0.25962126, 4.5966125, 8.841479, 0.013227582, 0.14487505, 9.96729
699360762521895, 0.25842485, 4.5391846, 8.927621, 0.0026521087, 0.061047792, 10.018467
699360772159812, 0.22013968, 4.1144586, 8.749356, -0.06043297, -0.23363924, 9.668001
699360781797729, 0.37328035, 4.9974103, 9.0029955, 0.15518636, 0.4204812, 10.294002
699360791435749, 0.17706887, 3.7208393, 8.811569, -0.14529598, -0.60263395, 9.54649
699360801073666, 0.40797627, 5.21755, 9.035298, 0.20840704, 0.5936618, 10.422573
699360810711583, 0.1698904, 3.743571, 8.852247, -0.1538809, -0.5964503, 9.593021
699360820349499, 0.36370903, 5.099105, 9.026923, 0.13860393, 0.51489615, 10.36022
699360829987416, 0.18903299, 4.019942, 8.965906, -0.11793029, -0.41012168, 9.818401
699360839625333, 0.27996024, 4.6695933, 9.035298, 0.020558774, 0.12800312, 10.173656
699360849263354, 0.276371, 4.5272202, 9.102298, 0.0029927492, -0.024267197, 10.169727
699360858901270, 0.24047868, 4.1647077, 8.900104, -0.04577458, -0.25537276, 9.825843
699360868539187, 0.38285163, 5.003392, 9.06162, 0.14921856, 0.40936375, 10.349087
699360878177104, 0.16390835, 3.7686956, 8.815159, -0.14857024, -0.55976176, 9.570869
699360887815020, 0.3696911, 5.2127643, 9.052048, 0.1548751, 0.59105635, 10.434358
699360897452937, 0.16869399, 3.6921253, 8.799605, -0.16593254, -0.6316345, 9.521913
699360907090958, 0.37328035, 5.12423, 8.851051, 0.18015295, 0.5908947, 10.2155075
699360916728874, 0.19501504, 3.9840498, 8.711071, -0.0973047, -0.32908058, 9.574743
699360926366791, 0.30388847, 4.727021, 8.720642, 0.08593696, 0.30926394, 9.918854
699360936004708, 0.2548356, 4.4685965, 8.799605, 0.0012253523, 0.049060345, 9.872383
699360945642624, 0.17108682, 4.1778684, 8.700303, -0.105795145, -0.15324616, 9.651139
699360955280541, 0.30269206, 4.9160542, 8.973084, 0.07882315, 0.36607718, 10.229136
699360964918562, 0.1902294, 3.7878382, 8.744571, -0.13208193, -0.5150926, 9.516758
699360974556479, 0.41874397, 5.2127643, 9.006584, 0.22133297, 0.60049367, 10.395058
699360984194395, 0.18424734, 3.7040894, 8.82114, -0.14696366, -0.62852764, 9.547256
699360993832312, 0.3361916, 5.117051, 9.001799, 0.12651217, 0.5410843, 10.345087
699361003470229, 0.1268196, 3.9242291, 8.889337, -0.19437999, -0.45083976, 9.705408
699361013108145, 0.24646074, 4.7688956, 8.933603, 0.00972116, 0.26338243, 10.126348
699361022746166, 0.24765715, 4.4374895, 9.067601, -0.02878046, -0.082163334, 10.097844
699361032384083, 0.22372891, 4.281956, 8.949157, -0.061367154, -0.16789365, 9.921726
699361042021999, 0.33379877, 4.910072, 9.144172, 0.095642805, 0.2927308, 10.379851
699361051659916, 0.16031912, 3.8093736, 8.938389, -0.16613942, -0.57926464, 9.698901
699361061297833, 0.38165522, 5.1756754, 9.175279, 0.1656233, 0.5045228, 10.527918
699361070935854, 0.16510476, 3.6837504, 8.930014, -0.1784457, -0.67869115, 9.63587
699361080573770, 0.36251262, 5.1218367, 9.053245, 0.13875508, 0.5251522, 10.393788
699361090211687, 0.18544376, 3.8668015, 8.88814, -0.13290268, -0.50038505, 9.68078
699361099849604, 0.30508488, 4.7880383, 8.902496, 0.07682353, 0.28830385, 10.108601
699361109487520, 0.21296121, 4.359723, 8.914461, -0.060153782, -0.078160286, 9.925242
699361119125541, 0.20219351, 4.253242, 8.760123, -0.06558269, -0.10204291, 9.739405
699361128763458, 0.32542387, 4.8562336, 8.930014, 0.10661131, 0.3431728, 10.163902
699361138401374, 0.1794617, 3.8895333, 8.7266245, -0.1261999, -0.40342999, 9.546516
699361148039291, 0.36370903, 5.209175, 8.997013, 0.18357009, 0.62447214, 10.382214
699361157677208, 0.15792629, 3.694518, 8.79482, -0.18676007, -0.61041546, 9.519232
699361167315229, 0.39720857, 5.1876397, 8.949157, 0.21218455, 0.61105466, 10.331428
699361176953145, 0.20578274, 3.8871403, 8.801998, -0.11332452, -0.4512639, 9.61306
699361186591062, 0.31585258, 4.8418765, 8.891729, 0.085403085, 0.34372663, 10.123287
699361196228979, 0.2548356, 4.314259, 8.903693, -0.019363165, -0.116211176, 9.896446
699361205866895, 0.2644069, 4.351348, 8.774481, 0.0027501583, -0.03183627, 9.797686
699361215504916, 0.3505485, 4.837091, 8.965906, 0.12070215, 0.30890465, 10.188121
699361225142833, 0.2105684, 3.859623, 8.792427, -0.085491896, -0.4681604, 9.592774
699361234780749, 0.37208393, 5.13739, 9.093923, 0.15276712, 0.5164032, 10.437464
699361244418666, 0.14476576, 3.6610186, 8.921639, -0.19150072, -0.69672036, 9.617566
699361254056583, 0.3505485, 5.1553364, 9.127422, 0.12424296, 0.5343313, 10.474218
699361263694604, 0.17228323, 3.824927, 8.940782, -0.16123956, -0.55586934, 9.70888
699361273332520, 0.31345975, 4.8861437, 9.014959, 0.08109385, 0.34806156, 10.252533
699361282970437, 0.21894327, 4.267599, 9.030513, -0.07460225, -0.20282555, 9.988184
699361292608354, 0.19860429, 4.3525443, 8.892925, -0.071256995, -0.062405348, 9.902487
699361302246374, 0.2727818, 4.755735, 9.007781, 0.034776688, 0.23740053, 10.186952
699361311884291, 0.16271193, 3.8847475, 8.811569, -0.1414814, -0.44319272, 9.620033
699361321522208, 0.36131623, 5.111069, 9.055637, 0.14854664, 0.5185094, 10.390728
699361331160124, 0.18783657, 3.6837504, 8.800801, -0.13603938, -0.6224644, 9.521212
699361340798041, 0.4223332, 5.1900325, 8.940782, 0.22436225, 0.6415312, 10.324266
699361350436062, 0.19142582, 3.8093736, 8.781659, -0.11788666, -0.5019913, 9.560315
699361360073979, 0.32303107, 4.9495535, 8.879765, 0.10936499, 0.465348, 10.159927
699361369711895, 0.20458634, 4.21735, 8.908479, -0.07993871, -0.1917119, 9.856253
699361379349812, 0.23449662, 4.4243293, 8.812766, -0.018836796, 0.033878326, 9.863724
699361388987833, 0.31585258, 4.7306104, 8.930014, 0.087653756, 0.24232197, 10.107283
699361398625749, 0.18185452, 3.926622, 8.755338, -0.12256229, -0.38084626, 9.588915
699361408263666, 0.35533416, 4.961518, 9.01137, 0.1451487, 0.40710783, 10.284012
699361417901583, 0.27996024, 4.254439, 8.908479, -0.0011079907, -0.17311215, 9.874697
699361427539604, 0.30029923, 4.496114, 8.985049, 0.03562528, 0.007200241, 10.051616
699361437177520, 0.28713873, 4.4350967, 9.008977, 0.014138818, -0.055799723, 10.04544
699361446815437, 0.28235307, 4.4614177, 9.038888, 0.008088708, -0.045762777, 10.083816
699361456453354, 0.276371, 4.4721856, 9.018549, 0.0052644014, -0.026183128, 10.0702715
699361466091374, 0.2548356, 4.456632, 8.946764, -0.011819959, -0.0056421757, 9.998547
699361475729291, 0.24047868, 4.4458647, 8.913264, -0.023546636, 0.001090765, 9.963397
699361485367208, 0.23449662, 4.430311, 8.939586, -0.0325346, -0.025923252, 9.9798355
699361495005124, 0.23449662, 4.4350967, 8.976674, -0.03634733, -0.039395332, 10.015132
699361504643145, 0.23090738, 4.447061, 8.938389, -0.035304844, -0.0115561485, 9.986145
699361514281062, 0.23449662, 4.453043, 8.895318, -0.029691637, 0.0062026978, 9.950394
699361523918979, 0.24646074, 4.456632, 8.868998, -0.015316844, 0.019161463, 9.928788
699361533556895, 0.25962126, 4.4913282, 8.82114, 0.003423512, 0.06292367, 9.901918
699361543194916, 0.31465617, 4.508078, 8.7984085, 0.061251104, 0.080963135, 9.890574
699361552832833, 0.33499518, 4.4889355, 8.833105, 0.074008286, 0.043760538, 9.913582
699361562470749, 0.3361916, 4.4805603, 8.857033, 0.071121156, 0.026448011, 9.931251
699361572108770, 0.32303107, 4.453043, 8.859426, 0.05499053, 0.0031189919, 9.920702
699361581746687, 0.30149564, 4.442275, 8.889337, 0.029205084, -0.014407635, 9.942029
699361591384604, 0.29671, 4.442275, 8.895318, 0.023800135, -0.012712717, 9.947252
699361601022520, 0.28953153, 4.4542394, 8.879765, 0.019465446, 0.012084007, 9.9385
699361610660541, 0.26679972, 4.4374895, 8.904889, -0.0069552064, -0.0095222, 9.95286
699361620298458, 0.2548356, 4.449454, 8.926425, -0.019407988, -0.0068695545, 9.977136
699361629936374, 0.25842485, 4.4542394, 8.925228, -0.015776038, -0.0015015602, 9.978303
699361639574291, 0.24885355, 4.462614, 8.965906, -0.029542625, -0.009563923, 10.018149
699361649212312, 0.2536392, 4.4662037, 8.96471, -0.02436763, -0.006402731, 10.018816
699361658850229, 0.26081768, 4.4602213, 8.952746, -0.017089725, -0.0058448315, 10.005648
699361668488145, 0.2428715, 4.453043, 8.979067, -0.037534714, -0.017083406, 10.025494
699361678126166, 0.22372891, 4.4207397, 8.96471, -0.05836904, -0.037382603, 9.997711
699361687764083, 0.21774685, 4.4255257, 8.961121, -0.0608207, -0.025371075, 9.9965
699361697401999, 0.25124636, 4.432704, 8.958728, -0.025337994, -0.018589735, 9.998491
699361707039916, 0.28115666, 4.4075794, 8.938389, 0.0038958788, -0.03498602, 9.969923
699361716677937, 0.29671, 4.430311, 8.8905325, 0.025406241, 0.0070421696, 9.937634
699361726315854, 0.30029923, 4.4398823, 8.865408, 0.031994462, 0.02789712, 9.919497
699361735953770, 0.2739782, 4.4315076, 8.88814, 0.0038580298, 0.01367259, 9.9354
699361745591791, 0.27038896, 4.4398823, 8.935996, -0.002449274, 6.611347E-4, 9.981869
699361755229708, 0.25842485, 4.4482574, 8.976674, -0.016584575, -0.008485079, 10.021683
699361764867624, 0.27876383, 4.438686, 8.961121, 0.0035170317, -0.011855125, 10.004059
699361774505541, 0.2883351, 4.4350967, 8.91805, 0.016506612, 0.0033650398, 9.964164
699361784143562, 0.2847459, 4.4578285, 8.9348, 0.013485312, 0.016682386, 9.989171
699361793781479, 0.29312077, 4.438686, 8.943174, 0.020376563, -0.0045592785, 9.988381
699361803419395, 0.30508488, 4.426722, 8.941978, 0.033301294, -0.015409708, 9.982313
699361813057416, 0.30149564, 4.432704, 8.96471, 0.028792143, -0.019752026, 10.005229
699361822695333, 0.2620141, 4.4434714, 8.944371, -0.008139372, 0.0029568672, 9.990736
699361832333249, 0.25004998, 4.470989, 8.939586, -0.016310573, 0.030404568, 9.9983635
699361841971270, 0.2656033, 4.4446683, 8.9312105, -0.0026643276, 0.008815289, 9.979584
699361851609187, 0.30987054, 4.436293, 8.894122, 0.047154665, 0.012009144, 9.943831
699361861247104, 0.30149564, 4.436293, 8.873783, 0.04040706, 0.02193451, 9.925398
699361870885124, 0.27038896, 4.430311, 8.908479, 0.006785929, 0.004548073, 9.952972
699361880523041, 0.2739782, 4.426722, 8.9013, 0.010130346, 0.0032966137, 9.945047
699361890160958, 0.5312066, 4.5655055, 8.926425, 0.2768113, 0.084843874, 10.0360985
699361899798979, 0.41635114, 4.449454, 8.962317, 0.14459527, -0.023981571, 10.013623
699361909436895, 0.16869399, 4.3645086, 8.867801, -0.101979196, -0.028566837, 9.884537
699361919074812, 0.09092726, 4.325027, 8.807981, -0.17313933, -0.026098967, 9.81142
699361928712729, -0.0035892338, 4.35733, 8.915657, -0.27219048, -0.032887697, 9.919682
699361938350749, 0.09212367, 4.392026, 8.889337, -0.16346169, 0.0024735928, 9.91423
699361947988666, 0.18664017, 4.4578285, 8.897711, -0.06441885, 0.04708886, 9.953389
699361957626583, 0.3361916, 4.4745784, 9.165708, 0.06689119, -0.070687056, 10.204684
699361967264604, 0.3900301, 4.5332026, 8.999406, 0.137348, 0.048607826, 10.08316
699361976902520, 0.23449662, 4.3968115, 8.801998, -0.014433682, 0.032173157, 9.841792
699361986540437, 0.2213361, 4.409972, 9.047262, -0.04468763, -0.0626626, 10.066969
699361996178458, 0.19860429, 4.3836513, 8.915657, -0.058201432, -0.02582097, 9.936837
699362005816374, 0.21535404, 4.4039903, 8.806784, -0.031602204, 0.03802967, 9.848783
699362015454395, 0.27756742, 4.462614, 8.915657, 0.029093325, 0.03472638, 9.973907
699362025092312, 0.25124636, 4.429115, 8.961121, -0.0038776398, -0.011759996, 9.999084
699362034730229, 0.2548356, 4.412365, 8.945567, -3.5870075E-4, -0.020714045, 9.977807
699362044368145, 0.28594232, 4.418347, 8.99462, 0.028032541, -0.04081154, 10.025184
699362054006166, 0.27876383, 4.4243293, 8.961121, 0.0237962, -0.021247149, 9.997654
699362063644083, 0.29671, 4.429115, 8.916854, 0.04455185, -0.0013377666, 9.960593
699362073281999, 0.30987054, 4.436293, 8.953942, 0.05375588, -0.014076471, 9.997336
699362082920020, 0.29072794, 4.426722, 9.01137, 0.029336989, -0.045135975, 10.044019
699362092557937, 0.22372891, 4.408776, 8.983852, -0.03791082, -0.04112506, 10.009687
699362102195958, 0.21774685, 4.4482574, 8.9312105, -0.035791457, 0.017686605, 9.979948
699362111833874, 0.21774685, 4.4518466, 8.919247, -0.03383708, 0.026019812, 9.970831
699362121471791, 0.23569304, 4.438686, 8.878569, -0.013203561, 0.029421091, 9.92902
699362131109812, 0.16510476, 4.401597, 8.891729, -0.08696544, -0.0013153553, 9.922531
699362140747729, 0.17228323, 4.377669, 8.894122, -0.08211231, -0.025631428, 9.914215
699362150385645, 0.21894327, 4.4195433, 8.85823, -0.02762121, 0.021573782, 9.901885
699362160023666, 0.25603202, 4.4374895, 8.849854, 0.012667596, 0.036566734, 9.903296
699362169661583, 0.2632105, 4.4398823, 8.853444, 0.019520342, 0.036417484, 9.907756
699362179299499, 0.25244278, 4.4410787, 8.829515, 0.010463893, 0.048365355, 9.886599
699362188937520, 0.24885355, 4.438686, 8.839087, 0.0061857104, 0.04034543, 9.894019
699362198575437, 0.2656033, 4.442275, 8.906086, 0.018401206, 0.012268543, 9.956014
699362208213354, 0.27876383, 4.45065, 8.945567, 0.02959919, 4.041195E-4, 9.995414
699362217851374, 0.3074777, 4.4602213, 8.977871, 0.05718571, -0.008702755, 10.0293045
699362227489291, 0.30149564, 4.470989, 8.995817, 0.050819695, -0.006885767, 10.050013
699362237127208, 0.26799613, 4.4410787, 8.962317, 0.016933858, -0.015523195, 10.005878
699362246765229, 0.24885355, 4.436293, 8.971889, -0.0035144687, -0.022447824, 10.011837
699362256403145, 0.25962126, 4.4231324, 8.922835, 0.008648813, -0.014081955, 9.96234
699362266041166, 0.2739782, 4.430311, 8.916854, 0.0239771, -0.0066816807, 9.960542
699362275679083, 0.30867413, 4.453043, 8.953942, 0.056595087, -0.005964756, 10.004734
699362285316999, 0.30269206, 4.4614177, 8.970692, 0.048943877, -0.0042800903, 10.023312
699362294955020, 0.23090738, 4.4279184, 8.926425, -0.023560047, -0.0053567886, 9.96696
699362304592937, 0.22731815, 4.430311, 8.8701935, -0.023095429, 0.021609545, 9.917594
699362314230854, 0.22372891, 4.426722, 8.85464, -0.025167823, 0.026345491, 9.901983
699362323868874, 0.21894327, 4.4374895, 8.880961, -0.030326486, 0.025472641, 9.930215
699362333506791, 0.24885355, 4.4398823, 8.85464, 0.0020176172, 0.036213636, 9.908471
699362343144812, 0.25004998, 4.4315076, 8.847462, 0.0039532185, 0.0323236, 9.89835
699362352782729, 0.22731815, 4.421936, 8.907282, -0.024069905, 7.176399E-4, 9.947073
699362362420645, 0.19860429, 4.4075794, 8.944371, -0.056655884, -0.025196552, 9.973171
699362372058666, 0.20697916, 4.438686, 8.941978, -0.0450989, 0.0032417774, 9.985077
699362381696583, 0.2548356, 4.436293, 8.913264, 0.0046792626, 0.008210897, 9.959508
