timestamp_acc,device_acc_x,device_acc_y,device_acc_z,earth_acc_x,earth_acc_y,earth_acc_z
699902516487940, 6.196214, 0.025124637, 7.914261, 0.042328894, -0.023904324, 10.051212
699902526126951, 6.1854467, 0.0071784677, 7.905886, 0.0604797, -0.019242764, 10.03787
699902535765961, 6.206982, 0.008374879, 7.914261, 0.05548507, -0.0059785843, 10.057789
699902545404919, 6.216553, 0.0035892338, 7.9357963, 0.06150222, -0.010443687, 10.080603
699902555043930, 6.229714, 0.025124637, 7.978867, 0.041727543, -0.028954983, 10.122732
699902564682940, 6.242874, 0.05742774, 7.9716887, 0.0043754578, -0.01890564, 10.125425
699902574321899, 6.222535, 0.08135597, 7.9226356, -0.027063072, -0.006107807, 10.07442
699902583960909, 6.216553, 0.09930214, 7.8903327, -0.04782641, 0.004968643, 10.045418
699902593599919, 6.218946, 0.106480606, 7.8891363, -0.05735469, 0.0047822, 10.045984
699902603238878, 6.235696, 0.10767702, 7.891529, -0.063895226, 0.010137081, 10.058208
699902612877888, 6.218946, 0.076570325, 7.8867435, -0.031475067, 0.006301403, 10.043946
699902622516899, 6.253642, 0.06460621, 7.9106717, -0.026266694, 0.01694727, 10.084144
699902632155857, 6.2488565, 0.059820566, 7.9166536, -0.022434354, 0.009786129, 10.085861
699902641794815, 6.2261243, 0.046660043, 7.9130645, -0.00864327, -0.0038237572, 10.068928
699902651433826, 6.202196, 0.051445685, 7.8927255, -0.014078379, -0.01287508, 10.038158
699902661072836, 6.195018, 0.040677983, 7.891529, -0.0024780035, -0.0152134895, 10.032742
699902670711794, 6.2057858, 0.02871387, 7.893922, 0.0045357943, -0.011018276, 10.041239
699902680350805, 6.233303, 0.008374879, 7.8927255, 0.017840743, 0.013150215, 10.057274
699902689989815, 6.2261243, -0.011964113, 7.885547, 0.037808895, 0.016716957, 10.047134
699902699628774, 6.2524457, -0.0059820567, 7.88794, 0.022741437, 0.033183575, 10.065342
699902709267784, 6.2548385, -0.008374879, 7.9011, 0.02369833, 0.028164864, 10.077158
699902718906794, 6.24766, -0.0023928226, 7.9166536, 0.021404028, 0.012076378, 10.084943
699902728545753, 6.224928, 0.011964113, 7.9226356, 0.010207653, -0.012237549, 10.0756035
699902738184763, 6.227321, 0.0059820567, 7.9070826, 0.009558201, -0.0021300316, 10.064859
699902747823774, 6.216553, 0.013160525, 7.884351, -2.0575523E-4, -7.739067E-4, 10.040354
699902757462732, 6.2057858, 0.0011964113, 7.88794, 0.012248874, -0.010614872, 10.0364895
699902767101742, 6.2117677, 0.010767702, 7.905886, 0.0042939186, -0.019021034, 10.054295
699902776740753, 6.2261243, 0.022731815, 7.8903327, -0.014236569, -0.0017828941, 10.050984
699902786379711, 6.245267, 0.033499517, 7.885547, -0.03332579, 0.014932156, 10.059074
699902796018669, 6.2309103, 0.040677983, 7.9166536, -0.033932924, -0.016392231, 10.0746155
699902805657680, 6.235696, 0.051445685, 7.9310107, -0.046747923, -0.02322197, 10.088842
699902815296690, 6.253642, 0.06580263, 7.9154572, -0.066004336, -0.0024142265, 10.087739
699902824935649, 6.2524457, 0.08135597, 7.908279, -0.08192098, -0.0027332306, 10.081362
699902834574659, 6.242874, 0.06580263, 7.8831544, -0.065071106, 0.006239891, 10.055728
699902844213669, 6.263213, 0.033499517, 7.8520474, -0.0408988, 0.046960354, 10.04389
699902853852628, 6.2285175, 0.015553347, 7.850851, -0.012570143, 0.023743153, 10.021467
699902863491638, 6.216553, 0.0, 7.8352976, 0.0022716522, 0.02722931, 10.001833
699902873130649, 6.222535, -0.008374879, 7.8400836, 0.013178706, 0.035160065, 10.009272
699902882769607, 6.1806607, -0.011964113, 7.867601, 0.028854609, -0.01015234, 10.004946
699902892408617, 6.175875, -0.008374879, 7.8927255, 0.030073047, -0.029554844, 10.021719
699902902047628, 6.202196, -0.0047856453, 7.926225, 0.028173447, -0.025698185, 10.064337
699902911686586, 6.215357, 0.021535404, 7.941778, 0.0034428835, -0.02962923, 10.084745
699902921325544, 6.2261243, 0.032303106, 7.9429746, -0.007182479, -0.023210049, 10.092369
699902930964555, 6.2321067, 0.019142581, 7.9274216, 0.0020925999, -0.0061063766, 10.083823
699902940603565, 6.250053, 0.014356935, 7.962117, 0.012768269, -0.009458065, 10.122175
699902950242524, 6.250053, -0.010767702, 7.952546, 0.035644054, 0.0024609566, 10.114593
699902959881534, 6.2608204, 0.02871387, 7.945368, -0.0037961006, 0.007651806, 10.1157055
699902969520544, 6.270392, 0.046660043, 7.940582, -0.022285819, 0.0163517, 10.1179085
699902979159503, 6.2344995, 0.09212367, 7.969296, -0.053250432, -0.037215233, 10.118445
699902988798513, 6.2344995, 0.10767702, 7.958528, -0.06274295, -0.032474995, 10.110081
699902998437524, 6.2261243, 0.08015956, 7.920243, -0.040201902, -0.009606838, 10.0747
699903008076482, 6.2105713, 0.09212367, 7.9070826, -0.04588747, -0.015614986, 10.054815
699903017715492, 6.2201424, 0.062213387, 7.8484583, -0.023393989, 0.034602642, 10.01452
699903027354503, 6.2141604, 0.029910283, 7.82453, 0.009989977, 0.05304241, 9.991849
699903036993461, 6.1830535, 0.009571291, 7.8460655, 0.042685747, 0.020736217, 9.98943
699903046632419, 6.1603217, -0.010767702, 7.8281193, 0.06643605, 0.01744175, 9.961144
699903056271430, 6.1734824, -0.049052864, 7.8520474, 0.10573053, 0.022219181, 9.987856
699903065910440, 6.202196, -0.0741775, 7.8556366, 0.12502658, 0.04672718, 10.008293
699903075549399, 6.209375, -0.076570325, 7.8903327, 0.12752879, 0.030547619, 10.040038
699903085188409, 6.202196, -0.043070808, 7.926225, 0.10183728, -0.004963875, 10.063983
699903094827419, 6.2201424, 0.010767702, 7.9011, 0.04020548, 0.010642052, 10.055641
699903104466378, 6.2213387, 0.02632105, 7.8903327, 0.021695495, 0.015478611, 10.048004
699903114105388, 6.2057858, 0.033499517, 7.877172, 0.01498878, 0.010764122, 10.028081
699903123744399, 6.1878395, 0.059820566, 7.8927255, -0.0074014664, -0.015258312, 10.0293455
699903133383357, 6.1854467, 0.09212367, 7.9070826, -0.037082314, -0.032134056, 10.039313
699903143022315, 6.1914287, 0.11844472, 7.90469, -0.065556765, -0.029925823, 10.041252
699903152661326, 6.2057858, 0.13280165, 7.9154572, -0.08231759, -0.028949738, 10.0586405
699903162300336, 6.224928, 0.13399807, 7.9298143, -0.0846858, -0.023098946, 10.081762
699903171939294, 6.256035, 0.12323037, 7.946564, -0.07695532, -0.009050846, 10.1141
699903181578305, 6.2440705, 0.12562318, 7.9357963, -0.07713723, -0.015367508, 10.098262
699903191217315, 6.263213, 0.09810573, 7.881958, -0.060741067, 0.03770256, 10.067654
699903200856274, 6.2548385, 0.05503492, 7.8687973, -0.015075564, 0.0484643, 10.051937
699903210495284, 6.2416778, 0.046660043, 7.8592257, -0.0037618876, 0.046596527, 10.036232
699903220134294, 6.2380886, 0.05503492, 7.82453, -0.016000986, 0.06290054, 10.006789
699903229773253, 6.2141604, 0.058624156, 7.813762, -0.015156627, 0.051421165, 9.983549
699903239412211, 6.1878395, 0.06460621, 7.800602, -0.016507268, 0.038808346, 9.9569645
699903249051221, 6.198607, 0.06699903, 7.792227, -0.020174026, 0.05199337, 9.957053
699903258690232, 6.1710896, 0.062213387, 7.8281193, -0.00593853, 0.010285854, 9.9682255
699903268329190, 6.1938214, 0.049052864, 7.8783684, 0.01026547, -0.0019683838, 10.021698
699903277968201, 6.2201424, 0.051445685, 7.891529, 0.005080819, 0.01038456, 10.048329
699903287607211, 6.2117677, 0.049052864, 7.925029, 0.013199687, -0.015746593, 10.069466
699903297246169, 6.224928, 0.06580263, 7.966903, 1.9395351E-4, -0.032729626, 10.110615
699903306885128, 6.202196, 0.07537391, 7.9776707, -0.0046596527, -0.055301666, 10.105103
699903316524138, 6.198607, 0.08255238, 7.9764743, -0.011305571, -0.05437088, 10.102011
699903326163149, 6.216553, 0.0849452, 7.9716887, -0.017372608, -0.03211975, 10.109365
699903335802107, 6.2081785, 0.09212367, 7.978867, -0.021930933, -0.044468403, 10.109888
699903345441117, 6.212964, 0.096909314, 7.978867, -0.027035475, -0.042623997, 10.112867
699903355080128, 6.2512493, 0.1268196, 7.9704924, -0.0630337, -0.015693665, 10.130091
699903364719086, 6.2404814, 0.11485548, 7.9357963, -0.053173542, -0.0022249222, 10.09608
699903374358044, 6.218946, 0.10049855, 7.9070826, -0.036055326, -9.202957E-5, 10.0601225
699903383997055, 6.2285175, 0.06699903, 7.911868, -0.0029710531, 0.011768818, 10.06958
699903393636065, 6.2380886, 0.061016977, 7.9070826, 0.0017313957, 0.023446083, 10.071687
699903403275024, 6.215357, 0.069391854, 7.9106717, -2.9325485E-4, 0.0014743805, 10.060528
699903412913982, 6.2033925, 0.059820566, 7.879565, 0.009328485, 0.01219511, 10.028608
699903422552992, 6.2033925, 0.0741775, 7.8580294, -0.0049011707, 0.020746708, 10.011781
699903432192003, 6.202196, 0.08255238, 7.836494, -0.012619853, 0.030055046, 9.99418
699903441830961, 6.1794643, 0.07298109, 7.8376904, 0.004012108, 0.014202595, 9.980996
699903451469971, 6.2057858, 0.047856454, 7.8436728, 0.02727735, 0.03821373, 10.001753
699903461108982, 6.2033925, 0.047856454, 7.847262, 0.029500365, 0.036343575, 10.003085
699903470747940, 6.1938214, 0.043070808, 7.881958, 0.041114807, 0.011435509, 10.024406
699903480386899, 6.2201424, 0.05383851, 7.8987074, 0.028521895, 0.0193367, 10.053927
699903490025909, 6.2237315, 0.08255238, 7.9190464, 0.0020204782, 0.005560398, 10.072384
699903499664919, 6.1998034, 0.07298109, 7.921439, 0.013772726, -0.013794899, 10.05941
699903509303878, 6.1878395, 0.061016977, 7.9106717, 0.02592218, -0.013872147, 10.043454
699903518942836, 6.202196, 0.051445685, 7.88794, 0.028201222, 0.009993553, 10.03437
699903528581846, 6.1998034, 0.034695927, 7.9238324, 0.045989275, -0.016643524, 10.060989
699903538220857, 6.1914287, 0.041874398, 7.9298143, 0.040872335, -0.028823853, 10.060566
699903547859815, 6.209375, 0.03589234, 7.8903327, 0.03392625, 0.008052826, 10.040606
699903557498774, 6.168697, -0.3182454, 7.85444, 0.3814144, 0.074958324, 9.984751
699903567137784, 6.303891, 0.60059845, 7.9836526, -0.5228889, -0.09290743, 10.176268
699903576776378, 6.099305, -0.46660042, 7.806584, 0.5224762, 0.07710314, 9.903689
699903586415753, 6.3385873, 0.49052864, 7.9908314, -0.4282781, -0.050867558, 10.20224
699903596054711, 6.134001, -0.08015956, 7.838887, 0.14222914, 0.003952503, 9.952904
699903605693774, 6.3086767, 0.03589234, 7.8927255, 0.014567971, 0.08041382, 10.103916
699903615332732, 6.222535, 0.39481574, 7.881958, -0.32493305, -0.052159786, 10.04454
699903624971690, 6.227321, -0.38165522, 7.792227, 0.41974652, 0.17223692, 9.971868
699903634610649, 6.2955165, 0.70947194, 7.945368, -0.6237918, -0.11454487, 10.142165
699903644249607, 6.151947, -0.6041877, 7.806584, 0.65577954, 0.1536498, 9.934816
699903653888669, 6.3457656, 0.8039884, 7.9920278, -0.7096503, -0.1232028, 10.211213
699903663527628, 6.0574307, -0.47018966, 7.792227, 0.5559819, 0.07501602, 9.864968
699903673166586, 6.283552, 0.52163535, 7.98126, -0.42625368, -0.099312305, 10.161894
699903682805544, 6.07418, -0.13758731, 7.84128, 0.23053342, -0.020568848, 9.91699
699903692444607, 6.242874, 0.058624156, 7.9274216, 0.031337976, 0.013427734, 10.090578
699903702083565, 6.1507506, 0.28594232, 7.8831544, -0.18054163, -0.08665705, 10.000875
699903711722524, 6.1974106, -0.41635114, 7.792227, 0.48452544, 0.16555738, 9.951777
699903721361482, 6.2679987, 0.6628119, 7.966903, -0.55226624, -0.13333416, 10.142775
699903731000544, 6.1363935, -0.62811595, 7.797013, 0.69130355, 0.16728354, 9.916521
699903740639503, 6.3493547, 0.7609176, 7.9740815, -0.66174257, -0.09853983, 10.199593
699903750278461, 6.0861444, -0.5407779, 7.753942, 0.60670906, 0.12385893, 9.852603
699903759917419, 6.3326054, 0.57906306, 7.921439, -0.49184346, -0.044368744, 10.146059
699903769556378, 6.105287, -0.1363909, 7.8400836, 0.22118866, -0.003955364, 9.935346
699903779195440, 6.2847486, 0.15553348, 7.940582, -0.07550454, 0.010894775, 10.127648
699903788834399, 6.1806607, 0.317049, 7.895118, -0.21847022, -0.080207825, 10.028948
699903798473357, 6.2141604, -0.3493521, 7.834101, 0.41725022, 0.14841509, 9.995742
699903808112315, 6.2668023, 0.654437, 7.978867, -0.54989827, -0.14026356, 10.1509285
699903817751378, 6.122037, -0.6149554, 7.813762, 0.68593436, 0.14103031, 9.920786
699903827390336, 6.3074803, 0.8003992, 7.9884386, -0.6857884, -0.14865446, 10.18566
699903837029294, 6.0801625, -0.53599226, 7.7671022, 0.6237298, 0.118050575, 9.85802
699903846668253, 6.367301, 0.6125626, 7.960921, -0.5159316, -0.03643608, 10.199338
699903856307211, 6.1387863, -0.19740787, 7.7814593, 0.28415716, 0.08203745, 9.90895
699903865946274, 6.2991056, 0.17467605, 7.8664045, -0.09226799, 0.06864023, 10.07851
699903875585232, 6.1507506, 0.25004998, 7.84128, -0.14946055, -0.04709196, 9.967718
699903885224190, 6.2033925, -0.2883351, 7.8520474, 0.37015283, 0.10220766, 10.003619
699903894863149, 6.2177496, 0.6867401, 7.98126, -0.5683327, -0.16744709, 10.123314
699903904502211, 6.0897336, -0.55513483, 7.816155, 0.6359956, 0.09050131, 9.903163
699903914141169, 6.2548385, 0.8039884, 8.062616, -0.69157183, -0.2136612, 10.21035
699903923780128, 6.0933228, -0.5802595, 7.756335, 0.6565728, 0.13798046, 9.857782
699903933419086, 6.3254266, 0.64008003, 7.920243, -0.55028653, -0.048186302, 10.1412945
699903943058044, 6.068198, -0.20338993, 7.8927255, 0.29954743, -0.042809963, 9.953289
699903952697107, 6.337391, 0.24047868, 7.995617, -0.15523326, 0.0042181015, 10.204221
699903962336065, 6.1435723, 0.2117648, 7.9190464, -0.10936117, -0.09029436, 10.023947
699903971975024, 6.2751775, -0.28594232, 7.847262, 0.35121322, 0.17552805, 10.044151
699903981613982, 6.2608204, 0.6580262, 7.993224, -0.54429483, -0.13490391, 10.159135
699903991252940, 6.099305, -0.50488555, 7.8424764, 0.6046422, 0.10481882, 9.928962
699904000891899, 6.2979093, 0.8243274, 7.9369926, -0.71564496, -0.1033988, 10.139832
699904010530961, 6.096912, -0.567099, 7.688139, 0.63908076, 0.20120859, 9.805739
699904020169919, 6.3421764, 0.6723832, 7.9011, -0.56550074, -0.0047240257, 10.138188
699904029808878, 6.108876, -0.30987054, 7.763513, 0.4003088, 0.12191343, 9.874787
699904039447836, 6.3218374, 0.23330021, 7.8987074, -0.13376701, 0.076079845, 10.118595
699904049086794, 6.1447687, 0.12801601, 7.8580294, -0.011148453, -0.012508392, 9.976118
699904058725857, 6.239285, -0.23330021, 7.9190464, 0.3317446, 0.11272955, 10.078275
699904068364815, 6.209375, 0.5563313, 7.9860454, -0.42626107, -0.13583231, 10.121394
699904078003774, 6.1196437, -0.51206404, 7.867601, 0.60970426, 0.12042904, 9.961184
699904087642732, 6.263213, 0.78364944, 8.111669, -0.637918, -0.22937298, 10.255806
699904097281690, 6.009574, -0.567099, 7.813762, 0.68411237, 0.08426523, 9.849688
699904106920649, 6.283552, 0.69272214, 7.978867, -0.5621146, -0.110422134, 10.163515
699904116559711, 6.04427, -0.33379877, 7.836494, 0.4548527, 0.035672665, 9.891769
699904126198669, 6.262017, 0.3361916, 7.9884386, -0.21221948, -0.04304266, 10.153528
699904135837628, 6.1196437, 0.17228323, 7.874779, -0.05213952, -0.047611713, 9.974311
699904145476586, 6.2512493, -0.12801601, 7.8460655, 0.21573347, 0.14187431, 10.0293865
699904155115544, 6.2177496, 0.57188463, 7.9298143, -0.4450022, -0.09494686, 10.082776
699904164754503, 6.1387863, -0.48454657, 7.8664045, 0.5897543, 0.1289382, 9.97173
699904174393565, 6.3086767, 0.84825563, 8.051848, -0.7063097, -0.16884756, 10.238352
699904184032524, 6.1100726, -0.5276174, 7.8400836, 0.6247234, 0.12086916, 9.933448
699904193671482, 6.346962, 0.7860422, 8.029117, -0.6547805, -0.10352945, 10.243489
699904203310440, 6.0801625, -0.30987054, 7.8580294, 0.42337334, 0.043566227, 9.931359
699904212949399, 6.3014984, 0.40079778, 7.9908314, -0.27385604, -0.024876118, 10.180733
699904222588357, 6.0921264, 0.07058827, 7.8628154, 0.060025573, -0.03371191, 9.946764
699904232227419, 6.212964, -0.1052842, 7.84128, 0.2147348, 0.11218071, 10.001949
699904241866378, 6.181857, 0.4977071, 7.90469, -0.36033297, -0.07793808, 10.040482
699904251505336, 6.13759, -0.5407779, 7.834101, 0.64874065, 0.1403799, 9.944597
699904261144294, 6.285945, 0.74416786, 8.002795, -0.6025083, -0.11695099, 10.185035
699904270783253, 6.1028943, -0.6197411, 7.8017983, 0.7235448, 0.15471888, 9.89697
699904280422211, 6.3517475, 0.7393822, 7.9980097, -0.61581635, -0.065059185, 10.221354
699904290061169, 6.078966, -0.4103691, 7.8053875, 0.51606226, 0.08542538, 9.888008
699904299700232, 6.3050876, 0.39481574, 7.9944205, -0.2895466, -0.037942886, 10.185061
699904309339190, 6.0825553, -0.025124637, 7.8628154, 0.14082897, -0.03507948, 9.939863
699904318978149, 6.2321067, -0.11006984, 7.861619, 0.19857979, 0.098555565, 10.0303135
699904328617107, 6.157929, 0.43788654, 7.8831544, -0.32732618, -0.096729755, 10.006971
699904338256065, 6.122037, -0.51206404, 7.783852, 0.5949504, 0.14759207, 9.897178
699904347895024, 6.227321, 0.75493556, 7.9597244, -0.64327896, -0.16800833, 10.112597
699904357533982, 6.038288, -0.5766702, 7.7874413, 0.66750365, 0.10224342, 9.84793
699904367173044, 6.2919273, 0.8147561, 7.948957, -0.7227218, -0.11541271, 10.144084
699904376812003, 6.040681, -0.3469593, 7.751549, 0.43321216, 0.05926323, 9.823722
699904386450961, 6.3086767, 0.54317075, 7.9298143, -0.45577478, -0.025623798, 10.137455
699904396089919, 6.09093, 0.0023928226, 7.8149586, 0.080797434, -0.013720036, 9.907891
699904405728878, 6.302695, -0.020338992, 7.8867435, 0.081478536, 0.10911989, 10.094877
699904415367836, 6.250053, 0.39361933, 7.9501534, -0.31319642, -0.05534506, 10.115429
699904425006794, 6.229714, -0.44985065, 7.9022965, 0.5018739, 0.13039064, 10.05928
699904434645753, 6.337391, 0.71425754, 8.072187, -0.638306, -0.1382904, 10.26676
699904444284815, 6.1507506, -0.64606214, 7.874779, 0.6937757, 0.13132763, 9.988129
699904453923774, 6.34098, 0.73340017, 8.045866, -0.64747214, -0.13494301, 10.249119
699904463562732, 6.0454664, -0.485743, 7.838887, 0.5494571, 0.047912598, 9.895838
699904473201690, 6.2787666, 0.5096712, 8.014759, -0.4304639, -0.104307175, 10.1844425
699904482840649, 6.0514483, -0.06580263, 7.8759756, 0.15038598, -0.06384754, 9.931196
699904492479607, 6.257231, 0.0526421, 7.8927255, 0.008027673, 0.059399128, 10.072102
699904502118565, 6.1878395, 0.357727, 7.873583, -0.2811656, -0.053025246, 10.016425
699904511757524, 6.212964, -0.47856453, 7.810173, 0.52664435, 0.18670177, 9.975798
699904521396586, 6.282356, 0.65324056, 7.98126, -0.5667076, -0.10454607, 10.161848
699904531035544, 6.087341, -0.6987042, 7.8149586, 0.7629523, 0.12513685, 9.900492
699904540674503, 6.302695, 0.7070791, 7.995617, -0.62316346, -0.103963375, 10.186005
699904550313461, 6.0394845, -0.5587241, 7.818548, 0.62175435, 0.050365448, 9.875632
699904559952419, 6.2691956, 0.5300102, 7.9836526, -0.4488567, -0.08137941, 10.154524
699904569591378, 6.017949, -0.13758731, 7.8257265, 0.21449524, -0.04903555, 9.870573
699904579230336, 6.218946, 0.11246266, 7.891529, -0.043587327, 0.023836613, 10.04797
699904588869294, 6.125626, 0.38285163, 7.8604226, -0.2987851, -0.08358574, 9.967941
699904598508357, 6.1639113, -0.32063824, 7.82453, 0.38322198, 0.12455034, 9.9577875
699904608147315, 6.2524457, 0.7070791, 7.993224, -0.6098428, -0.13622713, 10.153532
699904617786274, 6.114858, -0.60059845, 7.838887, 0.6678157, 0.14068747, 9.936529
699904627425232, 6.35773, 0.80997044, 7.982456, -0.74244046, -0.07303715, 10.209793
699904637064190, 6.096912, -0.5192425, 7.8293157, 0.58509564, 0.120280266, 9.918837
699904646703149, 6.364908, 0.59581286, 8.1020975, -0.5187341, -0.09607458, 10.306927
699904656342107, 6.13759, -0.18664017, 7.928618, 0.256795, 0.018381119, 10.025045
699904665981065, 6.2919273, 0.11485548, 7.9980097, -0.049737453, 0.026109219, 10.176765
699904675620024, 6.178268, 0.2632105, 7.9561353, -0.17819893, -0.07267094, 10.074886
699904685258982, 6.242874, -0.37328035, 7.9190464, 0.4269799, 0.1374793, 10.080819
699904694898044, 6.253642, 0.62452674, 8.036295, -0.5265024, -0.14146662, 10.187388
699904704537003, 6.087341, -0.6556334, 7.879565, 0.7231858, 0.10294914, 9.951859
699904714175961, 6.263213, 0.73100734, 8.069795, -0.62039983, -0.17539358, 10.220966
699904723814919, 5.9964137, -0.6053841, 7.856833, 0.6872465, 0.04937792, 9.878185
699904733453878, 6.253642, 0.5778667, 8.049456, -0.4684372, -0.1384654, 10.197897
699904743092836, 6.0323057, -0.22253251, 7.9166536, 0.3276062, -0.046436787, 9.949983
699904752731794, 6.259624, 0.2009971, 8.007581, -0.110670805, -0.01808834, 10.165239
699904762370753, 6.113662, 0.2536392, 7.899904, -0.15530634, -0.07983971, 9.990955
699904772009815, 6.168697, -0.2835495, 7.834101, 0.34968597, 0.12603855, 9.968359
699904781648774, 6.215357, 0.62452674, 7.932207, -0.523432, -0.106583595, 10.082424
699904791287732, 6.0801625, -0.6257231, 7.7503524, 0.683208, 0.18616343, 9.845121
699904800926690, 6.265606, 0.7369894, 7.962117, -0.6355442, -0.11014938, 10.13806
699904810565649, 6.0598235, -0.6113662, 7.7419777, 0.6687328, 0.16371822, 9.826467
699904820204607, 6.37089, 0.62931234, 7.9011, -0.5650977, 0.030134201, 10.153395
699904829843565, 6.078966, -0.25722843, 7.812566, 0.32134062, 0.073604584, 9.896844
699904839482524, 6.314659, 0.2632105, 8.020741, -0.18984818, 0.009119034, 10.209818
699904849121482, 6.157929, 0.18065812, 7.921439, -0.10423267, -0.031150341, 10.034446
699904858760440, 6.235696, -0.28953153, 7.9836526, 0.34953904, 0.11197281, 10.12777
699904868399399, 6.1998034, 0.5455636, 8.13799, -0.4386921, -0.19904232, 10.233768
699904878038461, 6.0957155, -0.61016977, 7.945368, 0.68469745, 0.11709404, 10.008818
699904887677419, 6.239285, 0.75613195, 8.118847, -0.6474588, -0.18152952, 10.245192
699904897316378, 5.9521465, -0.6580262, 7.8460655, 0.7471369, 0.07742357, 9.841625
699904906955336, 6.2380886, 0.63888365, 7.987242, -0.55908895, -0.052972317, 10.139161
699904916594294, 5.979664, -0.2847459, 7.844869, 0.37563908, 0.028238297, 9.8609085
699904926233253, 6.256035, 0.36610186, 7.9704924, -0.28802824, 0.032876015, 10.134925
699904935872211, 6.09093, 0.26081768, 7.88794, -0.17626321, -0.023490429, 9.96772
699904945511169, 6.1998034, -0.08015956, 7.8580294, 0.14150512, 0.14703703, 10.007546
699904955150128, 6.168697, 0.66161543, 7.9561353, -0.5668167, -0.077198505, 10.072905
699904964789086, 6.099305, -0.48454657, 7.90469, 0.5535922, 0.13949823, 9.979706
699904974428149, 6.2105713, 0.7800602, 8.206185, -0.64618206, -0.22611666, 10.29818
699904984067107, 5.986842, -0.62452674, 7.993224, 0.7219195, 0.039697647, 9.980041
699904993706065, 6.2081785, 0.6664011, 8.1679, -0.53655374, -0.15929317, 10.265812
699905003345024, 5.9090757, -0.35533416, 8.014759, 0.4953522, -0.059369087, 9.951428
699905012983982, 6.094519, 0.30269206, 8.29472, -0.13909268, -0.20983076, 10.294357
699905022622940, 5.9700923, 0.24765715, 7.820941, -0.13062155, -0.015109062, 9.8414
699905032261899, 6.145965, -0.09930214, 8.009974, 0.22601211, 0.101635456, 10.093613
699905041900857, 6.0693946, 0.55393845, 8.008778, -0.3978126, -0.10146713, 10.055664
699905051539815, 6.04427, -0.45583272, 7.880761, 0.5870535, 0.18999434, 9.923037
699905061178774, 6.2057858, 0.8111669, 8.068598, -0.6459416, -0.08329058, 10.190577
699905070817732, 6.0023956, -0.5814559, 7.8664045, 0.7070097, 0.20046139, 9.884691
699905080456690, 6.2285175, 0.75254273, 8.098508, -0.59475124, -0.063491344, 10.22687
699905090095753, 5.940182, -0.37806597, 7.920243, 0.53518593, 0.0904789, 9.892641
699905099734711, 6.2321067, 0.44147578, 8.04467, -0.3043716, 0.036034107, 10.1812
699905109373669, 6.007181, 0.041874398, 7.989635, 0.116238475, -0.0081419945, 9.995433
699905119012628, 6.113662, -0.096909314, 7.9633136, 0.2242105, 0.110860825, 10.036836
699905128651586, 6.0394845, 0.50129634, 7.9920278, -0.33931017, -0.103598595, 10.023638
699905138290544, 5.9916277, -0.46301118, 7.9680996, 0.6001778, 0.0811429, 9.961818
699905147929503, 6.10768, 0.8207382, 8.1738825, -0.6543263, -0.2393961, 10.212946
699905157568461, 5.8947186, -0.587438, 7.958528, 0.7359066, 0.033555508, 9.893852
699905167207419, 6.141179, 0.7752745, 8.076973, -0.628628, -0.15176344, 10.155512
699905176846482, 5.916254, -0.36729828, 7.8257265, 0.48767745, 0.073712826, 9.80488
699905186485440, 6.204589, 0.506082, 7.9860454, -0.37648547, -0.0029330254, 10.118706
699905196124399, 5.9844494, 0.08255238, 7.8496547, 0.048381448, 0.0045986176, 9.870925
699905205763357, 6.196214, 0.04426722, 7.9022965, 0.06187129, 0.14628792, 10.040722
699905215402315, 6.141179, 0.5599205, 7.9310107, -0.4209497, -0.045087337, 10.037395
699905225041274, 6.1232333, -0.37567315, 7.8723865, 0.4748432, 0.21684027, 9.966801
699905234680232, 6.218946, 0.81236327, 8.062616, -0.65137005, -0.13101578, 10.193113
699905244319190, 6.040681, -0.54675996, 7.865208, 0.65224797, 0.20243359, 9.908777
699905253958149, 6.2811594, 0.8362915, 8.103293, -0.682758, -0.10396385, 10.263468
699905263597107, 5.977271, -0.36729828, 7.9573317, 0.51243114, 0.040810585, 9.94573
699905273236169, 6.2117677, 0.5192425, 8.196614, -0.354277, -0.13029289, 10.290658
699905282875128, 5.9557357, -0.011964113, 8.066205, 0.17820299, -0.1340046, 10.024216
699905292514086, 6.1627145, 0.03589234, 8.078169, 0.10217619, 0.0060367584, 10.160054
699905302153044, 6.076573, 0.41515473, 8.050652, -0.25799012, -0.13330746, 10.090875
699905311792003, 6.068198, -0.4438686, 7.9369926, 0.5608906, 0.11764383, 9.984361
699905321430961, 6.1387863, 0.6975078, 8.0817585, -0.53614056, -0.16955662, 10.157255
699905331069919, 5.992824, -0.6472585, 7.8580294, 0.75228214, 0.16512156, 9.873617
699905340708878, 6.1902323, 0.7369894, 8.055437, -0.5876547, -0.1315093, 10.168066
699905350347836, 5.9294147, -0.4534399, 7.8233337, 0.56558144, 0.085017204, 9.81025
699905359986794, 6.216553, 0.5419743, 7.9776707, -0.42070794, -0.031342506, 10.119512
699905369625857, 5.9952173, -0.06460621, 7.8029947, 0.16899729, 0.046315193, 9.838843
699905379264815, 6.1902323, 0.040677983, 7.8664045, 0.04470992, 0.12900639, 10.009112
699905388903774, 6.105287, 0.35653058, 7.8783684, -0.2525432, -0.024848461, 9.970251
699905398542732, 6.1208405, -0.3924229, 7.914261, 0.47001326, 0.14072609, 10.000675
699905408181690, 6.212964, 0.70947194, 8.141579, -0.60166, -0.18385124, 10.246647
699905417820649, 6.068198, -0.60059845, 8.026724, 0.6866262, 0.07627869, 10.05658
699905427459607, 6.2715883, 0.82313097, 8.183454, -0.7262269, -0.19820261, 10.315648
699905437098565, 6.029913, -0.47018966, 7.9310107, 0.547055, 0.06206131, 9.958853
699905446737524, 6.303891, 0.57188463, 8.1020975, -0.5025785, -0.06296921, 10.269057
699905456376586, 6.06102, -0.14237295, 7.969296, 0.22365558, -0.012391567, 10.010781
699905466015544, 6.259624, 0.101694964, 8.015956, -0.041965365, 0.056318283, 10.170734
699905475654503, 6.1268225, 0.27876383, 7.946564, -0.2060014, -0.046495914, 10.035883
699905485293461, 6.168697, -0.41874397, 7.899904, 0.46528828, 0.16672707, 10.019599
699905494932419, 6.1878395, 0.6233303, 8.056634, -0.5334207, -0.13815928, 10.162856
699905504571378, 6.0430737, -0.64606214, 7.856833, 0.7032668, 0.15215969, 9.90698
699905514210336, 6.2404814, 0.7896315, 8.038688, -0.7063228, -0.1119051, 10.182152
699905523849294, 5.962914, -0.51445687, 7.8197446, 0.5725447, 0.08051491, 9.830317
699905533488253, 6.2105713, 0.6089734, 7.999206, -0.54026103, -0.0761857, 10.130729
699905543127315, 5.9413786, -0.16390835, 7.838887, 0.2438603, -0.022594929, 9.834379
699905552766274, 6.174679, 0.16151553, 7.9298143, -0.10086572, 0.03178978, 10.051045
699905562405232, 6.033502, 0.2548356, 7.9154572, -0.17518926, -0.09209156, 9.954063
699905572044190, 6.1531434, -0.33738798, 7.91785, 0.37746012, 0.13290215, 10.02533
699905581683149, 6.2213387, 0.6687939, 8.140383, -0.5914211, -0.1805358, 10.248697
699905591322107, 6.1100726, -0.5814559, 8.04108, 0.6296495, 0.089000225, 10.095825
699905600961065, 6.2727847, 0.762114, 8.154739, -0.67642057, -0.17890978, 10.292661
699905610600024, 6.003592, -0.5982057, 7.8903327, 0.65922195, 0.101849556, 9.910266
699905620239086, 6.2691956, 0.587438, 8.090134, -0.51298475, -0.08357763, 10.238555
699905629878044, 5.9916277, -0.2644069, 7.8783684, 0.32829845, 0.0233922, 9.895953
699905639517003, 6.2309103, 0.1794617, 7.9561353, -0.123371124, 0.060316563, 10.106319
699905649155961, 6.0693946, 0.20937198, 7.877172, -0.13139045, -0.020131111, 9.945531
699905658794919, 6.1531434, -0.25842485, 7.8687973, 0.31076944, 0.16224527, 9.986143
699905668433878, 6.1770716, 0.62811595, 8.031509, -0.53681695, -0.12417793, 10.136682
699905678072836, 6.0933228, -0.5910272, 7.9106717, 0.6547886, 0.16837311, 9.979957
699905687711794, 6.2931237, 0.7585248, 8.135597, -0.67192173, -0.13148642, 10.290672
699905697350857, 6.1040907, -0.6664011, 7.9561353, 0.73063827, 0.16685295, 10.022097
699905706989815, 6.4091754, 0.5192425, 8.195417, -0.4547336, -0.016057491, 10.406967
699905716628774, 6.1100726, -0.3900301, 8.015956, 0.4664094, 0.059538364, 10.075693
699905726267732, 6.3182483, 0.18783657, 8.100901, -0.12087047, 0.049325466, 10.27439
699905735906690, 6.068198, 0.13160525, 7.9704924, -0.043293715, -0.055105686, 10.018195
699905745545649, 6.111269, -0.25603202, 8.063812, 0.34689105, 0.007381916, 10.115229
699905755184607, 6.088537, 0.5814559, 8.050652, -0.47171462, -0.17369556, 10.097957
699905764823669, 5.9545393, -0.59700924, 7.7814593, 0.6657923, 0.13053703, 9.793047
699905774462628, 6.0658054, 0.6963114, 7.96451, -0.5779009, -0.1625967, 10.017576
699905784101586, 5.844469, -0.6843473, 7.735996, 0.7658743, 0.10258818, 9.688893
699905793740544, 6.0801625, 0.6305088, 7.874779, -0.5249473, -0.09509134, 9.954569
699905803379503, 5.8157554, -0.30149564, 7.749156, 0.3955096, -0.0038394928, 9.685395
699905813018461, 6.0861444, 0.36251262, 7.921439, -0.26820362, -0.05700493, 9.992327
699905822657419, 5.9246287, 0.18783657, 7.8376904, -0.09147692, -0.092235565, 9.825936
699905832296482, 6.0897336, -0.14476576, 7.8424764, 0.19609487, 0.11719942, 9.927642
699905841935440, 6.117251, 0.5694918, 7.9884386, -0.48487675, -0.11760235, 10.0653515
699905851574399, 6.070591, -0.5312066, 7.941778, 0.5725434, 0.14523792, 9.992858
699905861213357, 6.263213, 0.74895346, 8.181061, -0.68800795, -0.15722847, 10.306332
699905870852315, 6.084948, -0.62811595, 7.9836526, 0.65521914, 0.14176226, 10.0354595
699905880491274, 6.3661046, 0.7106683, 8.166703, -0.6682948, -0.044004917, 10.35755
699905890130232, 6.0933228, -0.34097722, 7.999206, 0.36509514, 0.0742383, 10.054518
699905899769294, 6.337391, 0.41754755, 8.120044, -0.39282048, 0.015889645, 10.30133
699905909408253, 6.1005015, 0.16271193, 8.031509, -0.12273753, -0.056567192, 10.086103
699905919047211, 6.227321, -0.083748795, 8.084151, 0.10624838, 0.06805563, 10.204123
699905928686169, 6.148358, 0.5024927, 8.151151, -0.43484414, -0.16930008, 10.211676
699905938325128, 6.1028943, -0.5623133, 8.067402, 0.60606813, 0.10754728, 10.112646
699905947964086, 6.2201424, 0.70348984, 8.273184, -0.6190547, -0.2281332, 10.353519
699905957603149, 5.9844494, -0.69152576, 8.029117, 0.7577855, 0.08052254, 10.008888
699905967242107, 6.1842504, 0.66041905, 8.189436, -0.5768671, -0.17957401, 10.26562
699905976881065, 5.936593, -0.4354937, 7.969296, 0.51729, 0.0104494095, 9.933518
699905986520024, 6.1770716, 0.3900301, 8.100901, -0.31443334, -0.06717634, 10.189679
699905996158982, 5.930611, 0.011964113, 7.9776707, 0.08216107, -0.09852219, 9.939773
699906005797940, 6.0957155, -0.10887343, 7.9680996, 0.17310941, 0.06522608, 10.031252
699906015437003, 6.070591, 0.4438686, 8.000402, -0.3517828, -0.10760069, 10.045904
699906025075961, 6.0490556, -0.57427746, 7.9334035, 0.6346367, 0.15925789, 9.971542
699906034714919, 6.174679, 0.63170516, 8.110473, -0.5413271, -0.14761543, 10.19758
699906044353878, 6.01436, -0.71425754, 7.908279, 0.76191604, 0.18153238, 9.930262
699906053992836, 6.2727847, 0.6879365, 8.090134, -0.60659623, -0.078485966, 10.241935
699906063631794, 5.992824, -0.47976094, 7.873583, 0.53228295, 0.12602663, 9.891319
699906073270857, 6.2404814, 0.42711884, 8.013563, -0.35906434, 0.0072202682, 10.159442
699906082909815, 6.0011992, -0.016749758, 7.891529, 0.10050011, 0.003601551, 9.913667
699906092548774, 6.1495543, -0.040677983, 7.9298143, 0.102275014, 0.102086544, 10.03393
699906102187732, 6.09093, 0.42951167, 7.940582, -0.3413012, -0.05731535, 10.010843
699906111826690, 6.087341, -0.46181476, 7.885547, 0.5251157, 0.179008, 9.95706
699906121465649, 6.1710896, 0.73340017, 8.088937, -0.62379014, -0.14870834, 10.180368
699906131104711, 5.9964137, -0.64247286, 7.9106717, 0.7107058, 0.13550806, 9.9209385
699906140743669, 6.206982, 0.74416786, 8.184649, -0.644305, -0.1632762, 10.277506
699906150382628, 5.9641104, -0.4761717, 8.005188, 0.56478214, 0.014476776, 9.978036
699906160021586, 6.2285175, 0.47377887, 8.165507, -0.37410772, -0.08490276, 10.273619
699906169660544, 5.9784675, -0.076570325, 8.013563, 0.17419446, -0.06926298, 9.996499
699906179299607, 6.1854467, -0.0047856453, 8.070991, 0.08156693, 0.03719282, 10.168217
699906188938565, 6.0921264, 0.3924229, 8.036295, -0.292158, -0.10951662, 10.087254
699906198577524, 6.096912, -0.39601216, 7.9166536, 0.4594257, 0.15331364, 9.988393
699906208216482, 6.1675005, 0.74416786, 8.038688, -0.65031767, -0.13417053, 10.137625
699906217855440, 6.0083776, -0.59581286, 7.8293157, 0.6588517, 0.19100618, 9.863226
699906227494399, 6.204589, 0.782453, 7.9968133, -0.6987015, -0.09547424, 10.1272335
699906237133461, 5.9413786, -0.48215377, 7.757531, 0.55231833, 0.14553452, 9.766551
699906246772419, 6.222535, 0.4953143, 7.925029, -0.43250453, 0.024021626, 10.078875
699906256411378, 5.9700923, -0.16151553, 7.810173, 0.23876828, 0.05479431, 9.828879
699906266050336, 6.1471615, 0.0059820567, 7.9226356, 0.055271864, 0.08265829, 10.027258
699906275689399, 6.0658054, 0.2620141, 7.9022965, -0.18312848, -0.025539875, 9.963672
699906285328357, 6.0921264, -0.4642076, 7.893922, 0.51667225, 0.14972353, 9.967656
699906294967315, 6.161518, 0.63888365, 8.132008, -0.54138124, -0.17218065, 10.206824
699906304606274, 6.0323057, -0.65084773, 7.9884386, 0.7069928, 0.084935665, 10.00602
699906314245232, 6.2787666, 0.7716853, 8.218149, -0.68547475, -0.16733742, 10.346909
699906323884294, 6.0227346, -0.51565325, 8.055437, 0.5784557, -0.0033435822, 10.054586
699906333523253, 6.2955165, 0.61734825, 8.2348995, -0.5371964, -0.13136148, 10.3693
699906343162211, 6.0394845, -0.09092726, 8.07458, 0.16846204, -0.07471275, 10.082088
699906352801169, 6.2201424, 0.18783657, 8.110473, -0.11607468, -0.010077, 10.222116
699906362440128, 6.0430737, 0.33140594, 8.000402, -0.23812997, -0.120605946, 10.028149
699906372079190, 6.0622163, -0.32303107, 7.899904, 0.3932147, 0.116788864, 9.95465
699906381718149, 6.1005015, 0.7070791, 8.009974, -0.6001024, -0.15433168, 10.074316
699906391357107, 5.9521465, -0.58265233, 7.8317084, 0.6538486, 0.122979164, 9.83161
699906400996065, 6.1651077, 0.80159557, 8.04108, -0.70014894, -0.14585829, 10.138965
699906410635128, 5.9581285, -0.5084748, 7.8149586, 0.58142716, 0.11416149, 9.822441
699906420274086, 6.2775702, 0.62811595, 8.021938, -0.5547713, 0.010148048, 10.190489
699906429913044, 6.0490556, -0.17587246, 7.908279, 0.25261843, 0.06172514, 9.954659
699906439552003, 6.2679987, 0.18305093, 8.060223, -0.10526216, 0.06423569, 10.21143
699906449190961, 6.1100726, 0.27038896, 8.01117, -0.17862117, -0.052945137, 10.077213
699906458830024, 6.151947, -0.3182454, 7.9764743, 0.38860965, 0.1206398, 10.07007
699906468468982, 6.161518, 0.58983076, 8.139186, -0.47685063, -0.16526175, 10.212927
699906478107940, 6.0358953, -0.68195444, 7.9968133, 0.76788414, 0.11406183, 10.012167
699906487746899, 6.2309103, 0.7070791, 8.175078, -0.5905949, -0.16767216, 10.284903
699906497385961, 5.966503, -0.63529444, 7.958528, 0.73075116, 0.092374325, 9.939738
699906507024919, 6.2524457, 0.56829536, 8.169097, -0.46323478, -0.12084198, 10.291791
699906516663878, 5.986842, -0.29312077, 8.006385, 0.40607768, -0.012059212, 9.993265
699906526302836, 6.172286, 0.19501504, 8.078169, -0.090739846, -0.029269695, 10.167736
699906535941899, 5.994021, 0.124426775, 7.966903, -0.013640761, -0.0810976, 9.970384
699906545580857, 6.1160545, 0.11485548, 7.9704924, -0.019409, 0.01480484, 10.047261
699906555219815, 6.0550375, 0.12323037, 7.9357963, -0.022804022, -0.01621008, 9.982721
699906564858774, 6.047859, 0.20219351, 7.899904, -0.10542899, -0.019048214, 9.950603
699906574497836, 6.050252, 0.20338993, 7.873583, -0.11022222, -0.0013375282, 9.931168
699906584136794, 6.0634127, 0.19740787, 7.8759756, -0.10772246, 0.0059661865, 9.94099
699906593775753, 6.050252, 0.1471586, 7.880761, -0.06338042, -0.0038762093, 9.936275
699906603414711, 6.0346985, 0.10767702, 7.8831544, -0.022175431, -0.010023117, 9.928379
699906613053774, 6.0418773, 0.07058827, 7.893922, 0.007974446, -0.005842209, 9.940985
699906622692732, 6.047859, 0.041874398, 7.9657063, 0.036130726, -0.040020943, 10.001396
699906632331690, 6.1005015, -0.016749758, 8.000402, 0.08097917, -0.011510849, 10.060625
699906641970649, 6.1363935, -0.03589234, 8.045866, 0.08194238, -0.014948845, 10.118578
699906651609711, 6.1974106, -0.0047856453, 8.055437, 0.04389, 0.021189213, 10.163445
699906661248669, 6.2009997, 0.021535404, 8.075776, 0.011470258, 0.0043435097, 10.18189
699906670887628, 6.216553, 0.014356935, 8.082955, 0.010659158, 0.011086941, 10.1970415
699906680526586, 6.2464633, -0.06460621, 8.066205, 0.07656622, 0.05808592, 10.201809
699906690165649, 6.2141604, -0.11964113, 8.09133, 0.13272256, 0.028718472, 10.2020235
699906699804607, 6.1830535, -0.10289137, 8.093722, 0.10762906, -0.0048666, 10.18516
699906709443565, 6.155536, -0.08015956, 8.063812, 0.08612847, -0.012567997, 10.144681
699906719082524, 6.1471615, -0.041874398, 8.006385, 0.030810952, -9.689331E-4, 10.094088
699906728721586, 6.1399827, -0.008374879, 7.9513497, -0.007805109, 0.019144535, 10.046044
699906738360544, 6.135197, -0.010767702, 7.9011, -0.018436909, 0.036617756, 10.003324
699906747999503, 6.128019, 0.0071784677, 7.865208, -0.039355636, 0.048654556, 9.97047
699906757638565, 6.113662, 0.0, 7.8520474, -0.034910917, 0.0430398, 9.9513035
699906767277524, 6.099305, 0.0011964113, 7.884351, -0.031200051, 0.010416985, 9.96812
699906776916482, 6.0957155, -0.0071784677, 7.895118, -0.022389412, 0.002673626, 9.974478
699906786555440, 6.10768, -0.059820566, 7.85444, 0.023546576, 0.04861641, 9.949706
699906796194503, 6.108876, -0.05503492, 7.8723865, 0.020815969, 0.03791809, 9.964638
699906805833461, 6.0777693, -0.02871387, 7.9070826, 0.013992429, -0.010065079, 9.973052
699906815472419, 6.1028943, 0.009571291, 7.960921, -0.015129447, -0.024268627, 10.030994
699906825111482, 6.155536, 0.0526421, 8.020741, -0.058331847, -0.029092312, 10.110462
699906834750440, 6.175875, 0.096909314, 8.118847, -0.08075631, -0.059023857, 10.200809
699906844389399, 6.1698933, 0.12323037, 8.190632, -0.09394026, -0.11306, 10.254149
699906854028357, 6.175875, 0.13998012, 8.238488, -0.09908843, -0.12955141, 10.295977
699906863667419, 6.1806607, 0.124426775, 8.26481, -0.07273269, -0.1232214, 10.320011
699906873306378, 6.1794643, 0.09810573, 8.232507, -0.051751137, -0.098814964, 10.293548
699906882945336, 6.1806607, 0.07298109, 8.1942215, -0.028053164, -0.06875706, 10.263803
699906892584399, 6.141179, 0.04426722, 8.110473, 0.0011184216, -0.045814037, 10.173185
699906902223357, 6.1363935, 0.0011964113, 8.008778, 0.03515339, 0.017600536, 10.089314
699906911862315, 6.084948, -0.03708875, 7.9106717, 0.07392633, 0.041991234, 9.979954
699906921501274, 6.0550375, -0.023928227, 7.8352976, 0.06205696, 0.0576787, 9.901958
699906931140336, 6.009574, 0.023928227, 7.77787, 0.018908024, 0.04595852, 9.828955
699906940779294, 5.9820566, 0.062213387, 7.776674, -0.012782574, 0.017368317, 9.811477
699906950418253, 5.983253, 0.07298109, 7.789834, -0.0213027, 0.007968426, 9.82271
699906960057315, 6.013163, 0.061016977, 7.832905, -0.01012373, 0.0075206757, 9.875024
699906969696274, 6.046663, 0.02632105, 7.9011, 0.021137118, -0.0026760101, 9.94936
699906979335232, 6.1399827, -0.011964113, 8.000402, 0.05654013, 0.018296242, 10.0847645
699906988974294, 6.2201424, -0.047856454, 8.018349, 0.07772601, 0.07551813, 10.147642
699906998613253, 6.218946, -0.08973085, 8.038688, 0.11918926, 0.0687294, 10.162918
699907008252211, 6.2033925, -0.08135597, 8.026724, 0.11230093, 0.065235615, 10.1439705
699907017891274, 6.1734824, -0.062213387, 7.989635, 0.09390485, 0.059568405, 10.096418
699907027530232, 6.1531434, -0.016749758, 7.9764743, 0.055810332, 0.051869392, 10.073719
699907037169190, 6.148358, 0.04546363, 7.9716887, -0.0020997524, 0.042934418, 10.06729
699907046808253, 6.117251, 0.09332009, 8.017152, -0.033905387, -0.014139175, 10.084784
699907056447211, 6.0897336, 0.14356937, 8.020741, -0.07709718, -0.049621105, 10.071215
699907066086169, 6.1028943, 0.13399807, 8.001599, -0.069948554, -0.021750927, 10.06397
699907075725128, 6.047859, 0.1268196, 7.9836526, -0.052138567, -0.049475193, 10.016299
699907085364190, 6.009574, 0.12203395, 7.9513497, -0.042179227, -0.058335304, 9.967379
699907095003149, 5.9676995, 0.12323037, 7.932207, -0.035811186, -0.07848978, 9.926786
699907104642107, 5.966503, 0.13878371, 7.881958, -0.058680892, -0.051829338, 9.886231
699907114281169, 5.9700923, 0.1363909, 7.865208, -0.06000638, -0.038154602, 9.875073
699907123920128, 5.9964137, 0.124426775, 7.8604226, -0.05561495, -0.009649277, 9.887138
699907133559086, 6.0514483, 0.10289137, 7.873583, -0.04597783, 0.031939983, 9.9308
699907143198149, 6.108876, 0.0741775, 7.925029, -0.025354266, 0.053850174, 10.006318
699907152837107, 6.1794643, 0.040677983, 7.9908314, -0.0067546368, 0.07494497, 10.101246
699907162476065, 6.2404814, 0.032303106, 8.080562, 0.003471136, 0.07139206, 10.209557
699907172115128, 6.302695, 0.021535404, 8.195417, 0.013677239, 0.051795483, 10.338589
699907181754086, 6.2883377, 0.040677983, 8.283952, 0.005643487, -0.01571083, 10.400406
699907191393044, 6.239285, 0.0634098, 8.269595, -0.008993864, -0.050697327, 10.359356
699907201032107, 6.1627145, 0.033499517, 8.202596, 0.03163421, -0.053246498, 10.259577
699907210671065, 6.0777693, 0.0059820567, 8.189436, 0.07055974, -0.105875015, 10.197549
699907220310024, 6.0119667, 0.020338992, 8.147561, 0.06863439, -0.13105679, 10.1244755
699907229949086, 5.962914, 0.03708875, 8.062616, 0.055803895, -0.11744881, 10.027292
699907239588044, 5.940182, 0.059820566, 8.000402, 0.03561318, -0.09811306, 9.964181
699907249227107, 5.9641104, 0.11365908, 7.9944205, -0.022253871, -0.0882988, 9.974268
699907258866065, 6.007181, 0.14476576, 8.015956, -0.057701707, -0.07666397, 10.017661
699907268505024, 6.068198, 0.18783657, 8.025527, -0.11079049, -0.045350075, 10.062459
699907278144086, 6.1124654, 0.20338993, 8.013563, -0.13648784, -0.010354042, 10.079785
699907287783044, 6.1304116, 0.17347965, 7.984849, -0.116083026, 0.02230692, 10.067568
699907297422003, 6.1507506, 0.12801601, 7.9908314, -0.07634115, 0.040436745, 10.084347
699907307061065, 6.1507506, 0.086141616, 7.9980097, -0.03575802, 0.04103136, 10.089813
699907316700024, 6.125626, 0.05383851, 7.9657063, -0.004988551, 0.043001175, 10.048721
699907326338982, 6.1304116, 0.041874398, 7.9298143, 6.82354E-4, 0.07058573, 10.023007
699907335978044, 6.1184473, 0.013160525, 7.920243, 0.029162288, 0.06398344, 10.008039
699907345617003, 6.122037, 0.041874398, 7.944171, 0.0039674044, 0.042644978, 10.029413
699907355255961, 6.1292152, 0.047856454, 7.9704924, 0.0012626648, 0.029806137, 10.054721
699907364895024, 6.122037, 0.05503492, 7.989635, -0.0013756752, 0.011588573, 10.065611
699907374533982, 6.0897336, 0.038285162, 7.9800634, 0.019075036, -0.0042648315, 10.038295
699907384172940, 6.0897336, -0.016749758, 7.9537425, 0.07121289, 0.024292946, 10.017059
699907393812003, 6.0897336, -0.07058827, 7.920243, 0.11990696, 0.054519653, 9.990131
699907403450961, 6.078966, -0.0849452, 7.879565, 0.12919962, 0.07415581, 9.9512005
699907413090024, 6.056234, -0.061016977, 7.838887, 0.09716028, 0.0729537, 9.905306
699907422728982, 6.078966, -0.019142581, 7.8400836, 0.05231428, 0.08189964, 9.920265
699907432367940, 6.0861444, 0.0059820567, 7.8520474, 0.022409558, 0.07226086, 9.93429
699907442007003, 6.101698, 0.010767702, 7.9034934, 0.015816092, 0.049190998, 9.984657
699907451645961, 6.128019, -0.0011964113, 7.989635, 0.028503537, 0.017442703, 10.06905
699907461284919, 6.134001, 0.0047856453, 8.096115, 0.029562235, -0.044964314, 10.157272
699907470923982, 6.1639113, 0.040677983, 8.172686, -0.0065119267, -0.0760417, 10.236329
699907480562940, 6.155536, 0.058624156, 8.199007, -0.026016593, -0.10017824, 10.252172
699907490202003, 6.148358, 0.039481573, 8.200203, -0.013097286, -0.096263885, 10.248794
699907499840961, 6.1387863, 0.046660043, 8.1738825, -0.02255106, -0.08959627, 10.222069
699907509479919, 6.1304116, 0.047856454, 8.13799, -0.028190732, -0.07368231, 10.188469
699907519118982, 6.135197, 0.04546363, 8.0817585, -0.034148693, -0.03598118, 10.146677
