timestamp_acc,device_acc_x,device_acc_y,device_acc_z,earth_acc_x,earth_acc_y,earth_acc_z
699666371053447, -0.31226337, 4.6779685, 8.435896, 0.0038960017, 0.008160591, 9.651175
699666380691989, -0.34337005, 4.6971107, 8.532805, -0.032475427, -0.015323162, 9.746191
699666390330426, -0.3397808, 4.718646, 8.63809, -0.030105732, -0.04427147, 9.848595
699666399968968, -0.3290131, 4.7916274, 8.705089, -0.013764888, -0.011194229, 9.942143
699666409607510, -0.30029923, 4.833502, 8.718249, 0.020467423, 0.016952038, 9.972967
699666419245947, -0.30029923, 4.8454657, 8.656036, 0.024791151, 0.056702137, 9.924307
699666428884489, -0.30149564, 4.846662, 8.610572, 0.027275488, 0.07815552, 9.885148
699666438522926, -0.31106696, 4.8454657, 8.5938225, 0.02040711, 0.084742546, 9.870233
699666448161468, -0.37567315, 4.8526444, 8.62134, -0.04366456, 0.08352041, 9.899895
699666457800010, -0.3924229, 4.8358946, 8.72782, -0.06316805, 0.019291878, 9.985508
699666467438551, -0.41874397, 4.84068, 8.853444, -0.091757014, -0.030133724, 10.0985985
699666477076989, -0.38644084, 4.8490553, 8.945567, -0.059028305, -0.06663084, 10.182235
699666486715531, -0.32542387, 4.7952166, 9.0029955, -0.0031141713, -0.14561796, 10.204543
699666496354072, -0.27517462, 4.82752, 8.987442, 0.049176052, -0.11050272, 10.204908
699666505992510, -0.26081768, 4.8011985, 8.921639, 0.062037885, -0.10045147, 10.134162
699666515631051, -0.25004998, 4.7509494, 8.840283, 0.0717127, -0.10652685, 10.038335
699666525269593, -0.30867413, 4.7712884, 8.788837, 0.01697234, -0.060488224, 10.005008
699666534908031, -0.3792624, 4.7653065, 8.720642, -0.051502474, -0.02924633, 9.944752
699666544546572, -0.40797627, 4.786842, 8.665607, -0.07792431, 0.018309593, 9.907908
699666554185114, -0.4223332, 4.8358946, 8.635697, -0.08547731, 0.075736046, 9.905881
699666563823551, -0.3792624, 4.837091, 8.627322, -0.042170085, 0.07470322, 9.897708
699666573462093, -0.33140594, 4.8442693, 8.65125, 0.0040051863, 0.061077595, 9.920542
699666583100635, -0.27517462, 4.8394837, 8.669196, 0.057822637, 0.04234171, 9.932077
699666592739072, -0.27517462, 4.847859, 8.693125, 0.058649257, 0.037472725, 9.95706
699666602377614, -0.3290131, 4.8095737, 8.693125, -0.0017950982, 0.007923603, 9.940353
699666612016156, -0.3074777, 4.79402, 8.656036, 0.01864653, 0.010482788, 9.899682
699666621654593, -0.27158538, 4.8155556, 8.589037, 0.05746665, 0.05756855, 9.850293
699666631293135, -0.32063824, 4.800002, 8.566305, 0.0071233734, 0.058077812, 9.82451
699666640931676, -0.3589234, 4.7916274, 8.567501, -0.03161098, 0.051322937, 9.822779
699666650570114, -0.3696911, 4.7916274, 8.516056, -0.0419306, 0.07671404, 9.778135
699666660208656, -0.36011982, 4.8035913, 8.514859, -0.030449405, 0.08703709, 9.782561
699666669847197, -0.34456646, 4.81077, 8.525627, -0.016416878, 0.085805416, 9.794943
699666679485635, -0.30269206, 4.807181, 8.553144, 0.020111665, 0.066176414, 9.815911
699666689124176, -0.2943172, 4.79402, 8.611769, 0.026443467, 0.025307655, 9.860552
699666698762718, -0.27517462, 4.8215375, 8.687142, 0.04494466, 0.012913227, 9.939174
699666708401156, -0.30867413, 4.7880383, 8.796016, 0.004525557, -0.061800003, 10.019313
699666718039697, -0.3062813, 4.7509494, 8.873783, 0.0017548054, -0.12805414, 10.069407
699666727678239, -0.31465617, 4.7688956, 8.921639, -0.0047448725, -0.12572241, 10.120336
699666737316676, -0.31226337, 4.7808595, 8.8905325, -6.874651E-4, -0.09683323, 10.098829
699666746955218, -0.35294133, 4.802395, 8.8701935, -0.039576918, -0.06403637, 10.092683
699666756593760, -0.36251262, 4.8119664, 8.872586, -0.048941612, -0.053044796, 10.099705
699666766232197, -0.35294133, 4.867001, 8.8905325, -0.03413175, -0.013864517, 10.141621
699666775870739, -0.32063824, 4.8861437, 8.867801, -3.0578673E-4, 0.0110964775, 10.129905
699666785509281, -0.2440679, 4.8681974, 8.811569, 0.07461429, 0.01446867, 10.069603
699666795147718, -0.22492532, 4.8526444, 8.763713, 0.0922935, 0.018524647, 10.019608
699666804786260, -0.27756742, 4.8442693, 8.676374, 0.040981263, 0.058728218, 9.940741
699666814424801, -0.31585258, 4.796413, 8.5938225, -3.8476288E-4, 0.058697224, 9.846607
699666824063239, -0.34456646, 4.7629137, 8.520842, -0.030224197, 0.061990738, 9.7675
699666833701781, -0.36610186, 4.7425747, 8.525627, -0.05354801, 0.04328966, 9.762562
699666843340322, -0.37328035, 4.7377887, 8.577073, -0.058378674, 0.014431477, 9.805537
699666852978760, -0.33379877, 4.7365923, 8.597412, -0.018788856, 0.0016307831, 9.821501
699666862617301, -0.2739782, 4.7581277, 8.624929, 0.042351622, 0.0027899742, 9.854058
699666872255843, -0.23688944, 4.7916274, 8.659625, 0.07782208, 0.013961315, 9.899428
699666881894281, -0.22013968, 4.8358946, 8.666803, 0.0979465, 0.04792118, 9.926525
699666891532822, -0.2117648, 4.846662, 8.672786, 0.103160515, 0.052839756, 9.936737
699666901171364, -0.2620141, 4.843073, 8.646464, 0.053188086, 0.06679726, 9.913528
699666910809801, -0.32183465, 4.834698, 8.640483, -0.007528648, 0.06897259, 9.90611
699666920448343, -0.34337005, 4.8215375, 8.683554, -0.030819878, 0.038749695, 9.9381485
699666930086885, -0.40079778, 4.814359, 8.752945, -0.08835852, 0.005651474, 9.997245
699666939725322, -0.4223332, 4.761717, 8.784052, -0.112257004, -0.04684019, 9.999855
699666949363864, -0.39361933, 4.74736, 8.877372, -0.087310776, -0.10764456, 10.073771
699666959002406, -0.3481557, 4.8047876, 8.896515, -0.034309313, -0.06894016, 10.116781
699666968640843, -0.3696911, 4.761717, 8.885747, -0.060128033, -0.095666885, 10.087337
699666978279385, -0.31465617, 4.7856455, 8.811569, -6.9099665E-4, -0.04467535, 10.032107
699666987917926, -0.23449662, 4.8299127, 8.754142, 0.084566966, 0.013738632, 10.000535
699666997556364, -0.24047868, 4.8095737, 8.703893, 0.07658376, 0.020121098, 9.946924
699667007194906, -0.29312077, 4.82752, 8.6548395, 0.024865925, 0.062139988, 9.914264
699667016833447, -0.32542387, 4.8251266, 8.644072, -0.011452712, 0.064567566, 9.904717
699667026471885, -0.3278167, 4.822734, 8.629715, -0.013995357, 0.06815815, 9.891075
699667036110426, -0.3493521, 4.786842, 8.581859, -0.0382424, 0.06153822, 9.832545
699667045748968, -0.3469593, 4.729414, 8.554341, -0.04068949, 0.02320671, 9.78071
699667055387406, -0.3278167, 4.715057, 8.569894, -0.022658922, 0.002371788, 9.786818
699667065025947, -0.3182454, 4.718646, 8.624929, -0.013115495, -0.019721508, 9.836449
699667074664489, -0.2955136, 4.705486, 8.60459, 0.0085787475, -0.023079872, 9.811589
699667084302926, -0.31585258, 4.7712884, 8.682357, -0.0060079023, 0.001033783, 9.912025
699667093941468, -0.3278167, 4.807181, 8.775677, -0.0131928325, -0.0066480637, 10.011431
699667103580010, -0.37088752, 4.8622155, 8.742178, -0.049431436, 0.061958313, 10.009898
699667113218447, -0.28953153, 4.877769, 8.780462, 0.035727575, 0.051502705, 10.048335
699667122856989, -0.31944183, 4.8658047, 8.76132, 0.005095504, 0.052329063, 10.026768
699667132495531, -0.37447673, 4.875376, 8.754142, -0.047356643, 0.06648922, 10.026856
699667142133968, -0.27996024, 4.814359, 8.734999, 0.04276053, 0.016633987, 9.977701
699667151772510, -0.19501504, 4.7581277, 8.721839, 0.12547322, -0.031713486, 9.936376
699667161411051, -0.20458634, 4.766503, 8.711071, 0.11627567, -0.017559052, 9.931282
699667171049489, -0.3074777, 4.723432, 8.691928, 0.008403376, -0.037383556, 9.897146
699667180688031, -0.3505485, 4.715057, 8.646464, -0.03819315, -0.017179966, 9.854656
699667190326572, -0.29671, 4.7545385, 8.666803, 0.016760238, 0.006117344, 9.889732
699667199965010, -0.2656033, 4.7772703, 8.688339, 0.04779893, 0.015522003, 9.918548
699667209603551, -0.25722843, 4.7772703, 8.760123, 0.051437788, -0.016048431, 9.981249
699667219242093, -0.30388847, 4.807181, 8.810373, 0.0073361993, -0.009444237, 10.041109
699667228880531, -0.3290131, 4.8155556, 8.809176, -0.016913861, 6.7186356E-4, 10.044855
699667238519072, -0.3505485, 4.8418765, 8.785249, -0.031884275, 0.03691387, 10.037174
699667248157614, -0.34576288, 4.820341, 8.790034, -0.019012772, 0.012887001, 10.030923
699667257796051, -0.3804588, 4.784449, 8.7577305, -0.056416534, 7.772446E-5, 9.986509
699667267434593, -0.40079778, 4.7485566, 8.721839, -0.07637159, -0.013559341, 9.938505
699667277073031, -0.4103691, 4.7198424, 8.691928, -0.08727873, -0.024963379, 9.898823
699667286711572, -0.37806597, 4.7174497, 8.683554, -0.05694908, -0.025315762, 9.889261
699667296350114, -0.3074777, 4.727021, 8.682357, 0.011753917, -0.021404266, 9.890501
699667305988551, -0.24047868, 4.746164, 8.672786, 0.08021601, -0.0061330795, 9.889118
699667315627093, -0.2548356, 4.715057, 8.694321, 0.059727505, -0.041481018, 9.893566
699667325265635, -0.28115666, 4.735396, 8.740981, 0.032161936, -0.042985916, 9.945095
699667334904072, -0.29671, 4.7581277, 8.752945, 0.018204704, -0.026207447, 9.966989
699667344542614, -0.3684947, 4.752146, 8.776874, -0.050693676, -0.03512907, 9.987412
699667354181156, -0.43070808, 4.759324, 8.773284, -0.11179337, -0.021111488, 9.989708
699667363819593, -0.42951167, 4.7832522, 8.689535, -0.10379817, 0.038009167, 9.92773
699667373458135, -0.41994038, 4.8179483, 8.639286, -0.08512145, 0.088950634, 9.900057
699667383096572, -0.3469593, 4.822734, 8.596215, -0.0112845, 0.106771946, 9.862179
699667392735114, -0.276371, 4.8239303, 8.646464, 0.054018013, 0.07358503, 9.904528
699667402373656, -0.25244278, 4.773681, 8.732606, 0.07245466, -0.012747765, 9.955136
699667412012093, -0.23688944, 5.252246, 8.85823, 0.12417006, 0.3428011, 10.294537
699667421650635, -0.21535404, 4.2891345, 8.673982, 0.0669576, -0.40905976, 9.670016
699667431289176, -0.3062813, 5.109873, 8.903693, 0.036669873, 0.20565128, 10.268238
699667440927614, -0.13040884, 4.5332026, 8.688339, 0.16362594, -0.21116996, 9.797083
699667450566156, -0.46301118, 4.694718, 8.733803, -0.1513824, -0.066812515, 9.925054
699667460204593, -0.20338993, 4.9866424, 8.723035, 0.13038051, 0.17500687, 10.04747
699667469843135, -0.5814559, 4.298706, 8.606983, -0.29594707, -0.34337568, 9.627651
699667479481676, -0.23449662, 5.3766723, 8.835498, 0.12840849, 0.46083164, 10.334446
699667489120114, -0.46061835, 4.135994, 8.575876, -0.1944493, -0.47498798, 9.518447
699667498758656, -0.32063824, 5.487939, 8.872586, 0.05085903, 0.54178476, 10.423386
699667508397197, -0.2943172, 4.2329035, 8.554341, -0.019625567, -0.39579535, 9.540642
699667518035635, -0.33260235, 5.231907, 8.770891, 0.018849224, 0.3714695, 10.211449
699667527674176, -0.13280165, 4.5882373, 8.529217, 0.16876605, -0.08894777, 9.684044
699667537312614, -0.44865423, 4.7748775, 8.566305, -0.13049199, 0.074875355, 9.8162985
699667546951156, -0.13280165, 4.974678, 8.5016985, 0.20099978, 0.25323915, 9.845781
699667556589697, -0.51565325, 4.301099, 8.413164, -0.2459737, -0.2559302, 9.45625
699667566228135, -0.19501504, 5.343173, 8.736196, 0.1713529, 0.47190762, 10.230181
699667575866676, -0.47377887, 4.078566, 8.578269, -0.22246, -0.5296018, 9.492941
699667585505114, -0.27756742, 5.4556355, 8.919247, 0.103393644, 0.4945631, 10.446946
699667595143656, -0.26081768, 4.168297, 8.62134, -0.0059452504, -0.48537493, 9.567372
699667604782197, -0.28115666, 5.278567, 8.928818, 0.08084673, 0.32911777, 10.370691
699667614420635, -0.08733802, 4.551149, 8.766106, 0.19833793, -0.2352407, 9.872717
699667624059176, -0.44745782, 4.8586264, 8.897711, -0.1314705, 0.0021238327, 10.146844
699667633697614, -0.13758731, 5.0452666, 8.827123, 0.19320938, 0.17573023, 10.164817
699667643336156, -0.51445687, 4.4255257, 8.700303, -0.23793636, -0.27303147, 9.768012
699667652974697, -0.1794617, 5.3790655, 8.857033, 0.18505543, 0.4555688, 10.352382
699667662613135, -0.44027936, 4.1347976, 8.606983, -0.18993624, -0.49579787, 9.544039
699667672251676, -0.20578274, 5.477171, 8.965906, 0.16224897, 0.48953295, 10.495869
699667681890114, -0.26081768, 4.1276193, 8.665607, -0.011276022, -0.5493026, 9.586249
699667691528656, -0.31465617, 5.2031927, 8.892925, 0.025771491, 0.29059124, 10.303942
699667701167197, -0.18664017, 4.392026, 8.578269, 0.0890117, -0.2764008, 9.634682
699667710805635, -0.48454657, 4.831109, 8.666803, -0.17058428, 0.08241749, 9.932373
699667720444176, -0.19142582, 4.8789654, 8.60459, 0.12729198, 0.12757301, 9.891788
699667730082614, -0.6412765, 4.304688, 8.425129, -0.36763632, -0.2495563, 9.472429
699667739721156, -0.28115666, 5.239085, 8.471788, 0.08882655, 0.50307465, 9.951747
699667749359593, -0.5623133, 4.0977087, 8.333005, -0.30551115, -0.39159226, 9.289763
699667758998135, -0.3481557, 5.4113684, 8.7015, 0.03963639, 0.5436778, 10.238312
699667768636676, -0.37447673, 4.106084, 8.463413, -0.12414527, -0.4656, 9.401985
699667778275114, -0.23090738, 5.334798, 8.745767, 0.14314377, 0.4439268, 10.23642
699667787913656, -0.062213387, 4.4817567, 8.566305, 0.21714763, -0.21632051, 9.66321
699667797552093, -0.29671, 4.959125, 8.790034, 0.024496391, 0.10963106, 10.0961895
699667807190635, -0.0526421, 4.965107, 8.7266245, 0.26531243, 0.122909546, 10.036112
699667816829072, -0.4127619, 4.4674, 8.670393, -0.15221988, -0.24046469, 9.758216
699667826467614, -0.09092726, 5.325227, 8.885747, 0.25903606, 0.37474012, 10.349651
699667836106156, -0.47258246, 4.1467614, 8.82832, -0.24332139, -0.5833447, 9.744675
699667845744593, -0.29072794, 5.4496536, 9.23151, 0.062232167, 0.33628607, 10.718539
699667855383135, -0.4223332, 4.104887, 8.891729, -0.20953938, -0.64792776, 9.778937
699667865021572, -0.45224348, 5.300102, 9.170493, -0.11419216, 0.2735114, 10.59744
699667874660114, -0.31226337, 4.377669, 8.8905325, -0.072711796, -0.4172802, 9.905739
699667884298551, -0.5276174, 4.985446, 9.02812, -0.2209856, 0.067126274, 10.324081
699667893937093, -0.18185452, 4.901697, 8.813962, 0.11907649, 0.065644264, 10.085988
699667903575635, -0.46061835, 4.520042, 8.6345005, -0.19679788, -0.16133523, 9.753605
699667913214072, -0.0035892338, 5.2977095, 8.65125, 0.33904582, 0.45915318, 10.128382
699667922852614, -0.30987054, 4.168297, 8.383254, -0.061447956, -0.36818957, 9.360039
699667932491051, -0.1052842, 5.45085, 8.646464, 0.23326391, 0.6049032, 10.201171
699667942129593, -0.317049, 4.095316, 8.364112, -0.092663884, -0.4352157, 9.307659
699667951768031, -0.3278167, 5.3336015, 8.690732, 0.0045531243, 0.49526787, 10.190107
699667961406572, -0.25124636, 4.341777, 8.472985, -0.0022899434, -0.2715633, 9.520077
699667971045010, -0.4354937, 5.003392, 8.632108, -0.13738522, 0.24089146, 9.982983
699667980683551, -0.09930214, 4.8095737, 8.55793, 0.18141721, 0.08354044, 9.815301
699667990322093, -0.424726, 4.5128636, 8.610572, -0.1713383, -0.18040562, 9.72761
699667999960531, -0.058624156, 5.2223353, 8.804391, 0.25033754, 0.3219881, 10.228744
699668009599072, -0.3469593, 4.1790648, 8.656036, -0.12939411, -0.4932227, 9.604788
699668019237510, -0.09332009, 5.4592247, 8.939586, 0.23888762, 0.46573544, 10.46203
699668028876051, -0.2883351, 4.1036906, 8.565108, -0.07787572, -0.5267763, 9.486881
699668038514489, -0.28953153, 5.419743, 8.796016, 0.03150905, 0.50930405, 10.323127
699668048153031, -0.2213361, 4.386044, 8.516056, 0.017470375, -0.2554114, 9.578311
699668057791468, -0.4354937, 5.0799623, 8.752945, -0.14157175, 0.24503183, 10.125692
699668067430010, -0.18783657, 4.7545385, 8.694321, 0.078551464, -0.024367332, 9.9108715
699668077068447, -0.52163535, 4.520042, 8.7266245, -0.27359486, -0.21860003, 9.835355
699668086706989, -0.1363909, 5.1122656, 8.800801, 0.16059452, 0.23821068, 10.174746
699668096345426, -0.45702913, 4.101298, 8.525627, -0.24111581, -0.48520398, 9.456336
699668105983968, -0.19142582, 5.383851, 8.849854, 0.122551136, 0.45315886, 10.349978
699668115622406, -0.36251262, 4.0474596, 8.5016985, -0.16088663, -0.5261054, 9.406889
699668125260947, -0.2727818, 5.4053864, 8.892925, 0.034697726, 0.46275043, 10.400068
699668134899385, -0.18544376, 4.3238306, 8.713464, 0.036770016, -0.39610696, 9.720911
699668144537926, -0.31226337, 5.1361938, 8.928818, -0.024647102, 0.22797108, 10.302874
699668154176468, -0.05742774, 4.7808595, 8.730213, 0.20180197, -0.0074486732, 9.951672
699668163814906, -0.3900301, 4.692325, 8.641679, -0.13686453, -0.019958973, 9.840199
699668173453447, -0.0035892338, 5.2235317, 8.642876, 0.28951755, 0.41068697, 10.086235
699668183091885, -0.2835495, 4.2891345, 8.477771, -0.07309304, -0.308733, 9.4999485
699668192730426, -0.016749758, 5.4759746, 8.781659, 0.3059488, 0.5575733, 10.329553
699668202368864, -0.26919255, 4.085745, 8.565108, -0.0834291, -0.52243304, 9.478763
699668212007406, -0.20219351, 5.3826547, 8.904889, 0.105914354, 0.42925978, 10.397859
699668221645843, -0.19381863, 4.2077785, 8.645268, -0.0071624815, -0.45831227, 9.605911
699668231284385, -0.37567315, 5.050052, 8.930014, -0.1051718, 0.15233946, 10.264259
699668240922822, -0.16031912, 4.6085763, 8.721839, 0.06920466, -0.14765406, 9.864511
699668250561364, -0.48933223, 4.6564326, 8.693125, -0.24956772, -0.06234026, 9.870463
699668260199801, -0.096909314, 5.096712, 8.652447, 0.18440875, 0.302557, 10.036192
699668269838343, -0.4331009, 4.2257247, 8.435896, -0.21877488, -0.33752775, 9.436465
699668279476781, -0.08973085, 5.4221363, 8.711071, 0.21304326, 0.5502901, 10.244128
699668289115322, -0.32662028, 4.092923, 8.469396, -0.12211108, -0.4712293, 9.399597
699668298753760, -0.2213361, 5.4293146, 8.852247, 0.07338704, 0.49712324, 10.374787
699668308392301, -0.22731815, 4.199404, 8.685946, -0.026263326, -0.48672247, 9.638191
699668318030739, -0.38285163, 5.1218367, 9.013762, -0.106133685, 0.16708851, 10.372488
699668327669281, -0.18544376, 4.5918264, 8.873783, 0.053598493, -0.23446274, 9.990268
699668337307718, -0.5072784, 4.6612186, 8.8701935, -0.25435567, -0.15285444, 10.028787
699668346946260, -0.1052842, 5.066802, 8.82832, 0.17871197, 0.19302845, 10.176128
699668356584697, -0.4103691, 4.314259, 8.62134, -0.17504877, -0.3435681, 9.641579
699668366223239, -0.10049855, 5.4341, 8.846265, 0.21962577, 0.49888563, 10.368163
699668375861676, -0.31226337, 4.126423, 8.555537, -0.10117333, -0.48378873, 9.490932
699668385500218, -0.13998012, 5.4903316, 8.865408, 0.18197106, 0.53967714, 10.413186
699668395138656, -0.17347965, 4.2652063, 8.584251, 0.04651743, -0.38969922, 9.57901
699668404777197, -0.33499518, 5.221139, 8.843872, -0.03712915, 0.32956886, 10.270182
699668414415635, -0.17228323, 4.5355954, 8.63809, 0.06457172, -0.1915009, 9.755875
699668424054176, -0.45702913, 4.698307, 8.659625, -0.20224343, -0.03164673, 9.860537
699668433692614, -0.111266255, 5.003392, 8.624929, 0.17922452, 0.21492004, 9.967819
699668443331156, -0.4749753, 4.2915273, 8.500503, -0.24967825, -0.31472588, 9.525752
699668452969593, -0.15074782, 5.349155, 8.772088, 0.16603135, 0.44702482, 10.2644205
699668462608135, -0.39840496, 4.078566, 8.571091, -0.18516192, -0.54537725, 9.482896
699668472246572, -0.20937198, 5.4687963, 8.883354, 0.10686941, 0.51403666, 10.420648
699668481885114, -0.22492532, 4.23051, 8.605786, -0.00887531, -0.4327314, 9.582275
699668491523551, -0.31585258, 5.271388, 8.908479, -0.020827424, 0.32797527, 10.35086
699668501162093, -0.12323037, 4.575077, 8.69791, 0.123268366, -0.1869626, 9.825986
699668510800531, -0.41635114, 4.8263235, 8.739784, -0.1477131, 0.026380539, 9.991402
699668520439072, -0.03589234, 5.029713, 8.670393, 0.24995375, 0.2104783, 10.018396
699668530077510, -0.39840496, 4.3669014, 8.520842, -0.15738323, -0.2728994, 9.577791
699668539716051, -0.08733802, 5.389833, 8.773284, 0.22196943, 0.47932243, 10.283455
699668549354489, -0.4139583, 4.119244, 8.553144, -0.1951887, -0.5098169, 9.486716
699668558993031, -0.25004998, 5.477171, 8.861818, 0.07030139, 0.51338243, 10.407942
699668568631468, -0.2883351, 4.1754756, 8.544769, -0.06821112, -0.45638037, 9.503572
699668578270010, -0.31345975, 5.271388, 8.7780695, -0.0073887557, 0.3804469, 10.236967
699668587908447, -0.148355, 4.485346, 8.56152, 0.09905051, -0.20514417, 9.663751
699668597546989, -0.48215377, 4.8251266, 8.702696, -0.20835154, 0.044251442, 9.960216
699668607185426, -0.15074782, 4.922036, 8.703893, 0.1277365, 0.10617828, 9.998967
699668616823968, -0.506082, 4.3704906, 8.647661, -0.27003226, -0.31947207, 9.693523
699668626462406, -0.12921242, 5.3539405, 8.830712, 0.1784872, 0.4212036, 10.317636
699668636100947, -0.3900301, 4.1347976, 8.553144, -0.15501437, -0.4896307, 9.494272
699668645739385, -0.13878371, 5.5106707, 8.866604, 0.186338, 0.5371294, 10.424978
699668655377926, -0.21655045, 4.2006, 8.566305, 0.012998812, -0.44716382, 9.532755
699668665016364, -0.23808585, 5.3563333, 8.853444, 0.07289191, 0.41691542, 10.341727
699668674654801, -0.0741775, 4.5248275, 8.666803, 0.17164436, -0.22270727, 9.773125
699668684293343, -0.37806597, 4.9698925, 8.851051, -0.09630598, 0.09848738, 10.157012
699668693931781, -0.13998012, 4.9363933, 8.809176, 0.1346243, 0.0736804, 10.097804
699668703570322, -0.52163535, 4.3944187, 8.719446, -0.30318406, -0.31586552, 9.768321
699668713208760, -0.14955142, 5.265406, 8.876176, 0.16108519, 0.3220229, 10.315218
699668722847301, -0.4642076, 4.0701914, 8.617751, -0.27391136, -0.56005144, 9.521498
699668732485739, -0.23449662, 5.389833, 8.874979, 0.08515392, 0.44984865, 10.375979
699668742124281, -0.2883351, 4.0737805, 8.5016985, -0.09326084, -0.5112195, 9.417414
699668751762718, -0.2321038, 5.3204412, 8.724232, 0.08990213, 0.46106386, 10.210414
699668761401260, -0.11485548, 4.436293, 8.4347, 0.12081006, -0.18549418, 9.528328
699668771039697, -0.38404804, 4.995017, 8.632108, -0.10378905, 0.228796, 9.977366
699668780678239, -0.09810573, 4.912465, 8.629715, 0.17369798, 0.13937283, 9.927957
699668790316676, -0.4546363, 4.4889355, 8.59143, -0.2155895, -0.18374991, 9.699983
699668799955218, -0.09930214, 5.2941203, 8.786445, 0.19638383, 0.4003749, 10.248919
699668809593656, -0.4534399, 4.1228333, 8.630911, -0.24685282, -0.5186553, 9.558559
699668819232197, -0.19980069, 5.4017973, 8.930014, 0.11005008, 0.43265963, 10.429056
699668828870635, -0.2943172, 4.046263, 8.58784, -0.0809296, -0.5692725, 9.480467
699668838509176, -0.2739782, 5.2977095, 8.88814, 0.03177719, 0.38247395, 10.3437195
699668848147614, -0.15194423, 4.3465624, 8.650054, 0.07079969, -0.3496518, 9.675323
699668857786156, -0.38404804, 5.0009995, 8.903693, -0.11048739, 0.12628269, 10.21788
699668867424593, -0.058624156, 4.8622155, 8.859426, 0.2021199, -2.7132034E-4, 10.104115
699668877063135, -0.40677986, 4.5714874, 8.837891, -0.1662108, -0.21981668, 9.954712
699668886701572, -0.05503492, 5.2893343, 8.965906, 0.23473571, 0.31933165, 10.402428
699668896340114, -0.4319045, 4.194618, 8.742178, -0.21811935, -0.50087523, 9.690644
699668905978551, -0.17826529, 5.4963136, 9.01137, 0.1275457, 0.4812851, 10.545052
699668915617093, -0.33140594, 4.1144586, 8.666803, -0.12792164, -0.5421865, 9.583409
699668925255531, -0.29790643, 5.389833, 8.906086, 0.002895832, 0.44306755, 10.404859
699668934894072, -0.21296121, 4.319045, 8.599805, 0.0079104155, -0.3554449, 9.619238
699668944532510, -0.39481574, 5.063213, 8.7673025, -0.11298053, 0.22845507, 10.128801
699668954171051, -0.086141616, 4.779663, 8.602198, 0.17395079, 0.033242702, 9.839667
699668963809489, -0.40558344, 4.523631, 8.504091, -0.16593142, -0.116445065, 9.638788
699668973448031, -0.029910283, 5.174479, 8.544769, 0.2621723, 0.39362955, 9.978253
699668983086468, -0.3684947, 4.1347976, 8.391629, -0.16502626, -0.41843653, 9.351441
699668992724906, -0.14117654, 5.395815, 8.745767, 0.1679735, 0.48873568, 10.264311
699669002363447, -0.33140594, 4.040281, 8.512466, -0.13844627, -0.5551715, 9.411079
699669012001885, -0.23928227, 5.3850474, 8.851051, 0.067514926, 0.43704128, 10.353819
699669021640426, -0.16869399, 4.3262234, 8.610572, 0.043763474, -0.36536098, 9.630743
699669031278864, -0.32422748, 5.1146584, 8.799605, -0.046490803, 0.23712778, 10.180349
699669040917406, -0.09212367, 4.7916274, 8.682357, 0.15980954, -0.0030155182, 9.915944
699669050555843, -0.4354937, 4.7174497, 8.62134, -0.18764749, -0.010989666, 9.835454
699669060194385, -0.05742774, 5.2689953, 8.695518, 0.2331358, 0.40105915, 10.156891
699669069832822, -0.465404, 4.2795634, 8.573483, -0.25250924, -0.36749268, 9.583166
699669079471364, -0.22612174, 5.4723854, 8.914461, 0.08097765, 0.4802904, 10.451243
699669089109801, -0.4319045, 4.024728, 8.6141615, -0.2405289, -0.610698, 9.495155
699669098748343, -0.28713873, 5.3383875, 8.88455, 0.010564193, 0.39512825, 10.36146
699669108386781, -0.17347965, 4.2017965, 8.611769, 0.032279775, -0.4745841, 9.571912
699669118025322, -0.27876383, 5.076373, 8.851051, 0.0021501184, 0.17641258, 10.205746
699669127663760, -0.019142581, 4.7078786, 8.695518, 0.22814234, -0.084572315, 9.885206
699669137302301, -0.36370903, 4.7078786, 8.705089, -0.11971718, -0.056289673, 9.902398
699669146940739, -0.09092726, 5.191229, 8.811569, 0.1958949, 0.28703547, 10.221551
699669156579281, -0.50009996, 4.273581, 8.679964, -0.2942654, -0.40735507, 9.674856
699669166217718, -0.2548356, 5.453243, 8.974281, 0.054458305, 0.45123672, 10.494472
699669175856260, -0.44506502, 4.0845485, 8.696713, -0.26274267, -0.57730246, 9.597506
699669185494697, -0.27876383, 5.4233327, 8.932407, 0.049755096, 0.4534278, 10.443663
699669195133239, -0.19501504, 4.211368, 8.583055, 0.0071566403, -0.45109797, 9.5519085
699669204771676, -0.31465617, 5.1661043, 8.807981, -0.013165176, 0.28993607, 10.211949
699669214410218, -0.062213387, 4.6408796, 8.59143, 0.18702246, -0.09505844, 9.7627
699669224048656, -0.38763726, 4.725825, 8.628518, -0.12879558, -0.00643301, 9.844714
699669233687197, -0.09092726, 5.1146584, 8.663215, 0.20278521, 0.28691626, 10.054644
699669243325635, -0.46660042, 4.301099, 8.539984, -0.24636684, -0.32450676, 9.564648
699669252964176, -0.18783657, 5.4173503, 8.868998, 0.13236053, 0.45636082, 10.383463
699669262602614, -0.41635114, 4.091727, 8.590233, -0.21519862, -0.5430343, 9.506128
699669272241156, -0.27876383, 5.453243, 8.860622, 0.047333434, 0.49886656, 10.395918
699669281879593, -0.2416751, 4.206582, 8.508878, -0.02672483, -0.41258478, 9.485979
699669291518135, -0.29312077, 5.2199426, 8.748159, 0.014039829, 0.34967232, 10.18536
699669301156572, -0.019142581, 4.638487, 8.590233, 0.23240574, -0.1021781, 9.759283
699669310795114, -0.2955136, 4.7748775, 8.639286, -0.03060174, 0.014818668, 9.875368
699669320433551, -0.023928227, 5.072784, 8.688339, 0.2673542, 0.22308302, 10.054836
699669330072093, -0.45224348, 4.2963133, 8.568698, -0.23848118, -0.35210633, 9.586688
699669339710531, -0.16151553, 5.406583, 8.837891, 0.15837212, 0.46356487, 10.350147
699669349349072, -0.4426722, 4.1001015, 8.610572, -0.2521031, -0.53358555, 9.528931
699669358987510, -0.29671, 5.4640107, 8.904889, 0.03210102, 0.49986458, 10.439808
699669368626051, -0.30867413, 4.159922, 8.559127, -0.10141678, -0.47579622, 9.509059
699669378264489, -0.33499518, 5.239085, 8.785249, -0.02608186, 0.35810184, 10.227995
699669387903031, -0.13519448, 4.56072, 8.627322, 0.106969535, -0.16832852, 9.757528
699669397541468, -0.38883367, 4.7880383, 8.762517, -0.12571971, -0.015439987, 9.9921055
699669407180010, -0.02751746, 5.015356, 8.879765, 0.25165275, 0.09427214, 10.194733
699669416818447, -0.40558344, 4.368098, 8.855837, -0.18789084, -0.41576743, 9.872309
699669426456989, -0.13040884, 5.380262, 9.139386, 0.17221878, 0.30404425, 10.600495
699669436095426, -0.43429732, 4.042674, 8.825927, -0.23825856, -0.6854789, 9.690314
699669445733968, -0.25842485, 5.428118, 8.99821, 0.05104181, 0.4269657, 10.503053
699669455372406, -0.3074777, 4.1491547, 8.539984, -0.08865141, -0.4580028, 9.488083
699669465010947, -0.37806597, 5.2570314, 8.752945, -0.07842249, 0.40345526, 10.209037
699669474649385, -0.18783657, 4.5008993, 8.541181, 0.05026628, -0.16586661, 9.654797
699669484287926, -0.4031906, 4.8969116, 8.6548395, -0.13137789, 0.1347413, 9.950536
699669493926364, 0.014356935, 5.048856, 8.624929, 0.29654005, 0.24324894, 9.986666
699669503564906, -0.33379877, 4.4398823, 8.504091, -0.1025731, -0.1986227, 9.596541
699669513203343, 0.015553347, 5.4017973, 8.758927, 0.33232626, 0.4789877, 10.27417
699669522841885, -0.29072794, 4.145565, 8.5112705, -0.09966712, -0.4684584, 9.459524
699669532480426, -0.14237295, 5.4843497, 8.799605, 0.1708589, 0.5435133, 10.354074
699669542118864, -0.25962126, 4.135994, 8.429914, -0.07568595, -0.43046522, 9.383297
699669551757406, -0.3182454, 5.2737813, 8.690732, -0.01947923, 0.43082714, 10.16154
699669561395843, -0.15433706, 4.426722, 8.543573, 0.0656376, -0.24792957, 9.620111
699669571034385, -0.41515473, 4.84068, 8.749356, -0.1597596, 0.035986423, 10.006446
699669580672822, -0.106480606, 4.8885365, 8.774481, 0.15310526, 0.047969818, 10.04365
699669590311364, -0.4869394, 4.382455, 8.724232, -0.26387325, -0.34043455, 9.765742
699669599949801, -0.1902294, 5.258228, 8.971889, 0.09515562, 0.2928896, 10.3964
699669609588343, -0.5192425, 4.078566, 8.82473, -0.32649145, -0.6447444, 9.70865
699669619226781, -0.2644069, 5.430511, 9.115458, 0.037370645, 0.38605452, 10.606674
699669628865322, -0.31465617, 4.1288157, 8.719446, -0.10983923, -0.55714965, 9.635996
699669638503760, -0.30508488, 5.3850474, 8.919247, -0.0011419654, 0.44244003, 10.413887
699669648142301, -0.13040884, 4.5044885, 8.633304, 0.09887962, -0.21361089, 9.735807
699669657780739, -0.40079778, 5.0344987, 8.775677, -0.12636358, 0.20808506, 10.122255
699669667419281, -0.08733802, 4.9782677, 8.718249, 0.17930558, 0.15840197, 10.037003
699669677057822, -0.36131623, 4.54397, 8.641679, -0.13453977, -0.16451526, 9.767888
699669686696260, 0.049052864, 5.3156557, 8.782856, 0.34402633, 0.40521097, 10.2525425
699669696334801, -0.2847459, 4.132405, 8.584251, -0.09193385, -0.5010097, 9.517759
699669705973239, -0.11365908, 5.4436717, 8.882157, 0.1815277, 0.47850227, 10.405638
699669715611781, -0.3074777, 4.0558343, 8.57468, -0.12708813, -0.55875254, 9.473181
699669725250218, -0.2955136, 5.271388, 8.852247, -0.011639908, 0.3576274, 10.300926
699669734888760, -0.18305093, 4.331009, 8.658429, 0.027246743, -0.37623024, 9.675601
699669744527197, -0.4331009, 4.965107, 8.903693, -0.1728824, 0.079493046, 10.201933
699669754165739, -0.16031912, 4.84068, 8.873783, 0.092240155, -0.037425995, 10.109006
699669763804176, -0.48933223, 4.517649, 8.760123, -0.26445955, -0.23426485, 9.862228
699669773442718, -0.12083755, 5.325227, 8.822337, 0.17803568, 0.40390587, 10.296186
699669783081260, -0.44147578, 4.2664027, 8.578269, -0.23577271, -0.36885142, 9.580823
699669792719697, -0.16390835, 5.575277, 8.846265, 0.14697415, 0.6109772, 10.438969
699669802358239, -0.22253251, 4.1982074, 8.486146, -0.016218469, -0.41304564, 9.461409
699669811996676, -0.15074782, 5.471189, 8.781659, 0.15800802, 0.5358696, 10.332571
699669821635218, -0.058624156, 4.409972, 8.536395, 0.16666012, -0.27613902, 9.602984
699669831273656, -0.31345975, 5.0249276, 8.733803, -0.047185503, 0.18154526, 10.0793
699669840912197, -0.07537391, 4.7605205, 8.59143, 0.17236371, 0.008545876, 9.820953
699669850550635, -0.47018966, 4.4614177, 8.640483, -0.24377748, -0.24982071, 9.729411
699669860189176, -0.15553348, 5.089534, 8.830712, 0.1146746, 0.18339825, 10.191282
699669869827718, -0.4749753, 4.0642095, 8.699107, -0.27089018, -0.62079954, 9.58953
699669879466156, -0.18544376, 5.4173503, 8.979067, 0.12982592, 0.4083686, 10.479603
699669889104697, -0.36131623, 4.1001015, 8.58784, -0.14950386, -0.5375123, 9.506897
699669898743135, -0.33738798, 5.447261, 8.7780695, -0.023649521, 0.5346861, 10.322525
699669908381676, -0.2428715, 4.4075794, 8.440681, -0.0038853064, -0.21096802, 9.522937
699669918020114, -0.40558344, 5.2139606, 8.623733, -0.102494374, 0.40512466, 10.076906
699669927658656, -0.08973085, 4.901697, 8.547162, 0.18465346, 0.15035105, 9.850481
699669937297197, -0.4235296, 4.6959143, 8.585447, -0.16325448, -0.036715984, 9.793511
699669946935635, -0.014356935, 5.2342997, 8.755338, 0.2780907, 0.3286972, 10.191598
699669956574176, -0.3278167, 4.219743, 8.589037, -0.08956594, -0.4577391, 9.563874
699669966212614, -0.062213387, 5.4496536, 8.859426, 0.24718694, 0.46367502, 10.38826
699669975851156, -0.22851457, 4.0570307, 8.489735, -0.021903522, -0.55932975, 9.395424
699669985489593, -0.17587246, 5.4089756, 8.76491, 0.14463727, 0.4903698, 10.288352
699669995128135, -0.18783657, 4.2927237, 8.538788, 0.036838993, -0.37719607, 9.55144
699670004766676, -0.40438703, 5.1385865, 8.863015, -0.11099535, 0.22933578, 10.249718
699670014405114, -0.18305093, 4.738985, 8.830712, 0.0731504, -0.12648821, 10.022555
699670024043656, -0.54675996, 4.699504, 8.861818, -0.29143, -0.1351633, 10.040563
699670033682093, -0.16510476, 5.2079782, 8.908479, 0.1440869, 0.24785042, 10.316448
699670043320635, -0.46779683, 4.284349, 8.709874, -0.2507744, -0.42643785, 9.705238
699670052959176, -0.15314065, 5.465207, 8.95155, 0.17013301, 0.45597267, 10.477849
699670062597614, -0.357727, 4.066602, 8.577073, -0.13686638, -0.5683539, 9.481014
699670072236156, -0.2428715, 5.40419, 8.812766, 0.07702151, 0.46755266, 10.329791
699670081874593, -0.20937198, 4.214957, 8.545966, 0.009815231, -0.44089413, 9.520964
699670091513135, -0.36370903, 5.1385865, 8.809176, -0.07455933, 0.25626612, 10.201359
699670101151676, -0.124426775, 4.648058, 8.626125, 0.12985763, -0.100091934, 9.798116
699670110790114, -0.45583272, 4.7114677, 8.62134, -0.19578855, -0.021401405, 9.833334
699670120428656, -0.12562318, 5.1290154, 8.720642, 0.16539797, 0.26857233, 10.112997
699670130067093, -0.5024927, 4.2711883, 8.598608, -0.28238696, -0.39093304, 9.602034
699670139705635, -0.16151553, 5.4424753, 8.848659, 0.15699343, 0.4782915, 10.377475
699670149344176, -0.3912265, 4.1240296, 8.55793, -0.18318415, -0.5018723, 9.492809
699670158982614, -0.2632105, 5.4819565, 8.872586, 0.056034505, 0.5187068, 10.419775
699670168621156, -0.24526432, 4.241278, 8.617751, -0.017057337, -0.4425683, 9.597816
699670178259593, -0.34097722, 5.2259245, 8.956335, -0.037634693, 0.26122952, 10.371733
699670187898135, -0.0849452, 4.6803613, 8.841479, 0.17128545, -0.18702793, 10.00102
699670197536676, -0.38763726, 4.7880383, 8.876176, -0.12079115, -0.0785799, 10.091645
699670207175114, -0.025124637, 5.113462, 8.8187475, 0.27434462, 0.19559145, 10.18847
699670216813656, -0.36490545, 4.354937, 8.618947, -0.13860631, -0.3309331, 9.656923
699670226452197, -0.051445685, 5.456832, 8.790034, 0.28840232, 0.50900507, 10.329673
699670236090635, -0.2955136, 4.091727, 8.46461, -0.10329476, -0.5022509, 9.39235
699670245729176, -0.18783657, 5.4723854, 8.790034, 0.1589531, 0.5245209, 10.341499
699670255367614, -0.25842485, 4.1958146, 8.508878, -0.055609494, -0.4381528, 9.480379
699670265006156, -0.40079778, 5.2199426, 8.776874, -0.08123675, 0.3385496, 10.213753
699670274644697, -0.19381863, 4.5798626, 8.585447, 0.055538222, -0.14084673, 9.731377
699670284283135, -0.51086766, 4.8119664, 8.719446, -0.23998198, 0.020142078, 9.969292
699670293921676, -0.19142582, 5.0309095, 8.732606, 0.094582416, 0.18052578, 10.077876
699670303560218, -0.5132605, 4.3178487, 8.652447, -0.28081685, -0.37910438, 9.6721
699670313198656, -0.18903299, 5.395815, 8.91805, 0.1290883, 0.4054246, 10.4163885
699670322837197, -0.45702913, 4.1276193, 8.652447, -0.23524398, -0.54447055, 9.579101
699670332475739, -0.2548356, 5.4987063, 8.932407, 0.074368566, 0.501071, 10.480077
699670342114176, -0.2632105, 4.226921, 8.589037, -0.033083588, -0.45078588, 9.565741
699670351752718, -0.29910284, 5.316852, 8.833105, 0.015892476, 0.3913784, 10.30673
699670361391156, -0.08255238, 4.5762734, 8.640483, 0.17497651, -0.17709255, 9.774714
699670371029697, -0.37088752, 4.8598228, 8.718249, -0.09399467, 0.047027588, 9.987604
699670380668239, -0.023928227, 5.0069814, 8.646464, 0.26415196, 0.18200588, 9.986436
699670390306676, -0.36370903, 4.685147, 8.572288, -0.10719991, -0.033248425, 9.775193
699670399945218, -0.2536392, 4.7952166, 8.601001, 0.012351923, 0.040231228, 9.850578
699670409583760, -0.2739782, 4.76411, 8.595019, -0.010512421, 0.0176754, 9.830855
699670419222197, -0.23808585, 4.772485, 8.622537, 0.025867783, 0.009409428, 9.8580265
699670428860739, -0.25722843, 4.7976093, 8.645268, 0.0073730275, 0.022808552, 9.89057
699670438499281, -0.2620141, 4.7856455, 8.658429, -0.0010690913, 0.007751465, 9.896432
699670448137718, -0.2835495, 4.807181, 8.711071, -0.027293175, 0.0068888664, 9.953461
699670457776260, -0.27158538, 4.8035913, 8.805588, -0.017222002, -0.0394969, 10.03418
699670467414801, -0.23569304, 4.8251266, 8.889337, 0.019960204, -0.06290913, 10.116982
699670477053239, -0.25244278, 4.81077, 8.9348, -0.0018581599, -0.090690136, 10.1503525
699670486691781, -0.27158538, 4.833502, 8.88814, -0.017190084, -0.046022892, 10.120924
699670496330322, -0.2727818, 4.8083773, 8.796016, -0.018790662, -0.023555279, 10.028154
699670505968760, -0.25722843, 4.802395, 8.712267, -0.0010018721, 0.009127617, 9.951517
699670515607301, -0.27158538, 4.8191447, 8.678768, -0.012004726, 0.039008617, 9.930624
699670525245843, -0.31226337, 4.81077, 8.696713, -0.051261067, 0.024538994, 9.943371
699670534884281, -0.32422748, 4.776074, 8.736196, -0.06741579, -0.02341652, 9.961527
699670544522822, -0.31465617, 4.79402, 8.807981, -0.055918783, -0.042161465, 10.03281
699670554161364, -0.2536392, 4.8035913, 8.840283, 0.00533399, -0.054763317, 10.064116
699670563799801, -0.21296121, 4.772485, 8.841479, 0.045126066, -0.08395147, 10.049112
699670573438343, -0.2632105, 4.74736, 8.819944, -0.0066657662, -0.09161472, 10.019466
699670583076885, -0.30029923, 4.7569313, 8.7673025, -0.039065197, -0.054511547, 9.978961
699670592715322, -0.29671, 4.79402, 8.723035, -0.028596267, -0.0013437271, 9.957971
699670602353864, -0.3074777, 4.8179483, 8.678768, -0.034265444, 0.04028082, 9.931032
699670611992406, -0.33499518, 4.8502517, 8.628518, -0.056619257, 0.092822075, 9.903367
699670621630843, -0.30269206, 4.833502, 8.59143, -0.023411766, 0.09082651, 9.861959
699670631269385, -0.2428715, 4.8454657, 8.555537, 0.038037494, 0.112932205, 9.8346615
699670640907926, -0.22731815, 4.8239303, 8.6141615, 0.050067857, 0.061858654, 9.875193
699670650546364, -0.23808585, 4.807181, 8.695518, 0.034547016, 0.0068821907, 9.938635
699670660184906, -0.20458634, 4.81077, 8.754142, 0.06549765, -0.022212029, 9.990773
699670669823447, -0.18305093, 4.782056, 8.755338, 0.0836087, -0.049551487, 9.977378
699670679461989, -0.1794617, 4.7712884, 8.772088, 0.08481191, -0.06655836, 9.986755
699670689100426, -0.22731815, 4.7784667, 8.782856, 0.034439683, -0.060163975, 10.000959
699670698738968, -0.30029923, 4.7748775, 8.756535, -0.03846243, -0.043949604, 9.978132
699670708377510, -0.36729828, 4.7988057, 8.750552, -0.10304704, -0.014853001, 9.98623
699670718015947, -0.40677986, 4.820341, 8.736196, -0.13932654, 0.014853001, 9.98512
699670727654489, -0.37328035, 4.8454657, 8.76132, -0.101784945, 0.022157669, 10.018372
699670737293031, -0.31226337, 4.875376, 8.751749, -0.038924366, 0.046922207, 10.022784
699670746931468, -0.27517462, 4.894519, 8.749356, -0.0027031898, 0.06014633, 10.02894
699670756570010, -0.25603202, 4.871787, 8.780462, 0.01449202, 0.023718357, 10.04468
699670766208551, -0.19142582, 4.837091, 8.7673025, 0.07491553, -0.009528637, 10.014688
699670775847093, -0.14955142, 4.816752, 8.729017, 0.11559445, -0.01170063, 9.97024
699670785485531, -0.14955142, 4.7748775, 8.622537, 0.11368005, 1.0919571E-4, 9.856828
699670795124072, -0.2416751, 4.761717, 8.523234, 0.02135989, 0.040051937, 9.766054
699670804762614, -0.3182454, 4.753342, 8.500503, -0.055528075, 0.048169136, 9.744162
699670814401156, -0.36610186, 4.753342, 8.505288, -0.10248557, 0.04907894, 9.749632
699670824039593, -0.34217364, 4.7449675, 8.537591, -0.079821095, 0.024232864, 9.773193
699670833678135, -0.27158538, 4.7569313, 8.55793, -0.008396253, 0.021523476, 9.794885
699670843316676, -0.22253251, 4.779663, 8.62134, 0.039433524, 0.007978439, 9.86005
699670852955114, -0.18305093, 4.8011985, 8.660822, 0.078310534, 0.0054335594, 9.903973
699670862593656, -0.15672988, 4.8179483, 8.669196, 0.10583709, 0.014303684, 9.918707
699670872232197, -0.19501504, 4.8299127, 8.6548395, 0.068167344, 0.038438797, 9.912931
699670881870635, -0.24526432, 4.8287163, 8.707481, 0.016853034, 0.016629219, 9.959737
699670891509176, -0.28953153, 4.79402, 8.775677, -0.030814096, -0.041656017, 10.003814
699670901147718, -0.34337005, 4.7569313, 8.834301, -0.087115765, -0.093642235, 10.038666
699670910786260, -0.36131623, 4.753342, 8.9348, -0.10730244, -0.14356756, 10.125381
699670920424697, -0.34456646, 4.7748775, 9.0233345, -0.08850281, -0.16575909, 10.212906
699670930063239, -0.27038896, 4.8215375, 9.02453, -0.009676442, -0.12751436, 10.234554
699670939701781, -0.2117648, 4.880162, 8.924032, 0.054344848, -0.029434204, 10.173265
699670949340322, -0.19860429, 4.914858, 8.812766, 0.0699389, 0.05101776, 10.092207
699670958978760, -0.21535404, 4.9316072, 8.732606, 0.055293486, 0.102136135, 10.030556
699670968617301, -0.25124636, 4.9052863, 8.706285, 0.01788044, 0.09474325, 9.995753
699670978255843, -0.24646074, 4.877769, 8.691928, 0.022028998, 0.07103157, 9.969828
699670987894385, -0.25124636, 4.847859, 8.679964, 0.0148456395, 0.051172256, 9.945041
699670997532822, -0.2620141, 4.790431, 8.687142, -9.788722E-4, -0.002884388, 9.923877
699671007171364, -0.2632105, 4.741378, 8.689535, -0.00682576, -0.047599792, 9.902305
699671016809906, -0.276371, 4.7174497, 8.666803, -0.021061912, -0.056563854, 9.871199
699671026448447, -0.30149564, 4.746164, 8.627322, -0.042676017, -0.010203838, 9.851181
699671036086885, -0.3062813, 4.7688956, 8.610572, -0.045482635, 0.018250465, 9.847625
699671045725426, -0.29671, 4.7832522, 8.650054, -0.035943627, 0.010183811, 9.888862
699671055363968, -0.26081768, 4.82752, 8.6548395, 0.0028736442, 0.040500164, 9.913505
699671065002510, -0.24885355, 4.8681974, 8.627322, 0.0187964, 0.08640766, 9.908792
699671074640947, -0.24885355, 4.8502517, 8.599805, 0.017706215, 0.084107876, 9.876039
699671084279489, -0.24765715, 4.8035913, 8.573483, 0.015037611, 0.052746296, 9.830434
699671093918031, -0.24765715, 4.8047876, 8.584251, 0.015296996, 0.048593044, 9.840432
699671103556572, -0.24646074, 4.792824, 8.633304, 0.013858616, 0.014317989, 9.8775215
699671113195010, -0.2739782, 4.7856455, 8.72782, -0.017854452, -0.031126976, 9.957461
699671122833551, -0.27517462, 4.8239303, 8.805588, -0.01727888, -0.035296917, 10.044046
699671132472093, -0.28235307, 4.8502517, 8.87139, -0.023734272, -0.04027748, 10.114547
699671142110635, -0.27038896, 4.8418765, 8.932407, -0.0136808455, -0.073771, 10.16362
699671151749072, -0.2883351, 4.802395, 8.963513, -0.035739884, -0.12005186, 10.172267
699671161387614, -0.28235307, 4.834698, 8.941978, -0.024896473, -0.082024574, 10.168858
699671171026156, -0.27756742, 4.8358946, 8.857033, -0.017499104, -0.040600777, 10.094949
699671180664697, -0.29790643, 4.8035913, 8.792427, -0.0392341, -0.04058981, 10.023315
699671190303135, -0.30987054, 4.7988057, 8.738588, -0.051014915, -0.020180225, 9.974192
699671199941676, -0.25722843, 4.8119664, 8.702696, 0.0033577085, 0.0038614273, 9.947767
699671209580218, -0.19980069, 4.82752, 8.685946, 0.06125447, 0.018455505, 9.939137
699671219218760, -0.16749759, 4.843073, 8.6345005, 0.09051292, 0.04959345, 9.900878
699671228857301, -0.15433706, 4.833502, 8.554341, 0.10173866, 0.0766716, 9.825838
699671238495739, -0.1902294, 4.816752, 8.467003, 0.06378934, 0.105635166, 9.7422905
699671248134281, -0.25842485, 4.8239303, 8.428718, -0.002666071, 0.13402176, 9.714031
699671257772822, -0.31106696, 4.7952166, 8.449057, -0.057251528, 0.10255766, 9.719241
699671267411364, -0.31465617, 4.7688956, 8.584251, -0.064700544, 0.014025211, 9.824784
699671277049801, -0.27517462, 4.7581277, 8.711071, -0.028155386, -0.059815407, 9.929446
699671286688343, -0.23569304, 4.772485, 8.7780695, 0.012502342, -0.08118296, 9.993995
699671296326885, -0.19142582, 4.807181, 8.810373, 0.059060544, -0.068356514, 10.037936
699671305965426, -0.20697916, 4.831109, 8.780462, 0.045939818, -0.030736446, 10.0237665
699671315603968, -0.25244278, 4.8394837, 8.760123, 0.0025719851, -0.008989334, 10.011193
699671325242406, -0.30029923, 4.8442693, 8.737391, -0.042413056, 0.010672092, 9.99486
699671334880947, -0.30029923, 4.846662, 8.736196, -0.04185286, 0.014312744, 9.994972
699671344519489, -0.30867413, 4.87418, 8.7469635, -0.045422852, 0.03490305, 10.017934
699671354158031, -0.30508488, 4.8789654, 8.737391, -0.041039735, 0.0442605, 10.01178
699671363796468, -0.2727818, 4.8693943, 8.76491, -0.0129724145, 0.01963234, 10.030379
