timestamp_acc,device_acc_x,device_acc_y,device_acc_z,earth_acc_x,earth_acc_y,earth_acc_z
264301182628376, 0.6987042, 5.0596237, 8.585447, -0.021725178, -0.003111124, 9.989865
264301192268584, 0.7106683, 5.046463, 8.584251, -0.007897854, 0.007556081, 9.983042
264301201908688, 0.721436, 5.028517, 8.575876, 0.006421566, 0.015706778, 9.967538
264301211548896, 0.6831509, 4.996214, 8.554341, 0.012247562, -0.02239728, 9.930002
264301221189105, 0.69272214, 4.979464, 8.581859, 0.042823553, -0.022124052, 9.945898
264301230829313, 0.6867401, 4.999803, 8.549556, 0.009370804, -0.015920997, 9.927951
264301240469417, 0.6628119, 4.9926243, 8.4813595, -0.022875309, -0.02528596, 9.863972
264301250109626, 0.63888365, 4.991428, 8.463413, -0.037537098, -0.043184876, 9.846248
264301259749834, 0.6628119, 4.9986067, 8.495717, -0.021269083, -0.025625587, 9.879347
264301269390042, 0.6879365, 4.9926243, 8.534002, 0.007310629, -0.008369684, 9.9110365
264301279030146, 0.66759753, 5.009374, 8.601001, 0.017471313, -0.03658414, 9.975724
264301288670355, 0.66400826, 4.9926243, 8.585447, 0.021738052, -0.04010129, 9.953646
264301298310563, 0.65922266, 4.983053, 8.597412, 0.032913685, -0.04934299, 9.958783
264301307950771, 0.6687939, 4.9986067, 8.618947, 0.032620907, -0.04188466, 9.98583
264301317590876, 0.6939186, 5.0273204, 8.646464, 0.027644157, -0.0189507, 10.025753
264301327231084, 0.715454, 5.029713, 8.63809, 0.027536392, 0.0033420324, 10.021263
264301336871292, 0.72382885, 5.06082, 8.633304, 0.0017461777, 0.01841402, 10.033413
264301346511501, 0.7082755, 5.042874, 8.605786, 6.4611435E-4, 0.0047935247, 9.99959
264301356151605, 0.70348984, 5.0344987, 8.566305, -0.0121974945, 0.0063551664, 9.961048
264301365791813, 0.721436, 5.0512486, 8.571091, -0.018320084, 0.025796652, 9.974876
264301375432021, 0.7573284, 5.0775695, 8.589037, -0.021692753, 0.06221521, 10.006123
264301385072230, 0.7429714, 5.0751767, 8.530413, -0.0494411, 0.060622692, 9.953453
264301394712334, 0.6987042, 5.06082, 8.505288, -0.059066772, 0.019655228, 9.921499
264301404352542, 0.6939186, 5.0452666, 8.480164, -0.059135437, 0.016916156, 9.891695
264301413992751, 0.7190432, 5.052445, 8.469396, -0.061623573, 0.044113517, 9.887829
264301423632959, 0.73340017, 5.070391, 8.463413, -0.07330227, 0.060608625, 9.892778
264301433273063, 0.74895346, 5.078766, 8.487342, -0.064545155, 0.07271719, 9.918684
264301442913271, 0.72382885, 5.0596237, 8.49452, -0.050741673, 0.04273963, 9.913436
264301452553480, 0.6843473, 5.0069814, 8.488539, -0.020364046, -0.006085515, 9.878919
264301462193688, 0.65922266, 4.9734817, 8.49452, 0.0032331944, -0.037873864, 9.865371
264301471833792, 0.6652047, 4.9531426, 8.519645, 0.03380847, -0.04111445, 9.877127
264301481474001, 0.65922266, 4.961518, 8.599805, 0.059302807, -0.060736656, 9.949908
264301491114209, 0.68075806, 4.985446, 8.690732, 0.086272955, -0.05476284, 10.041738
264301500754417, 0.6556334, 5.0333023, 8.703893, 0.04406166, -0.07327938, 10.075438
264301510394521, 0.67118675, 5.0620165, 8.708678, 0.026813507, -0.05403769, 10.095144
264301520034730, 0.70348984, 5.0823555, 8.723035, 0.025691986, -0.021129847, 10.120051
264301529674938, 0.73579293, 5.087141, 8.657232, -1.039505E-4, 0.02399528, 10.068142
264301539315146, 0.71306115, 5.032106, 8.583055, 0.0049653053, 0.007323146, 9.974933
264301548955251, 0.65324056, 4.9926243, 8.56152, 0.0112195015, -0.05010152, 9.932272
264301558595459, 0.64845496, 4.9663033, 8.512466, 0.0095870495, -0.04775548, 9.876454
264301568235667, 0.6412765, 4.9674997, 8.455039, -0.01878643, -0.040946126, 9.827153
264301577875771, 0.654437, 4.983053, 8.408379, -0.049943924, -0.01568079, 9.795774
264301587515980, 0.6975078, 5.0333023, 8.413164, -0.07466221, 0.033682346, 9.828291
264301597156188, 0.76570326, 5.0596237, 8.439486, -0.06491804, 0.09945166, 9.868987
264301606796396, 0.7788638, 5.0823555, 8.459825, -0.06890297, 0.109628916, 9.8989315
264301616436501, 0.7716853, 5.072784, 8.476574, -0.053526163, 0.09340143, 9.908046
264301626076709, 0.7537391, 5.069195, 8.506484, -0.03981924, 0.0666219, 9.9307165
264301635716917, 0.7465607, 5.069195, 8.550752, -0.020890236, 0.049319148, 9.968277
264301645357126, 0.72502524, 5.050052, 8.585447, 0.0025787354, 0.019373655, 9.986902
264301654997230, 0.70588267, 5.020142, 8.642876, 0.04607153, -0.016226053, 10.019831
264301664637438, 0.701097, 5.0273204, 8.681161, 0.056435823, -0.027207613, 10.056047
264301674277646, 0.6891329, 5.0177493, 8.699107, 0.06664872, -0.043176055, 10.065825
264301683917855, 0.70947194, 5.038088, 8.709874, 0.05929327, -0.021508813, 10.086803
264301693557959, 0.70348984, 5.0452666, 8.669196, 0.032413244, -0.016408682, 10.055012
264301703198167, 0.7046863, 5.0392847, 8.598608, 0.0058147907, -0.0018218756, 9.991347
264301712838376, 0.67477596, 5.0309095, 8.504091, -0.038271666, -0.01218009, 9.903704
264301722478584, 0.67836523, 5.022535, 8.4909315, -0.034254313, -0.008114457, 9.888413
264301732118688, 0.6987042, 5.0081778, 8.510074, -0.004040003, 0.0046761036, 9.899057
264301741758896, 0.70229346, 5.0189457, 8.49811, -0.017877102, 0.012500286, 9.894464
264301751399105, 0.6723832, 5.0177493, 8.457432, -0.04326558, -0.008137703, 9.856781
264301761039209, 0.6448657, 4.9986067, 8.458628, -0.031427383, -0.039155245, 9.846207
264301770679417, 0.64965135, 4.9986067, 8.457432, -0.030959368, -0.034134626, 9.845515
264301780319626, 0.67118675, 5.0129633, 8.484949, -0.022653103, -0.017617583, 9.877947
264301789959834, 0.7286145, 5.0333023, 8.5016985, -0.017089844, 0.038271785, 9.906671
264301799599938, 0.7429714, 5.0476594, 8.504091, -0.024186611, 0.053179264, 9.9170065
264301809240146, 0.7393822, 5.0512486, 8.538788, -0.011958599, 0.04226339, 9.948406
264301818880355, 0.7178468, 5.063213, 8.575876, -0.011044025, 0.014694095, 9.984827
264301828520563, 0.7118647, 5.048856, 8.617751, 0.018645763, -0.0028965473, 10.01314
264301838160667, 0.73818576, 5.069195, 8.626125, 0.011764526, 0.024246573, 10.0324955
264301847800876, 0.73340017, 5.063213, 8.609376, 0.007768631, 0.021654487, 10.014732
264301857441084, 0.7537391, 5.070391, 8.592627, -0.0013990402, 0.044322014, 10.005411
264301867081292, 0.7286145, 5.069195, 8.545966, -0.028948784, 0.028569937, 9.962906
264301876721396, 0.7118647, 5.063213, 8.53161, -0.03495598, 0.014391899, 9.946346
264301886361605, 0.72023964, 5.0249276, 8.55793, 0.012329578, 0.010426998, 9.950203
264301896001813, 0.71665037, 5.0440702, 8.563912, -0.0019264221, 0.009541869, 9.964775
264301905641917, 0.73579293, 5.0476594, 8.514859, -0.021378994, 0.038833857, 9.925779
264301915282126, 0.701097, 5.0249276, 8.483752, -0.024086952, 0.0065762997, 9.885083
264301924922334, 0.6891329, 5.0141597, 8.457432, -0.029083014, -0.0026824474, 9.856165
264301934562542, 0.6652047, 5.0129633, 8.456235, -0.034254074, -0.02616024, 9.852835
264301944202646, 0.6903293, 5.0165524, 8.4705925, -0.023574114, -0.00429523, 9.868776
264301953842855, 0.70588267, 5.020142, 8.512466, -0.0027365685, 0.0037682056, 9.907682
264301963483063, 0.6843473, 5.0309095, 8.52443, -0.013180733, -0.016501904, 9.921889
264301973123167, 0.7118647, 5.038088, 8.543573, -0.004317522, 0.008048654, 9.943924
264301982763376, 0.7298109, 5.040481, 8.549556, 3.10421E-4, 0.024741292, 9.951551
264301992403584, 0.6867401, 5.029713, 8.56152, 7.8964233E-4, -0.022618532, 9.953329
264302002043688, 0.66999036, 5.0249276, 8.602198, 0.01902771, -0.047946334, 9.984685
264302011683896, 0.6795616, 5.0177493, 8.632108, 0.04060173, -0.047291875, 10.007448
264302021324105, 0.6771688, 5.0081778, 8.598608, 0.030992985, -0.045179605, 9.973639
264302030964313, 0.7178468, 5.029713, 8.609376, 0.029395342, -0.003909588, 9.996691
264302040604417, 0.7860422, 5.0847483, 8.605786, 0.0012564659, 0.073703885, 10.0262985
264302050244626, 0.75254273, 5.0656056, 8.580662, -0.004368305, 0.040729403, 9.992637
264302059884834, 0.70947194, 5.052445, 8.602198, 0.0047912598, -0.0075525045, 10.001415
264302069524938, 0.70348984, 5.050052, 8.595019, 0.0026931763, -0.01109767, 9.993607
264302079165146, 0.71425754, 5.0392847, 8.568698, 0.0032925606, 0.003480792, 9.966301
264302088805355, 0.6975078, 5.058427, 8.513663, -0.043263912, 0.0024216175, 9.927478
264302098445563, 0.6963114, 5.063213, 8.476574, -0.06128168, 0.010223627, 9.897949
264302108085667, 0.70348984, 5.040481, 8.455039, -0.04813862, 0.01633656, 9.868458
264302117725876, 0.6987042, 5.0333023, 8.422736, -0.058557272, 0.017038107, 9.836721
264302127366084, 0.72741807, 5.050052, 8.46102, -0.04520321, 0.039678574, 9.880153
264302137006188, 0.73579293, 5.058427, 8.5016985, -0.030527115, 0.040100217, 9.91995
264302146646396, 0.7262217, 5.063213, 8.495717, -0.040678024, 0.03330362, 9.916552
264302156286605, 0.71665037, 5.0129633, 8.506484, 0.0029242039, 0.011671305, 9.899673
264302165926709, 0.6891329, 5.0081778, 8.516056, 0.0023150444, -0.016821861, 9.903518
264302175566917, 0.66041905, 4.9866424, 8.500503, 0.002784729, -0.044912577, 9.877213
264302185207126, 0.70348984, 5.005785, 8.526823, 0.010564327, -0.00498271, 9.912586
264302194847334, 0.72382885, 5.0333023, 8.65125, 0.050851345, -0.0071442127, 10.034918
264302204487438, 0.715454, 5.072784, 8.719446, 0.04712963, -0.021831274, 10.112915
264302214127646, 0.6999006, 5.0440702, 8.68475, 0.05022168, -0.03576255, 10.06745
264302223767855, 0.65324056, 5.345566, 8.599805, -0.25188923, 0.0014930964, 10.143717
264302233407959, 0.7932207, 4.761717, 8.691928, 0.319345, -0.0077415705, 9.937341
264302243048167, 0.58624154, 5.1792645, 8.376076, -0.23117733, -0.053076863, 9.862598
264302252688376, 0.87936234, 5.1254263, 8.666803, 0.027069569, 0.1569848, 10.106007
264302262328480, 0.5204389, 4.692325, 8.183454, 0.07096481, -0.17656243, 9.445711
264302271968688, 0.8805587, 5.5369916, 8.660822, -0.3200822, 0.2379266, 10.309434
264302281608896, 0.485743, 4.3178487, 8.239685, 0.40066147, -0.28919697, 9.302044
264302291249001, 0.7728817, 5.7080784, 8.618947, -0.5190158, 0.17751765, 10.352047
264302300889209, 0.69152576, 4.359723, 8.4012, 0.5000453, -0.112181306, 9.476441
264302310529417, 0.75254273, 5.6554365, 8.513663, -0.5305433, 0.16965187, 10.2334
264302320169521, 0.85064846, 4.6564326, 8.65125, 0.40088272, 0.0492934, 9.853271
264302329809730, 0.60658056, 5.278567, 8.386844, -0.30889487, -0.019785762, 9.923435
264302339449938, 0.8781659, 5.1182475, 8.732606, 0.065001965, 0.14462829, 10.158785
264302349090042, 0.5024927, 4.7138605, 8.297112, 0.10191369, -0.21161568, 9.553003
264302358730251, 0.9212367, 5.5190454, 8.836694, -0.22134686, 0.23681545, 10.454216
264302368370459, 0.56111693, 4.3944187, 8.426325, 0.45541978, -0.22713602, 9.506299
264302378010563, 0.8386843, 5.76431, 8.7984085, -0.46867275, 0.2050333, 10.539495
264302387650771, 0.6448657, 4.3298125, 8.492127, 0.5529833, -0.16864967, 9.536514
264302397290980, 0.6891329, 5.6853466, 8.544769, -0.54973555, 0.08656478, 10.271391
264302406931084, 0.73100734, 4.615755, 8.62134, 0.40149665, -0.057778597, 9.798088
264302416571292, 0.57188463, 5.2953167, 8.429914, -0.31046438, -0.06360996, 9.966466
264302426211396, 0.8542377, 5.0177493, 8.739784, 0.13985777, 0.10701966, 10.112385
264302435851605, 0.4977071, 4.743771, 8.270791, 0.06415081, -0.1986084, 9.545341
264302445491813, 0.87936234, 5.48076, 8.799605, -0.21297216, 0.2055906, 10.399878
264302455131917, 0.51086766, 4.3968115, 8.335398, 0.38451314, -0.26058483, 9.426348
264302464772126, 0.81236327, 5.736792, 8.711071, -0.49089003, 0.20065439, 10.448553
264302474412334, 0.6029913, 4.281956, 8.344969, 0.510967, -0.19334197, 9.382898
264302484052438, 0.72023964, 5.6614184, 8.459825, -0.55807066, 0.13904119, 10.188635
264302493692646, 0.78364944, 4.517649, 8.472985, 0.4226153, -0.0013375282, 9.624766
264302503332855, 0.6257231, 5.334798, 8.355737, -0.35146952, 0.0047028065, 9.927053
264302512972959, 0.8602197, 4.991428, 8.665607, 0.13639069, 0.11635971, 10.035684
264302522613167, 0.51086766, 4.8622155, 8.27797, -0.020574093, -0.1720376, 9.6123295
264302532253271, 0.91884387, 5.471189, 8.810373, -0.19038343, 0.23598576, 10.407157
264302541893480, 0.5587241, 4.453043, 8.428718, 0.39976192, -0.22547245, 9.53805
264302551533688, 0.85902333, 5.7248282, 8.865408, -0.39767265, 0.21643472, 10.578378
264302561173792, 0.5886344, 4.31067, 8.495717, 0.55331707, -0.22816825, 9.526141
264302570814001, 0.7070791, 5.697311, 8.635697, -0.51461506, 0.10045934, 10.356624
264302580454209, 0.74177504, 4.506881, 8.620144, 0.49245524, -0.075862765, 9.742732
264302590094313, 0.63888365, 5.4341, 8.478967, -0.38242912, 0.014057159, 10.083852
264302599734521, 0.8853444, 4.9722853, 8.703893, 0.16794729, 0.13347208, 10.060776
264302609374626, 0.5192425, 4.90409, 8.251649, -0.07043362, -0.15120125, 9.611534
264302619014834, 0.84347, 5.373083, 8.645268, -0.2031045, 0.17092466, 10.210369
264302628655042, 0.44745782, 4.4207397, 8.22772, 0.3056481, -0.3005321, 9.341029
264302638295146, 0.8315059, 5.6578293, 8.717052, -0.4058118, 0.19877744, 10.415627
264302647935355, 0.59342, 4.24726, 8.350951, 0.545969, -0.20656192, 9.369577
264302657575459, 0.78723866, 5.6733823, 8.553144, -0.51097155, 0.1836226, 10.279518
264302667215667, 0.75972116, 4.4315076, 8.493324, 0.50222516, -0.037270546, 9.59679
264302676855876, 0.6520442, 5.4257255, 8.465807, -0.3859954, 0.032891273, 10.068936
264302686495980, 0.8602197, 4.907679, 8.733803, 0.23595643, 0.091688156, 10.051891
264302696136188, 0.52522457, 5.009374, 8.342576, -0.12175894, -0.14490592, 9.743328
264302705776396, 0.8865408, 5.4113684, 8.784052, -0.16368914, 0.19290137, 10.352026
264302715416501, 0.50368917, 4.5619164, 8.319844, 0.24524117, -0.24318981, 9.495543
264302725056709, 0.8925229, 5.736792, 8.819944, -0.41769075, 0.24906349, 10.548094
264302734696813, 0.62931234, 4.345366, 8.459825, 0.52080727, -0.18502069, 9.515325
264302744337021, 0.83389866, 5.7762737, 8.647661, -0.548975, 0.23109066, 10.415758
264302753977230, 0.7704889, 4.4111686, 8.548359, 0.54134727, -0.04501176, 9.634906
264302763617334, 0.6723832, 5.4640107, 8.500503, -0.38640308, 0.041010857, 10.120034
264302773257542, 0.8219346, 4.796413, 8.752945, 0.32457447, 0.02628851, 10.009454
264302782897646, 0.51086766, 4.991428, 8.366505, -0.09309673, -0.1687752, 9.753799
264302792537855, 0.86141616, 5.272585, 8.739784, -0.0739398, 0.15639949, 10.241879
264302802177959, 0.46899325, 4.5559344, 8.255239, 0.2100327, -0.2605275, 9.434695
264302811818167, 0.8757731, 5.703293, 8.724232, -0.436193, 0.25396287, 10.447583
264302821458376, 0.57547385, 4.3405805, 8.282756, 0.43639922, -0.20533895, 9.356457
264302831098480, 0.7680961, 5.757131, 8.5112705, -0.60085964, 0.19228423, 10.284857
264302840738688, 0.6855437, 4.369294, 8.4012, 0.49112105, -0.108003736, 9.48093
264302850378792, 0.64965135, 5.4819565, 8.428718, -0.43463373, 0.040673137, 10.0661125
264302860019001, 0.782453, 4.7018967, 8.707481, 0.37941217, -0.019214272, 9.919474
264302869659105, 0.53599226, 5.06082, 8.4012, -0.1254425, -0.13578677, 9.82065
264302879299313, 0.8853444, 5.2534423, 8.7673025, -0.03252411, 0.1725986, 10.257545
264302888939521, 0.4989035, 4.5822554, 8.304291, 0.21449399, -0.23836231, 9.492333
264302898579626, 0.85064846, 5.605187, 8.770891, -0.33642483, 0.20120966, 10.436311
264302908219834, 0.5180461, 4.281956, 8.359326, 0.50041413, -0.28226233, 9.388918
264302917859938, 0.7848458, 5.7248282, 8.690732, -0.49221373, 0.17297578, 10.423353
264302927500146, 0.6903293, 4.395615, 8.519645, 0.5222473, -0.1299578, 9.596495
264302937140251, 0.7046863, 5.6171513, 8.5938225, -0.47644758, 0.09584081, 10.279424
264302946780459, 0.87338024, 4.7976093, 8.811569, 0.36146498, 0.06597936, 10.064222
264302956420667, 0.60658056, 5.235496, 8.4502535, -0.24259615, -0.04619968, 9.956112
264302966060771, 0.9236295, 5.237889, 8.711071, -0.037329197, 0.2158488, 10.204086
264302975700980, 0.51086766, 4.6265225, 8.208578, 0.13885856, -0.20025516, 9.433294
264302985341084, 0.8817552, 5.584848, 8.744571, -0.32260084, 0.22981834, 10.405703
264302994981292, 0.53240305, 4.3202415, 8.273184, 0.4295218, -0.24396288, 9.335392
264303004621396, 0.78364944, 5.721239, 8.52443, -0.5618324, 0.20770371, 10.278802
264303014261605, 0.6520442, 4.308277, 8.286345, 0.47139692, -0.13961828, 9.349235
264303023901709, 0.7082755, 5.6183476, 8.373683, -0.56388855, 0.15138781, 10.091835
264303033541917, 0.84825563, 4.6959143, 8.562716, 0.3281212, 0.067507505, 9.796888
264303043182126, 0.59700924, 5.2019963, 8.343773, -0.27010274, -0.027552843, 9.8469305
264303052822230, 0.90089774, 5.12423, 8.779266, 0.0845809, 0.16180694, 10.2035055
264303062462438, 0.50009996, 4.679165, 8.382058, 0.16192865, -0.23372829, 9.608472
264303072102542, 0.85184485, 5.4999027, 8.902496, -0.18967819, 0.163952, 10.496007
264303081742751, 0.44506502, 4.28076, 8.492127, 0.5333879, -0.37640667, 9.4980545
264303091382855, 0.7800602, 5.7355957, 8.827123, -0.44503498, 0.14605367, 10.5453415
264303101023063, 0.63170516, 4.314259, 8.516056, 0.5733781, -0.1821307, 9.548463
264303110663167, 0.6843473, 5.642276, 8.5423765, -0.52564, 0.08602095, 10.246565
264303120303376, 0.76689965, 4.570291, 8.595019, 0.42611814, -0.011635661, 9.755425
264303129943480, 0.53359944, 5.2283173, 8.423932, -0.2750368, -0.10630667, 9.924501
264303139583688, 0.8386843, 5.076373, 8.769695, 0.09178543, 0.10743642, 10.166639
264303149223896, 0.49052864, 4.7102714, 8.304291, 0.09862614, -0.20889914, 9.556944
264303158864001, 0.91525465, 5.4903316, 8.829515, -0.21680069, 0.24549007, 10.432379
264303168504209, 0.52522457, 4.382455, 8.421539, 0.43755627, -0.25105715, 9.494714
264303178144313, 0.7704889, 5.727221, 8.784052, -0.4745965, 0.1580764, 10.502575
264303187784521, 0.5922236, 4.2652063, 8.471788, 0.5680642, -0.21836853, 9.483856
264303197424626, 0.73100734, 5.6470613, 8.58784, -0.4975381, 0.14485657, 10.291071
264303207064834, 0.79920274, 4.5882373, 8.618947, 0.4187963, 0.0062844753, 9.787822
264303216704938, 0.613759, 5.3682976, 8.427522, -0.3722322, 0.0115458965, 10.003986
264303226345146, 0.910469, 5.035695, 8.725428, 0.13150692, 0.17623103, 10.112958
264303235985251, 0.552742, 4.82752, 8.275578, 0.0017211437, -0.123270035, 9.595858
264303245625459, 0.93320084, 5.493921, 8.774481, -0.22260666, 0.27551436, 10.388458
264303255265563, 0.56111693, 4.4446683, 8.380861, 0.3774972, -0.21158803, 9.493235
264303264905771, 0.8662018, 5.7631135, 8.773284, -0.47038126, 0.26725757, 10.518633
264303274545876, 0.61016977, 4.2867417, 8.432307, 0.5517342, -0.1998601, 9.460862
264303284186084, 0.695115, 5.6877394, 8.563912, -0.5435405, 0.118815064, 10.289053
264303293826188, 0.6855437, 4.490132, 8.549556, 0.45912385, -0.09890258, 9.669828
264303303466396, 0.52283174, 5.3144593, 8.421539, -0.33862257, -0.08857405, 9.965775
264303313106605, 0.79800636, 4.9172506, 8.702696, 0.1903131, 0.061199427, 10.025623
264303322746709, 0.46779683, 4.8394837, 8.299505, -0.005636215, -0.20050955, 9.616703
264303332386917, 0.90089774, 5.393422, 8.707481, -0.18381214, 0.2398467, 10.277624
264303342027021, 0.44027936, 4.395615, 8.193025, 0.31785512, -0.27719307, 9.298552
264303351667230, 0.7609176, 5.6482577, 8.636893, -0.461833, 0.15042543, 10.3364315
264303361307334, 0.5276174, 4.2221355, 8.288737, 0.5329728, -0.23520744, 9.298849
264303370947542, 0.6855437, 5.666204, 8.4909315, -0.568769, 0.11640084, 10.214436
264303380587646, 0.68075806, 4.4410787, 8.480164, 0.4631095, -0.08483207, 9.585307
264303390227855, 0.5706882, 5.3946185, 8.427522, -0.39710712, -0.028883815, 10.014599
264303399867959, 0.79441714, 4.901697, 8.690732, 0.19877577, 0.059835315, 10.007171
264303409508167, 0.46660042, 4.9028935, 8.322237, -0.051292896, -0.19134438, 9.668323
264303419148271, 0.8757731, 5.35753, 8.819944, -0.106900215, 0.19266355, 10.35437
264303428788480, 0.56829536, 4.5320063, 8.415557, 0.3236773, -0.1752001, 9.568081
264303438428584, 0.9391829, 5.7427745, 8.877372, -0.38911057, 0.31440234, 10.602782
264303448068792, 0.6221339, 4.319045, 8.46461, 0.5339315, -0.18030405, 9.506484
264303457708896, 0.7692925, 5.7559347, 8.605786, -0.57182646, 0.19911683, 10.364147
264303467349105, 0.73459655, 4.470989, 8.5112705, 0.45698738, -0.057935834, 9.631144
264303476989209, 0.6412765, 5.4795637, 8.4909315, -0.4251876, 0.046691537, 10.116807
264303486629417, 0.85902333, 4.85743, 8.742178, 0.2770083, 0.094377756, 10.033572
264303496269521, 0.5766702, 5.032106, 8.361719, -0.12151933, -0.0774287, 9.775081
264303505909730, 0.93320084, 5.3718867, 8.768498, -0.13531494, 0.25189376, 10.321475
264303515549834, 0.5347959, 4.537988, 8.312666, 0.25891614, -0.19854426, 9.480153
264303525190042, 0.9068798, 5.703293, 8.817552, -0.3992777, 0.2671646, 10.529408
264303534830146, 0.6125626, 4.3298125, 8.403593, 0.49256754, -0.17383242, 9.458861
264303544470355, 0.8063812, 5.74756, 8.615358, -0.55893517, 0.22016001, 10.370546
264303554110459, 0.70348984, 4.3872404, 8.46461, 0.4948871, -0.08700478, 9.546722
264303563750667, 0.634098, 5.474778, 8.459825, -0.43381357, 0.031340957, 10.087355
264303573390771, 0.7968099, 4.776074, 8.687142, 0.296376, 0.027397037, 9.941009
264303583030980, 0.45104706, 5.011767, 8.34138, -0.15039897, -0.20315516, 9.738377
264303592671084, 0.81954175, 5.204389, 8.7673025, -0.019269466, 0.10874379, 10.227939
264303602311292, 0.42831525, 4.505685, 8.299505, 0.24723911, -0.30747747, 9.445146
264303611951396, 0.77766734, 5.584848, 8.810373, -0.3359022, 0.1420424, 10.453945
264303621591605, 0.47377887, 4.2329035, 8.452646, 0.5624478, -0.3358556, 9.44246
264303631231709, 0.7692925, 5.6781683, 8.717052, -0.46889067, 0.166453, 10.41983
264303640871917, 0.68195444, 4.281956, 8.581859, 0.63248587, -0.14779043, 9.593051
264303650512021, 0.6963114, 5.4783673, 8.632108, -0.35057688, 0.07034123, 10.24123
264303660152230, 0.8709874, 4.752146, 8.855837, 0.40878868, 0.06881118, 10.07946
264303669792334, 0.5814559, 5.163711, 8.469396, -0.19304752, -0.07002473, 9.934309
264303679432542, 0.8769695, 5.2666025, 8.788837, -0.0625391, 0.17542374, 10.281787
264303689072646, 0.4989035, 4.679165, 8.270791, 0.10806584, -0.19402087, 9.513156
264303698712855, 0.88414794, 5.6446686, 8.773284, -0.39362812, 0.23845077, 10.459576
264303708352959, 0.53359944, 4.3441696, 8.360522, 0.44821048, -0.21210575, 9.423852
264303717993167, 0.7788638, 5.771488, 8.641679, -0.580111, 0.16881943, 10.403379
264303727633271, 0.6472585, 4.322634, 8.398808, 0.50643945, -0.10215092, 9.453951
264303737273480, 0.6999006, 5.584848, 8.46102, -0.52138424, 0.097652435, 10.148295
264303746913584, 0.8566305, 4.685147, 8.59143, 0.34170628, 0.11182451, 9.816711
264303756553792, 0.59700924, 5.13739, 8.303095, -0.23412704, -0.036268353, 9.779287
264303766193896, 0.92243314, 5.13739, 8.640483, -0.00539732, 0.22782505, 10.092059
264303775834105, 0.5371887, 4.662415, 8.203793, 0.105027676, -0.14773071, 9.449659
264303785474209, 0.9092726, 5.5776696, 8.805588, -0.30403376, 0.25108314, 10.455626
264303795114417, 0.5276174, 4.358526, 8.46102, 0.48447037, -0.24534905, 9.516779
264303804754521, 0.72382885, 5.721239, 8.816355, -0.4601059, 0.09440482, 10.524448
264303814394730, 0.5599205, 4.281956, 8.562716, 0.5924127, -0.24905384, 9.568479
264303824034834, 0.63529444, 5.5908303, 8.6548395, -0.44773197, 0.015554547, 10.313416
264303833675042, 0.7405786, 4.5942197, 8.729017, 0.44754124, -0.04807496, 9.8817215
264303843315146, 0.5312066, 5.1720862, 8.495717, -0.19208479, -0.11871672, 9.957855
264303852955355, 0.82911307, 5.0452666, 8.768498, 0.11262941, 0.10553777, 10.149134
264303862595459, 0.44626144, 4.6468616, 8.287541, 0.12654662, -0.250409, 9.507739
264303872235667, 0.8757731, 5.477171, 8.806784, -0.22071934, 0.22717297, 10.40315
264303881875771, 0.52163535, 4.358526, 8.407183, 0.44343638, -0.2537824, 9.470403
264303891515980, 0.8650054, 5.77747, 8.781659, -0.4947834, 0.28009737, 10.531934
264303901156084, 0.64845496, 4.342973, 8.432307, 0.4925022, -0.13702738, 9.493386
264303910796292, 0.69272214, 5.6674004, 8.487342, -0.58449984, 0.14740908, 10.211313
264303920436396, 0.78364944, 4.5894337, 8.539984, 0.38269186, 0.013591409, 9.719141
264303930076605, 0.5706882, 5.306084, 8.346166, -0.36771846, -0.014692783, 9.89966
264303939716709, 0.8650054, 5.046463, 8.688339, 0.08420038, 0.15292585, 10.083242
264303949356917, 0.5204389, 4.770092, 8.208578, 0.008303404, -0.14405107, 9.50708
264303958997021, 0.91405827, 5.4783673, 8.681161, -0.26710367, 0.27796412, 10.298639
264303968637230, 0.53240305, 4.371687, 8.336594, 0.40639353, -0.22737086, 9.416849
264303978277334, 0.8662018, 5.7427745, 8.855837, -0.4260893, 0.2445159, 10.578953
264303987917542, 0.6221339, 4.2999024, 8.551949, 0.5890398, -0.19181001, 9.572266
264303997557646, 0.6759724, 5.645865, 8.648857, -0.48116493, 0.07760072, 10.339145
264304007197855, 0.6831509, 4.5044885, 8.671589, 0.48649502, -0.11655235, 9.782806
264304016837959, 0.5072784, 5.306084, 8.516056, -0.29850626, -0.12241542, 10.041463
264304026478167, 0.8063812, 4.9674997, 8.815159, 0.19354916, 0.059095263, 10.148517
264304036118271, 0.43669012, 4.7952166, 8.327023, 0.023241997, -0.24435103, 9.615812
264304045758480, 0.83389866, 5.393422, 8.724232, -0.19935703, 0.17183113, 10.287243
264304055398584, 0.424726, 4.3537407, 8.292327, 0.38209605, -0.32749557, 9.361885
264304065038792, 0.7800602, 5.663811, 8.723035, -0.4426465, 0.16677356, 10.418967
264304074678896, 0.55513483, 4.2556353, 8.3581295, 0.5226023, -0.22341704, 9.378375
264304084319105, 0.72502524, 5.7080784, 8.538788, -0.5732722, 0.15033042, 10.279468
264304093959209, 0.7369894, 4.499703, 8.603394, 0.4738419, -0.04851818, 9.725327
264304103599417, 0.62093747, 5.386244, 8.52802, -0.33866405, -0.009336472, 10.099976
264304113239521, 0.8877372, 4.9543395, 8.845069, 0.23929071, 0.12749279, 10.173264
264304122879730, 0.57427746, 4.9292145, 8.408379, -0.012079239, -0.107132435, 9.7630005
264304132519834, 0.93559366, 5.45085, 8.810373, -0.18619156, 0.25545037, 10.397591
264304142160042, 0.55393845, 4.5116673, 8.329415, 0.30174685, -0.18019867, 9.482491
264304151800146, 0.94755775, 5.7583275, 8.786445, -0.44732428, 0.33282948, 10.533135
264304161440355, 0.6652047, 4.3645086, 8.397611, 0.47796893, -0.10941279, 9.4747505
264304171080459, 0.7860422, 5.7750773, 8.550752, -0.61506224, 0.2171818, 10.327598
264304180720667, 0.71665037, 4.506881, 8.447861, 0.40108514, -0.054390907, 9.593127
264304190360876, 0.57547385, 5.4783673, 8.362915, -0.5013714, 0.01394999, 10.001524
264304200000980, 0.7932207, 4.875376, 8.658429, 0.20961022, 0.05060041, 9.965962
264304209641188, 0.4941179, 4.9196434, 8.305488, -0.0737381, -0.16070068, 9.664208
264304219281292, 0.8805587, 5.282156, 8.693125, -0.09512949, 0.21036243, 10.20753
264304228921501, 0.50009996, 4.4614177, 8.195417, 0.26083684, -0.21739686, 9.338304
264304238561605, 0.8853444, 5.643472, 8.663215, -0.41379786, 0.2903173, 10.364765
264304248201813, 0.58983076, 4.278367, 8.312666, 0.48964834, -0.19293225, 9.352847
264304257841917, 0.78843504, 5.7284174, 8.623733, -0.52544785, 0.21036327, 10.367489
264304267482126, 0.6855437, 4.4051867, 8.585447, 0.54320836, -0.125574, 9.657883
264304277122230, 0.54675996, 5.453243, 8.632108, -0.35309935, -0.07946205, 10.218567
264304286762438, 0.7070791, 4.7892346, 8.849854, 0.34575176, -0.08350277, 10.081176
264304296402542, 0.4139583, 4.9543395, 8.440681, -0.067396164, -0.25812984, 9.792381
264304306042751, 0.8135597, 5.239085, 8.848659, -0.012672424, 0.10426235, 10.31492
264304315682855, 0.50009996, 4.4913282, 8.365308, 0.3073418, -0.24490476, 9.499794
264304325323063, 0.9128618, 5.6506505, 8.85823, -0.33473587, 0.28283715, 10.537521
264304334963167, 0.5766702, 4.2771707, 8.482556, 0.55662847, -0.23315346, 9.498226
264304344603376, 0.7752745, 5.743971, 8.834301, -0.46248007, 0.17733729, 10.554326
264304354243480, 0.6939186, 4.4279184, 8.706285, 0.5581343, -0.1499356, 9.775143
264304363883688, 0.6436693, 5.5968122, 8.648857, -0.4527769, 0.055979848, 10.3118
264304373523896, 0.7908279, 4.8059845, 8.730213, 0.28214645, 0.017624378, 9.992977
264304383164001, 0.52283174, 5.1014977, 8.267202, -0.24701905, -0.08498466, 9.725073
264304392804209, 0.91405827, 5.2570314, 8.5938225, -0.11116552, 0.25844646, 10.111702
264304402444313, 0.5084748, 4.5894337, 8.059027, 0.08493042, -0.16168201, 9.286334
264304412084521, 0.88414794, 5.613562, 8.569894, -0.43051434, 0.300771, 10.2694235
264304421724626, 0.53599226, 4.2556353, 8.199007, 0.45226765, -0.22720695, 9.239334
264304431364834, 0.7728817, 5.710471, 8.554341, -0.5563407, 0.19868374, 10.297309
264304441004938, 0.66041905, 4.334598, 8.382058, 0.49780178, -0.11596894, 9.445769
264304450645146, 0.6795616, 5.572884, 8.463413, -0.5102043, 0.09275639, 10.142943
264304460285251, 0.8745767, 4.755735, 8.748159, 0.3628459, 0.10140455, 9.988507
264304469925459, 0.59342, 5.211568, 8.500503, -0.2000165, -0.058911562, 9.986374
264304479565563, 0.89371926, 5.21755, 8.922835, 0.056456566, 0.15857637, 10.373535
264304489205771, 0.48933223, 4.6492543, 8.469396, 0.23050714, -0.24932635, 9.668009
264304498845980, 0.84825563, 5.576473, 8.988638, -0.22598362, 0.15750933, 10.6083145
264304508486084, 0.4869394, 4.2831526, 8.606983, 0.6049712, -0.32993138, 9.601448
264304518126292, 0.7609176, 5.7320065, 8.939586, -0.40223742, 0.11304355, 10.638445
264304527766396, 0.62931234, 4.314259, 8.616554, 0.61262155, -0.1853584, 9.635571
264304537406605, 0.6687939, 5.5800624, 8.633304, -0.45101976, 0.064230084, 10.291296
264304547046709, 0.7860422, 4.6528435, 8.679964, 0.3942907, 0.0062168837, 9.871833
264304556686917, 0.56111693, 5.2283173, 8.305488, -0.3250141, -0.04183173, 9.8246565
264304566327021, 0.8853444, 5.1218367, 8.597412, -0.015173435, 0.20211005, 10.044474
264304575967230, 0.49172506, 4.685147, 8.109276, 0.02816534, -0.16959965, 9.376736
264304585607438, 0.8877372, 5.54417, 8.632108, -0.35474825, 0.26925135, 10.287897
264304595247542, 0.57906306, 4.341777, 8.3174515, 0.4444914, -0.18392313, 9.388021
264304604887751, 0.849452, 5.757131, 8.683554, -0.5183592, 0.26188076, 10.437095
264304614527855, 0.6161518, 4.2867417, 8.403593, 0.5418322, -0.17648292, 9.4367075
264304624168063, 0.65922266, 5.595616, 8.478967, -0.5170183, 0.08264339, 10.166821
264304633808167, 0.7573284, 4.6325045, 8.640483, 0.38737416, -0.019838095, 9.825535
264304643448376, 0.59581286, 5.2749777, 8.474181, -0.26695776, -0.032656193, 9.995989
264304653088480, 0.9176475, 5.1086764, 8.800801, 0.10465956, 0.18790257, 10.215111
264304662728688, 0.5276174, 4.7880383, 8.366505, 0.06676912, -0.16998363, 9.652395
264304672368896, 0.9020941, 5.535795, 8.88455, -0.22445297, 0.2346437, 10.501838
264304682009001, 0.5024927, 4.369294, 8.472985, 0.47003746, -0.28734028, 9.530541
264304691649209, 0.8111669, 5.712864, 8.880961, -0.4055314, 0.17403388, 10.581661
264304701289313, 0.57547385, 4.28076, 8.519645, 0.5794821, -0.231089, 9.531591
264304710929521, 0.64845496, 5.601598, 8.596215, -0.48668146, 0.042929053, 10.26911
264304720569626, 0.69272214, 4.5284166, 8.608179, 0.4400282, -0.083951, 9.740971
264304730209834, 0.5276174, 5.2953167, 8.414361, -0.33487177, -0.096271515, 9.949815
264304739850042, 0.86859465, 5.015356, 8.68475, 0.10797548, 0.14789915, 10.06477
264304749490146, 0.47138608, 4.792824, 8.155936, -0.038935423, -0.18343842, 9.469821
264304759130355, 0.8961121, 5.473582, 8.645268, -0.28288174, 0.2530725, 10.264488
264304768770459, 0.53599226, 4.392026, 8.244471, 0.3565166, -0.20603478, 9.34767
264304778410667, 0.82911307, 5.7284174, 8.709874, -0.48450756, 0.22378778, 10.444103
264304788050771, 0.58624154, 4.2556353, 8.435896, 0.575706, -0.22236657, 9.446566
264304797690980, 0.7262217, 5.672186, 8.60459, -0.5043478, 0.13676429, 10.318286
264304807331188, 0.74177504, 4.5224347, 8.652447, 0.4859004, -0.06563735, 9.778911
264304816971292, 0.59700924, 5.406583, 8.544769, -0.3563385, -0.01590693, 10.122915
264304826611501, 0.8757731, 5.0189457, 8.82832, 0.17488909, 0.1251539, 10.190671
264304836251605, 0.52283174, 4.9292145, 8.374879, -0.048360586, -0.15270054, 9.730542
264304845891813, 0.930808, 5.473582, 8.817552, -0.19330788, 0.25733113, 10.414995
264304855532021, 0.5694918, 4.486542, 8.348558, 0.32958722, -0.19150686, 9.487176
264304865172126, 0.9200403, 5.7547383, 8.810373, -0.42946482, 0.2960446, 10.550548
264304874812334, 0.66161543, 4.3178487, 8.506484, 0.5703471, -0.17008638, 9.5439825
264304884452438, 0.8003992, 5.757131, 8.699107, -0.51132965, 0.20555592, 10.447773
264304894092646, 0.73818576, 4.485346, 8.677571, 0.5201249, -0.09112942, 9.781854
264304903732855, 0.5982057, 5.4293146, 8.57468, -0.35151577, -0.025440812, 10.160522
264304913372959, 0.7920243, 4.880162, 8.793623, 0.25557113, 0.01892209, 10.084911
264304923013167, 0.4833502, 4.912465, 8.3377905, -0.0643301, -0.18304777, 9.6874695
264304932653271, 0.8769695, 5.345566, 8.71466, -0.14606524, 0.20718133, 10.257934
264304942293480, 0.5024927, 4.432704, 8.22772, 0.30309868, -0.23409688, 9.351474
264304951933688, 0.83988076, 5.666204, 8.696713, -0.43346357, 0.22148252, 10.402266
264304961573792, 0.55393845, 4.273581, 8.301898, 0.49174953, -0.22143984, 9.338148
264304971214001, 0.72023964, 5.6817575, 8.508878, -0.569046, 0.14659858, 10.23996
264304980854105, 0.65324056, 4.3728833, 8.462217, 0.50682354, -0.13992321, 9.533178
264304990494313, 0.55034924, 5.4125648, 8.440681, -0.4149456, -0.041469216, 10.033442
264305000134521, 0.7513463, 4.8035913, 8.676374, 0.26693916, -0.0010243654, 9.942194
264305009774626, 0.4354937, 4.9268217, 8.270791, -0.11352539, -0.20956874, 9.633919
264305019414834, 0.82672024, 5.2486563, 8.675179, -0.09729099, 0.15551162, 10.171379
264305029055042, 0.4833502, 4.4745784, 8.244471, 0.26694894, -0.23832536, 9.386093
264305038695146, 0.88295156, 5.6243296, 8.805588, -0.3409114, 0.24751627, 10.47729
264305048335355, 0.60059845, 4.2508492, 8.477771, 0.5909262, -0.20121002, 9.4822645
264305057975459, 0.77766734, 5.736792, 8.811569, -0.46952534, 0.1665256, 10.531434
264305067615667, 0.69272214, 4.449454, 8.690732, 0.5393696, -0.12510896, 9.772397
264305077255876, 0.66400826, 5.5908303, 8.712267, -0.4234171, 0.04612136, 10.364384
264305086895980, 0.8650054, 4.877769, 8.904889, 0.3275423, 0.07360268, 10.184558
264305096536188, 0.5706882, 5.139783, 8.517252, -0.1554718, -0.09179139, 9.962632
264305106176396, 0.91405827, 5.2893343, 8.837891, -0.037281036, 0.20905197, 10.338074
264305115816501, 0.5479564, 4.597809, 8.34138, 0.21941495, -0.18188882, 9.536117
264305125456709, 0.9415757, 5.680561, 8.7780695, -0.38730097, 0.31532335, 10.486202
264305135096813, 0.61734825, 4.369294, 8.274381, 0.3966751, -0.14190209, 9.368017
264305144737021, 0.8422736, 5.797809, 8.469396, -0.6543703, 0.28474915, 10.273529
264305154377230, 0.70588267, 4.412365, 8.271988, 0.38674712, -0.046350837, 9.393684
264305164017334, 0.6520442, 5.568098, 8.303095, -0.5761416, 0.093516946, 10.00148
264305173657542, 0.7513463, 4.6959143, 8.55793, 0.29902983, -0.01089859, 9.785946
264305183297751, 0.48933223, 5.046463, 8.355737, -0.15036774, -0.16273522, 9.771154
264305192937855, 0.86141616, 5.143372, 8.79123, 0.05797577, 0.13786006, 10.220553
264305202578063, 0.5814559, 4.894519, 8.5016985, 0.057313204, -0.124270916, 9.826218
264305212218271, 0.7513463, 5.0548377, 8.790034, 0.09615803, 0.015475988, 10.167158
264305221858376, 0.70229346, 5.0069814, 8.671589, 0.06768417, -0.018444419, 10.037659
264305231498584, 0.6795616, 5.023731, 8.658429, 0.039714336, -0.03501618, 10.033209
264305241138792, 0.6329016, 4.991428, 8.658429, 0.055045128, -0.08615053, 10.013634
264305250778896, 0.6029913, 4.9902315, 8.695518, 0.06611538, -0.12205577, 10.042847
264305260419105, 0.61016977, 4.995017, 8.717052, 0.07234383, -0.11561048, 10.064339
264305270059313, 0.60059845, 4.975875, 8.673982, 0.06556606, -0.120231986, 10.016948
264305279699417, 0.6556334, 4.9926243, 8.608179, 0.03486824, -0.048579454, 9.972628
264305289339626, 0.67836523, 5.0141597, 8.568698, 0.004878044, -0.010980487, 9.951102
264305298979834, 0.70348984, 5.042874, 8.530413, -0.029809475, 0.027035952, 9.934376
264305308619938, 0.715454, 5.005785, 8.512466, -0.002281189, 0.033591032, 9.901047
264305318260146, 0.7393822, 5.042874, 8.4705925, -0.043494225, 0.07138634, 9.885404
264305327900355, 0.7585248, 5.0979085, 8.413164, -0.106137514, 0.10900378, 9.865203
264305337540459, 0.7752745, 5.083552, 8.372486, -0.105844736, 0.12705982, 9.824191
264305347180667, 0.75254273, 5.0859447, 8.396415, -0.10334706, 0.10088277, 9.844393
264305356820876, 0.7393822, 5.093123, 8.423932, -0.09923792, 0.08154309, 9.870802
264305366460980, 0.7477571, 5.076373, 8.505288, -0.046811104, 0.06814909, 9.932865
264305376101188, 0.74536425, 5.06082, 8.6141615, 0.01631546, 0.040100694, 10.018451
264305385741396, 0.76570326, 5.066802, 8.740981, 0.07348442, 0.035269856, 10.131973
264305395381501, 0.715454, 5.042874, 8.796016, 0.101831436, -0.029338956, 10.163715
264305405021709, 0.6664011, 5.0213385, 8.758927, 0.08867645, -0.07331145, 10.117485
264305414661917, 0.6855437, 5.022535, 8.719446, 0.075802326, -0.04717946, 10.085465
264305424302021, 0.6987042, 5.0620165, 8.620144, 0.0016965866, -0.0074430704, 10.020929
264305433942230, 0.7046863, 5.048856, 8.545966, -0.018460274, 0.01025033, 9.95091
264305443582438, 0.695115, 5.050052, 8.516056, -0.034198284, 0.007823229, 9.925131
264305453222542, 0.6891329, 5.046463, 8.514859, -0.032857418, 0.002715826, 9.921866
264305462862751, 0.6963114, 5.0129633, 8.559127, 0.017082214, -0.0012745857, 9.94349
264305472502959, 0.6652047, 4.9878387, 8.551949, 0.025201559, -0.03224981, 9.922458
264305482143063, 0.59342, 4.9399824, 8.502895, 0.021771908, -0.0987345, 9.851121
264305491783271, 0.55513483, 4.9316072, 8.510074, 0.021264553, -0.13658333, 9.850439
264305501423480, 0.6017949, 4.9734817, 8.502895, -0.004775524, -0.081771135, 9.868647
264305511063584, 0.65324056, 4.9974103, 8.478967, -0.020552158, -0.021385789, 9.863713
264305520703792, 0.6723832, 5.003392, 8.447861, -0.033805132, 0.002579093, 9.841305
264305530344001, 0.6855437, 5.022535, 8.487342, -0.026979446, 0.00903666, 9.885849
264305539984209, 0.715454, 5.046463, 8.532805, -0.016400576, 0.03227806, 9.939121
264305549624313, 0.70947194, 5.0416775, 8.52802, -0.016430855, 0.026509047, 9.932171
264305559264521, 0.6723832, 5.005785, 8.563912, 0.018859863, -0.027736425, 9.942306
264305568904730, 0.66759753, 5.0045886, 8.603394, 0.036860704, -0.04074943, 9.975317
264305578544834, 0.69152576, 5.0368915, 8.679964, 0.051223278, -0.02758038, 10.059168
264305588185042, 0.7178468, 5.046463, 8.71466, 0.06518793, -0.00686872, 10.095696
264305597825251, 0.72382885, 5.072784, 8.725428, 0.046975136, 4.386902E-4, 10.118693
264305607465459, 0.74536425, 5.09073, 8.676374, 0.014834404, 0.033725023, 10.087082
264305617105563, 0.72502524, 5.089534, 8.58784, -0.03168392, 0.030704498, 10.008899
264305626745771, 0.7286145, 5.069195, 8.523234, -0.039967537, 0.039991856, 9.943337
264305636385980, 0.74416786, 5.087141, 8.506484, -0.058956623, 0.06158781, 9.939105
264305646026084, 0.74416786, 5.0883374, 8.487342, -0.064620495, 0.06196785, 9.923302
264305655666292, 0.7429714, 5.066802, 8.474181, -0.050879955, 0.05828333, 9.901024
264305665306501, 0.7369894, 5.0452666, 8.476574, -0.031886578, 0.04683101, 9.891762
264305674946709, 0.71306115, 5.0249276, 8.526823, 0.0028681755, 0.008785605, 9.922951
264305684586813, 0.73579293, 5.035695, 8.585447, 0.027088165, 0.021232963, 9.980397
264305694227021, 0.76331043, 5.0775695, 8.573483, -0.0072956085, 0.058261156, 9.993273
264305703867230, 0.71665037, 5.078766, 8.538788, -0.036564827, 0.020127892, 9.960753
264305713507334, 0.69152576, 5.0476594, 8.536395, -0.017822742, -0.009075999, 9.941164
264305723147542, 0.6759724, 5.0416775, 8.556734, -0.00709486, -0.028928757, 9.954511
264305732787751, 0.70229346, 5.0249276, 8.572288, 0.01979065, -0.007622242, 9.961262
264305742427959, 0.70348984, 5.0165524, 8.550752, 0.016248226, -0.0030869246, 9.9386015
264305752068063, 0.6903293, 5.002196, 8.518449, 0.009119511, -0.012426853, 9.902639
264305761708271, 0.7046863, 5.011767, 8.554341, 0.021849155, -0.0037630796, 9.939348
264305771348480, 0.72023964, 5.0440702, 8.596215, 0.01842928, 0.0086557865, 9.992791
264305780988688, 0.68195444, 5.06082, 8.6548395, 0.02123928, -0.03737521, 10.04895
264305790628792, 0.6855437, 5.06082, 8.719446, 0.051041603, -0.047965407, 10.104736
264305800269001, 0.69152576, 5.052445, 8.73141, 0.06417894, -0.04459381, 10.111223
264305809909209, 0.72263247, 5.0368915, 8.719446, 0.08002949, -0.015840054, 10.095274
264305819549313, 0.71306115, 5.040481, 8.618947, 0.026407242, -0.001376152, 10.010017
264305829189521, 0.69152576, 5.0189457, 8.518449, -0.008845806, -0.0032327175, 9.9112015
264305838829730, 0.654437, 5.0177493, 8.452646, -0.04545784, -0.02251339, 9.851435
264305848469938, 0.6364908, 4.985446, 8.40479, -0.04613161, -0.036544323, 9.792693
264305858110042, 0.66041905, 5.0009995, 8.429914, -0.038257837, -0.015040517, 9.823845
264305867750251, 0.7046863, 5.042874, 8.4813595, -0.03508234, 0.025084019, 9.89236
264305877390459, 0.7405786, 5.078766, 8.512466, -0.038558483, 0.059819937, 9.939787
264305887030667, 0.74895346, 5.111069, 8.478967, -0.07897401, 0.08031428, 9.92795
264305896670771, 0.7585248, 5.1158547, 8.455039, -0.09162021, 0.09520233, 9.910478
264305906310980, 0.72741807, 5.076373, 8.471788, -0.058229446, 0.05167389, 9.902719
264305915951188, 0.72382885, 5.0536413, 8.537591, -0.0090518, 0.030554652, 9.947495
264305925591396, 0.7262217, 5.040481, 8.601001, 0.030240536, 0.01689899, 9.995492
264305935231501, 0.7106683, 5.0512486, 8.618947, 0.025335789, 7.413626E-4, 10.015278
264305944871709, 0.68195444, 5.029713, 8.65125, 0.046638966, -0.03688562, 10.030137
264305954511917, 0.6652047, 5.0512486, 8.662018, 0.027409554, -0.04946077, 10.049129
264305964152126, 0.64606214, 5.0512486, 8.675179, 0.026390553, -0.06985307, 10.059109
264305973792230, 0.6448657, 5.032106, 8.694321, 0.05107689, -0.07780266, 10.065809
264305983432438, 0.66400826, 5.0452666, 8.664411, 0.03200102, -0.05031371, 10.048088
264305993072646, 0.6879365, 5.028517, 8.563912, 0.0063142776, -0.008138061, 9.9548855
264306002712855, 0.6687939, 5.0009995, 8.482556, -0.012925386, -0.013730526, 9.869687
264306012352959, 0.6556334, 5.003392, 8.451449, -0.030801058, -0.017053604, 9.843248
264306021993167, 0.66041905, 5.011767, 8.446664, -0.038541317, -0.010149717, 9.843702
264306031633376, 0.6759724, 4.996214, 8.458628, -0.0150818825, 5.38826E-5, 9.847195
264306041273584, 0.6843473, 5.0129633, 8.5112705, -0.0020012856, 0.0018770695, 9.901508
264306050913792, 0.6987042, 5.048856, 8.523234, -0.023522854, 0.020002723, 9.930946
264306060553896, 0.7046863, 5.050052, 8.517252, -0.024646759, 0.02631259, 9.926827
264306070194105, 0.73818576, 5.069195, 8.526823, -0.026983261, 0.06045139, 9.94706
264306079834313, 0.73100734, 5.096712, 8.49452, -0.06538153, 0.06152153, 9.932757
264306089474521, 0.6975078, 5.0739803, 8.482556, -0.05967188, 0.0254457, 9.908651
264306099114626, 0.6903293, 5.06082, 8.520842, -0.032014847, 0.008662581, 9.934388
264306108754834, 0.66759753, 4.9986067, 8.573483, 0.037970543, -0.03510344, 9.946542
264306118395042, 0.6795616, 4.9926243, 8.6548395, 0.08435917, -0.041125774, 10.014266
264306128035251, 0.6903293, 5.0249276, 8.709874, 0.083479404, -0.033601522, 10.078703
264306137675355, 0.695115, 5.023731, 8.685946, 0.06996727, -0.021030188, 10.057901
264306147315563, 0.6855437, 5.032106, 8.628518, 0.032520294, -0.01719284, 10.0120945
264306156955771, 0.69272214, 5.050052, 8.585447, -3.9720535E-4, 0.0012229681, 9.984627
264306166595980, 0.70229346, 5.0847483, 8.577073, -0.030492306, 0.019601941, 9.995636
264306176236188, 0.72263247, 5.0847483, 8.519645, -0.04877615, 0.048226237, 9.947689
