timestamp_acc,device_acc_x,device_acc_y,device_acc_z,earth_acc_x,earth_acc_y,earth_acc_z
263192516442490, 0.104087785, 5.642276, 8.647661, 0.11292505, 0.15654813, 10.324287
263192526081553, 0.2117648, 5.7667027, 8.513663, -0.05068779, 0.24598967, 10.281979
263192535720615, 0.20697916, 5.8169518, 8.325827, -0.16506481, 0.2237045, 10.154894
263192545359678, 0.09332009, 5.773881, 8.020741, -0.29264402, 0.10650611, 9.8783455
263192554998740, -0.09332009, 5.690132, 7.739585, -0.3626418, -0.076755136, 9.599485
263192564637803, -0.29671, 5.5908303, 7.728817, -0.27767324, -0.2534246, 9.536179
263192574276865, -0.26919255, 5.4903316, 7.9310107, -0.08989477, -0.20603177, 9.647104
263192583915928, -0.13160525, 5.349155, 8.22772, 0.18904257, -0.06053345, 9.812582
263192593554990, -0.0047856453, 5.2283173, 8.187042, 0.2537527, 0.07714261, 9.71044
263192603194053, -0.023928227, 5.211568, 8.106883, 0.20976877, 0.0695008, 9.635027
263192612833115, -0.043070808, 5.3443694, 8.127222, 0.1113348, 0.049869455, 9.726305
263192622472178, -0.06460621, 5.51426, 8.037491, -0.07768488, 0.028521836, 9.747084
263192632111240, -0.16869399, 5.6075797, 7.853244, -0.24710226, -0.08196333, 9.64775
263192641750303, -0.27756742, 5.662615, 7.7910304, -0.29784346, -0.1965796, 9.628866
263192651389365, -0.3361916, 5.6470613, 7.8029947, -0.2681036, -0.2537879, 9.630823
263192661028428, -0.39720857, 5.5465627, 7.8017983, -0.18427372, -0.3119685, 9.573867
263192670667490, -0.38763726, 5.495117, 7.893922, -0.10131407, -0.29529586, 9.620972
263192680306553, -0.35653058, 5.4580283, 7.9334035, -0.047867298, -0.26283, 9.632484
263192689945615, -0.27876383, 5.413761, 8.054241, 0.013933182, -0.17982675, 9.706946
263192699584678, -0.09451649, 5.419743, 8.331808, 0.13487816, 0.0079896, 9.938978
263192709223740, 0.09332009, 5.4783673, 8.652447, 0.26033878, 0.20159727, 10.236095
263192718862803, 0.22253251, 5.5274205, 8.896515, 0.3091221, 0.32089236, 10.466677
263192728501865, 0.28594232, 5.5704913, 8.983852, 0.3177867, 0.38741946, 10.5627
263192738140928, 0.24765715, 5.605187, 8.898908, 0.22815228, 0.33328217, 10.512225
263192747779990, 0.09930214, 5.5908303, 8.831908, 0.20923758, 0.18056807, 10.449568
263192757419053, -0.016749758, 5.643472, 8.811569, 0.16325617, 0.065053046, 10.462404
263192767058115, -0.078963146, 5.6793647, 8.720642, 0.08511782, 2.7053058E-4, 10.40691
263192776697178, -0.09212367, 5.663811, 8.662018, 0.087067604, 0.002880931, 10.349405
263192786336240, -0.08015956, 5.569295, 8.496913, 0.07394934, 0.011753172, 10.159498
263192795975303, -0.12921242, 5.483153, 8.2348995, 0.021968842, -0.013559505, 9.894167
263192805614365, -0.17826529, 5.534599, 8.075776, -0.096590996, -0.05486694, 9.791291
263192815253428, -0.13280165, 5.608776, 8.2253275, -0.07631302, -0.0069934726, 9.956211
263192824892490, 0.0059820567, 5.5896335, 8.362915, 0.025685787, 0.1472774, 10.057835
263192834531553, -0.17228323, 5.5298133, 7.517052, -0.34855366, -0.045764506, 9.326898
263192844170615, -0.3505485, 5.556134, 6.8039913, -0.7349701, -0.24946555, 8.757021
263192853809678, -0.5766702, 5.4903316, 7.056434, -0.5316317, -0.45536864, 8.931941
263192863448740, -0.5072784, 5.4903316, 7.7204423, -0.13421059, -0.36542016, 9.479176
263192873087803, -0.21415763, 5.426922, 7.893922, 0.015576839, -0.06971702, 9.581558
263192882726865, -0.09092726, 5.4628143, 8.117651, 0.0925293, 0.054387897, 9.784444
263192892365928, -0.16390835, 5.588437, 8.199007, 0.039399624, -0.019984365, 9.923671
263192902004990, -0.2548356, 5.6793647, 8.116454, -0.11087942, -0.11920366, 9.9081
263192911644157, -0.32422748, 5.68415, 7.993224, -0.18087864, -0.19337729, 9.810005
263192921283220, -0.33738798, 5.5980086, 8.157132, -0.05236578, -0.19594336, 9.896928
263192930922282, -0.25842485, 5.4412785, 8.319844, 0.14669561, -0.11188108, 9.942841
263192940561345, -0.18185452, 5.345566, 8.427522, 0.28353596, -0.038514376, 9.977445
263192950200407, -0.076570325, 5.3132625, 8.495717, 0.3115244, 0.05479006, 10.015677
263192959839470, -0.05623133, 5.2869415, 8.4909315, 0.31744623, 0.061323084, 9.997314
263192969478532, -0.059820566, 5.322834, 8.46461, 0.27352047, 0.05658731, 9.995385
263192979117595, 0.019142581, 5.430511, 8.510074, 0.19884396, 0.11411443, 10.092552
263192988756657, 0.029910283, 5.5968122, 8.471788, 0.03856039, 0.12428036, 10.152805
263192998395720, 0.010767702, 5.5980086, 8.379665, -0.01500082, 0.109627575, 10.076921
263193008034886, -0.0023928226, 5.5980086, 8.289934, -0.06510019, 0.07384324, 10.002551
263193017673949, -0.031106694, 5.578866, 8.123632, -0.14649582, 0.044177055, 9.853664
263193027313011, -0.05383851, 5.578866, 8.007581, -0.21951056, 0.026237756, 9.757004
263193036952074, -0.106480606, 5.552545, 8.019546, -0.19738674, -0.029465705, 9.752712
263193046591136, -0.031106694, 5.501099, 8.193025, -0.061888218, 0.030421376, 9.868332
263193056230199, 0.009571291, 5.430511, 8.255239, 0.021247864, 0.06309849, 9.881046
263193065869261, -0.07776674, 5.3982077, 8.233703, -0.0042529106, -0.02230674, 9.845814
263193075508324, -0.05383851, 5.349155, 8.270791, 0.05964327, -0.00620538, 9.849812
263193085147386, -0.014356935, 5.3240304, 8.380861, 0.13321829, 0.021916568, 9.928047
263193094786553, 0.039481573, 5.3611193, 8.429914, 0.12330389, 0.07256782, 9.989303
263193104425615, 0.02751746, 5.4149575, 8.413164, 0.055973053, 0.06160134, 10.004847
263193114064678, -0.047856454, 5.375476, 8.316256, 0.008202076, -0.021651685, 9.902405
263193123703740, -0.14596218, 5.2809596, 8.224132, 0.027659416, -0.12245378, 9.773966
263193133342803, -0.16630118, 5.261817, 8.175078, 0.0062470436, -0.14547789, 9.722401
263193142981865, -0.18664017, 5.3132625, 8.10808, -0.09444809, -0.17016596, 9.693745
263193152620928, -0.14476576, 5.282156, 8.037491, -0.10202646, -0.12741938, 9.617523
263193162260095, -0.059820566, 5.2079782, 8.063812, -0.033747196, -0.0764862, 9.599204
263193171899157, 0.07058827, 5.2642097, 8.176275, -0.0076179504, 0.05168435, 9.724486
263193181538220, 0.28235307, 5.3826547, 8.439486, 0.04241228, 0.24018797, 10.010901
263193191177282, 0.3385844, 5.456832, 8.65125, 0.070456505, 0.25199062, 10.230704
263193200816345, 0.2883351, 5.389833, 8.694321, 0.14491558, 0.1927684, 10.230663
263193210455407, 0.19860429, 5.291727, 8.775677, 0.24534559, 0.075492084, 10.246386
263193220094574, 0.17108682, 5.291727, 8.924032, 0.2945838, 0.01918906, 10.372216
263193229733636, 0.2009971, 5.3132625, 8.9312105, 0.28297377, 0.051873267, 10.390136
263193239372699, 0.20937198, 5.386244, 8.863015, 0.1767869, 0.06034082, 10.37177
263193249011761, 0.23449662, 5.4149575, 8.742178, 0.085246086, 0.08878744, 10.2852955
263193258650824, 0.20338993, 5.4484572, 8.623733, -0.00705719, 0.05500722, 10.202585
263193268289886, 0.21894327, 5.534599, 8.433503, -0.1739831, 0.08438116, 10.08793
263193277929053, 0.20458634, 5.6099725, 8.29472, -0.31240034, 0.08550942, 10.010551
263193287568115, 0.16031912, 5.5190454, 8.257631, -0.24269342, 0.0203017, 9.930496
263193297207178, 0.14955142, 5.377869, 8.286345, -0.10127449, -0.015484333, 9.879112
263193306846240, 0.2009971, 5.282156, 8.262417, -0.028021336, 0.029611528, 9.808538
263193316485303, 0.28953153, 5.224728, 8.200203, 0.005153656, 0.096610844, 9.727055
263193326124470, 0.4031906, 5.276174, 8.190632, -0.029263973, 0.21480894, 9.748849
263193335763532, 0.48454657, 5.339584, 8.396415, 0.035226345, 0.2754568, 9.9583435
263193345402595, 0.485743, 5.377869, 8.532805, 0.074104786, 0.25953126, 10.094224
263193355041657, 0.39481574, 5.410172, 8.4682, -0.0010147095, 0.17025036, 10.05521
263193364680824, 0.27038896, 5.4484572, 8.366505, -0.10308409, 0.05400765, 9.987175
263193374319886, 0.21415763, 5.4640107, 8.26481, -0.1746459, 0.004322827, 9.908474
263193383958949, 0.17587246, 5.473582, 8.149954, -0.24358034, -0.02523768, 9.815947
263193393598011, 0.17467605, 5.4257255, 8.111669, -0.21578217, -0.034503818, 9.758097
263193403237074, 0.23808585, 5.3300123, 8.189436, -0.08789635, 0.011662781, 9.773674
263193412876240, 0.23688944, 5.279763, 8.181061, -0.05793953, 0.009121239, 9.739525
263193422515303, 0.19740787, 5.2845488, 8.136793, -0.09015703, -0.026587665, 9.703812
263193432154365, 0.13280165, 5.2283173, 8.1738825, -0.042590618, -0.09330338, 9.703339
263193441793428, 0.050249275, 5.1661043, 8.260024, 0.03119278, -0.1823566, 9.74089
263193451432595, 0.031106694, 5.09073, 8.213364, 0.040720463, -0.19336045, 9.6610985
263193461071657, 0.14237295, 5.139783, 8.300702, 0.047209263, -0.08354646, 9.763714
263193470710720, 0.18305093, 5.2570314, 8.437093, 0.010846615, -0.04490596, 9.942449
263193480349782, 0.19740787, 5.2462635, 8.514859, 0.06264353, -0.03850293, 10.002983
263193489988845, 0.23090738, 5.2462635, 8.689535, 0.12743759, -0.019551635, 10.152242
263193499628011, 0.3074777, 5.2426744, 8.857033, 0.22771263, 0.041369498, 10.294351
263193509267074, 0.33260235, 5.21755, 8.896515, 0.25444221, 0.06545955, 10.315639
263193518906136, 0.23808585, 5.1361938, 8.769695, 0.21270323, -0.008884132, 10.163633
263193528545199, 0.10289137, 5.148158, 8.6345005, 0.11430931, -0.12881869, 10.051819
263193538184365, -0.076570325, 5.1254263, 8.49811, 0.017437458, -0.28015035, 9.920431
263193547823428, -0.1902294, 4.9926243, 8.550752, 0.13956308, -0.40832525, 9.89402
263193557462490, -0.16749759, 4.935197, 8.620144, 0.21903467, -0.4002846, 9.923855
263193567101553, -0.12801601, 4.9770713, 8.598608, 0.17039394, -0.3567434, 9.928111
263193576740720, -0.09930214, 4.9316072, 8.517252, 0.16941929, -0.32544607, 9.8356285
263193586379782, 0.033499517, 5.558527, 8.525627, -0.33638382, -0.120105386, 10.171386
263193596018845, 0.03589234, 4.4841495, 8.147561, 0.3811431, -0.2010687, 9.2901
263193605657907, 0.21535404, 5.6650076, 8.486146, -0.4399786, 0.056177378, 10.195913
263193615297074, 0.30508488, 4.7485566, 8.386844, 0.29902697, 0.068793714, 9.637784
263193624936136, 0.31345975, 5.4963136, 8.555537, -0.2645774, 0.114941835, 10.169648
263193634575199, 0.41156548, 5.078766, 8.648857, 0.1496048, 0.17131257, 10.03565
263193644214365, 0.22253251, 4.8598228, 8.575876, 0.27429152, -0.030474305, 9.855804
263193653853428, 0.44865423, 5.406583, 9.169296, 0.101682186, 0.19655514, 10.651736
263193663492490, 0.18185452, 4.4685965, 8.743374, 0.65785384, -0.09649438, 9.798262
263193673131553, 0.25244278, 5.6482577, 9.1681, -0.14109468, 0.023399591, 10.770336
263193682770720, -0.0047856453, 4.4075794, 8.544769, 0.5834615, -0.28072876, 9.592738
263193692409782, 0.08015956, 5.837291, 8.768498, -0.5148573, -0.109018624, 10.520929
263193702048845, 0.14955142, 4.8239303, 8.465807, 0.22150469, -0.09772244, 9.741867
263193711687907, 0.25004998, 5.6554365, 8.425129, -0.49106026, 0.05052358, 10.138323
263193721327074, 0.5168497, 5.2510495, 8.43111, -0.100417614, 0.27340978, 9.941802
263193730966136, 0.3278167, 5.096712, 8.04108, -0.17030382, 0.08608979, 9.523995
263193740605199, 0.4989035, 5.523831, 8.360522, -0.35699797, 0.2579443, 10.0232725
263193750244365, 0.24646074, 4.4949174, 7.9130645, 0.2821777, -0.028270304, 9.099516
263193759883428, 0.4139583, 5.6709895, 8.407183, -0.44759178, 0.14542902, 10.1385765
263193769522490, 0.21415763, 4.334598, 8.020741, 0.47906804, -0.0812999, 9.106634
263193779161553, 0.33140594, 5.757131, 8.506484, -0.4722867, 0.053709567, 10.265901
263193788800720, 0.3792624, 4.6755753, 8.344969, 0.35304523, 0.08124021, 9.566197
263193798439782, 0.3589234, 5.608776, 8.571091, -0.3262, 0.07280639, 10.2439785
263193808078845, 0.4642076, 5.1816573, 8.718249, 0.10896063, 0.1532479, 10.1507435
263193817718011, 0.33260235, 5.130212, 8.5423765, 0.050213814, 0.028271347, 9.969883
263193827357074, 0.57188463, 5.54417, 8.975478, -0.066122055, 0.25671872, 10.561903
263193836996136, 0.23569304, 4.792824, 8.410771, 0.26417685, -0.07227373, 9.6795025
263193846635199, 0.34337005, 5.9473605, 8.713464, -0.55609083, 0.060688198, 10.540424
263193856274365, 0.12203395, 4.4638104, 8.216953, 0.44030046, -0.18800879, 9.33968
263193865913428, 0.25603202, 5.73081, 8.652447, -0.4050765, -0.01486057, 10.37344
263193875552490, 0.276371, 4.575077, 8.487342, 0.49681163, -0.059916973, 9.6328745
263193885191657, 0.29790643, 5.5597234, 8.62134, -0.26518726, 0.01878643, 10.25944
263193894830720, 0.39601216, 4.9806604, 8.58784, 0.21571255, 0.07616389, 9.932897
263193904469782, 0.21655045, 5.081159, 8.279166, -0.04825306, -0.06832367, 9.7161045
263193914108949, 0.42831525, 5.424529, 8.659625, -0.12747812, 0.14022338, 10.225566
263193923748011, 0.21894327, 4.6468616, 8.336594, 0.34907436, -0.098955095, 9.539833
263193933387074, 0.3900301, 5.7583275, 8.831908, -0.32467842, 0.115080655, 10.544875
263193943026136, 0.15672988, 4.426722, 8.325827, 0.5186727, -0.17455661, 9.414899
263193952665303, 0.2620141, 5.81097, 8.611769, -0.50237274, 0.011004388, 10.380081
263193962304365, 0.10049855, 4.59063, 8.178668, 0.313843, -0.18878642, 9.372324
263193971943428, 0.022731815, 5.581259, 8.170293, -0.53732395, -0.22492027, 9.877517
263193981582595, 0.10049855, 4.837091, 8.26122, 0.147326, -0.17631385, 9.570921
263193991221657, 0.069391854, 5.096712, 8.189436, -0.10349369, -0.19814564, 9.643556
263194000860720, 0.3481557, 5.359923, 8.58784, -0.1085186, 0.064747095, 10.128427
263194010499886, 0.19621146, 4.6576295, 8.191829, 0.2759838, -0.09885633, 9.420835
263194020138949, 0.47138608, 5.751149, 8.622537, -0.41524506, 0.18960798, 10.365215
263194029778011, 0.32183465, 4.465007, 8.200203, 0.44645405, 0.0033282638, 9.331873
263194039417074, 0.4833502, 5.8229337, 8.743374, -0.4259019, 0.18683457, 10.505734
263194049056240, 0.36729828, 4.499703, 8.53161, 0.58465695, 0.011656165, 9.634761
263194058695303, 0.33499518, 5.625526, 8.772088, -0.24965191, 0.022419453, 10.423313
263194068334365, 0.34337005, 4.941179, 8.776874, 0.3245449, -0.019041419, 10.072783
263194077973532, 0.19740787, 5.2402816, 8.499306, -0.083423615, -0.124708, 9.985751
263194087612595, 0.41754755, 5.3970113, 8.76132, -0.06547308, 0.08194107, 10.298146
263194097251657, 0.17706887, 4.727021, 8.382058, 0.28905058, -0.16968554, 9.61887
263194106890824, 0.36729828, 5.704489, 8.865408, -0.27513885, 0.034276903, 10.544889
263194116529886, 0.16869399, 4.402794, 8.359326, 0.5545409, -0.21027416, 9.430784
263194126168949, 0.3469593, 5.7870417, 8.659625, -0.44544268, 0.026506007, 10.411543
263194135808115, 0.2727818, 4.5092745, 8.269595, 0.4504187, -0.09970999, 9.411766
263194145447178, 0.34456646, 5.663811, 8.520842, -0.39755917, 0.01595676, 10.229561
263194155086240, 0.53359944, 4.9088755, 8.639286, 0.32136583, 0.15038854, 9.944504
263194164725407, 0.44865423, 5.332405, 8.458628, -0.12121582, 0.07995641, 10.008153
263194174364470, 0.5922236, 5.393422, 8.6141615, -0.07382822, 0.20739228, 10.178165
263194184003532, 0.30867413, 4.8263235, 8.193025, 0.17282248, -0.06624997, 9.512102
263194193642595, 0.5180461, 5.7810597, 8.597412, -0.40915918, 0.14097303, 10.364228
263194203281761, 0.25004998, 4.5451665, 8.123632, 0.3815546, -0.13306648, 9.303288
263194212920824, 0.41754755, 5.922236, 8.566305, -0.5398183, 0.05043012, 10.408403
263194222559886, 0.28115666, 4.6002016, 8.2145605, 0.3978002, -0.109003425, 9.4100895
263194232199053, 0.30987054, 5.808577, 8.3174515, -0.57528305, -0.042818904, 10.133253
263194241838115, 0.38883367, 4.881358, 8.276773, 0.2061243, -0.0077198744, 9.61464
263194251477178, 0.31944183, 5.3766723, 8.258827, -0.22985792, -0.058754563, 9.857109
263194261116345, 0.57427746, 5.3826547, 8.395218, -0.13564634, 0.17813784, 9.986608
263194270755407, 0.465404, 4.92084, 7.987242, 0.035861015, 0.073473275, 9.392583
263194280394470, 0.75493556, 5.761917, 8.56152, -0.3589306, 0.35415107, 10.335134
263194290033636, 0.52283174, 4.613362, 8.23131, 0.4245999, 0.09742051, 9.440399
263194299672699, 0.66400826, 5.992824, 8.729017, -0.46948624, 0.26640487, 10.595245
263194309311761, 0.4354937, 4.6205406, 8.331808, 0.45751095, -3.1161308E-4, 9.526215
263194318950928, 0.37567315, 5.844469, 8.489735, -0.5045142, -0.00966531, 10.301453
263194328589990, 0.33140594, 4.900501, 8.37129, 0.22877693, -0.087569475, 9.702744
263194338229053, 0.27517462, 5.5130634, 8.336594, -0.3210497, -0.10353583, 9.992729
263194347868220, 0.5132605, 5.3108697, 8.573483, -0.0015845299, 0.09924799, 10.097701
263194357507282, 0.40438703, 4.9028935, 8.283952, 0.18655586, -0.013594508, 9.632797
263194367146345, 0.71425754, 5.7152567, 8.76491, -0.2181201, 0.3061707, 10.481253
263194376785511, 0.47018966, 4.625326, 8.228917, 0.4005165, 0.02912414, 9.44291
263194386424574, 0.6053841, 5.942575, 8.580662, -0.5259385, 0.2202245, 10.4395075
263194396063636, 0.4031906, 4.5487556, 8.170293, 0.4222579, -0.03768587, 9.350278
263194405702803, 0.46181476, 5.8337016, 8.474181, -0.4962964, 0.07021564, 10.286197
263194415341865, 0.49172506, 4.8059845, 8.471788, 0.36854506, 0.044635296, 9.745392
263194424980928, 0.4127619, 5.4987063, 8.469396, -0.22114182, 0.001990378, 10.103854
263194434620095, 0.47736812, 5.24746, 8.623733, 0.07453346, 0.042500496, 10.105698
263194444259157, 0.2536392, 4.9316072, 8.2049885, 0.1059947, -0.16119039, 9.5744295
263194453898220, 0.47258246, 5.6267223, 8.57468, -0.27457666, 0.05941695, 10.26302
263194463537386, 0.29192436, 4.5894337, 8.155936, 0.37320638, -0.13194358, 9.354717
263194473176449, 0.5838487, 5.925825, 8.689535, -0.45631647, 0.17890406, 10.522551
263194482815511, 0.43908295, 4.540381, 8.271988, 0.48334074, -4.1633844E-4, 9.433983
263194492454678, 0.4953143, 5.8420763, 8.4705925, -0.5100007, 0.09537572, 10.288681
263194502093740, 0.39840496, 4.7318068, 8.305488, 0.33670378, -0.025410056, 9.561164
263194511732803, 0.24526432, 5.4628143, 8.287541, -0.31574154, -0.14370596, 9.922977
263194521371970, 0.37447673, 5.103891, 8.455039, 0.08515501, -0.036868453, 9.882763
263194531011032, 0.23688944, 4.971089, 8.185846, 0.047005653, -0.159863, 9.578526
263194540650095, 0.49172506, 5.6183476, 8.646464, -0.25994015, 0.095564485, 10.319509
263194550289261, 0.23808585, 4.599005, 8.256434, 0.38694453, -0.17372975, 9.444381
263194559928324, 0.46181476, 5.8073807, 8.817552, -0.33428907, 0.058440566, 10.562811
263194569567386, 0.2739782, 4.4075794, 8.392825, 0.611161, -0.1728844, 9.46245
263194579206553, 0.40438703, 5.74756, 8.629715, -0.38720226, 0.016920567, 10.369173
263194588845615, 0.40917268, 4.651647, 8.377272, 0.40454745, -0.02439183, 9.582258
263194598484678, 0.4223332, 5.5477595, 8.4502535, -0.32403708, 0.0400728, 10.112179
263194608123845, 0.58624154, 5.13739, 8.629715, 0.13510895, 0.16294867, 10.058013
263194617762907, 0.36370903, 5.0751767, 8.328219, 0.0049233437, -0.03521192, 9.759491
263194627401970, 0.50368917, 5.523831, 8.669196, -0.18738604, 0.10348779, 10.289584
263194637041136, 0.24047868, 4.54397, 8.26122, 0.40772343, -0.18098623, 9.420947
263194646680199, 0.4534399, 5.782256, 8.883354, -0.306139, 0.053814173, 10.604595
263194656319261, 0.29312077, 4.479364, 8.410771, 0.5411861, -0.13798922, 9.51734
263194665958428, 0.3912265, 5.8157554, 8.756535, -0.42091465, 0.0065993667, 10.510744
263194675597490, 0.36729828, 4.621737, 8.489735, 0.4577031, -0.06391513, 9.662162
263194685236553, 0.3469593, 5.5022955, 8.537591, -0.26212263, -0.035000205, 10.159534
263194694875720, 0.465404, 5.026124, 8.545966, 0.15939093, 0.05375147, 9.923899
263194704514782, 0.27517462, 5.0392847, 8.2145605, -0.04395914, -0.102606595, 9.640367
263194714153949, 0.5371887, 5.474778, 8.512466, -0.23435688, 0.16521382, 10.13122
263194723793011, 0.3589234, 4.7138605, 8.112865, 0.18649387, -0.032732844, 9.387867
263194733432074, 0.56470615, 5.8731833, 8.712267, -0.47572136, 0.2139566, 10.509265
263194743071240, 0.29790643, 4.456632, 8.303095, 0.4881723, -0.12915194, 9.414707
263194752710303, 0.3792624, 5.767899, 8.801998, -0.37562752, 0.013868749, 10.52361
263194762349365, 0.32303107, 4.5092745, 8.58784, 0.5815911, -0.11744416, 9.686943
263194771988532, 0.27158538, 5.4580283, 8.785249, -0.12957048, -0.11366445, 10.344791
263194781627595, 0.38165522, 4.855037, 8.709874, 0.3501253, -0.027920663, 9.972743
263194791266657, 0.16390835, 5.0081778, 8.400003, 0.039542675, -0.20945576, 9.778719
263194800905824, 0.3684947, 5.3479586, 8.5938225, -0.1309185, 0.003578186, 10.127838
263194810544886, 0.17587246, 4.6121655, 8.161918, 0.254555, -0.20307809, 9.370904
263194820183949, 0.4749753, 5.7463636, 8.672786, -0.4147706, 0.1362291, 10.405428
263194829823115, 0.3278167, 4.496114, 8.13799, 0.36739802, -0.059501767, 9.295744
263194839462178, 0.4642076, 5.8827543, 8.474181, -0.627718, 0.14848799, 10.30621
263194849101345, 0.357727, 4.534399, 8.141579, 0.33151722, -0.020575643, 9.32007
263194858740407, 0.32063824, 5.5310097, 8.421539, -0.37465096, -0.0066583753, 10.073569
263194868379470, 0.3696911, 4.8454657, 8.484949, 0.23127079, -0.00657326, 9.775277
263194878018636, 0.17587246, 5.0620165, 8.3377905, -0.06462431, -0.1596154, 9.754181
263194887657699, 0.36131623, 5.2534423, 8.601001, -0.08102846, 0.022921026, 10.08461
263194897296761, 0.11246266, 4.5391846, 8.269595, 0.3345828, -0.24939054, 9.42491
263194906935928, 0.3493521, 5.593223, 8.840283, -0.25941133, 0.018867254, 10.463707
263194916574990, 0.22013968, 4.3609195, 8.456235, 0.5680907, -0.17393583, 9.498474
263194926214157, 0.44147578, 5.7631135, 8.968299, -0.35764265, 0.12811178, 10.662759
263194935853220, 0.3924229, 4.482953, 8.575876, 0.53578377, -0.017852068, 9.670012
263194945492282, 0.36370903, 5.633901, 8.755338, -0.36885738, 0.046194673, 10.411095
263194955131449, 0.4139583, 4.88734, 8.672786, 0.23387814, 0.035704315, 9.960857
263194964770511, 0.32063824, 5.1852465, 8.543573, -0.08959246, -0.029261291, 9.998669
263194974409574, 0.5288138, 5.3359947, 8.691928, -0.11327076, 0.1773445, 10.210671
263194984048740, 0.31106696, 4.759324, 8.221739, 0.1148901, -0.048698485, 9.504176
263194993687803, 0.58624154, 5.6997037, 8.769695, -0.37677956, 0.2584569, 10.465614
263195003326970, 0.42592242, 4.4195433, 8.323434, 0.46891737, 0.021709919, 9.421942
263195012966032, 0.5599205, 5.812166, 8.711071, -0.5035753, 0.24793667, 10.471985
263195022605095, 0.41874397, 4.4685965, 8.189436, 0.35580564, 0.0371536, 9.331805
263195032244261, 0.33140594, 5.5860443, 8.475378, -0.45822954, 0.03041637, 10.145681
263195041883324, 0.41994038, 4.761717, 8.49811, 0.26133633, 0.034892082, 9.746725
263195051522386, 0.3278167, 5.252246, 8.551949, -0.13712406, -0.0134179, 10.040437
263195061161553, 0.506082, 5.316852, 8.76132, -0.066744804, 0.14913803, 10.259584
263195070800615, 0.27756742, 4.7784667, 8.353344, 0.16045523, -0.090363026, 9.625759
263195080439782, 0.45583272, 5.6578293, 8.756535, -0.36516333, 0.12916899, 10.428121
263195090078845, 0.18065812, 4.3848476, 8.270791, 0.45183063, -0.21214741, 9.349672
263195099718011, 0.41874397, 5.709275, 8.76491, -0.40958166, 0.09047997, 10.460347
263195109357074, 0.37328035, 4.377669, 8.26481, 0.47203898, -0.011487484, 9.348125
263195118996136, 0.40677986, 5.5968122, 8.534002, -0.4251461, 0.083804846, 10.20447
263195128635303, 0.39481574, 4.7162533, 8.410771, 0.2563665, 0.021298647, 9.647478
263195138274365, 0.19142582, 5.2079782, 8.426325, -0.1729536, -0.14872432, 9.90508
263195147913532, 0.3589234, 5.1326046, 8.605786, -0.007370949, -0.0015875697, 10.026562
263195157552595, 0.16510476, 4.7246284, 8.280363, 0.15327978, -0.19521701, 9.531641
263195167191657, 0.4211368, 5.534599, 8.744571, -0.2871871, 0.08175802, 10.353139
263195176830824, 0.18065812, 4.3908296, 8.246863, 0.41205812, -0.20388204, 9.33335
263195186469886, 0.3589234, 5.6997037, 8.749356, -0.44732046, 0.046182394, 10.438603
263195196109053, 0.30269206, 4.3130627, 8.403593, 0.55933905, -0.10154116, 9.433522
263195205748115, 0.39601216, 5.605187, 8.836694, -0.31601954, 0.06949419, 10.466969
263195215387178, 0.40079778, 4.645665, 8.589037, 0.371269, 0.004252434, 9.766091
263195225026345, 0.2536392, 5.2307105, 8.602198, -0.1408968, -0.08784515, 10.069504
263195234665407, 0.43070808, 5.1122656, 8.669196, 0.00873518, 0.07278043, 10.07325
263195244304574, 0.2213361, 4.7856455, 8.316256, 0.087358, -0.13048273, 9.5961895
263195253943636, 0.43788654, 5.4616175, 8.760123, -0.25285482, 0.11181551, 10.328811
263195263582803, 0.19381863, 4.341777, 8.298309, 0.4469409, -0.18619478, 9.355004
263195273221865, 0.33140594, 5.643472, 8.849854, -0.38113594, 0.016533792, 10.494428
263195282860928, 0.19142582, 4.269992, 8.349754, 0.51217246, -0.19039285, 9.364256
263195292500095, 0.3062813, 5.588437, 8.773284, -0.4124651, 0.014994621, 10.398298
263195302139157, 0.3469593, 4.610969, 8.572288, 0.33252907, -0.022298098, 9.73419
263195311778324, 0.2644069, 5.288138, 8.725428, -0.18534517, -0.049232602, 10.204441
263195321417386, 0.46181476, 5.0368915, 8.762517, 0.05948496, 0.1232667, 10.116646
263195331056553, 0.24765715, 4.790431, 8.414361, 0.0719161, -0.0796985, 9.685014
263195340695615, 0.4749753, 5.3814583, 8.803194, -0.22193766, 0.16617721, 10.324973
263195350334678, 0.23330021, 4.2951164, 8.405986, 0.48127556, -0.12448466, 9.429525
263195359973845, 0.41635114, 5.528617, 8.959925, -0.28694057, 0.112113595, 10.532062
263195369612907, 0.2321038, 4.1898327, 8.433503, 0.57421565, -0.12999249, 9.401379
263195379252074, 0.31106696, 5.5704913, 8.855837, -0.41188335, 0.024617732, 10.458622
263195388891136, 0.3062813, 4.5248275, 8.488539, 0.30985403, -0.026801527, 9.619067
263195398530303, 0.22492532, 5.3180485, 8.620144, -0.32274818, -0.06051576, 10.125774
263195408169365, 0.36251262, 5.0476594, 8.640483, -0.06502676, 0.054918647, 10.0130415
263195417808532, 0.18783657, 4.8646083, 8.4705925, -0.0071997643, -0.11912185, 9.769156
263195427447595, 0.44865423, 5.380262, 8.845069, -0.24512672, 0.14544135, 10.358694
263195437086657, 0.20219351, 4.348955, 8.400003, 0.40226746, -0.12928832, 9.451763
263195446725824, 0.36610186, 5.5405807, 8.957532, -0.34923935, 0.06598407, 10.532953
263195456364886, 0.18424734, 4.1467614, 8.427522, 0.583554, -0.14817709, 9.374977
263195466004053, 0.3505485, 5.515456, 8.849854, -0.3788538, 0.054472506, 10.426724
263195475643115, 0.32542387, 4.401597, 8.458628, 0.38631535, -5.672574E-4, 9.533052
263195485282282, 0.23688944, 5.2606206, 8.603394, -0.2939, -0.04595107, 10.082666
263195494921345, 0.34337005, 4.820341, 8.56152, 0.070644855, 0.034974873, 9.830919
263195504560511, 0.09930214, 4.7892346, 8.405986, 9.0169907E-4, -0.20121467, 9.672992
263195514199574, 0.36011982, 5.2498527, 8.797213, -0.18014479, 0.06049633, 10.249171
263195523838740, 0.14237295, 4.375276, 8.4705925, 0.39117837, -0.19323546, 9.524909
263195533477803, 0.33738798, 5.6099725, 8.961121, -0.41607618, 0.05004829, 10.569375
263195543116970, 0.13878371, 4.214957, 8.360522, 0.4713118, -0.195512, 9.350032
263195552756032, 0.2548356, 5.511867, 8.847462, -0.3993888, -0.025466025, 10.419358
263195562395199, 0.22971097, 4.31067, 8.49811, 0.4633932, -0.103503525, 9.519826
263195572034261, 0.22971097, 5.2223353, 8.744571, -0.20512104, -0.060408056, 10.185644
263195581673428, 0.3924229, 4.7377887, 8.695518, 0.19664717, 0.07500845, 9.907995
263195591312490, 0.2536392, 4.8442693, 8.565108, 0.025815487, -0.049323916, 9.843235
263195600951657, 0.49292147, 5.288138, 8.816355, -0.21804333, 0.19796109, 10.288281
263195610590720, 0.24765715, 4.4602213, 8.447861, 0.2972064, -0.075434685, 9.551296
263195620229886, 0.46779683, 5.6147585, 8.989835, -0.41826057, 0.18742222, 10.599595
263195629868949, 0.24885355, 4.29392, 8.414361, 0.42151093, -0.085769475, 9.440134
263195639508115, 0.3684947, 5.6171513, 8.861818, -0.48632383, 0.09046048, 10.486911
263195649147178, 0.33499518, 4.341777, 8.472985, 0.41946125, -0.0040389895, 9.517288
263195658786345, 0.3469593, 5.3479586, 8.801998, -0.279037, 0.05418217, 10.301235
263195668425407, 0.44985065, 4.792824, 8.724232, 0.17640018, 0.11167693, 9.962035
263195678064574, 0.2847459, 4.930411, 8.615358, -0.015818119, -0.03453958, 9.930408
263195687703636, 0.47377887, 5.2079782, 8.76491, -0.16073322, 0.16258013, 10.203865
263195697342803, 0.20937198, 4.4805603, 8.344969, 0.23194742, -0.12691933, 9.470367
263195706981865, 0.44027936, 5.5800624, 8.873783, -0.4274063, 0.15567851, 10.481796
263195716621032, 0.22612174, 4.2831526, 8.356933, 0.4057212, -0.1365552, 9.383581
263195726260095, 0.37328035, 5.6482577, 8.857033, -0.5080061, 0.1114676, 10.498509
263195735899261, 0.30388847, 4.3633122, 8.441878, 0.3960588, -0.054542184, 9.49928
263195745538324, 0.2536392, 5.363512, 8.739784, -0.32804823, -0.024940789, 10.252181
263195755177490, 0.2847459, 4.5619164, 8.565108, 0.27589202, -0.06357795, 9.704283
263195764816553, 0.06580263, 4.7784667, 8.478967, 0.020086288, -0.24533886, 9.729869
263195774455720, 0.29312077, 4.985446, 8.662018, -0.0377779, -0.009945989, 9.998481
263195784094782, 0.08733802, 4.371687, 8.35454, 0.31152606, -0.25173497, 9.421104
263195793733949, 0.35294133, 5.4185467, 8.873783, -0.29849005, 0.07235193, 10.398795
263195803373011, 0.15314065, 4.210171, 8.349754, 0.46165514, -0.20071006, 9.338842
263195813012178, 0.3385844, 5.621937, 8.846265, -0.49054003, 0.07534671, 10.475253
263195822651240, 0.2321038, 4.3034916, 8.3377905, 0.37501264, -0.11325276, 9.377591
263195832290407, 0.23090738, 5.4089756, 8.793623, -0.36610556, -0.042667568, 10.319994
263195841929470, 0.39481574, 4.6432724, 8.801998, 0.32151556, 0.03869015, 9.954205
263195851568636, 0.32422748, 5.0273204, 8.82473, -0.01710844, 0.00899446, 10.161426
263195861207803, 0.52163535, 5.1158547, 8.9013, -0.029197216, 0.20626521, 10.277832
263195870846865, 0.22492532, 4.5332026, 8.547162, 0.25975704, -0.116678596, 9.673334
263195880486032, 0.4223332, 5.454439, 8.977871, -0.2966571, 0.13850474, 10.508294
263195890125095, 0.19381863, 4.2281175, 8.46461, 0.47667742, -0.18009984, 9.450108
263195899764261, 0.35294133, 5.5597234, 8.959925, -0.4062009, 0.07335311, 10.542532
263195909403324, 0.2883351, 4.2460637, 8.416754, 0.4549477, -0.08072746, 9.420216
263195919042490, 0.357727, 5.4795637, 8.690732, -0.46741676, 0.08785695, 10.269189
263195928681553, 0.45224348, 4.6576295, 8.474181, 0.1577568, 0.117213845, 9.678387
263195938320720, 0.3481557, 5.0799623, 8.586644, -0.17088509, 0.045850217, 9.981302
263195947959886, 0.5491528, 5.0847483, 8.836694, -0.021316051, 0.21759033, 10.207626
263195957598949, 0.30269206, 4.615755, 8.548359, 0.20564985, -0.053154588, 9.717311
263195967238115, 0.46061835, 5.4185467, 8.920443, -0.28320456, 0.15891886, 10.442301
263195976877178, 0.16271193, 4.2041893, 8.370093, 0.4555664, -0.22775489, 9.354182
263195986516345, 0.3481557, 5.569295, 8.882157, -0.4416666, 0.07038021, 10.480026
263195996155511, 0.27158538, 4.28076, 8.368897, 0.39832234, -0.119876206, 9.394896
263196005794574, 0.36370903, 5.4819565, 8.819944, -0.39007616, 0.07717085, 10.383518
263196015433740, 0.43070808, 4.564309, 8.599805, 0.30500507, 0.041602075, 9.740653
263196025072803, 0.27876383, 5.1146584, 8.658429, -0.16482162, -0.045246482, 10.05866
263196034711970, 0.44626144, 5.0177493, 8.758927, -0.010605812, 0.09745079, 10.103769
263196044351032, 0.2321038, 4.5690947, 8.457432, 0.19861007, -0.13199955, 9.612584
263196053990199, 0.5168497, 5.386244, 8.843872, -0.2796812, 0.19581413, 10.362252
263196063629365, 0.2656033, 4.2975097, 8.384451, 0.40711975, -0.111943185, 9.415937
263196073268428, 0.45822555, 5.602794, 8.973084, -0.4148593, 0.14552706, 10.579424
263196082907595, 0.30029923, 4.258028, 8.395218, 0.4564526, -0.08087039, 9.406689
263196092546657, 0.3481557, 5.511867, 8.729017, -0.46412945, 0.040697873, 10.318941
263196102185824, 0.3469593, 4.537988, 8.472985, 0.26228118, -0.019690812, 9.614366
263196111824990, 0.24646074, 5.17089, 8.58784, -0.24004221, -0.07752323, 10.024283
263196121464053, 0.43908295, 4.968696, 8.670393, -0.0041747093, 0.090697885, 10.00241
263196131103220, 0.26679972, 4.6959143, 8.465807, 0.11042738, -0.08618474, 9.683648
263196140742282, 0.5479564, 5.426922, 8.91805, -0.26647663, 0.21892053, 10.448178
263196150381449, 0.33379877, 4.359723, 8.482556, 0.41412187, -0.05565548, 9.534033
263196160020615, 0.4869394, 5.608776, 8.995817, -0.4015937, 0.16925782, 10.603314
263196169659678, 0.2739782, 4.1982074, 8.444271, 0.52180004, -0.1206364, 9.419071
263196179298845, 0.34337005, 5.51426, 8.851051, -0.40052032, 0.028387487, 10.426163
263196188938011, 0.33499518, 4.447061, 8.560323, 0.37859654, -0.048088968, 9.6447935
263196198577074, 0.24047868, 5.1529436, 8.627322, -0.2103343, -0.08230263, 10.049396
263196208216240, 0.37447673, 4.9375896, 8.579466, -0.036519527, 0.038862288, 9.905777
263196217855303, 0.1052842, 4.822734, 8.292327, -0.10989618, -0.20489931, 9.590542
263196227494470, 0.32422748, 5.373083, 8.650054, -0.38142157, 0.035328746, 10.180956
263196237133636, 0.09212367, 4.273581, 8.289934, 0.3629148, -0.26586762, 9.316255
263196246772699, 0.32183465, 5.477171, 8.9013, -0.3509531, 0.029520154, 10.450459
263196256411865, 0.22731815, 4.145565, 8.383254, 0.5382345, -0.15441608, 9.338244
263196266051032, 0.4127619, 5.4987063, 8.780462, -0.41139078, 0.12588191, 10.35942
263196275690095, 0.47976094, 4.4111686, 8.488539, 0.38589454, 0.10963768, 9.569897
263196285329261, 0.39720857, 5.261817, 8.752945, -0.22414446, 0.08341181, 10.217697
263196294968428, 0.55393845, 4.935197, 8.843872, 0.120121956, 0.18669492, 10.140406
263196304607490, 0.4103691, 4.853841, 8.713464, 0.10493803, 0.044772148, 9.981963
263196314246657, 0.62093747, 5.428118, 8.99462, -0.22318983, 0.2867297, 10.51766
263196323885720, 0.34456646, 4.523631, 8.548359, 0.29826617, -0.03639573, 9.672958
263196333524886, 0.46301118, 5.669793, 9.052048, -0.42963266, 0.14969558, 10.681457
263196343164053, 0.24646074, 4.269992, 8.534002, 0.49462795, -0.16380793, 9.531593
263196352803115, 0.4139583, 5.608776, 8.958728, -0.41939402, 0.10485268, 10.5689
263196362442282, 0.39361933, 4.386044, 8.513663, 0.40918183, -0.0067849755, 9.576393
263196372081449, 0.31585258, 5.2259245, 8.627322, -0.26266193, 3.966093E-4, 10.0882
263196381720615, 0.4438686, 4.7509494, 8.487342, 0.10467291, 0.08751106, 9.735753
263196391359678, 0.23928227, 4.8011985, 8.26481, -0.07662821, -0.08659458, 9.560463
263196400998845, 0.43788654, 5.2498527, 8.575876, -0.27901173, 0.13101548, 10.059987
263196410638011, 0.17706887, 4.3633122, 8.233703, 0.27771378, -0.19292349, 9.313933
263196420277074, 0.36251262, 5.5046883, 8.842676, -0.3840227, 0.06327957, 10.415106
263196429916240, 0.15314065, 4.1635113, 8.359326, 0.5057583, -0.25045174, 9.322987
263196439555407, 0.25124636, 5.5070815, 8.82473, -0.40897703, -0.043226898, 10.397009
263196449194470, 0.1902294, 4.269992, 8.46102, 0.45868206, -0.20725328, 9.465968
263196458833636, 0.17587246, 5.224728, 8.750552, -0.22058392, -0.13727391, 10.189867
263196468472803, 0.32662028, 4.709075, 8.683554, 0.2044971, -0.042206466, 9.881427
263196478111865, 0.16869399, 4.8502517, 8.520842, -0.019395351, -0.15993899, 9.804703
263196487751032, 0.40079778, 5.188836, 8.7984085, -0.14656305, 0.08357245, 10.220968
263196497390199, 0.23569304, 4.4279184, 8.517252, 0.34714365, -0.14102525, 9.595062
263196507029261, 0.49052864, 5.5537415, 9.06162, -0.3213663, 0.182221, 10.633021
263196516668428, 0.3290131, 4.237689, 8.553144, 0.5354521, -0.07070035, 9.535767
263196526307595, 0.44027936, 5.595616, 9.020942, -0.39648676, 0.14474016, 10.616215
263196535946761, 0.36251262, 4.3561335, 8.583055, 0.45362163, -0.040937066, 9.621263
263196545585824, 0.34576288, 5.4125648, 8.855837, -0.33336973, 0.04479724, 10.379216
263196555224990, 0.40797627, 4.7246284, 8.675179, 0.18774557, 0.04180789, 9.884851
263196564864157, 0.4031906, 5.0440702, 8.766106, -0.04454708, 0.061499357, 10.121465
263196574503220, 0.37567315, 4.9974103, 8.702696, -0.03508091, 0.030785024, 10.042409
263196584142386, 0.36729828, 4.9974103, 8.657232, -0.053066254, 0.024539769, 10.002665
263196593781553, 0.38644084, 4.935197, 8.598608, -0.024601936, 0.042311907, 9.921654
263196603420720, 0.42711884, 4.948357, 8.583055, -0.03084135, 0.08338475, 9.916128
263196613059782, 0.42831525, 4.9399824, 8.530413, -0.043256283, 0.085528255, 9.866389
263196622698949, 0.43429732, 4.9531426, 8.518449, -0.05940199, 0.094368756, 9.862747
263196632338115, 0.38165522, 4.955536, 8.493324, -0.07716417, 0.045794487, 9.8403
263196641977282, 0.37208393, 4.9399824, 8.52802, -0.04772806, 0.030602098, 9.862342
263196651616345, 0.37088752, 4.9363933, 8.56152, -0.028701305, 0.024736524, 9.889576
263196661255511, 0.3278167, 4.9639106, 8.583055, -0.050712585, -0.015486956, 9.920377
263196670894678, 0.31944183, 4.928018, 8.608179, -0.010625839, -0.031777024, 9.924063
263196680533740, 0.30029923, 4.907679, 8.63809, 0.01678896, -0.055920124, 9.939249
263196690172907, 0.27038896, 4.8933225, 8.669196, 0.03711319, -0.08958471, 9.958076
263196699812074, 0.24885355, 4.8825545, 8.712267, 0.05945444, -0.11669028, 9.989379
263196709451240, 0.22013968, 4.871787, 8.702696, 0.05726528, -0.14290583, 9.974768
263196719090407, 0.20219351, 4.875376, 8.63809, 0.018397808, -0.14972633, 9.91988
263196728729470, 0.276371, 4.8861437, 8.646464, 0.029764175, -0.07429004, 9.935076
263196738368636, 0.36011982, 4.935197, 8.670393, 0.01447916, 0.012019634, 9.9830475
263196748007803, 0.38165522, 4.932804, 8.673982, 0.023674011, 0.02822864, 9.985732
263196757646970, 0.3589234, 4.892126, 8.666803, 0.051015854, -5.791187E-4, 9.958545
263196767286032, 0.36610186, 4.9052863, 8.633304, 0.023563862, 0.012601137, 9.936252
263196776925199, 0.37088752, 4.918447, 8.65125, 0.022042751, 0.016764045, 9.958515
263196786564365, 0.41754755, 4.9471607, 8.711071, 0.03307438, 0.060510874, 10.026303
263196796203532, 0.4438686, 4.9902315, 8.743374, 0.012314796, 0.08937049, 10.076601
263196805842595, 0.40079778, 5.0009995, 8.7015, -0.025042534, 0.05277884, 10.044069
263196815481761, 0.34456646, 4.9459643, 8.664411, -0.0045776367, -0.0072489977, 9.982647
263196825120928, 0.2955136, 4.9136615, 8.640483, 0.0033464432, -0.05826974, 9.944141
263196834760095, 0.29312077, 4.935197, 8.650054, -0.010944843, -0.058487773, 9.963031
263196844399261, 0.36370903, 4.9531426, 8.63809, -0.015784264, 0.015224695, 9.964038
263196854038324, 0.40917268, 4.948357, 8.567501, -0.037185192, 0.06775308, 9.902008
263196863677490, 0.4031906, 4.9603214, 8.534002, -0.062224865, 0.066378236, 9.878676
263196873316657, 0.37686956, 4.930411, 8.554341, -0.030510902, 0.03146124, 9.880578
263196882955824, 0.36011982, 4.9112687, 8.590233, 8.907318E-4, 0.0061553717, 9.901633
263196892594990, 0.3804588, 4.918447, 8.567501, -0.012595177, 0.02988565, 9.886196
263196902234053, 0.3924229, 4.9363933, 8.573483, -0.022769451, 0.042826056, 9.90072
263196911873220, 0.41754755, 4.9543395, 8.601001, -0.020563126, 0.06601846, 9.934398
263196921512386, 0.424726, 4.974678, 8.620144, -0.028277874, 0.07262373, 9.961355
263196931151553, 0.37088752, 4.95075, 8.627322, -0.015120029, 0.014269233, 9.95378
263196940790720, 0.33738798, 4.9399824, 8.65125, -9.531975E-4, -0.02392906, 9.96799
263196950429782, 0.33140594, 4.9196434, 8.689535, 0.032283306, -0.036884904, 9.990912
263196960068949, 0.32422748, 4.9268217, 8.76132, 0.05766058, -0.050266504, 10.056519
263196969708115, 0.33379877, 4.930411, 8.754142, 0.050271034, -0.038727283, 10.05243
263196979347282, 0.30508488, 4.9028935, 8.725428, 0.054285526, -0.066664934, 10.012849
263196988986449, 0.29910284, 4.8969116, 8.703893, 0.048505783, -0.07041049, 9.99098
263196998625511, 0.2847459, 4.8969116, 8.681161, 0.03665352, -0.08341813, 9.970711
263197008264678, 0.31585258, 4.894519, 8.629715, 0.023738861, -0.051222563, 9.92597
263197017903845, 0.3493521, 4.90409, 8.628518, 0.020712376, -0.0168491, 9.930899
263197027543011, 0.40079778, 4.928018, 8.662018, 0.027993679, 0.029907823, 9.97371
263197037182178, 0.41994038, 4.9579287, 8.624929, -0.010247707, 0.055416465, 9.95709
263197046821345, 0.4211368, 4.968696, 8.589037, -0.034251213, 0.059972763, 9.93137
263197056460407, 0.38524446, 4.9567323, 8.599805, -0.025164127, 0.021756172, 9.933436
263197066099574, 0.34217364, 4.974678, 8.618947, -0.031920433, -0.027267337, 9.957359
263197075738740, 0.3182454, 4.9495535, 8.610572, -0.014451981, -0.05573404, 9.9367
263197085377907, 0.33379877, 4.944768, 8.572288, -0.023059368, -0.037873745, 9.901732
263197095017074, 0.36011982, 4.95075, 8.568698, -0.02507925, -0.010868907, 9.902599
263197104656240, 0.39601216, 4.9782677, 8.578269, -0.03496647, 0.024465322, 9.925968
263197114295303, 0.44147578, 4.962714, 8.5938225, -0.0010123253, 0.058283806, 9.933469
263197123934470, 0.49651068, 4.959125, 8.590233, 0.009073734, 0.11246377, 9.9307
263197133573636, 0.5096712, 5.0189457, 8.640483, -0.01447773, 0.12289184, 10.004609
263197143212803, 0.50009996, 5.081159, 8.653643, -0.061228752, 0.11528504, 10.04673
263197152851970, 0.44147578, 5.131408, 8.610572, -0.13085365, 0.062469184, 10.032307
263197162491136, 0.3696911, 5.0883374, 8.611769, -0.10486603, -0.013226628, 10.008958
263197172130303, 0.3182454, 4.9902315, 8.648857, -0.0076971054, -0.08029127, 9.98999
263197181769365, 0.35653058, 4.889733, 8.665607, 0.09665537, -0.05326277, 9.95576
263197191408532, 0.424726, 4.8825545, 8.644072, 0.103694916, 0.015490413, 9.936233
263197201047699, 0.43070808, 4.9112687, 8.58784, 0.052596092, 0.03301078, 9.902183
263197210686865, 0.4546363, 4.9064827, 8.516056, 0.026031971, 0.06384587, 9.8386345
263197220326032, 0.465404, 4.9579287, 8.514859, -0.014575958, 0.07710564, 9.863789
263197229965199, 0.4223332, 5.002196, 8.538788, -0.047874928, 0.03760779, 9.904923
263197239604365, 0.3397808, 4.9866424, 8.622537, -0.007932663, -0.05704379, 9.966289
263197249243428, 0.2548356, 4.968696, 8.665607, 0.014059544, -0.14712942, 9.991185
263197258882595, 0.21535404, 4.922036, 8.673982, 0.0485754, -0.18937743, 9.973593
263197268521761, 0.19501504, 4.9028935, 8.668, 0.055836678, -0.20146269, 9.95826
263197278160928, 0.25603202, 4.9112687, 8.694321, 0.07075882, -0.14079589, 9.987617
263197287800095, 0.3481557, 4.9172506, 8.673982, 0.07056141, -0.046326756, 9.976543
263197297439261, 0.47856453, 4.9674997, 8.668, 0.04442835, 0.08632529, 10.001495
263197307078428, 0.5515456, 4.981857, 8.69791, 0.058149815, 0.15301973, 10.037427
263197316717595, 0.5982057, 5.0189457, 8.706285, 0.038506985, 0.19867706, 10.065093
263197326356657, 0.5180461, 5.0512486, 8.646464, -0.029854774, 0.12887913, 10.026331
263197335995824, 0.38404804, 5.026124, 8.52443, -0.082191944, 0.004329562, 9.902956
263197345634990, 0.3074777, 4.9974103, 8.471788, -0.09369469, -0.06893295, 9.840036
263197355274157, 0.2739782, 4.985446, 8.505288, -0.070261955, -0.10363501, 9.861743
263197364913324, 0.27756742, 4.968696, 8.548359, -0.03523445, -0.103854, 9.890774
263197374552490, 0.32422748, 4.959125, 8.543573, -0.018884659, -0.056065798, 9.883682
263197384191657, 0.39960137, 4.9722853, 8.554341, -0.009350777, 0.017971635, 9.902508
263197393830824, 0.45583272, 4.9926243, 8.52443, -0.029738426, 0.07793224, 9.889035
263197403469990, 0.47138608, 5.005785, 8.504091, -0.047255993, 0.0945673, 9.878688
263197413109157, 0.5180461, 5.0189457, 8.525627, -0.036585808, 0.14026701, 9.905731
263197422748220, 0.526421, 5.0344987, 8.577073, -0.024457932, 0.14104772, 9.958364
263197432387386, 0.5347959, 5.042874, 8.630911, -0.005464077, 0.14125335, 10.009457
263197442026553, 0.465404, 5.0392847, 8.610572, -0.028654575, 0.07384884, 9.987326
263197451665720, 0.4019942, 5.0069814, 8.622537, -0.007998943, 0.006264806, 9.978952
263197461304886, 0.35653058, 5.026124, 8.615358, -0.037660122, -0.032897234, 9.98053
263197470944053, 0.3074777, 4.9866424, 8.652447, 0.0042214394, -0.091916084, 9.990872
263197480583220, 0.3074777, 4.9938207, 8.718249, 0.027468204, -0.0964787, 10.051397
263197490222386, 0.32183465, 5.009374, 8.739784, 0.02630806, -0.07997513, 10.078401
263197499861553, 0.3804588, 4.989035, 8.708678, 0.041068077, -0.018289447, 10.043618
263197509500720, 0.4319045, 4.962714, 8.664411, 0.05325222, 0.03380096, 9.994154
263197519139782, 0.43788654, 4.9519463, 8.610572, 0.038110733, 0.049012303, 9.942414
