timestamp_acc,device_acc_x,device_acc_y,device_acc_z,earth_acc_x,earth_acc_y,earth_acc_z
1130596341990439, -1.2023934, 8.079366, 5.3922257, 0.06458235, 0.04439521, 9.787332
1130596351629814, -1.1162517, 8.112865, 5.588437, 0.07163882, -0.13203001, 9.913258
1130596361269189, -1.1162517, 8.181061, 5.7966127, 0.01364851, -0.25167537, 10.085285
1130596370908564, -1.1736795, 8.13799, 5.761917, -0.04158187, -0.21134591, 10.037813
1130596380547939, -1.2418749, 8.118847, 5.645865, -0.059794664, -0.09687877, 9.9659815
1130596390187314, -1.3100704, 8.115258, 5.4867425, -0.051807642, 0.054926634, 9.882933
1130596399826689, -1.3328022, 8.092526, 5.5046883, -0.07919073, 0.04243684, 9.87719
1130596409466064, -1.2933207, 8.078169, 5.541777, -0.06827998, -0.0123922825, 9.881092
1130596419105543, -1.3447664, 8.032705, 5.5070815, -0.11021876, 0.022503138, 9.830975
1130596428744918, -1.3435699, 8.012366, 5.3766723, -0.061877728, 0.10655713, 9.74149
1130596438384293, -1.3100704, 8.013563, 5.271388, 0.009979963, 0.16051173, 9.679626
1130596448023668, -1.2634103, 8.055437, 5.221139, 0.08309245, 0.1852212, 9.680152
1130596457663043, -1.2023934, 8.09133, 5.2941203, 0.11579895, 0.112683296, 9.742535
1130596467302418, -1.0743774, 8.172686, 5.6099725, 0.117274284, -0.15490055, 9.969008
1130596476941793, -1.0767702, 8.237292, 5.749953, 0.081377506, -0.2271018, 10.100305
1130596486581168, -1.2382857, 8.129615, 5.572884, -0.022010565, -0.050228834, 9.9336815
1130596496220647, -1.3519448, 8.087741, 5.5298133, -0.10854864, 0.027903795, 9.88967
1130596505860022, -1.3459628, 8.015956, 5.5453663, -0.13541079, -0.015341759, 9.838683
1130596515499397, -1.3184453, 8.013563, 5.491528, -0.08931732, 0.0053851604, 9.803285
1130596525138772, -1.268196, 8.048259, 5.383851, 0.010525227, 0.06510687, 9.765465
1130596534778147, -1.2143575, 8.065009, 5.276174, 0.10788393, 0.11583519, 9.712466
1130596544417522, -1.2083755, 8.106883, 5.278567, 0.12231612, 0.1241529, 9.747544
1130596554057002, -1.2215359, 8.105687, 5.3479586, 0.07885766, 0.082518816, 9.786827
1130596563696377, -1.2167503, 8.152347, 5.515456, 0.027773142, -0.02012968, 9.917678
1130596573335752, -1.1952149, 8.172686, 5.6745787, -0.015236855, -0.13303375, 10.020192
1130596582975127, -1.1916257, 8.172686, 5.6685967, -0.007563114, -0.12921834, 10.016437
1130596592614502, -1.2813566, 8.090134, 5.5453663, -0.059567213, -0.021887302, 9.891369
1130596602253877, -1.18684, 8.127222, 5.5860443, 0.019570112, -0.092648506, 9.932534
1130596611893356, -1.1904292, 8.175078, 5.5453663, 0.054200172, -0.04206896, 9.949644
1130596621532731, -1.2610176, 8.080562, 5.3826547, 0.02780366, 0.07528639, 9.790412
1130596631172106, -1.3543376, 7.999206, 5.21755, -0.011281729, 0.21108174, 9.643634
1130596640811481, -1.3746766, 7.9884386, 5.17089, -0.012750149, 0.24747849, 9.611533
1130596650450856, -1.3507484, 7.9944205, 5.2570314, -0.02504611, 0.17067003, 9.661364
1130596660090335, -1.3471591, 8.012366, 5.395815, -0.07480955, 0.07516885, 9.752765
1130596669729710, -1.3710874, 8.049456, 5.4317074, -0.09403515, 0.07807517, 9.806229
1130596679369085, -1.2861422, 8.084151, 5.491528, -0.032765627, 0.0055491924, 9.857152
1130596689008460, -1.174876, 8.1020975, 5.6350975, -6.284714E-4, -0.15508652, 9.937535
1130596698647939, -1.1294123, 8.189436, 5.8480587, -0.018029928, -0.29473352, 10.122008
1130596708287314, -1.2119647, 8.155936, 5.788238, -0.064318895, -0.21017075, 10.071919
1130596717926689, -1.3076776, 8.056634, 5.6853466, -0.13970971, -0.119870424, 9.945283
1130596727566064, -1.3172488, 8.049456, 5.5920267, -0.11286378, -0.051670074, 9.888591
1130596737205543, -1.282553, 8.135597, 5.485546, -0.002619028, 0.03641677, 9.895594
1130596746844918, -1.2191432, 8.147561, 5.4185467, 0.07971072, 0.048964262, 9.860069
1130596756484293, -1.2059826, 8.124829, 5.3886366, 0.09067845, 0.053130865, 9.823114
1130596766123668, -1.2263216, 8.10449, 5.3204412, 0.09325051, 0.10382271, 9.771092
1130596775763147, -1.2514462, 8.048259, 5.2534423, 0.07811594, 0.14424276, 9.690838
1130596785402522, -1.2335001, 8.066205, 5.2809596, 0.08895564, 0.12009907, 9.718611
1130596795041897, -1.1593226, 8.154739, 5.4125648, 0.1309557, 0.017554283, 9.85506
1130596804681272, -1.180858, 8.1344, 5.345566, 0.13231444, 0.07040429, 9.803852
1130596814320752, -1.2370893, 8.087741, 5.2833524, 0.08611679, 0.12451625, 9.738215
1130596823960127, -1.2071791, 8.115258, 5.3539405, 0.089496374, 0.06674886, 9.796268
1130596833599502, -1.2227324, 8.092526, 5.454439, 0.028153658, -0.007859707, 9.835349
1130596843238877, -1.2753744, 8.073383, 5.5094743, -0.046968937, -0.028281689, 9.856845
1130596852878356, -1.3531412, 8.062616, 5.523831, -0.12155509, 0.0025324821, 9.865835
1130596862517731, -1.3172488, 8.063812, 5.5836515, -0.11239147, -0.058414936, 9.895521
1130596872157106, -1.3100704, 8.065009, 5.5980086, -0.10778403, -0.06956911, 9.903631
1130596881796585, -1.3351951, 8.118847, 5.6386867, -0.118229866, -0.06139469, 9.97374
1130596891435960, -1.3830515, 8.056634, 5.6303115, -0.17866468, -0.056384087, 9.924087
1130596901075335, -1.3866407, 8.017152, 5.5465627, -0.1599834, -0.0076169968, 9.845617
1130596910714814, -1.3567305, 8.084151, 5.4795637, -0.07964468, 0.052968025, 9.859548
1130596920354189, -1.2155539, 8.109276, 5.485546, 0.04602933, -0.01722002, 9.865431
1130596929993564, -1.2023934, 8.099705, 5.38744, 0.0833261, 0.041463852, 9.801367
1130596939632939, -1.2059826, 8.117651, 5.355137, 0.094881296, 0.07433367, 9.7986555
1130596949272418, -1.1712867, 8.149954, 5.4233327, 0.10833645, 0.018706322, 9.858707
1130596958911793, -1.2311072, 8.16431, 5.4783673, 0.04301524, 0.014353275, 9.908686
1130596968551168, -1.1940185, 8.177471, 5.5274205, 0.05838394, -0.035693645, 9.942053
1130596978190647, -1.1246266, 8.170293, 5.611169, 0.080171585, -0.13672256, 9.973894
1130596987830022, -1.1210374, 8.2049885, 5.582455, 0.106915, -0.10284519, 9.986008
1130596997469397, -1.1964114, 8.154739, 5.352744, 0.11516619, 0.08620143, 9.826614
1130597007108877, -1.253839, 8.114061, 5.2103715, 0.10378766, 0.19761491, 9.721535
1130597016748252, -1.2969099, 8.090134, 5.2331033, 0.04640174, 0.19031978, 9.720042
1130597026387627, -1.2394822, 8.093722, 5.3036914, 0.06689119, 0.10891986, 9.754868
1130597036027106, -1.2562319, 8.060223, 5.40419, -0.0018253326, 0.02756095, 9.785183
1130597045666481, -1.3076776, 8.054241, 5.4317074, -0.056146383, 0.031589746, 9.802047
1130597055305856, -1.3663018, 8.007581, 5.4089756, -0.11448586, 0.06042552, 9.758504
1130597064945335, -1.3567305, 8.008778, 5.4676, -0.12477374, 0.014159679, 9.790819
1130597074584710, -1.2849457, 8.073383, 5.5429735, -0.061536074, -0.04996586, 9.876684
1130597084224189, -1.247857, 8.099705, 5.6279187, -0.053678513, -0.12133026, 9.940738
1130597093863564, -1.2418749, 8.087741, 5.605187, -0.042994976, -0.111712456, 9.9175415
1130597103502939, -1.2251252, 8.114061, 5.5716877, -0.006739855, -0.08426857, 9.918442
1130597113142418, -1.2562319, 8.109276, 5.572884, -0.036594868, -0.070251465, 9.919136
1130597122781793, -1.3184453, 8.024331, 5.4999027, -0.096380234, -0.02149105, 9.816689
1130597132421168, -1.3878372, 8.042277, 5.447261, -0.12599874, 0.06130576, 9.811083
1130597142060647, -1.3483555, 8.084151, 5.3503513, -0.035850286, 0.12544322, 9.786766
1130597151700022, -1.2813566, 8.120044, 5.279763, 0.06235075, 0.15420413, 9.768583
1130597161339397, -1.2466606, 8.124829, 5.3156557, 0.08062744, 0.10842824, 9.787999
1130597170978877, -1.2574283, 8.078169, 5.279763, 0.06923008, 0.12015653, 9.731114
1130597180618252, -1.2777673, 8.036295, 5.2642097, 0.043012857, 0.12591052, 9.69066
1130597190257731, -1.174876, 8.043473, 5.3587265, 0.0894506, 0.0023040771, 9.735796
1130597199897106, -1.119841, 8.124829, 5.4484572, 0.13025689, -0.060715675, 9.8454
1130597209536481, -1.1509477, 8.187042, 5.4903316, 0.10505414, -0.0446167, 9.923862
1130597219175960, -1.1581261, 8.196614, 5.588437, 0.06311321, -0.10801244, 9.987027
1130597228815335, -1.2047862, 8.23131, 5.6733823, -0.0028231144, -0.12906194, 10.068592
1130597238454814, -1.2323036, 8.200203, 5.5836515, -0.0016088486, -0.06129408, 9.996766
1130597248094189, -1.2729816, 8.16431, 5.511867, -0.019140482, -0.001897335, 9.9326105
1130597257733564, -1.2299109, 8.154739, 5.4173503, 0.05349493, 0.039161682, 9.866902
1130597267373043, -1.2239288, 8.13799, 5.4352965, 0.04665208, 0.01508522, 9.862298
1130597277012418, -1.2035898, 8.126026, 5.3479586, 0.09285283, 0.063813925, 9.801476
1130597286651793, -1.253839, 8.053044, 5.2307105, 0.06983924, 0.14576674, 9.682863
1130597296291272, -1.3256238, 7.993224, 5.188836, 0.0032906532, 0.1867764, 9.61967
1130597305930647, -1.3686945, 7.9740815, 5.206782, -0.045073748, 0.18797779, 9.619382
1130597315570127, -1.3172488, 8.025527, 5.410172, -0.06191516, 0.03202486, 9.76777
1130597325209502, -1.2765709, 8.110473, 5.595616, -0.0671587, -0.090601206, 9.935171
1130597334848877, -1.3280165, 8.103293, 5.532206, -0.08710337, -0.019179344, 9.900725
1130597344488356, -1.3639089, 8.060223, 5.430511, -0.09257889, 0.056191206, 9.813569
1130597354127731, -1.3579268, 8.086544, 5.4173503, -0.06938863, 0.07275581, 9.827193
1130597363767210, -1.3160524, 8.048259, 5.3994045, -0.040708303, 0.046643972, 9.780397
1130597373406585, -1.3076776, 8.035098, 5.4017973, -0.037616014, 0.03612089, 9.769827
1130597383045960, -1.3040884, 7.745567, 5.2342997, -0.08248174, 0.039325237, 9.438431
1130597392685439, -1.3220345, 8.488539, 5.672186, 0.02380681, 0.032006264, 10.294424
1130597402324814, -1.2119647, 7.615158, 5.1014977, -0.005666733, 0.03445959, 9.24573
1130597411964293, -1.4237294, 8.30788, 5.7930236, -0.1870842, -0.07097387, 10.2258
1130597421603668, -1.0313065, 8.136793, 5.413761, 0.21856403, -0.07566285, 9.824781
1130597431243147, -1.308874, 8.015956, 5.831309, -0.23322248, -0.27180576, 9.992228
1130597440882522, -0.91884387, 8.712267, 5.797809, 0.38198185, -0.18335819, 10.496806
1130597450521897, -1.3435699, 7.648658, 5.4257255, -0.24222422, -0.099995375, 9.469793
1130597460161377, -1.0911272, 8.816355, 5.8061843, 0.27356791, -0.055315018, 10.609079
1130597469800752, -1.2430713, 7.489535, 5.029713, -0.06506467, 0.060172796, 9.106509
1130597479440231, -1.2035898, 8.760123, 5.625526, 0.23456264, 0.11305046, 10.476981
1130597489079606, -1.1880364, 7.580462, 4.723432, 0.14557981, 0.28011227, 9.004776
1130597498718981, -1.4644074, 8.3174515, 5.3156557, -0.031811953, 0.29913878, 9.974477
1130597508358460, -1.1521441, 7.9908314, 4.782056, 0.30535543, 0.3731463, 9.371041
1130597517997835, -1.4584254, 7.853244, 5.218746, -0.18141997, 0.17048073, 9.538017
1130597527637314, -1.0648061, 8.444271, 5.2689953, 0.36142874, 0.14884377, 10.002453
1130597537276689, -1.3842479, 7.476374, 5.380262, -0.33558583, -0.13809323, 9.307407
1130597546916064, -1.1066805, 8.801998, 6.005985, 0.17285323, -0.2103548, 10.709698
1130597556555543, -1.4321043, 7.3698936, 5.278567, -0.37335908, -0.067600965, 9.169818
1130597566194918, -1.294517, 8.717052, 6.105287, -0.058959723, -0.2063241, 10.718734
1130597575834397, -1.2227324, 7.6127653, 5.3216376, -0.12073755, -0.11591816, 9.367022
1130597585473772, -1.3890336, 8.4705925, 5.898308, -0.1476767, -0.09609938, 10.413421
1130597595113252, -1.1162517, 8.054241, 5.188836, 0.20032048, 0.09101176, 9.643259
1130597604752627, -1.4596218, 7.982456, 5.365905, -0.18552041, 0.12918329, 9.72584
1130597614392002, -1.0683953, 8.440681, 5.127819, 0.422086, 0.2493136, 9.921734
1130597624031481, -1.4859428, 7.5122666, 5.038088, -0.25495696, 0.19595695, 9.160847
1130597633670856, -1.1449656, 8.712267, 5.5202417, 0.30148196, 0.11695409, 10.372225
1130597643310335, -1.3411771, 7.3746796, 5.020142, -0.18765843, 0.066236734, 9.01925
1130597652949710, -1.1593226, 8.819944, 5.8564334, 0.19399238, -0.0703907, 10.648506
1130597662589085, -1.0576276, 7.631908, 5.194818, 0.07063961, -0.11854386, 9.291485
1130597672228564, -1.2059826, 8.5938225, 6.007181, -0.013618946, -0.23492193, 10.551731
1130597681867939, -1.018146, 8.015956, 5.221139, 0.23584437, -0.007962465, 9.617523
1130597691507418, -1.4380864, 8.04108, 5.503492, -0.21249127, 0.046185017, 9.847244
1130597701146793, -1.0025927, 8.513663, 5.3886366, 0.37790108, 0.058822155, 10.118239
1130597710786272, -1.3890336, 7.6139617, 5.319245, -0.26768374, -0.019397974, 9.387448
1130597720425647, -1.1389836, 8.719446, 5.619544, 0.25677824, 0.045814037, 10.43251
1130597730065022, -1.4201403, 7.300502, 4.9112687, -0.24471962, 0.16404557, 8.907743
1130597739704502, -1.2969099, 8.708678, 5.5669017, 0.15246034, 0.17079067, 10.414463
1130597749343877, -1.2957134, 7.4644103, 4.8287163, -0.038023233, 0.21184635, 8.981452
1130597758983356, -1.4093726, 8.478967, 5.666204, -0.07122517, 0.07496452, 10.294387
1130597768622731, -1.134198, 7.893922, 5.113462, 0.14530253, 0.08658028, 9.472027
1130597778262106, -1.4416757, 8.04467, 5.639883, -0.26316714, -0.058412075, 9.926268
1130597787901585, -1.0013963, 8.410771, 5.556134, 0.27345347, -0.103369, 10.125662
1130597797540960, -1.422533, 7.648658, 5.460421, -0.34330153, -0.09623766, 9.49814
1130597807180439, -1.0480564, 8.782856, 5.825327, 0.26897573, -0.11987114, 10.587006
1130597816819814, -1.3507484, 7.4249287, 5.296513, -0.30125415, -0.10874963, 9.214367
1130597826459189, -1.2107682, 8.792427, 5.9880385, 0.08577418, -0.13833237, 10.705272
1130597836098668, -1.3040884, 7.469196, 5.1254263, -0.16839397, 0.009102821, 9.150469
1130597845738043, -1.4691931, 8.512466, 5.7355957, -0.1301403, 0.07538319, 10.367984
1130597855377522, -1.2191432, 7.8149586, 4.9674997, 0.1074276, 0.21369934, 9.336957
1130597865016897, -1.5050855, 8.054241, 5.4017973, -0.21449304, 0.14764929, 9.810593
1130597874656272, -1.0253245, 8.322237, 5.1326046, 0.3960805, 0.18862534, 9.821512
1130597884295752, -1.4081762, 7.6510506, 5.160122, -0.19684422, 0.111186266, 9.332594
1130597893935127, -0.93320084, 8.762517, 5.5776696, 0.45770597, -0.019195557, 10.418883
1130597903574606, -1.2562319, 7.507481, 5.211568, -0.1602974, -0.06890464, 9.223362
1130597913213981, -1.0612168, 8.9348, 6.0215383, 0.23590946, -0.19180727, 10.822352
1130597922853356, -1.1688938, 7.6019974, 5.304888, -0.09825969, -0.14169621, 9.341777
1130597932492835, -1.2969099, 8.662018, 5.9641104, -0.047083616, -0.12490702, 10.595532
1130597942132210, -1.1222339, 7.8783684, 5.139783, 0.122881174, 0.059345722, 9.472425
1130597951771689, -1.4177474, 8.16431, 5.584848, -0.1876533, 0.01886177, 9.99104
1130597961411064, -1.0516455, 8.281559, 5.176872, 0.32451272, 0.15275502, 9.816391
1130597971050439, -1.4739788, 7.682157, 5.2163534, -0.27660906, 0.11461592, 9.39728
1130597980689918, -1.1150553, 8.62134, 5.447261, 0.29303527, 0.12591672, 10.253865
1130597990329293, -1.396212, 7.365108, 4.999803, -0.25773072, 0.098841906, 9.006446
1130597999968772, -1.1425728, 8.7780695, 5.663811, 0.24139595, 0.039865494, 10.506136
1130598009608147, -1.1497513, 7.4787674, 5.066802, -0.03870964, -0.040967464, 9.106219
1130598019247522, -1.2155539, 8.685946, 5.946164, 0.024241924, -0.16107512, 10.594978
1130598028887002, -1.1389836, 7.769495, 5.1457653, 0.056788445, 0.011636257, 9.388176
1130598038526377, -1.4608182, 8.165507, 5.682954, -0.270813, -0.030088902, 10.051429
1130598048165856, -1.0827522, 8.2014, 5.209175, 0.2558427, 0.09630132, 9.77221
1130598057805231, -1.4416757, 7.7204423, 5.291727, -0.26613355, 0.065943, 9.466301
1130598067444606, -1.0683953, 8.609376, 5.3539405, 0.36850166, 0.14206457, 10.1868305
1130598077084085, -1.4488541, 7.3830543, 4.898108, -0.24400842, 0.21400046, 8.971888
1130598086723460, -1.1916257, 8.711071, 5.534599, 0.23266983, 0.12345195, 10.385814
1130598096362939, -1.3555341, 7.385447, 4.901697, -0.17077589, 0.15662742, 8.9641075
1130598106002314, -1.3208381, 8.653643, 5.8624153, -0.032728672, -0.055230618, 10.535366
1130598115641689, -1.166501, 7.7671022, 5.2737813, -0.018987417, -0.06549621, 9.460271
1130598125281168, -1.4201403, 8.330612, 5.9653068, -0.28626657, -0.1936326, 10.338344
1130598134920543, -1.0552348, 8.239685, 5.473582, 0.18542957, -0.080010176, 9.946116
1130598144559918, -1.3746766, 7.8460655, 5.721239, -0.34172583, -0.22926807, 9.798658
1130598154199397, -0.9870393, 8.641679, 5.704489, 0.30304623, -0.12842345, 10.396428
1130598163838772, -1.3854443, 7.4333034, 5.2342997, -0.30828917, -0.036639452, 9.191027
1130598173478252, -1.0947163, 8.770891, 5.697311, 0.26864815, -0.011054516, 10.512564
1130598183117627, -1.2239288, 7.4069824, 4.9196434, -0.06880355, 0.08237839, 8.975119
1130598192757002, -1.174876, 8.718249, 5.6506505, 0.19400549, 0.047506332, 10.453619
1130598202396481, -1.0815558, 7.7347994, 4.8586264, 0.20479727, 0.17397046, 9.194071
1130598212035856, -1.3615161, 8.334201, 5.460421, -0.03435397, 0.13477159, 10.055323
1130598221675231, -1.0396814, 8.139186, 4.9722853, 0.35898328, 0.21748519, 9.585132
1130598231314710, -1.463211, 7.797013, 5.176872, -0.21118557, 0.18247032, 9.468712
1130598240954085, -1.0935199, 8.514859, 5.3240304, 0.3151574, 0.13928962, 10.0958
1130598250593460, -1.4715859, 7.4045897, 5.1649075, -0.37246656, 0.04324889, 9.139431
1130598260232939, -1.1090733, 8.782856, 5.741578, 0.23516345, -0.041074276, 10.548807
1130598269872314, -1.2562319, 7.450053, 5.1457653, -0.17800403, -0.042713165, 9.139299
1130598279511793, -1.1964114, 8.7577305, 6.0107703, 0.029850006, -0.1890006, 10.6874695
1130598289151168, -1.1617154, 7.6749787, 5.3180485, -0.0811193, -0.12845635, 9.408159
1130598298790543, -1.4715859, 8.37129, 6.0047884, -0.3341694, -0.16737413, 10.40009
1130598308430022, -1.1533405, 8.112865, 5.4616175, 0.056274414, -0.061005592, 9.847394
1130598318069397, -1.5768701, 7.844869, 5.6578293, -0.47865474, -0.06632519, 9.788054
1130598327708772, -1.1700903, 8.4502535, 5.416154, 0.19948316, 0.11324358, 10.102375
1130598337348252, -1.4835501, 7.429714, 4.981857, -0.28858376, 0.19338894, 9.060893
1130598346987627, -1.0217353, 8.805588, 5.4412785, 0.4455161, 0.14869428, 10.390823
1130598356627106, -1.180858, 7.487142, 4.8035913, 0.050952792, 0.17159271, 8.971855
1130598366266481, -1.0660025, 8.806784, 5.6506505, 0.31190753, 0.022010326, 10.513224
1130598375905856, -0.9667004, 7.725228, 5.1014977, 0.18362355, -0.06783223, 9.3059435
1130598385545335, -1.160519, 8.57468, 5.9150577, 0.027077675, -0.20853901, 10.479297
1130598395184710, -0.9296116, 8.183454, 5.278567, 0.32233143, -0.032973766, 9.777084
1130598404824085, -1.3447664, 8.043473, 5.662615, -0.23127222, -0.13452005, 9.924692
1130598414463564, -0.91884387, 8.57468, 5.5022955, 0.39938998, -0.042441845, 10.221712
1130598424102939, -1.3543376, 7.5469627, 5.2031927, -0.24392366, 0.0059833527, 9.263075
1130598433742314, -1.052842, 8.734999, 5.5310097, 0.33601022, 0.077486515, 10.38662
1130598443381793, -1.3447664, 7.2897344, 4.8382874, -0.18792331, 0.16086197, 8.84853
1130598453021168, -1.274178, 8.681161, 5.5740805, 0.11842823, 0.13573694, 10.39346
1130598462660543, -1.2251252, 7.5110703, 4.95075, -0.053553104, 0.09295797, 9.0783
1130598472300022, -1.4285151, 8.402397, 5.7667027, -0.202111, -0.030173302, 10.28854
1130598481939397, -1.1593226, 7.975278, 5.174479, 0.094429016, 0.077579975, 9.576501
1130598491578772, -1.5517455, 7.995617, 5.706882, -0.42949712, -0.077450275, 9.935584
1130598501218252, -1.1760724, 8.390432, 5.629115, 0.067236185, -0.07603955, 10.171485
1130598510857627, -1.666601, 7.4010005, 5.4520464, -0.6463667, -0.054611683, 9.319679
1130598520497002, -1.2562319, 8.5938225, 5.81097, 0.019780636, -0.07817364, 10.449534
1130598530136481, -1.4285151, 7.3028946, 5.1146584, -0.3439932, 0.007719755, 9.0229845
1130598539775856, -1.2610176, 8.734999, 5.71765, 0.112257004, 0.048439026, 10.515081
1130598549415231, -1.2011969, 7.537391, 4.938786, -0.0044481754, 0.10015631, 9.090472
1130598559054710, -1.2933207, 8.535198, 5.727221, -0.01042366, -0.023311615, 10.359668
1130598568694085, -0.991825, 8.007581, 5.0979085, 0.28513885, 0.055297136, 9.539884
1130598578333460, -1.294517, 8.151151, 5.4999027, -0.07259369, -0.0092868805, 9.917692
1130598587972939, -0.86979103, 8.52802, 5.221139, 0.538857, 0.09987402, 10.022156
1130598597612314, -1.3220345, 7.706085, 5.1290154, -0.12282908, 0.095813274, 9.349549
1130598607251689, -0.8985049, 8.829515, 5.5597234, 0.48615503, -0.0052523613, 10.461444
1130598616891168, -1.174876, 7.4584284, 5.035695, -0.06974292, -0.02071023, 9.07532
1130598626530543, -1.0456635, 8.889337, 5.7463636, 0.30364537, -0.040204525, 10.632055
1130598636169918, -1.1006985, 7.600801, 4.9806604, 0.06296587, 0.035544872, 9.153441
1130598645809397, -1.2203395, 8.645268, 5.784649, 0.045114517, -0.062328815, 10.473114
1130598655448772, -1.0277174, 7.9704924, 5.163711, 0.19324446, 0.011654615, 9.550466
1130598665088147, -1.4739788, 8.109276, 5.6506505, -0.31744862, -0.03456831, 9.988035
1130598674727627, -1.1222339, 8.299505, 5.4125648, 0.15266609, 0.017416716, 9.97063
1130598684367002, -1.5517455, 7.5493555, 5.3886366, -0.48818135, -0.021816254, 9.391448
1130598694006377, -1.1880364, 8.627322, 5.6554365, 0.13922477, 0.0038285255, 10.382998
1130598703645856, -1.5146568, 7.3052874, 5.1206403, -0.4354192, 0.050479412, 9.038266
1130598713285231, -1.3268201, 8.7015, 5.7463636, 0.020976067, 0.043702602, 10.511655
1130598722924606, -1.3411771, 7.3399835, 4.9543395, -0.20686531, 0.08958912, 8.953701
1130598732564085, -1.3890336, 8.510074, 5.7894344, -0.12997627, -0.024532795, 10.385126
1130598742203460, -1.0983056, 7.8496547, 5.1529436, 0.108878136, 0.0075793266, 9.453267
1130598751842835, -1.3914263, 8.166703, 5.6578293, -0.21587682, -0.059885263, 10.029554
1130598761482314, -1.0205388, 8.347362, 5.3096733, 0.30594015, 0.046881914, 9.94066
1130598771121689, -1.422533, 7.726424, 5.3563333, -0.28750348, 0.0013034344, 9.50415
1130598780761064, -1.0217353, 8.72782, 5.505885, 0.37616873, 0.052443743, 10.362882
1130598790400543, -1.3220345, 7.411768, 4.9842496, -0.18496263, 0.08274388, 9.026836
1130598800039918, -1.1150553, 8.803194, 5.5405807, 0.30991387, 0.1118083, 10.456054
1130598809679293, -1.2299109, 7.459625, 4.8083773, -0.023614168, 0.17200732, 8.958182
1130598819318772, -1.253839, 8.699107, 5.7248282, 0.069441795, 0.013025761, 10.488815
1130598828958147, -1.0253245, 7.9094753, 5.1086764, 0.1946814, 0.015788317, 9.469505
1130598838597522, -1.3483555, 8.330612, 5.727221, -0.1615386, -0.07644224, 10.197368
1130598848236897, -0.9762716, 8.344969, 5.3407803, 0.3097818, -0.007196188, 9.950856
1130598857876377, -1.3770695, 7.8029947, 5.51426, -0.30490613, -0.10890651, 9.648073
1130598867515752, -0.9846465, 8.762517, 5.6303115, 0.3484292, -0.03491831, 10.456053
1130598877155127, -1.3040884, 7.470392, 5.2342997, -0.26428092, -0.07948327, 9.210274
1130598886794606, -1.006182, 8.843872, 5.9724855, 0.21978426, -0.23455715, 10.714184
1130598896433981, -1.2191432, 7.448857, 5.127819, -0.15568423, -0.059021473, 9.123518
1130598906073356, -1.2813566, 8.622537, 5.802595, -0.023185968, -0.04379511, 10.471757
1130598915712835, -1.1676974, 7.6797643, 5.0309095, 0.017968655, 0.07121682, 9.254564
1130598925352210, -1.4931214, 8.2049885, 5.5310097, -0.24486923, 0.103146315, 10.003635
1130598934991585, -1.1150553, 8.169097, 5.078766, 0.23909402, 0.19876552, 9.67857
1130598944631064, -1.5062819, 7.7096744, 5.2570314, -0.3337587, 0.10873461, 9.445694
1130598954270439, -1.0624132, 8.572288, 5.3503513, 0.33570504, 0.118412256, 10.154426
1130598963909814, -1.3555341, 7.3950186, 5.052445, -0.25514638, 0.049557924, 9.054469
1130598973549189, -1.0492527, 8.796016, 5.6267223, 0.31364632, -0.00940299, 10.489632
1130598983188668, -1.1796615, 7.476374, 4.9842496, -0.052678823, 0.028426886, 9.062391
1130598992828043, -1.2227324, 8.76491, 5.9090757, 0.036048412, -0.10869408, 10.640618
1130599002467418, -1.1306087, 7.818548, 5.2438707, 0.01399231, -0.050722837, 9.481739
1130599012106897, -1.4440684, 8.416754, 5.8624153, -0.26227903, -0.06769705, 10.354787
1130599021746272, -1.0839486, 8.220542, 5.343173, 0.17775846, 0.004919529, 9.862562
1130599031385647, -1.4261223, 7.8783684, 5.493921, -0.30590916, -0.031082153, 9.705213
1130599041025127, -0.91405827, 8.662018, 5.511867, 0.41826773, -0.043258667, 10.2990265
1130599050664502, -1.302892, 7.500303, 5.093123, -0.18885279, 0.032637835, 9.15725
1130599060303877, -1.1042876, 8.758927, 5.487939, 0.31878233, 0.11567545, 10.389452
1130599069943356, -1.3375878, 7.300502, 4.8239303, -0.17958915, 0.16319084, 8.848609
1130599079582731, -1.3304094, 8.6141615, 5.7009, -0.019838095, 0.041613102, 10.414984
1130599089222106, -1.2514462, 7.5864444, 5.0476594, -0.090168476, 0.06289339, 9.197121
1130599098861481, -1.4967105, 8.230113, 5.7990055, -0.34633803, -0.08350706, 10.172338
1130599108500960, -1.1928221, 8.019546, 5.3982077, -0.015423298, -0.04905939, 9.740326
1130599118140335, -1.3196417, 8.076973, 5.9318075, -0.3323071, -0.33642244, 10.096618
1130599127779710, -0.7956135, 8.737391, 5.712864, 0.4491017, -0.20851803, 10.4578495
1130599137419189, -1.262214, 7.6462646, 5.1457653, -0.13915598, 0.024432182, 9.301477
1130599147058564, -1.0229317, 8.904889, 5.5094743, 0.40668845, 0.122882366, 10.512718
1130599156697939, -1.2981063, 7.408179, 4.847859, -0.12837791, 0.16729379, 8.945583
1130599166337314, -1.2813566, 8.688339, 5.6674004, 0.054502487, 0.06928158, 10.451832
1130599175976793, -1.1940185, 7.530213, 4.843073, 0.014003992, 0.15329003, 9.031137
1130599185616168, -1.3818551, 8.282756, 5.3946185, -0.07067847, 0.15671921, 9.979275
1130599195255543, -1.0743774, 8.021938, 4.7832522, 0.33571243, 0.3122704, 9.39016
1130599204895022, -1.3722838, 7.962117, 5.239085, -0.1352377, 0.13525462, 9.62756
1130599214534397, -0.8757731, 8.616554, 5.485546, 0.4275036, -0.06979346, 10.24283
1130599224173772, -1.2502499, 7.678568, 5.629115, -0.31984568, -0.32032704, 9.591953
1130599233813252, -1.0013963, 8.891729, 6.114858, 0.16523242, -0.3345647, 10.831339
1130599243452627, -1.2658032, 7.457232, 5.346762, -0.29795468, -0.19397235, 9.256026
1130599253092002, -1.1653047, 8.82832, 5.899504, 0.09783888, -0.105130196, 10.680855
1130599262731377, -1.18684, 7.6223364, 5.003392, -0.017403603, 0.0756309, 9.194374
1130599272370856, -1.3938192, 8.4347, 5.6709895, -0.14172101, 0.030529499, 10.257971
1130599282010231, -1.1736795, 7.932207, 5.026124, 0.114586115, 0.17030215, 9.461353
1130599291649606, -1.6271194, 7.834101, 5.285745, -0.39885175, 0.20573163, 9.579059
1130599301289085, -1.1784651, 8.322237, 5.111069, 0.24226213, 0.2565999, 9.8309145
1130599310928460, -1.4715859, 7.4644103, 5.117051, -0.35414672, 0.08866358, 9.161544
1130599320567835, -1.0013963, 8.784052, 5.6243296, 0.34258008, -0.036663532, 10.472666
1130599330207210, -1.1581261, 7.48116, 5.178068, -0.11805892, -0.12895203, 9.170106
1130599339846689, -1.0971092, 8.863015, 5.992824, 0.13986397, -0.20358515, 10.7521925
1130599349486064, -1.2215359, 7.5433736, 5.17089, -0.14353538, -0.055106163, 9.225461
1130599359125439, -1.43689, 8.477771, 5.9270215, -0.26110482, -0.11143303, 10.43965
1130599368764918, -1.1904292, 7.9298143, 5.2570314, 0.00567317, 0.015418291, 9.588285
1130599378404293, -1.4703895, 7.987242, 5.5190454, -0.31033206, 0.005041361, 9.814359
1130599388043668, -1.0109676, 8.396415, 5.2139606, 0.35535312, 0.1296525, 9.927948
1130599397683147, -1.3806586, 7.60798, 5.0859447, -0.20872569, 0.11722803, 9.25187
1130599407322522, -0.99302137, 8.813962, 5.4580283, 0.4230225, 0.10400534, 10.4054
1130599416961897, -1.2693924, 7.5050883, 4.922036, -0.09573412, 0.13361478, 9.062954
1130599426601272, -1.099502, 8.900104, 5.6949177, 0.26318645, 0.014261961, 10.619951
1130599436240752, -1.0875379, 7.643872, 5.0536413, 0.040794373, -0.015475988, 9.227616
1130599445880127, -1.1796615, 8.708678, 5.9114685, 0.0195086, -0.15655112, 10.590244
1130599455519502, -1.0109676, 8.02792, 5.235496, 0.17846489, -0.042883873, 9.635678
1130599465158981, -1.3124632, 8.123632, 5.6877394, -0.22544527, -0.13161826, 9.99991
1130599474798356, -0.8769695, 8.408379, 5.436493, 0.34934855, -0.12127018, 10.044332
1130599484437731, -1.3112668, 7.645068, 5.3144593, -0.2612207, -0.04678893, 9.398912
1130599494077210, -0.9403793, 8.719446, 5.541777, 0.3766272, -0.033364296, 10.367322
1130599503716585, -1.2167503, 7.4177504, 5.070391, -0.17135382, -0.02675128, 9.065446
1130599513355960, -1.0815558, 8.868998, 5.77747, 0.21989942, -0.04654169, 10.637552
1130599522995335, -1.1760724, 7.5349984, 4.9782677, -0.048018694, 0.057787657, 9.106968
1130599532634814, -1.3280165, 8.628518, 5.743971, -0.051355124, 0.020150185, 10.450126
1130599542274189, -1.180858, 7.8628154, 4.95075, 0.09517121, 0.20724869, 9.363558
1130599551913564, -1.5840486, 8.033902, 5.3623157, -0.3305477, 0.20418477, 9.780403
1130599561553043, -1.2646067, 8.163115, 5.011767, 0.13550949, 0.31851578, 9.655757
1130599571192418, -1.6211374, 7.452446, 5.144569, -0.49768972, 0.13554502, 9.185181
1130599580831793, -1.2023934, 8.519645, 5.501099, 0.12527847, 0.067373276, 10.211365
1130599590471168, -1.4727824, 7.2418776, 5.0955157, -0.43621194, 0.006734848, 8.965927
1130599600110647, -1.2514462, 8.694321, 5.814559, 0.018513203, -0.057021618, 10.53389
1130599609750022, -1.2287145, 7.4919276, 5.231907, -0.19915223, -0.12391472, 9.217188
1130599619389397, -1.0755738, 8.846265, 6.3744793, -0.025644064, -0.4896202, 10.945632
1130599629028877, -1.0025927, 7.9704924, 5.5310097, 0.046010494, -0.26280808, 9.749606
1130599638668252, -1.4847465, 8.242078, 5.831309, -0.36369228, -0.09693384, 10.197981
1130599648307627, -1.1210374, 8.274381, 5.3826547, 0.13462973, 0.030963898, 9.933579
1130599657947002, -1.4285151, 7.7096744, 5.2977095, -0.3033979, 0.04947138, 9.457851
1130599667586481, -0.94396853, 8.695518, 5.532206, 0.38589263, -0.01860547, 10.342105
1130599677225856, -1.2837493, 7.428518, 4.9268217, -0.14726806, 0.11815381, 9.003823
1130599686865231, -1.105484, 8.852247, 5.447261, 0.34909153, 0.19627714, 10.444934
1130599696504710, -1.1234303, 7.4823565, 4.7018967, 0.08945036, 0.20071816, 8.905465
1130599706144085, -1.0899308, 8.7780695, 5.5022955, 0.29313707, 0.1148355, 10.412426
1130599715783460, -0.89730847, 7.984849, 4.895715, 0.38598657, 0.123131275, 9.400365
1130599725422939, -1.1437693, 8.386844, 5.6171513, 0.03177476, -0.09279728, 10.158254
1130599735062314, -0.81595254, 8.384451, 5.4388857, 0.3710146, -0.15029407, 10.019283
1130599744701689, -1.3914263, 7.7623167, 5.5226345, -0.37654233, -0.13379335, 9.619223
1130599754341064, -1.1282159, 8.530413, 5.5776696, 0.12465191, -0.013614655, 10.253559
1130599763980543, -1.4739788, 7.3028946, 5.139783, -0.46346557, 0.0023629665, 9.039218
1130599773619918, -1.180858, 8.658429, 5.6757755, 0.09406066, -0.0015287399, 10.419617
1130599783259293, -1.3363914, 7.429714, 4.833502, -0.17573643, 0.20456862, 8.9597225
1130599792898772, -1.294517, 8.695518, 5.879165, -0.072544575, -0.07072353, 10.575544
1130599802538147, -1.0959128, 7.719246, 5.204389, -0.014198065, -0.0814147, 9.37372
1130599812177522, -1.396212, 8.312666, 5.651847, -0.21668458, -6.3562393E-4, 10.146244
1130599821817002, -1.0480564, 8.268398, 5.0979085, 0.28020406, 0.19327807, 9.7641
1130599831456377, -1.4392828, 7.861619, 5.272585, -0.27214527, 0.11484671, 9.57024
1130599841095752, -1.0025927, 8.599805, 5.5262237, 0.27398014, -0.010276794, 10.267709
1130599850735127, -1.4141582, 7.4153576, 5.0739803, -0.33910537, 0.07017541, 9.089155
1130599860374606, -1.1449656, 8.76132, 5.7690954, 0.118382215, -0.044319153, 10.55169
1130599870013981, -1.2011969, 7.4105716, 5.1026945, -0.19084501, -0.068269014, 9.075012
1130599879653356, -1.0600204, 8.835498, 5.8971114, 0.15253472, -0.15119648, 10.6733055
1130599889292835, -0.90089774, 7.8628154, 5.028517, 0.25935435, 0.0028793812, 9.373056
1130599898932210, -1.2346965, 8.530413, 5.6350975, -0.0043883324, 0.019860268, 10.297879
1130599908571585, -0.94636136, 8.242078, 5.1696935, 0.32040596, 0.08807349, 9.769482
1130599918211064, -1.4033905, 7.8963146, 5.436493, -0.29888237, 0.016002178, 9.684378
1130599927850439, -1.0001999, 8.555537, 5.535795, 0.25790572, -0.016756058, 10.236009
1130599937489814, -1.2574283, 7.4739814, 5.3970113, -0.32333672, -0.20262194, 9.296433
1130599947129189, -0.93320084, 8.883354, 5.9377894, 0.2738657, -0.20595837, 10.720299
1130599956768668, -1.0827522, 7.4715886, 5.093123, -0.05619788, -0.07855177, 9.106457
1130599966408043, -1.0588241, 8.780462, 5.7200427, 0.2114923, -0.021474361, 10.530496
1130599976047418, -1.0743774, 7.7036924, 4.9375896, 0.10000467, 0.12049222, 9.211756
1130599985686897, -1.3064811, 8.420342, 5.7020965, -0.12283945, -0.015387058, 10.252202
1130599995326272, -1.0480564, 8.066205, 5.160122, 0.17576027, 0.08707762, 9.630705
1130600004965647, -1.4715859, 7.8077803, 5.4352965, -0.3808478, 0.029557705, 9.618916
1130600014605127, -1.0971092, 8.409575, 5.3300123, 0.2178154, 0.13281941, 10.01342
1130600024244502, -1.4811572, 7.428518, 5.1182475, -0.3959813, 0.1128521, 9.13256
1130600033883877, -1.1210374, 8.696713, 5.6446686, 0.17731953, 0.03330612, 10.426854
1130600043523356, -1.3124632, 7.3292155, 4.941179, -0.2269659, 0.097058296, 8.932765
1130600053162731, -1.1641082, 8.73141, 5.7810597, 0.09606242, -0.025968552, 10.535816
1130600062802106, -1.0767702, 7.647461, 5.06082, 0.038770437, 0.011212349, 9.233275
1130600072441481, -1.2514462, 8.532805, 5.832505, -0.07592082, -0.092823505, 10.410505
1130600082080960, -0.95353985, 8.105687, 5.2809596, 0.23015547, -0.022990227, 9.718355
1130600091720335, -1.3770695, 8.006385, 5.5908303, -0.28543758, -0.05094695, 9.857577
1130600101359710, -1.0001999, 8.477771, 5.5166526, 0.23887706, -0.020159006, 10.161152
1130600110999189, -1.3698909, 7.515856, 5.3563333, -0.37493837, -0.07770252, 9.322466
1130600120638564, -1.0073783, 8.742178, 5.7009, 0.2600515, -0.04080391, 10.481958
1130600130277939, -1.2658032, 7.368697, 4.983053, -0.19503176, 0.07480931, 8.982602
1130600139917418, -1.0552348, 8.825927, 5.7427745, 0.22853398, -0.009242058, 10.580061
1130600149556793, -1.0648061, 7.6570325, 5.0165524, 0.06385136, 0.052899122, 9.215362
1130600159196168, -1.2753744, 8.532805, 5.7954164, -0.08463621, -0.0373497, 10.3929615
1130600168835647, -1.0444671, 8.008778, 5.191229, 0.14734721, 0.06227064, 9.599724
1130600178475022, -1.3806586, 8.025527, 5.5980086, -0.28386772, -0.042247295, 9.877785
1130600188114397, -0.91884387, 8.422736, 5.5046883, 0.29137444, -0.065033436, 10.099466
1130600197753877, -1.3280165, 7.578069, 5.389833, -0.33158505, -0.089535475, 9.38739
1130600207393252, -1.0229317, 8.719446, 5.615955, 0.26983953, 0.024163723, 10.418285
1130600217032627, -1.3136597, 7.3340015, 4.9531426, -0.23574829, 0.11985183, 8.942985
1130600226672106, -1.1904292, 8.752945, 5.6937213, 0.11302471, 0.07660866, 10.508615
1130600236311481, -1.1820544, 7.5385876, 5.0189457, -0.07321906, 0.07876682, 9.132679
1130600245950856, -1.2873386, 8.547162, 5.8767724, -0.12556434, -0.07097578, 10.451166
1130600255590335, -1.0073783, 7.9334035, 5.2079782, 0.14562201, -0.0043461323, 9.5423
1130600265229710, -1.2562319, 8.069795, 5.656633, -0.19388342, -0.1190896, 9.932039
1130600274869085, -0.7704889, 8.463413, 5.453243, 0.44082904, -0.09715748, 10.087473
1130600284508564, -1.1796615, 7.726424, 5.383851, -0.15719199, -0.10213709, 9.488938
1130600294147939, -0.86261255, 8.79482, 5.6123657, 0.42878556, -0.022093773, 10.459793
1130600303787314, -1.2335001, 7.442875, 5.0416775, -0.17357922, 0.057318687, 9.072102
1130600313426793, -1.1533405, 8.800801, 5.6949177, 0.16093135, 0.088665485, 10.544317
1130600323066168, -1.288535, 7.429714, 4.912465, -0.1631422, 0.17540646, 8.996437
1130600332705543, -1.4045869, 8.478967, 5.7020965, -0.1746149, 0.091665745, 10.312166
1130600342345022, -1.160519, 7.8173513, 4.991428, 0.0646832, 0.197968, 9.344986
1130600351984397, -1.3710874, 8.096115, 5.5262237, -0.22459674, 0.044086456, 9.895137
1130600361623772, -0.8961121, 8.226524, 5.359923, 0.2839687, -0.056055307, 9.855137
1130600371263252, -1.0600204, 8.184649, 5.5776696, 0.04271555, -0.13180208, 9.960087
1130600380902627, -1.0408778, 8.151151, 5.395815, 0.11503267, -0.023513317, 9.829839
1130600390542002, -1.0887343, 8.118847, 5.5202417, 0.00947094, -0.09272766, 9.87752
1130600400181377, -1.1078769, 8.127222, 5.716453, -0.083473444, -0.2202282, 9.995073
1130600409820856, -1.2526426, 8.029117, 5.753542, -0.25659704, -0.2001164, 9.951541
1130600419460231, -1.2981063, 7.9597244, 5.7343993, -0.3085673, -0.19057345, 9.889089
1130600429099710, -1.2729816, 7.9836526, 5.5776696, -0.20976686, -0.07868862, 9.819337
1130600438739085, -1.2382857, 7.9920278, 5.419743, -0.11379576, 0.019617796, 9.73479
1130600448378460, -1.2311072, 8.080562, 5.319245, -0.032639027, 0.12575269, 9.751338
1130600458017939, -1.2155539, 8.086544, 5.2031927, 0.02723217, 0.20280743, 9.690258
1130600467657314, -1.2011969, 8.053044, 5.1146584, 0.06157899, 0.24590135, 9.611965
1130600477296689, -1.1485549, 8.109276, 5.1960144, 0.093100786, 0.17980313, 9.697273
1130600486936168, -0.9882358, 8.202596, 5.4317074, 0.16755652, -0.039560795, 9.886
1130600496575543, -0.8961121, 8.313862, 5.649454, 0.19527769, -0.19965649, 10.087698
1130600506214918, -0.98943216, 8.315059, 5.65424, 0.10867286, -0.15268898, 10.102202
1130600515854397, -1.1330016, 8.132008, 5.588437, -0.054881096, -0.101789236, 9.93129
1130600525493772, -1.2000005, 8.078169, 5.599205, -0.13721704, -0.09557176, 9.900502
1130600535133147, -1.1772687, 8.100901, 5.651847, -0.1283853, -0.13624, 9.945797
1130600544772627, -1.1904292, 8.10808, 5.5501523, -0.09306145, -0.048943996, 9.89703
1130600554412002, -1.1796615, 8.123632, 5.375476, -0.0059752464, 0.07919645, 9.8119545
1130600564051377, -1.1425728, 8.109276, 5.176872, 0.09880996, 0.19833875, 9.685903
1130600573690856, -1.1138589, 8.117651, 5.1003013, 0.15312433, 0.23543096, 9.647339
1130600583330231, -1.0157533, 8.175078, 5.2845488, 0.18057251, 0.06977463, 9.785328
1130600592969606, -0.97866446, 8.244471, 5.5262237, 0.1415019, -0.09684992, 9.971902
1130600602609085, -1.1437693, 8.140383, 5.4987063, -0.02656579, -0.03039527, 9.889803
1130600612248460, -1.2502499, 8.032705, 5.491528, -0.15361905, -0.012245655, 9.809213
1130600621887835, -1.2705889, 8.043473, 5.5980086, -0.20813048, -0.0773859, 9.879285
1130600631527314, -1.2071791, 8.093722, 5.613562, -0.14187527, -0.10102844, 9.922065
1130600641166689, -1.1497513, 8.129615, 5.521438, -0.04178047, -0.048875332, 9.894176
1130600650806168, -1.1306087, 8.106883, 5.386244, 0.019935846, 0.031636477, 9.798471
1130600660445543, -1.1629118, 8.059027, 5.271388, 0.021001339, 0.11317682, 9.699204
1130600670084918, -1.1617154, 8.090134, 5.2402816, 0.046532154, 0.14717913, 9.707552
1130600679724397, -1.1090733, 8.118847, 5.282156, 0.08312225, 0.09907675, 9.7483425
1130600689363772, -1.038485, 8.172686, 5.419743, 0.10552502, -0.01911521, 9.860699
1130600699003147, -1.0372887, 8.176275, 5.465207, 0.0865252, -0.052556753, 9.888663
1130600708642627, -1.1521441, 8.143971, 5.4221363, -0.0037326813, 0.028406858, 9.851418
1130600718282002, -1.2179468, 8.103293, 5.424529, -0.07852793, 0.04332447, 9.82671
1130600727921377, -1.1784651, 8.111669, 5.4436717, -0.050246954, 0.011590719, 9.839658
1130600737560856, -1.079163, 8.203793, 5.4388857, 0.069806814, -0.0029461384, 9.901687
1130600747200231, -1.0336994, 8.195417, 5.355137, 0.13830256, 0.029479742, 9.843318
1130600756839606, -1.0719845, 8.152347, 5.2905307, 0.11458993, 0.07922077, 9.776514
1130600766479085, -1.1210374, 8.084151, 5.334798, 0.029382467, 0.04657173, 9.750245
1130600776118460, -1.1437693, 8.055437, 5.4903316, -0.06087494, -0.06225109, 9.815012
1130600785757939, -1.14018, 8.065009, 5.6039906, -0.09645629, -0.13943863, 9.885361
1130600795397314, -1.1294123, 8.118847, 5.7343993, -0.12098217, -0.21739578, 10.000633
1130600805036689, -1.1413764, 8.1679, 5.7559347, -0.1178658, -0.2013619, 10.054536
1130600814676168, -1.166501, 8.139186, 5.6099725, -0.08977151, -0.09351492, 9.952992
1130600824315543, -1.1186446, 8.185846, 5.48076, 0.019399643, -0.007991791, 9.914522
1130600833954918, -1.0959128, 8.166703, 5.3012986, 0.10306311, 0.09887242, 9.79691
1130600843594397, -1.1318051, 8.145168, 5.1924253, 0.10894561, 0.18318725, 9.7232
1130600853233772, -1.1353943, 8.092526, 5.157729, 0.1002574, 0.18844175, 9.660991
1130600862873147, -1.1653047, 8.024331, 5.2163534, 0.028090239, 0.12947536, 9.640573
1130600872512627, -1.2095718, 8.008778, 5.2630134, -0.034488678, 0.11287165, 9.658621
1130600882152002, -1.2442678, 8.005188, 5.278567, -0.07269478, 0.1184175, 9.668258
1130600891791481, -1.1892328, 8.070991, 5.413761, -0.055187464, 0.016917706, 9.790844
1130600901430856, -1.0516455, 8.212168, 5.629115, 0.022645473, -0.1551497, 10.010396
1130600911070231, -1.0301101, 8.220542, 5.6733823, 0.025773048, -0.19579554, 10.039259
1130600920709710, -1.0887343, 8.202596, 5.6004014, -0.0037338734, -0.116276264, 9.99094
1130600930349085, -1.1629118, 8.148758, 5.5393844, -0.060939074, -0.05236125, 9.921336
1130600939988460, -1.2454642, 8.076973, 5.491528, -0.13741851, -0.0017576218, 9.845134
1130600949627939, -1.2550355, 8.014759, 5.3766723, -0.121119976, 0.060624123, 9.731482
1130600959267314, -1.2311072, 8.085348, 5.2809596, -0.033335447, 0.14256549, 9.73425
1130600968906689, -1.1688938, 8.087741, 5.229514, 0.04086256, 0.14652133, 9.700647
1130600978546168, -1.1377872, 8.118847, 5.227121, 0.07909989, 0.1417768, 9.721453
1130600988185543, -1.0971092, 8.145168, 5.3072805, 0.09009075, 0.07057905, 9.782719
1130600997825022, -1.1437693, 8.120044, 5.3587265, 0.02126193, 0.05079651, 9.795727
1130601007464397, -1.1270195, 8.098508, 5.517849, -0.039137363, -0.08259058, 9.863788
1130601017103772, -1.1617154, 8.147561, 5.582455, -0.074400425, -0.088366985, 9.943982
1130601026743252, -1.1772687, 8.124829, 5.5896335, -0.09966612, -0.093589306, 9.930968
1130601036382627, -1.1234303, 8.169097, 5.6243296, -0.05469203, -0.130476, 9.980447
1130601046022002, -1.0887343, 8.215756, 5.5202417, 0.031186104, -0.055259943, 9.957562
1130601055661481, -1.0576276, 8.210971, 5.355137, 0.12304759, 0.044020414, 9.858957
1130601065300856, -1.1270195, 8.158329, 5.186443, 0.11413813, 0.18461919, 9.730394
1130601074940335, -1.1078769, 8.127222, 5.123033, 0.14483738, 0.205724, 9.667539
1130601084579710, -1.1437693, 8.045866, 5.1050873, 0.09332347, 0.20350552, 9.594581
1130601094219085, -1.1676974, 8.04108, 5.1661043, 0.049268723, 0.16958785, 9.627043
1130601103858564, -1.1617154, 8.039884, 5.4341, -0.057274103, -0.028239489, 9.773162
1130601113497939, -1.1126626, 8.092526, 5.6877394, -0.099747896, -0.21846485, 9.950864
1130601123137314, -1.174876, 8.124829, 5.773881, -0.17501974, -0.23131275, 10.032286
1130601132776793, -1.2550355, 8.110473, 5.7990055, -0.25707316, -0.20953989, 10.043571
1130601142416168, -1.2693924, 8.115258, 5.751149, -0.24866533, -0.16124249, 10.022808
1130601152055647, -1.2490535, 8.12124, 5.6327047, -0.17938566, -0.08195162, 9.960077
1130601161695022, -1.2323036, 8.043473, 5.4185467, -0.10620189, 0.033461332, 9.7757
1130601171334397, -1.2239288, 7.9836526, 5.130212, -0.0038883686, 0.21291876, 9.56611
1130601180973877, -1.1629118, 7.9884386, 4.9172506, 0.12968194, 0.3307755, 9.445667
1130601190613252, -1.1234303, 8.086544, 4.974678, 0.1711855, 0.30547786, 9.5540085
1130601200252731, -1.0959128, 8.184649, 5.227121, 0.1298933, 0.14677048, 9.771073
1130601209892106, -1.0348958, 8.260024, 5.4759746, 0.09691, -0.036044598, 9.963667
1130601219531481, -0.910469, 8.359326, 5.704489, 0.14192891, -0.22552848, 10.157632
1130601229170960, -0.84825563, 8.364112, 5.837291, 0.14387178, -0.35428977, 10.227691
1130601238810335, -0.8566305, 8.281559, 5.6685967, 0.1648674, -0.25357175, 10.067747
1130601248449710, -0.9451649, 8.159525, 5.339584, 0.17672801, -0.01393199, 9.795452
1130601258089189, -1.0085747, 8.075776, 5.133801, 0.17551017, 0.13698983, 9.619862
1130601267728564, -1.0767702, 7.9597244, 4.9926243, 0.13118184, 0.22505045, 9.453838
1130601277368043, -1.1940185, 7.847262, 4.9196434, 0.017440677, 0.28919053, 9.334034
1130601287007418, -1.2370893, 7.826923, 4.912465, -0.022126794, 0.30597973, 9.318224
1130601296646793, -1.2574283, 7.8424764, 5.035695, -0.081846595, 0.23258972, 9.401222
1130601306286272, -1.3316058, 7.893922, 5.2259245, -0.20242691, 0.15345216, 9.556827
1130601315925647, -1.3268201, 8.015956, 5.5968122, -0.30090678, -0.06488657, 9.861316
1130601325565022, -1.2610176, 8.096115, 5.861219, -0.31584668, -0.2446394, 10.066357
1130601335204502, -1.2813566, 8.115258, 5.9150577, -0.3460033, -0.26643944, 10.114174
