timestamp_acc,device_acc_x,device_acc_y,device_acc_z,earth_acc_x,earth_acc_y,earth_acc_z
94420463527213, -0.75254273, 5.322834, 8.4347, -0.06808293, -0.039773464, 10.0018425
94420473167005, -0.7118647, 5.3539405, 8.379665, -0.0073828697, -0.0093688965, 9.969458
94420482806692, -0.7369894, 5.3682976, 8.338987, -0.013994455, 0.029297352, 9.94482
94420492446484, -0.6891329, 5.393422, 8.2660055, 0.05366683, 0.061455727, 9.8936405
94420502086276, -0.6735796, 5.3850474, 8.268398, 0.06339395, 0.044134617, 9.890039
94420511726067, -0.6939186, 5.355137, 8.342576, 0.015209317, -0.0049061775, 9.937674
94420521365755, -0.6795616, 5.35753, 8.385647, 0.018245816, -0.030245781, 9.974105
94420531005546, -0.6329016, 5.345566, 8.367701, 0.05648136, -0.053527355, 9.949271
94420540645338, -0.65324056, 5.3623157, 8.285149, 0.064243436, 0.009562492, 9.890432
94420550285130, -0.7956135, 5.3623157, 8.283952, -0.05705285, 0.08146715, 9.899565
94420559924921, -0.81595254, 5.3766723, 8.280363, -0.066894054, 0.10377836, 9.905733
94420569564609, -0.73818576, 5.363512, 8.338987, -0.019264936, 0.025755882, 9.9423275
94420579204401, -0.7070791, 5.3706903, 8.40479, -0.005056381, -0.01479578, 9.999227
94420588844192, -0.70348984, 5.343173, 8.435896, -0.0217067, -0.051379204, 10.010277
94420598483984, -0.63529444, 5.3503513, 8.407183, 0.045068145, -0.06352377, 9.985214
94420608123671, -0.62811595, 5.3383875, 8.394022, 0.04889548, -0.06891918, 9.967216
94420617763463, -0.66759753, 5.345566, 8.356933, 0.025390506, -0.02758503, 9.94272
94420627403255, -0.74177504, 5.3611193, 8.350951, -0.028665543, 0.025177956, 9.95132
94420637043046, -0.7645068, 5.3946185, 8.306684, -0.019440413, 0.07960987, 9.933814
94420646682838, -0.82313097, 5.3910294, 8.29472, -0.06519568, 0.11174917, 9.926046
94420656322526, -0.76570326, 5.3886366, 8.316256, -0.023279905, 0.065416336, 9.938763
94420665962317, -0.64845496, 5.3790655, 8.338987, 0.063868046, -0.01737547, 9.944304
94420675602109, -0.6472585, 5.328816, 8.367701, 0.030861855, -0.06449962, 9.941253
94420685241901, -0.654437, 5.3479586, 8.35454, 0.03498745, -0.038372993, 9.941057
94420694881588, -0.59581286, 5.343173, 8.276773, 0.09764314, -0.033625364, 9.869082
94420704521380, -0.61016977, 5.3611193, 8.301898, 0.08661485, -0.026101828, 9.90087
94420714161171, -0.7046863, 5.3682976, 8.325827, 0.0053123236, 0.020263195, 9.931473
94420723800963, -0.802792, 5.380262, 8.377272, -0.08337426, 0.056629658, 9.988006
94420733440651, -0.7956135, 5.380262, 8.394022, -0.07772231, 0.039431572, 10.001612
94420743080442, -0.7609176, 5.4089756, 8.315059, -0.016187787, 0.077138424, 9.948366
94420752720234, -0.73579293, 5.389833, 8.270791, 0.0054950714, 0.073002815, 9.899106
94420762360026, -0.72382885, 5.369494, 8.267202, 0.007969379, 0.052653313, 9.884291
94420771999817, -0.6580262, 5.345566, 8.329415, 0.040529728, -0.027720451, 9.918913
94420781639505, -0.61016977, 5.325227, 8.361719, 0.0678432, -0.078969955, 9.93166
94420791279296, -0.5946164, 5.3336015, 8.365308, 0.08201885, -0.08356142, 9.938085
94420800919088, -0.62811595, 5.337191, 8.315059, 0.065795064, -0.038568974, 9.900228
94420810558880, -0.73459655, 5.3419766, 8.300702, -0.022032738, 0.022411823, 9.898333
94420820198567, -0.7812566, 5.383851, 8.318648, -0.046383023, 0.065121174, 9.939303
94420829838359, -0.7848458, 5.3994045, 8.356933, -0.045167208, 0.05614519, 9.980114
94420839478151, -0.85064846, 5.3922257, 8.429914, -0.12113142, 0.047216415, 10.042223
94420849117942, -0.8781659, 5.3647084, 8.46461, -0.16127956, 0.026028156, 10.05854
94420858757630, -0.7860422, 5.359923, 8.449057, -0.08075547, -0.013764381, 10.03626
94420868397421, -0.66400826, 5.3515477, 8.465807, 0.015185952, -0.0914669, 10.036996
94420878037213, -0.6412765, 5.3503513, 8.455039, 0.032763958, -0.096250534, 10.02571
94420887677005, -0.6412765, 5.380262, 8.373683, 0.0657593, -0.035924435, 9.973536
94420897316796, -0.6628119, 5.383851, 8.258827, 0.07340574, 0.029431581, 9.880645
94420906956484, -0.6305088, 5.4017973, 8.147561, 0.13689208, 0.077578306, 9.794639
94420916596276, -0.6963114, 5.3826547, 8.163115, 0.06834102, 0.08989215, 9.802116
94420926236067, -0.7968099, 5.3814583, 8.183454, -0.022755861, 0.13281941, 9.825771
94420935875859, -0.8111669, 5.345566, 8.240881, -0.06646466, 0.089318275, 9.855597
94420945515546, -0.7968099, 5.3276196, 8.360522, -0.09386349, 0.012565136, 9.94524
94420955155338, -0.74536425, 5.326423, 8.398808, -0.061794043, -0.033679247, 9.973032
94420964795130, -0.69152576, 5.3359947, 8.428718, -0.019451857, -0.06948757, 9.999455
94420974434921, -0.6448657, 5.375476, 8.409575, 0.04429722, -0.05995059, 10.00135
94420984074609, -0.66999036, 5.3994045, 8.365308, 0.046101093, -0.008644581, 9.978909
94420993714401, -0.6628119, 5.426922, 8.321041, 0.07594371, 0.027248383, 9.956106
94421003354192, -0.66400826, 5.395815, 8.306684, 0.063117504, 0.013839722, 9.927364
94421012993984, -0.69152576, 5.375476, 8.319844, 0.026527405, 0.0076532364, 9.9294
94421022633671, -0.7262217, 5.3515477, 8.344969, -0.018688798, -0.0030965805, 9.94005
94421032273463, -0.78723866, 5.308477, 8.325827, -0.08498633, 0.007047653, 9.905139
94421041913255, -0.8111669, 5.334798, 8.30788, -0.08850753, 0.04581976, 9.906009
94421051553046, -0.72023964, 5.3718867, 8.293523, 0.009994268, 0.03351164, 9.907433
94421061192734, -0.73340017, 5.3742795, 8.285149, 0.0017542839, 0.046074867, 9.902643
94421070832526, -0.7190432, 5.4029937, 8.306684, 0.021742702, 0.049016953, 9.935165
94421080472317, -0.71306115, 5.3563333, 8.344969, -0.0030597448, -0.0056643486, 9.941692
94421090112109, -0.6652047, 5.3682976, 8.346166, 0.043778062, -0.021743774, 9.945714
94421099751796, -0.61016977, 5.377869, 8.338987, 0.0974226, -0.038317204, 9.940902
94421109391588, -0.64845496, 5.3682976, 8.304291, 0.06734896, -0.010789394, 9.909375
94421119031380, -0.7573284, 5.352744, 8.300702, -0.033132195, 0.03399563, 9.905797
94421128671171, -0.82672024, 5.367101, 8.3174515, -0.08889711, 0.069729805, 9.932596
94421138310859, -0.762114, 5.3718867, 8.3377905, -0.035309315, 0.030817986, 9.94759
94421147950651, -0.73579293, 5.375476, 8.398808, -0.024382591, -0.008987904, 9.99882
94421157590442, -0.7609176, 5.375476, 8.416754, -0.051552296, -0.0017895699, 10.015678
94421167230234, -0.72741807, 5.3790655, 8.414361, -0.021872878, -0.010795116, 10.013208
94421176869921, -0.6652047, 5.352744, 8.395218, 0.022452593, -0.0527606, 9.978516
94421186509713, -0.6687939, 5.3407803, 8.3377905, 0.02739942, -0.031054497, 9.924126
94421196149505, -0.701097, 5.345566, 8.275578, 0.017502785, 0.019001484, 9.876797
94421205789296, -0.7046863, 5.337191, 8.255239, 0.015846252, 0.022853374, 9.855475
94421215428984, -0.6999006, 5.3563333, 8.240881, 0.0332011, 0.035988808, 9.85342
94421225068776, -0.695115, 5.3970113, 8.281559, 0.04735899, 0.041328907, 9.909147
94421234708567, -0.73340017, 5.3970113, 8.286345, 0.012678981, 0.058178425, 9.915924
94421244348255, -0.7465607, 5.3922257, 8.300702, -0.0053611994, 0.054941177, 9.926332
94421253988046, -0.67477596, 5.386244, 8.323434, 0.046759605, 0.0011286736, 9.937017
94421263627838, -0.715454, 5.352744, 8.384451, -0.018645287, -0.028542042, 9.973045
94421273267630, -0.6999006, 5.3407803, 8.400003, -0.015224457, -0.05257559, 9.978519
94421282907317, -0.73100734, 5.3515477, 8.383254, -0.030168891, -0.021092415, 9.972515
94421292547109, -0.7477571, 5.343173, 8.330612, -0.03527713, 0.0059399605, 9.925041
94421302186901, -0.7812566, 5.363512, 8.305488, -0.050423384, 0.048719883, 9.91735
94421311826692, -0.7286145, 5.383851, 8.289934, 0.008196831, 0.044737816, 9.911493
94421321466380, -0.7106683, 5.38744, 8.344969, 0.014757037, 0.010284901, 9.958302
94421331106171, -0.7286145, 5.393422, 8.352147, -0.002051711, 0.019916058, 9.9688425
94421340745963, -0.70588267, 5.383851, 8.32463, 0.01918602, 0.016636848, 9.938961
94421350385651, -0.695115, 5.377869, 8.263613, 0.03623247, 0.039113045, 9.883781
94421360025442, -0.6867401, 5.3587265, 8.250452, 0.038235664, 0.027202606, 9.861811
94421369665234, -0.68195444, 5.345566, 8.268398, 0.03389573, 0.0048236847, 9.869417
94421379305026, -0.7118647, 5.345566, 8.293523, 0.0033798218, 0.004983902, 9.892639
94421388944713, -0.73459655, 5.349155, 8.316256, -0.018539786, 0.00655365, 9.915282
94421398584505, -0.7537391, 5.367101, 8.350951, -0.03449917, 0.011520863, 9.955448
94421408224296, -0.75493556, 5.3922257, 8.373683, -0.029613256, 0.020040512, 9.988159
94421417863984, -0.7537391, 5.3587265, 8.413164, -0.049452066, -0.025242329, 10.003115
94421427503776, -0.721436, 5.3623157, 8.423932, -0.021045685, -0.041294098, 10.011764
94421437143567, -0.70348984, 5.3623157, 8.380861, 0.0014156103, -0.027322292, 9.974339
94421446783255, -0.695115, 5.363512, 8.299505, 0.026722908, 0.00933218, 9.906132
94421456423046, -0.6687939, 5.380262, 8.252846, 0.06705916, 0.029742718, 9.874136
94421466062838, -0.71425754, 5.3647084, 8.271988, 0.015917778, 0.029615402, 9.885084
94421475702630, -0.7118647, 5.3563333, 8.319844, 0.004360914, -0.002339363, 9.920526
94421485342317, -0.6939186, 5.3515477, 8.309076, 0.020630598, -0.010438919, 9.907612
94421494982109, -0.7369894, 5.282156, 8.2348995, -0.031743884, 4.286766E-4, 9.811059
94421504621901, -0.7046863, 5.3706903, 8.366505, 0.006642103, -0.020373821, 9.9668865
94421514261588, -0.89371926, 5.1876397, 8.185846, -0.1976459, 0.043741703, 9.730234
94421523901380, -0.56590253, 5.7391853, 8.502895, 0.26852882, 0.095541, 10.270174
94421533541171, -0.87218386, 4.8729835, 8.257631, -0.34981048, -0.22254848, 9.618901
94421543180859, -0.567099, 5.986842, 8.560323, 0.37120938, 0.24968004, 10.451931
94421552820651, -0.8781659, 4.7425747, 8.242078, -0.41249287, -0.30520773, 9.535814
94421562460442, -0.526421, 5.9641104, 8.346166, 0.44313133, 0.32135153, 10.257027
94421572100130, -0.7812566, 4.910072, 8.282756, -0.24968839, -0.25831175, 9.653712
94421581739921, -0.72263247, 5.6554365, 8.274381, 0.13509047, 0.23746729, 10.044745
94421591379713, -0.68075806, 5.2833524, 8.407183, -0.01548624, -0.11234999, 9.952141
94421601019401, -0.81595254, 5.2103715, 8.110473, -0.1089288, 0.045970917, 9.673653
94421610659192, -0.4881358, 5.7140603, 8.356933, 0.34608865, 0.13221645, 10.128664
94421620298984, -0.85064846, 4.84068, 8.098508, -0.30204463, -0.20033288, 9.4662695
94421629938776, -0.5180461, 5.989235, 8.508878, 0.4054706, 0.27353048, 10.406782
94421639578463, -0.9236295, 4.7246284, 8.271988, -0.44788682, -0.33124757, 9.554615
94421649218255, -0.6161518, 5.98086, 8.438289, 0.32844007, 0.3548746, 10.349939
94421658857942, -0.8422736, 4.871787, 8.353344, -0.33661473, -0.30221152, 9.696259
94421668497734, -0.7752745, 5.697311, 8.377272, 0.08903563, 0.24796343, 10.157248
94421678137526, -0.75493556, 5.2510495, 8.462217, -0.110343456, -0.12887907, 9.986179
94421687777213, -0.72741807, 5.2689953, 8.166703, -0.015719652, 0.019010067, 9.746069
94421697417005, -0.42711884, 5.676972, 8.426325, 0.37342298, 0.032147884, 10.162329
94421707056796, -0.84107715, 4.889733, 8.140383, -0.28679228, -0.17747712, 9.527277
94421716696588, -0.50129634, 5.956932, 8.484949, 0.4245752, 0.23277426, 10.36804
94421726336276, -0.87936234, 4.6935215, 8.2348995, -0.4288515, -0.3386283, 9.503549
94421735976067, -0.5623133, 5.9844494, 8.356933, 0.41156197, 0.3358183, 10.280371
94421745615755, -0.85902333, 4.8490553, 8.210971, -0.33228207, -0.22815394, 9.566025
94421755255546, -0.72382885, 5.7487564, 8.269595, 0.19296515, 0.2991023, 10.0911665
94421764895338, -0.81954175, 5.1852465, 8.386844, -0.18779397, -0.10253, 9.892008
94421774535026, -0.84347, 5.316852, 8.153543, -0.08925891, 0.11517477, 9.769309
94421784174817, -0.53359944, 5.6243296, 8.462217, 0.25058973, 0.017895222, 10.171718
94421793814609, -0.8865408, 4.8993044, 8.2014, -0.33018768, -0.1844933, 9.58692
94421803454296, -0.56350976, 5.9581285, 8.58784, 0.35118246, 0.2135315, 10.4593935
94421813094088, -0.87338024, 4.7401814, 8.271988, -0.39615035, -0.343338, 9.55945
94421822733880, -0.5192425, 6.0167527, 8.439486, 0.44471288, 0.31479788, 10.363349
94421832373567, -0.8327023, 4.7988057, 8.30788, -0.34703338, -0.34533572, 9.617855
94421842013359, -0.62931234, 5.7894344, 8.32463, 0.2637415, 0.2579031, 10.152683
94421851653046, -0.68195444, 5.1720862, 8.376076, -0.060854554, -0.1798873, 9.866009
94421861292838, -0.75254273, 5.369494, 8.147561, 0.008139491, 0.104563236, 9.786192
94421870932630, -0.58983076, 5.5716877, 8.32463, 0.20631397, 0.07609081, 10.0320835
94421880572317, -0.951147, 4.928018, 8.04467, -0.33860588, -0.05991769, 9.475681
94421890212109, -0.613759, 5.928218, 8.419147, 0.32410765, 0.28761387, 10.306053
94421899851901, -0.97507524, 4.743771, 8.191829, -0.47189617, -0.2553482, 9.501174
94421909491588, -0.5599205, 6.0526447, 8.325827, 0.45631564, 0.3984809, 10.290792
94421919131380, -0.83748794, 4.79402, 8.218149, -0.3350035, -0.29699278, 9.540524
94421928771067, -0.6149554, 5.8468623, 8.38804, 0.29415178, 0.26015997, 10.23567
94421938410859, -0.6795616, 5.1158547, 8.513663, -0.117759585, -0.2973857, 9.950575
94421948050651, -0.72502524, 5.419743, 8.338987, 0.014483929, 0.02969408, 9.971805
94421957690338, -0.58504516, 5.554938, 8.463413, 0.17332864, -4.5681E-4, 10.138982
94421967330130, -0.8913264, 5.0165524, 8.112865, -0.25872278, -0.0627079, 9.576428
94421976969921, -0.62931234, 5.8971114, 8.480164, 0.28766644, 0.24452066, 10.341306
94421986609609, -0.991825, 4.729414, 8.208578, -0.50253534, -0.26162815, 9.50846
94421996249401, -0.4941179, 6.0346985, 8.438289, 0.47518277, 0.29025078, 10.370941
94422005889088, -0.8171489, 4.7485566, 8.210971, -0.34829736, -0.32009888, 9.508565
94422015528880, -0.61016977, 5.851648, 8.304291, 0.3291744, 0.29256248, 10.167663
94422025168671, -0.72263247, 5.069195, 8.392825, -0.15727818, -0.236866, 9.827391
94422034808359, -0.75254273, 5.471189, 8.251649, 0.03661287, 0.12721395, 9.928364
94422044448151, -0.6149554, 5.5166526, 8.355737, 0.15186596, 0.034652233, 10.030239
94422054087838, -0.89371926, 5.020142, 8.048259, -0.25013864, -0.023721218, 9.524281
94422063727630, -0.6161518, 5.855237, 8.456235, 0.29046714, 0.21842575, 10.297539
94422073367317, -0.9667004, 4.7425747, 8.246863, -0.48886585, -0.2722361, 9.5459
94422083007109, -0.59700924, 5.986842, 8.536395, 0.3502388, 0.27087784, 10.434209
94422092646901, -0.87936234, 4.7365923, 8.315059, -0.4260838, -0.34848213, 9.594049
94422102286588, -0.5623133, 5.9007006, 8.4012, 0.37693095, 0.25182152, 10.271765
94422111926380, -0.6831509, 5.0416775, 8.419147, -0.14000475, -0.2871642, 9.831845
94422121566067, -0.71306115, 5.538188, 8.285149, 0.093070626, 0.1346941, 9.989838
94422131205859, -0.60777694, 5.4520464, 8.360522, 0.12744033, -0.015334129, 9.998802
94422140845651, -0.79800636, 5.0847483, 7.9908314, -0.1249342, 0.0052905083, 9.504169
94422150485338, -0.526421, 5.831309, 8.349754, 0.37106502, 0.21502113, 10.189002
94422160125130, -0.94755775, 4.741378, 8.153543, -0.4453783, -0.2476151, 9.465682
94422169764817, -0.5982057, 5.9844494, 8.496913, 0.3493886, 0.29050016, 10.400124
94422179404609, -0.92602235, 4.7282176, 8.2348995, -0.45210564, -0.30932927, 9.525076
94422189044401, -0.6412765, 5.916254, 8.344969, 0.31578112, 0.34201527, 10.238903
94422198684088, -0.7429714, 4.9986067, 8.385647, -0.19879532, -0.27686596, 9.784733
94422208323880, -0.7286145, 5.5872407, 8.32463, 0.0960747, 0.1597848, 10.050514
94422217963567, -0.6305088, 5.4352965, 8.462217, 0.07496214, -0.06627512, 10.076661
94422227603359, -0.7920243, 5.1326046, 8.161918, -0.13633358, -0.049022675, 9.672996
94422237243046, -0.51086766, 5.7930236, 8.484949, 0.33436227, 0.11948156, 10.280487
94422246882838, -0.910469, 4.784449, 8.200203, -0.40601277, -0.26133084, 9.525235
94422256522630, -0.5312066, 5.99761, 8.458628, 0.41279578, 0.28379488, 10.370678
94422266162317, -0.8985049, 4.709075, 8.152347, -0.40712202, -0.30078316, 9.4439
94422275802109, -0.58624154, 5.942575, 8.26481, 0.3831885, 0.3663807, 10.182529
94422285441796, -0.86141616, 4.948357, 8.287541, -0.3042133, -0.22112012, 9.6835
94422295081588, -0.77647096, 5.6446686, 8.2456665, 0.085285425, 0.25834703, 10.019091
94422304721276, -0.6628119, 5.375476, 8.447861, 0.023293734, -0.08919144, 10.034586
94422314361067, -0.83988076, 5.1792645, 8.203793, -0.16614449, -0.013789654, 9.736764
94422324000859, -0.54317075, 5.7894344, 8.534002, 0.2983451, 0.10293007, 10.321928
94422333640546, -0.86859465, 4.822734, 8.287541, -0.37837052, -0.28813744, 9.616152
94422343280338, -0.485743, 5.992824, 8.562716, 0.43233776, 0.19617033, 10.452013
94422352919378, -0.86979103, 4.706682, 8.236095, -0.41497254, -0.35345602, 9.510286
94422362559169, -0.61016977, 5.9437714, 8.306684, 0.3531015, 0.36040974, 10.219938
94422372198857, -0.8135597, 4.9112687, 8.212168, -0.26130784, -0.2210896, 9.597135
94422381838648, -0.7262217, 5.666204, 8.252846, 0.1376493, 0.24593163, 10.03311
94422391478336, -0.72502524, 5.3144593, 8.435896, -0.05160749, -0.09478712, 9.996091
94422401118128, -0.8913264, 5.221139, 8.16431, -0.18401349, 0.052164078, 9.730064
94422410757815, -0.5312066, 5.7403817, 8.390432, 0.31425774, 0.13666916, 10.174285
94422420397607, -0.8243274, 4.8658047, 8.153543, -0.27696407, -0.22998571, 9.523984
94422430037398, -0.4989035, 6.007181, 8.535198, 0.43504918, 0.23164177, 10.43752
94422439677086, -0.9296116, 4.7042894, 8.274381, -0.48682594, -0.33643937, 9.54514
94422449316878, -0.5491528, 5.9653068, 8.367701, 0.4131192, 0.30948114, 10.278055
94422458956565, -0.7501499, 4.87418, 8.254042, -0.23998642, -0.29687548, 9.607488
94422468596357, -0.72502524, 5.6985073, 8.271988, 0.15238154, 0.2542224, 10.066608
94422478236044, -0.7178468, 5.2630134, 8.398808, -0.069076896, -0.11781788, 9.936596
94422487875836, -0.8446664, 5.255835, 8.179864, -0.1311183, 0.05321026, 9.758453
94422497515523, -0.58624154, 5.669793, 8.459825, 0.22080457, 0.073884964, 10.198267
94422507155315, -0.9343972, 4.8681974, 8.216953, -0.39339864, -0.20034075, 9.586234
94422516795003, -0.5694918, 5.9724855, 8.585447, 0.33898878, 0.2211976, 10.466183
94422526434794, -0.91884387, 4.7401814, 8.335398, -0.4487859, -0.3659315, 9.615463
94422536074482, -0.56590253, 6.0394845, 8.304291, 0.43139994, 0.41772556, 10.266268
94422545714273, -0.74536425, 4.892126, 8.172686, -0.19927526, -0.25584936, 9.548618
94422555354065, -0.62093747, 5.73081, 8.238488, 0.25821412, 0.24268055, 10.048626
94422564993753, -0.6735796, 5.178068, 8.400003, -0.05829549, -0.20567465, 9.888401
94422574633544, -0.74536425, 5.2893343, 8.179864, -0.03311217, 0.016976833, 9.769412
94422584273232, -0.56829536, 5.605187, 8.384451, 0.2205081, 0.058248043, 10.098915
94422593913023, -0.9296116, 4.8993044, 8.05783, -0.3372147, -0.11039662, 9.469429
94422603552711, -0.6125626, 5.9676995, 8.505288, 0.32269216, 0.27322435, 10.399511
94422613192503, -1.018146, 4.7688956, 8.313862, -0.5317097, -0.2828884, 9.619593
94422622832190, -0.6723832, 6.053841, 8.550752, 0.29179323, 0.34120798, 10.488799
94422632471982, -0.88295156, 4.8394837, 8.398808, -0.3921876, -0.33657813, 9.719726
94422642111669, -0.6329016, 5.8061843, 8.410771, 0.2595452, 0.21925592, 10.234158
94422651751461, -0.6628119, 5.174479, 8.453842, -0.0579381, -0.23628712, 9.930902
94422661391148, -0.69152576, 5.349155, 8.216953, 0.037955403, 0.017316818, 9.82895
94422671030940, -0.4977071, 5.5573306, 8.370093, 0.2675104, 5.6409836E-4, 10.055772
94422680670628, -0.8446664, 4.9028935, 8.069795, -0.26605237, -0.15524149, 9.475154
94422690310419, -0.53359944, 5.933004, 8.4347, 0.38467383, 0.2539258, 10.315861
94422699950211, -0.90448695, 4.729414, 8.179864, -0.41998625, -0.30837083, 9.47756
94422709589898, -0.6329016, 6.0394845, 8.407183, 0.33661628, 0.3923216, 10.358061
94422719229690, -0.9738788, 4.814359, 8.263613, -0.45187867, -0.25422716, 9.599217
94422728869378, -0.6939186, 5.8803616, 8.37129, 0.23853636, 0.32249928, 10.245867
94422738509169, -0.6975078, 5.1326046, 8.428718, -0.109687686, -0.24700928, 9.889409
94422748148857, -0.80997044, 5.416154, 8.274381, -0.04778278, 0.090400696, 9.92198
94422757788648, -0.64845496, 5.541777, 8.413164, 0.11992252, 0.031668186, 10.094441
94422767428336, -0.8279166, 5.0045886, 8.086544, -0.2094425, -0.095636845, 9.543089
94422777068128, -0.49292147, 5.899504, 8.505288, 0.39992332, 0.13900423, 10.35412
94422786707815, -0.9403793, 4.7377887, 8.246863, -0.4725933, -0.29417658, 9.5410595
94422796347607, -0.5419743, 6.0526447, 8.478967, 0.44016838, 0.29245567, 10.418343
94422805987294, -0.8039884, 4.782056, 8.216953, -0.33027244, -0.31555128, 9.530169
94422815627086, -0.64247286, 5.8504515, 8.268398, 0.30738866, 0.30897284, 10.1398735
94422825266773, -0.74895346, 5.0847483, 8.329415, -0.16508222, -0.19261765, 9.784191
94422834906565, -0.7752745, 5.4795637, 8.120044, 0.05051613, 0.1925571, 9.824568
94422844546253, -0.62452674, 5.4999027, 8.276773, 0.15054059, 0.048845768, 9.955847
94422854186044, -0.8662018, 5.023731, 8.068598, -0.23294139, -0.060879946, 9.541094
94422863825732, -0.552742, 5.866005, 8.52443, 0.32127786, 0.15988445, 10.356288
94422873465523, -0.9272188, 4.7712884, 8.3377905, -0.45609653, -0.33940554, 9.634338
94422883105211, -0.57188463, 6.02752, 8.605786, 0.35213447, 0.24482346, 10.5135
94422892745003, -0.8673982, 4.7629137, 8.343773, -0.40505958, -0.38506937, 9.630363
94422902384690, -0.59940207, 5.9246287, 8.397611, 0.3340056, 0.2848115, 10.285314
94422912024482, -0.7645068, 5.0572305, 8.419147, -0.20737147, -0.2568214, 9.845463
94422921664169, -0.7752745, 5.5453663, 8.289934, 0.031148553, 0.15802336, 10.0024605
94422931303961, -0.64845496, 5.4388857, 8.384451, 0.0782696, -0.033122063, 10.014677
94422940943753, -0.8458628, 5.0979085, 7.975278, -0.1580013, 0.028628826, 9.50176
94422950583440, -0.573081, 5.8265233, 8.3581295, 0.3262576, 0.21648741, 10.197146
94422960223232, -0.96550393, 4.749753, 8.135597, -0.45745564, -0.22927475, 9.456133
94422969862919, -0.573081, 6.020342, 8.488539, 0.3884946, 0.27441168, 10.411627
94422979502711, -0.86261255, 4.7545385, 8.244471, -0.39522922, -0.33472753, 9.542158
94422989142398, -0.5491528, 5.9557357, 8.323434, 0.41407645, 0.3211422, 10.236078
94422998782190, -0.75493556, 4.985446, 8.355737, -0.22144568, -0.28113437, 9.752685
94423008421878, -0.7082755, 5.6063833, 8.262417, 0.12259066, 0.18028355, 10.007656
94423018061669, -0.65682983, 5.40419, 8.46102, 0.03776586, -0.08824539, 10.060635
94423027701357, -0.8781659, 5.1254263, 8.154739, -0.21200955, -0.02499628, 9.6693
94423037341148, -0.6029913, 5.790631, 8.463413, 0.25812793, 0.15938807, 10.268024
94423046980836, -0.9810573, 4.796413, 8.220542, -0.45177436, -0.25514054, 9.553855
94423056620628, -0.613759, 6.02752, 8.602198, 0.3181914, 0.26825047, 10.513435
94423066260315, -0.91884387, 4.7306104, 8.360522, -0.4554217, -0.39349484, 9.631149
94423075900107, -0.56470615, 5.959325, 8.405986, 0.3785509, 0.28979683, 10.308529
94423085539794, -0.74536425, 4.9543395, 8.27797, -0.19547534, -0.2662704, 9.670404
94423095179586, -0.64008003, 5.6578293, 8.142776, 0.2409085, 0.23706627, 9.930323
94423104819273, -0.59700924, 5.355137, 8.30788, 0.09652436, -0.079814434, 9.901469
94423114459065, -0.81834537, 5.17089, 8.060223, -0.121234775, 0.029812098, 9.61038
94423124098857, -0.55513483, 5.749953, 8.41795, 0.29035914, 0.12665796, 10.204492
94423133738544, -0.9499506, 4.8059845, 8.179864, -0.42736173, -0.21967149, 9.522562
94423143378232, -0.56470615, 6.020342, 8.46461, 0.39946818, 0.28886032, 10.3908615
94423153018023, -0.9882358, 4.7018967, 8.258827, -0.5234995, -0.3230307, 9.534898
94423162657815, -0.64965135, 5.989235, 8.46102, 0.30730808, 0.31919336, 10.377165
94423172297503, -0.86141616, 4.9052863, 8.478967, -0.3561411, -0.35095596, 9.820731
94423181937294, -0.74416786, 5.690132, 8.445468, 0.10101175, 0.16988039, 10.2087345
94423191576982, -0.6879365, 5.319245, 8.493324, -0.023068905, -0.14710665, 10.044003
94423201216773, -0.79920274, 5.2666025, 8.154739, -0.075499296, 0.037917137, 9.7400465
94423210856461, -0.4761717, 5.76431, 8.343773, 0.39107823, 0.12368393, 10.1441765
94423220496253, -0.8578269, 4.834698, 8.088937, -0.3089999, -0.20612144, 9.455322
94423230135940, -0.50488555, 5.9880385, 8.462217, 0.44551265, 0.23333454, 10.366664
94423239775732, -0.92602235, 4.6911287, 8.157132, -0.45392108, -0.29948258, 9.439666
94423249415419, -0.64247286, 5.9617176, 8.3174515, 0.3417189, 0.35446262, 10.241703
94423259055211, -0.9020941, 4.87418, 8.240881, -0.3657198, -0.22525859, 9.607239
94423268694898, -0.7501499, 5.7523456, 8.300702, 0.15881848, 0.27179337, 10.121994
94423278334690, -0.7178468, 5.3096733, 8.508878, -0.06801903, -0.15231895, 10.05391
94423287974482, -0.83988076, 5.2941203, 8.270791, -0.12698805, 0.017416, 9.855083
94423297614169, -0.55513483, 5.692525, 8.537591, 0.24212098, 0.027902126, 10.273465
94423307253961, -0.8578269, 4.8861437, 8.242078, -0.32650232, -0.2420106, 9.611293
94423316893648, -0.4989035, 5.959325, 8.537591, 0.41621172, 0.1846466, 10.413723
94423326533440, -0.90089774, 4.6935215, 8.195417, -0.4304098, -0.338624, 9.471311
94423336173128, -0.56590253, 6.0011992, 8.299505, 0.41903532, 0.36727858, 10.242361
94423345812919, -0.8709874, 4.847859, 8.212168, -0.34199739, -0.24770689, 9.5667
94423355452607, -0.72023964, 5.782256, 8.319844, 0.18222487, 0.2773099, 10.151993
94423365092398, -0.6831509, 5.241478, 8.441878, -0.056917906, -0.17799759, 9.958422
94423374732086, -0.79800636, 5.343173, 8.1942215, -0.052974105, 0.07541847, 9.814434
94423384371878, -0.57906306, 5.6530433, 8.43111, 0.22443211, 0.06146097, 10.164727
94423394011565, -0.8889336, 4.932804, 8.143971, -0.3075565, -0.14821672, 9.556698
94423403651357, -0.49172506, 5.9497533, 8.551949, 0.40603757, 0.16364622, 10.420439
94423413291148, -0.9296116, 4.688736, 8.267202, -0.47468138, -0.3653748, 9.530806
94423422930836, -0.53240305, 6.0167527, 8.408379, 0.43230784, 0.32290792, 10.338978
94423432570628, -0.7968099, 4.8059845, 8.267202, -0.31203306, -0.3366561, 9.584797
94423442210315, -0.69152576, 5.7870417, 8.313862, 0.21251202, 0.28175783, 10.147108
94423451850107, -0.7968099, 5.1756754, 8.415557, -0.17503369, -0.15199757, 9.909104
94423461489794, -0.8111669, 5.407779, 8.210971, -0.04292631, 0.11794758, 9.864399
94423471129586, -0.5922236, 5.6099725, 8.440681, 0.19155872, 0.03972864, 10.150338
94423480769273, -0.9272188, 4.975875, 8.17149, -0.32950068, -0.10837269, 9.605831
94423490409065, -0.52522457, 5.9676995, 8.545966, 0.3949721, 0.20111084, 10.427196
94423500048857, -0.82911307, 4.749753, 8.26122, -0.3782462, -0.35314703, 9.551312
94423509688544, -0.45583272, 6.017949, 8.423932, 0.5012616, 0.2523713, 10.347521
94423519328336, -0.77766734, 4.76411, 8.200203, -0.30602813, -0.34956837, 9.504156
94423528968023, -0.6436693, 5.7930236, 8.239685, 0.26907563, 0.29079294, 10.085084
94423538607815, -0.7932207, 5.113462, 8.2348995, -0.16264904, -0.11710882, 9.723687
94423548247503, -0.84107715, 5.4317074, 8.106883, -0.02825737, 0.1985178, 9.792458
94423557887294, -0.7286145, 5.572884, 8.395218, 0.069586396, 0.099476814, 10.102121
94423567526982, -0.99661064, 5.038088, 8.285149, -0.37805712, -0.08743572, 9.740057
94423577166773, -0.60059845, 5.938986, 8.785249, 0.26152635, 0.10934067, 10.617558
94423586806565, -0.90089774, 4.7653065, 8.495717, -0.46052957, -0.43318176, 9.762031
94423596446253, -0.44147578, 6.068198, 8.578269, 0.50932527, 0.23632574, 10.501875
94423606086044, -0.7896315, 4.7676992, 8.202596, -0.30185676, -0.3407066, 9.509461
94423615725732, -0.5802595, 5.838487, 8.213364, 0.3649851, 0.3130865, 10.082298
94423625365523, -0.68195444, 5.0392847, 8.27797, -0.096129775, -0.23477268, 9.711843
94423635005211, -0.7752745, 5.444868, 8.213364, 0.012620211, 0.13103771, 9.883808
94423644645003, -0.6831509, 5.4987063, 8.360522, 0.08536112, 0.048630714, 10.029513
94423654284794, -0.86261255, 5.042874, 8.043473, -0.20952177, -0.028036118, 9.530344
94423663924482, -0.56470615, 5.881558, 8.4909315, 0.32964015, 0.1968422, 10.337318
94423673564273, -0.971486, 4.7748775, 8.288737, -0.47957873, -0.2858243, 9.598682
94423683203961, -0.56111693, 6.026324, 8.538788, 0.38394547, 0.27714348, 10.45553
94423692843753, -0.82672024, 4.76411, 8.257631, -0.33441746, -0.3540156, 9.556752
94423702483440, -0.59940207, 5.8911295, 8.35454, 0.34216297, 0.29435205, 10.230313
94423712123232, -0.80757767, 5.0081778, 8.4347, -0.25347936, -0.26970077, 9.8357115
94423721763023, -0.80159557, 5.5310097, 8.338987, -0.002823472, 0.14488888, 10.037546
94423731402711, -0.5886344, 5.453243, 8.4682, 0.12510455, -0.07913208, 10.088254
94423741042503, -0.88414794, 5.0859447, 8.157132, -0.23042929, -0.036897182, 9.6505375
94423750682190, -0.6161518, 5.8468623, 8.458628, 0.27591586, 0.22142792, 10.295079
94423760321982, -0.9176475, 4.7784667, 8.216953, -0.40486228, -0.27635527, 9.536972
94423769961773, -0.50368917, 6.0311093, 8.484949, 0.45924985, 0.28084087, 10.408293
94423779601461, -0.81834537, 4.712664, 8.191829, -0.34476435, -0.35301733, 9.473198
94423789241253, -0.54675996, 5.9150577, 8.297112, 0.41289818, 0.30999756, 10.191288
94423798880940, -0.7537391, 4.9495535, 8.299505, -0.21602082, -0.27297258, 9.686424
94423808520732, -0.7513463, 5.5776696, 8.226524, 0.09569824, 0.20747614, 9.964861
94423818160419, -0.70588267, 5.407779, 8.364112, 0.026368976, -0.0038251877, 9.98499
94423827800211, -0.93320084, 5.1649075, 8.100901, -0.22209144, 0.06672859, 9.649765
94423837440003, -0.695115, 5.7966127, 8.512466, 0.18207622, 0.18552017, 10.318839
94423847079690, -1.0229317, 4.8191447, 8.32463, -0.50968957, -0.23874426, 9.656771
94423856719482, -0.4534399, 6.056234, 8.636893, 0.48932683, 0.19088888, 10.545312
94423866359273, -0.78723866, 4.725825, 8.376076, -0.35024762, -0.44872046, 9.632642
94423875998961, -0.5300102, 5.948557, 8.472985, 0.4037602, 0.24774313, 10.355353
94423885638753, -0.76570326, 4.930411, 8.4012, -0.2511567, -0.3171656, 9.7627735
94423895278440, -0.67477596, 5.642276, 8.285149, 0.17803705, 0.19390345, 10.043157
94423904918232, -0.6831509, 5.346762, 8.355737, 0.018681884, -0.045454025, 9.943364
94423914558023, -0.95712906, 5.1661043, 8.020741, -0.22461128, 0.13218856, 9.584836
94423924197711, -0.62811595, 5.753542, 8.292327, 0.26876938, 0.23568678, 10.106071
94423933837503, -0.8853444, 4.82752, 8.098508, -0.34337604, -0.18559742, 9.461621
94423943477190, -0.54675996, 5.99761, 8.506484, 0.40637648, 0.26154232, 10.4113865
94423953116982, -0.910469, 4.712664, 8.26481, -0.449816, -0.33128643, 9.541129
94423962756773, -0.5479564, 5.98086, 8.441878, 0.40833795, 0.29496288, 10.348068
94423972396461, -0.7429714, 4.9064827, 8.382058, -0.23462462, -0.3402133, 9.732096
94423982036253, -0.64606214, 5.6985073, 8.389236, 0.202119, 0.17382431, 10.158671
94423991675940, -0.69272214, 5.3036914, 8.507681, -0.03892088, -0.14608908, 10.0482235
94424001315732, -0.85902333, 5.239085, 8.196614, -0.14841247, 0.042932034, 9.764555
94424010955523, -0.57906306, 5.7116675, 8.422736, 0.2599709, 0.12937832, 10.189044
94424020595211, -0.95353985, 4.8287163, 8.190632, -0.41284657, -0.1924882, 9.544879
94424030235003, -0.5886344, 5.9820566, 8.55793, 0.34930336, 0.26159382, 10.448885
94424039874794, -0.91405827, 4.694718, 8.257631, -0.4639119, -0.33324003, 9.525654
94424049514482, -0.5288138, 5.986842, 8.411968, 0.43264222, 0.3157196, 10.324547
94424059154273, -0.77407813, 4.87418, 8.286345, -0.2569828, -0.28997278, 9.636919
94424068794065, -0.65084773, 5.7200427, 8.311469, 0.22077727, 0.24040413, 10.10527
94424078433753, -0.6831509, 5.24746, 8.462217, -0.042966604, -0.16177082, 9.979161
94424088073544, -0.8243274, 5.2642097, 8.190632, -0.10622692, 0.05140829, 9.770566
94424097713232, -0.573081, 5.6650076, 8.432307, 0.23797119, 0.10346174, 10.171391
94424107353023, -0.87338024, 4.8765726, 8.159525, -0.3063023, -0.19398117, 9.538875
94424116992815, -0.59342, 5.9473605, 8.508878, 0.3298272, 0.28016663, 10.389273
94424126632503, -0.9942178, 4.7018967, 8.22772, -0.50372446, -0.3001337, 9.510408
94424136272294, -0.5515456, 6.0083776, 8.408379, 0.42552984, 0.34669256, 10.334619
94424145912086, -0.8243274, 4.8358946, 8.340183, -0.32206655, -0.32167053, 9.665239
94424155551773, -0.6843473, 5.7750773, 8.425129, 0.19757545, 0.23069715, 10.232809
94424165191565, -0.6987042, 5.206782, 8.530413, -0.0917691, -0.20967865, 10.015704
94424174831357, -0.701097, 5.339584, 8.23131, 0.0291816, 0.03291607, 9.836424
94424184471044, -0.47377887, 5.601598, 8.449057, 0.29699337, -0.004113674, 10.143997
94424194110836, -0.88295156, 4.8993044, 8.12124, -0.30753684, -0.13711786, 9.519662
94424203750628, -0.5084748, 5.938986, 8.455039, 0.4178952, 0.25533104, 10.333342
94424213390315, -0.94636136, 4.7162533, 8.160722, -0.44570947, -0.25757647, 9.458912
94424223030107, -0.6364908, 5.985646, 8.383254, 0.34238017, 0.39306545, 10.307294
94424232669898, -0.91525465, 4.8047876, 8.319844, -0.41971302, -0.28604746, 9.637712
94424242309586, -0.70229346, 5.800202, 8.384451, 0.20084321, 0.28390408, 10.213405
94424251949378, -0.7405786, 5.17089, 8.469396, -0.13757968, -0.18248844, 9.948114
94424261589169, -0.79920274, 5.3886366, 8.316256, -0.05021918, 0.078326225, 9.941206
94424271228857, -0.5515456, 5.5597234, 8.502895, 0.19914484, -0.028388023, 10.172192
94424280868648, -0.75972116, 4.938786, 8.208578, -0.2037648, -0.20664263, 9.605484
94424290508440, -0.43070808, 5.892326, 8.56152, 0.4448458, 0.12665701, 10.391857
94424300148128, -0.90329057, 4.7174497, 8.269595, -0.4359889, -0.3323412, 9.54756
94424309787919, -0.59342, 5.989235, 8.440681, 0.37040353, 0.34615993, 10.354283
94424319427711, -0.9092726, 4.7784667, 8.219346, -0.39032733, -0.2647581, 9.539169
94424329067398, -0.71425754, 5.864808, 8.27797, 0.23825502, 0.398551, 10.159494
94424338707190, -0.78723866, 5.1349974, 8.348558, -0.1584686, -0.12743282, 9.83082
94424348346982, -0.77407813, 5.4520464, 8.221739, 0.0148791075, 0.15414858, 9.894293
94424357986669, -0.5838487, 5.5429735, 8.484949, 0.16798568, -0.002942562, 10.150448
94424367626461, -0.8279166, 5.0165524, 8.191829, -0.21879828, -0.115353584, 9.638265
94424377266253, -0.46660042, 5.8935223, 8.559127, 0.41336334, 0.1495738, 10.393109
94424386905940, -0.93320084, 4.7377887, 8.356933, -0.4668188, -0.35478067, 9.633901
94424396545732, -0.634098, 5.994021, 8.555537, 0.31658745, 0.30539846, 10.456295
94424406185523, -0.89013004, 4.709075, 8.249256, -0.42066133, -0.326303, 9.525468
94424415825315, -0.5778667, 5.8229337, 8.250452, 0.35345387, 0.29410934, 10.104405
94424425465003, -0.7848458, 5.0309095, 8.287541, -0.1875633, -0.1785698, 9.723288
94424435104794, -0.7716853, 5.5094743, 8.190632, 0.061362505, 0.19972086, 9.899121
94424444744586, -0.6029913, 5.5250273, 8.46461, 0.15371466, -0.009985447, 10.12499
94424454384273, -0.8446664, 5.076373, 8.219346, -0.21224892, -0.07910824, 9.694812
94424464024065, -0.55034924, 5.8672013, 8.612965, 0.31838524, 0.13179064, 10.430309
94424473663857, -0.9619147, 4.770092, 8.288737, -0.47555304, -0.26285267, 9.596195
94424483303544, -0.55513483, 5.7750773, 8.456235, 0.3049059, 0.14647388, 10.249544
94424492943336, -0.76331043, 5.2199426, 8.331808, -0.10182822, -0.06850958, 9.860749
94424502583128, -0.6867401, 5.3814583, 8.37129, 0.031516075, -0.01651287, 9.975417
94424512222919, -0.74416786, 5.337191, 8.365308, -0.03416896, -0.0141716, 9.950699
94424521862607, -0.84347, 5.35753, 8.318648, -0.09732485, 0.07578468, 9.929716
94424531502398, -0.8709874, 5.359923, 8.352147, -0.12643886, 0.076192856, 9.961123
94424541142190, -0.73459655, 5.3850474, 8.437093, -0.019862413, -0.01934576, 10.03604
94424550781878, -0.6759724, 5.395815, 8.453842, 0.028665066, -0.05092907, 10.051657
94424560421669, -0.6125626, 5.407779, 8.349754, 0.11210108, -0.025807858, 9.966166
94424570061461, -0.58624154, 5.4149575, 8.250452, 0.15936804, 0.0133214, 9.884829
94424579701253, -0.59581286, 5.377869, 8.240881, 0.13555586, -0.002688408, 9.857495
94424589340940, -0.6687939, 5.377869, 8.263613, 0.06709051, 0.025156021, 9.881849
94424598980732, -0.73100734, 5.319245, 8.318648, -0.027568102, -0.007309437, 9.900901
94424608620523, -0.73459655, 5.334798, 8.283952, -0.011227131, 0.021810532, 9.880434
94424618260315, -0.75254273, 5.3156557, 8.306684, -0.040224314, 0.008118153, 9.89049
94424627900003, -0.80518484, 5.3312087, 8.390432, -0.0960536, 0.007446766, 9.972974
94424637539794, -0.8063812, 5.3647084, 8.467003, -0.099262, -0.004916668, 10.055379
94424647179586, -0.76331043, 5.375476, 8.49452, -0.062183857, -0.034022808, 10.0811825
94424656819273, -0.7537391, 5.4089756, 8.474181, -0.03269744, -0.0065398216, 10.081457
94424666459065, -0.71665037, 5.419743, 8.379665, 0.027318, 0.02330017, 10.005235
94424676098857, -0.70588267, 5.4017973, 8.271988, 0.052611828, 0.055555344, 9.904425
94424685738648, -0.74177504, 5.386244, 8.256434, 0.016722083, 0.071248055, 9.885604
94424695378336, -0.70229346, 5.3814583, 8.267202, 0.0456717, 0.04154873, 9.889194
94424705018128, -0.64008003, 5.3312087, 8.347362, 0.054175377, -0.063848495, 9.924865
94424714657919, -0.68075806, 5.316852, 8.403593, -0.0010688305, -0.07649708, 9.96729
94424724297711, -0.76570326, 5.3276196, 8.409575, -0.06875515, -0.024831295, 9.98426
94424733937398, -0.73818576, 5.3479586, 8.350951, -0.021677732, 0.0034723282, 9.944018
94424743577190, -0.6723832, 5.377869, 8.267202, 0.0678879, 0.030688763, 9.885074
94424753216982, -0.6963114, 5.380262, 8.240881, 0.052939177, 0.05676794, 9.866012
94424762856773, -0.75254273, 5.3850474, 8.267202, 0.0016466379, 0.07634735, 9.894739
94424772496565, -0.72382885, 5.3814583, 8.348558, 0.00493896, 0.018556595, 9.959022
94424782136253, -0.71306115, 5.3706903, 8.445468, -0.011190057, -0.04233408, 10.033783
94424791776044, -0.75613195, 5.3443694, 8.5016985, -0.073467255, -0.06580448, 10.069914
94424801415836, -0.8243274, 5.346762, 8.518449, -0.13257074, -0.037091732, 10.090212
94424811055523, -0.7680961, 5.369494, 8.4909315, -0.064189315, -0.03771448, 10.075308
94424820695315, -0.6891329, 5.3766723, 8.408379, 0.025900722, -0.03345108, 10.0041275
94424830335107, -0.701097, 5.3886366, 8.3581295, 0.031103969, 0.0057621, 9.969267
94424839974898, -0.7393822, 5.3886366, 8.268398, 0.018804908, 0.06947422, 9.896733
94424849614690, -0.7369894, 5.3766723, 8.257631, 0.016242623, 0.06504297, 9.881082
94424859254378, -0.7298109, 5.3623157, 8.26481, 0.012025356, 0.046819687, 9.878857
94424868894169, -0.76570326, 5.3515477, 8.311469, -0.034362316, 0.034566402, 9.914813
94424878533961, -0.7118647, 5.365905, 8.352147, 0.008915067, -0.0034394264, 9.952787
94424888173753, -0.6843473, 5.3563333, 8.376076, 0.022812366, -0.037015438, 9.96571
94424897813440, -0.71665037, 5.389833, 8.384451, 0.009622812, -0.001288414, 9.993139
94424907453232, -0.715454, 5.375476, 8.35454, 0.010769248, 0.0028128624, 9.960213
94424917093023, -0.73340017, 5.3623157, 8.3784685, -0.016517162, -0.00814724, 9.974503
94424926732815, -0.7286145, 5.346762, 8.380861, -0.021755695, -0.020519257, 9.967782
94424936372607, -0.72741807, 5.3623157, 8.365308, -0.010163546, -0.0015277863, 9.963022
94424946012294, -0.73340017, 5.3611193, 8.344969, -0.011802673, 0.011379719, 9.945739
94424955652086, -0.7429714, 5.383851, 8.313862, -0.0017631054, 0.04734707, 9.932569
94424965291878, -0.72023964, 5.3922257, 8.325827, 0.017153144, 0.03574896, 9.945485
94424974931669, -0.7178468, 5.3742795, 8.347362, 0.004906893, 0.011186123, 9.953717
94424984571461, -0.7046863, 5.38744, 8.352147, 0.020664573, 0.0116586685, 9.963879
94424994211148, -0.68075806, 5.3706903, 8.327023, 0.038998842, 0.0012664795, 9.932046
94425003850940, -0.66759753, 5.3407803, 8.321041, 0.03708899, -0.021615028, 9.909969
94425013490732, -0.695115, 5.3479586, 8.35454, 0.009364963, -0.01935625, 9.94393
94425023130523, -0.77647096, 5.3563333, 8.384451, -0.06383908, 0.015394211, 9.979376
94425032770315, -0.7501499, 5.346762, 8.362915, -0.040562034, 0.0067396164, 9.954257
94425042410003, -0.67836523, 5.377869, 8.333005, 0.042132854, 0.0075235367, 9.940763
94425052049794, -0.721436, 5.383851, 8.35454, 0.0027971268, 0.02273655, 9.965147
94425061689586, -0.73818576, 5.377869, 8.353344, -0.015155077, 0.02711153, 9.962116
94425071329378, -0.7393822, 5.35753, 8.362915, -0.027370095, 0.007753849, 9.959284
94425080969169, -0.71425754, 5.3742795, 8.364112, 0.0016156435, 0.005162716, 9.967516
94425090608857, -0.69272214, 5.386244, 8.356933, 0.02704382, 0.0059170723, 9.966395
94425100248648, -0.65682983, 5.3970113, 8.3174515, 0.07111359, 0.014829159, 9.936492
94425109888440, -0.66041905, 5.3647084, 8.312666, 0.05301428, -0.0044927597, 9.915334
94425119528232, -0.67118675, 5.334798, 8.313862, 0.02888918, -0.020653248, 9.900988
94425129168023, -0.74895346, 5.3144593, 8.384451, -0.06363857, -0.028598309, 9.954826
94425138807815, -0.7860422, 5.334798, 8.413164, -0.09224999, -0.009273529, 9.992531
94425148447503, -0.7405786, 5.3682976, 8.402397, -0.03512311, -0.004565239, 9.998305
94425158087294, -0.75254273, 5.380262, 8.38804, -0.036073565, 0.016110897, 9.993559
94425167727086, -0.7704889, 5.4113684, 8.350951, -0.027290702, 0.061530113, 9.980501
94425177366878, -0.72382885, 5.4053864, 8.353344, 0.008915782, 0.029607773, 9.975947
94425187006669, -0.63170516, 5.406583, 8.344969, 0.08849776, -0.015426636, 9.962963
94425196646357, -0.6041877, 5.373083, 8.316256, 0.10043049, -0.03847885, 9.918852
94425206286148, -0.6364908, 5.352744, 8.344969, 0.0546453, -0.04827404, 9.934294
94425215925940, -0.69152576, 5.343173, 8.335398, 0.0054181814, -0.021565437, 9.925022
94425225565732, -0.73459655, 5.3443694, 8.335398, -0.0317899, 0.0030088425, 9.928734
94425235205523, -0.721436, 5.369494, 8.29113, 0.0013921261, 0.034069538, 9.904222
94425244845315, -0.76689965, 5.377869, 8.251649, -0.024206161, 0.08213377, 9.878866
94425254485003, -0.7968099, 5.400601, 8.237292, -0.035104156, 0.11932087, 9.881242
94425264124794, -0.77766734, 5.413761, 8.209774, -0.0073372126, 0.13173246, 9.863903
94425273764586, -0.74416786, 5.3910294, 8.283952, -0.0065449476, 0.060589314, 9.911464
94425283404378, -0.75254273, 5.3814583, 8.397611, -0.04308927, 0.0019207001, 10.002221
94425293044169, -0.7477571, 5.3766723, 8.452646, -0.052102327, -0.028383255, 10.04547
94425302683961, -0.65084773, 5.3587265, 8.458628, 0.01934719, -0.095048904, 10.033869
94425312323648, -0.61854464, 5.393422, 8.405986, 0.07710862, -0.06086111, 10.006126
94425321963440, -0.65922266, 5.369494, 8.374879, 0.038185835, -0.039698124, 9.970036
94425331603232, -0.695115, 5.3766723, 8.346166, 0.016355753, -8.049011E-4, 9.952387
94425341243023, -0.721436, 5.359923, 8.3784685, -0.023227572, -0.011870384, 9.972326
94425350882815, -0.721436, 5.359923, 8.35454, -0.016937256, 4.2390823E-4, 9.952251
94425360522607, -0.7393822, 5.383851, 8.323434, -0.013852239, 0.041582108, 9.940331
94425370162398, -0.72263247, 5.3706903, 8.26481, 0.008620143, 0.050699234, 9.882862
94425379802086, -0.69272214, 5.3814583, 8.2660055, 0.039284825, 0.04147005, 9.887545
94425389441878, -0.7262217, 5.355137, 8.298309, -0.009671807, 0.022665024, 9.902841
94425399081669, -0.7465607, 5.349155, 8.323434, -0.035710216, 0.017160416, 9.922138
94425408721461, -0.66999036, 5.38744, 8.295917, 0.0540812, 0.014924526, 9.914255
94425418361253, -0.66041905, 5.3826547, 8.327023, 0.052882195, -0.009183884, 9.93708
94425428001044, -0.71425754, 5.386244, 8.441878, -0.01943469, -0.03141594, 10.039209
94425437640732, -0.77407813, 5.3706903, 8.517252, -0.0953151, -0.04727316, 10.098306
94425447280523, -0.8003992, 5.3682976, 8.534002, -0.11974335, -0.042882442, 10.112975
94425456920315, -0.72263247, 5.3886366, 8.40479, -0.01383388, -0.006324291, 10.009988
