timestamp_acc,device_acc_x,device_acc_y,device_acc_z,earth_acc_x,earth_acc_y,earth_acc_z
265611476039332, 0.33020952, 5.383851, 8.366505, 0.038873732, -0.008914471, 9.954481
265611485679645, 0.3062813, 5.3826547, 8.318648, 0.016837478, 0.016559124, 9.912928
265611495320061, 0.2739782, 5.3766723, 8.32463, -0.016123295, 0.009124756, 9.913768
265611504960374, 0.27876383, 5.4173503, 8.328219, -0.011416495, 0.040999413, 9.938955
265611514600686, 0.3062813, 5.426922, 8.353344, 0.015561789, 0.034122944, 9.966055
265611524240999, 0.29192436, 5.42094, 8.343773, 0.001303196, 0.03420353, 9.954355
265611533881416, 0.29910284, 5.389833, 8.338987, 0.008296281, 0.010334969, 9.933696
265611543521728, 0.27038896, 5.386244, 8.362915, -0.0216496, -0.005156994, 9.95101
265611553162041, 0.27876383, 5.3922257, 8.349754, -0.012231201, 0.007086754, 9.94344
265611562802353, 0.2943172, 5.386244, 8.359326, 0.0023353696, -0.004374981, 9.948696
265611572442770, 0.29192436, 5.3826547, 8.347362, 4.6628714E-4, -8.1157684E-4, 9.936631
265611582083082, 0.2739782, 5.395815, 8.353344, -0.017968357, 0.0072488785, 9.948258
265611591723395, 0.2943172, 5.4113684, 8.348558, 0.0031840205, 0.021722794, 9.953265
265611601363707, 0.29192436, 5.395815, 8.362915, 4.2155385E-4, 0.001308918, 9.956825
265611611004124, 0.2739782, 5.383851, 8.348558, -0.017381728, -9.813309E-4, 9.937759
265611620644436, 0.28953153, 5.3826547, 8.333005, -0.0012086928, 0.005926609, 9.924503
265611630284749, 0.28953153, 5.413761, 8.336594, -5.0112605E-4, 0.029453278, 9.944374
265611639925061, 0.30508488, 5.3946185, 8.334201, 0.0155264735, 0.013486385, 9.932447
265611649565478, 0.27876383, 5.3850474, 8.311469, -0.010002673, 0.018569946, 9.907398
265611659205791, 0.30269206, 5.3982077, 8.321041, 0.013380855, 0.023505688, 9.923269
265611668846103, 0.31585258, 5.4017973, 8.364112, 0.024200976, 0.0031561852, 9.961775
265611678486416, 0.29192436, 5.375476, 8.386844, -0.0014770627, -0.030687809, 9.965899
265611688126728, 0.25124636, 5.337191, 8.386844, -0.04224342, -0.061944485, 9.943955
265611697767145, 0.28115666, 5.3587265, 8.374879, -0.012862653, -0.0364213, 9.946463
265611707407457, 0.31226337, 5.4029937, 8.350951, 0.019987196, 0.012544155, 9.951265
265611717047770, 0.3182454, 5.407779, 8.321041, 0.027218103, 0.032722473, 9.928911
265611726688082, 0.27517462, 5.377869, 8.319844, -0.016468614, 0.009476185, 9.910431
265611736328499, 0.25962126, 5.386244, 8.346166, -0.033198148, 0.002465248, 9.93662
265611745968811, 0.27996024, 5.416154, 8.365308, -0.011027694, 0.016506195, 9.969507
265611755609124, 0.30388847, 5.4257255, 8.353344, 0.014031202, 0.029363155, 9.965347
265611765249436, 0.3074777, 5.400601, 8.372486, 0.016111791, -0.0023841858, 9.967914
265611774889853, 0.29192436, 5.375476, 8.329415, 0.0016851425, -7.214546E-4, 9.917667
265611784530166, 0.3062813, 5.373083, 8.298309, 0.017167509, 0.011799812, 9.890669
265611794170478, 0.3074777, 5.3850474, 8.301898, 0.018132359, 0.020125866, 9.900204
265611803810791, 0.29790643, 5.3982077, 8.3377905, 0.00669685, 0.012311459, 9.9372015
265611813451207, 0.27996024, 5.3766723, 8.338987, -0.011880547, -0.0056214333, 9.9260025
265611823091520, 0.2632105, 5.386244, 8.396415, -0.031173527, -0.027165413, 9.978926
265611832731832, 0.29312077, 5.375476, 8.423932, -0.0019167364, -0.051751614, 9.997081
265611842372145, 0.31345975, 5.4017973, 8.380861, 0.02074495, -0.006814003, 9.975773
265611852012561, 0.3074777, 5.400601, 8.349754, 0.015221447, 0.007991791, 9.948826
265611861652874, 0.2656033, 5.3982077, 8.3174515, -0.02599448, 0.022851944, 9.919173
265611871293186, 0.27876383, 5.400601, 8.310273, -0.012173295, 0.027311802, 9.914835
265611880933499, 0.29192436, 5.3994045, 8.262417, 0.002919525, 0.050662518, 9.874399
265611890573811, 0.3182454, 5.3982077, 8.274381, 0.028304905, 0.0416646, 9.884574
265611900214228, 0.30867413, 5.4185467, 8.305488, 0.016421497, 0.042241573, 9.921442
265611909854541, 0.28235307, 5.4221363, 8.327023, -0.010714516, 0.03393364, 9.940691
265611919494853, 0.28713873, 5.4089756, 8.40479, -0.00827235, -0.018330097, 9.99898
265611929135270, 0.29072794, 5.389833, 8.409575, -0.004796982, -0.0370636, 9.992718
265611938775582, 0.2739782, 5.3886366, 8.392825, -0.021129757, -0.028226376, 9.977511
265611948415895, 0.276371, 5.3718867, 8.350951, -0.017235756, -0.019656658, 9.93334
265611958056207, 0.27158538, 5.365905, 8.315059, -0.020910114, -0.005543232, 9.89982
265611967696520, 0.30149564, 5.4017973, 8.309076, 0.009329617, 0.026859283, 9.9151535
265611977336936, 0.31226337, 5.4089756, 8.301898, 0.020489067, 0.03568411, 9.9133415
265611986977249, 0.31226337, 5.4221363, 8.365308, 0.017291754, 0.01157999, 9.973716
265611996617561, 0.32422748, 5.4149575, 8.407183, 0.027357578, -0.017534256, 10.005326
265612006257874, 0.31465617, 5.3922257, 8.355737, 0.018773198, -0.009576321, 9.949523
265612015898291, 0.3278167, 5.3946185, 8.309076, 0.033768952, 0.01744461, 9.912048
265612025538603, 0.3278167, 5.3742795, 8.299505, 0.03293225, 0.0040950775, 9.892981
265612035178916, 0.31944183, 5.3886366, 8.316256, 0.023536742, 0.0068178177, 9.914583
265612044819228, 0.2883351, 5.40419, 8.334201, -0.008437723, 0.01109314, 9.93716
265612054459645, 0.27038896, 5.410172, 8.346166, -0.026616067, 0.009655476, 9.949912
265612064099957, 0.27158538, 5.413761, 8.344969, -0.02526924, 0.013498306, 9.9508915
265612073740270, 0.29312077, 5.4185467, 8.331808, -0.0030202568, 0.023466587, 9.94309
265612083380582, 0.3074777, 5.4185467, 8.315059, 0.011428684, 0.030000687, 9.92947
265612093020895, 0.28115666, 5.3910294, 8.292327, -0.014144868, 0.01982212, 9.894662
265612102661311, 0.27517462, 5.3826547, 8.298309, -0.020961493, 0.008435726, 9.894955
265612112301624, 0.30508488, 5.3850474, 8.325827, 0.0075511634, -0.006082535, 9.920237
265612121941936, 0.32422748, 5.4017973, 8.356933, 0.0255287, -0.009386063, 9.956009
265612131582249, 0.30867413, 5.3814583, 8.392825, 0.007915914, -0.04520893, 9.974607
265612141222666, 0.2739782, 5.369494, 8.360522, -0.025598943, -0.035847664, 9.939966
265612150862978, 0.28713873, 5.367101, 8.359326, -0.012494832, -0.037661552, 9.938058
265612160503291, 0.3074777, 5.42094, 8.344969, 0.009427965, 0.014358044, 9.955871
265612170143603, 0.31226337, 5.4376893, 8.280363, 0.017478883, 0.06266546, 9.910912
265612179784020, 0.31106696, 5.428118, 8.258827, 0.015828907, 0.064909935, 9.887619
265612189424332, 0.30987054, 5.419743, 8.243274, 0.014732271, 0.064255714, 9.869999
265612199064645, 0.29790643, 5.4125648, 8.268398, 0.0015757084, 0.043580055, 9.886814
265612208704957, 0.29312077, 5.413761, 8.305488, -0.005011916, 0.024647236, 9.918427
265612218345270, 0.31226337, 5.3910294, 8.35454, 0.012856752, -0.020816326, 9.947787
265612227985686, 0.317049, 5.389833, 8.409575, 0.015015364, -0.050869465, 9.993447
265612237625999, 0.32063824, 5.395815, 8.426325, 0.0175879, -0.054214478, 10.010861
265612247266311, 0.2656033, 5.395815, 8.409575, -0.036578, -0.042870045, 9.995157
265612256906624, 0.2739782, 5.3826547, 8.376076, -0.027893722, -0.03605938, 9.960152
265612266546936, 0.28713873, 5.407779, 8.318648, -0.011654735, 0.014531136, 9.92603
265612276187353, 0.3493521, 5.416154, 8.2456665, 0.053083748, 0.05529833, 9.871267
265612285827666, 0.32542387, 5.406583, 8.243274, 0.029228836, 0.04937458, 9.863333
265612295467978, 0.3385844, 5.400601, 8.246863, 0.040780813, 0.040097237, 9.8635
265612305108291, 0.32303107, 5.413761, 8.279166, 0.023163319, 0.03380537, 9.897276
265612314748707, 0.28953153, 5.4233327, 8.355737, -0.013483375, 0.0014605522, 9.965667
265612324389020, 0.27158538, 5.400601, 8.390432, -0.032677054, -0.036149025, 9.981846
265612334029332, 0.23928227, 5.4053864, 8.350951, -0.06311238, -0.009466171, 9.950365
265612343669645, 0.25244278, 5.40419, 8.325827, -0.04832995, 0.0029053688, 9.92905
265612353309957, 0.29910284, 5.413761, 8.350951, -0.0015980303, -0.0054798126, 9.956738
265612362950374, 0.34217364, 5.4376893, 8.34138, 0.041985333, 0.01859951, 9.963034
265612372590686, 0.36011982, 5.400601, 8.330612, 0.059975445, -0.0073361397, 9.934366
265612382230999, 0.32542387, 5.373083, 8.310273, 0.024971426, -0.020252705, 9.901291
265612391871311, 0.31106696, 5.3826547, 8.305488, 0.010779172, -0.009506226, 9.902053
265612401511624, 0.31106696, 5.4017973, 8.282756, 0.012027383, 0.018776417, 9.893417
265612411152041, 0.27876383, 5.4173503, 8.2660055, -0.019400418, 0.04163742, 9.886868
265612420792353, 0.22731815, 5.4113684, 8.298309, -0.07171759, 0.020066261, 9.909136
265612430432666, 0.2416751, 5.424529, 8.327023, -0.05730608, 0.014986515, 9.940809
265612440072978, 0.2883351, 5.430511, 8.343773, -0.010393649, 0.009572506, 9.959515
265612449713291, 0.3182454, 5.440082, 8.327023, 0.0208219, 0.025115967, 9.951584
265612459353603, 0.31226337, 5.4149575, 8.319844, 0.014538407, 0.008012295, 9.931707
265612468994020, 0.31944183, 5.389833, 8.32463, 0.019474357, -0.016798496, 9.922255
265612478634332, 0.33020952, 5.4173503, 8.327023, 0.030630678, 0.0048646927, 9.939571
265612488274645, 0.34097722, 5.416154, 8.311469, 0.042231947, 0.011655331, 9.926208
265612497914957, 0.3182454, 5.426922, 8.292327, 0.019787133, 0.032819748, 9.915341
265612507555270, 0.25244278, 5.2510495, 8.299505, -0.050599724, -0.116004944, 9.823595
265612517195686, 0.3385844, 5.608776, 8.335398, 0.03979668, 0.16020727, 10.051101
265612526835999, 0.16630118, 4.9459643, 8.316256, -0.13455538, -0.3790326, 9.668947
265612536476311, 0.38644084, 6.0418773, 8.465807, 0.08027732, 0.4513049, 10.3977585
265612546116624, 0.20578274, 4.6552362, 8.22772, -0.08816424, -0.5732715, 9.437824
265612555756936, 0.38644084, 6.215357, 8.504091, 0.08756477, 0.5717664, 10.524496
265612565397249, 0.2536392, 4.662415, 8.148758, -0.041884482, -0.5244796, 9.376986
265612575037666, 0.31465617, 6.02752, 8.445468, 0.021867365, 0.44664574, 10.37092
265612584677978, 0.31465617, 5.020142, 8.148758, 0.0110473335, -0.23682499, 9.573238
265612594318291, 0.26919255, 5.5453663, 8.4012, -0.032768786, 0.06852436, 10.069654
265612603958603, 0.40079778, 5.568098, 8.274381, 0.10838598, 0.15096855, 9.979739
265612613598916, 0.19501504, 5.015356, 8.23131, -0.11367762, -0.27597666, 9.636244
265612623239332, 0.40558344, 6.0215383, 8.386844, 0.123568416, 0.46598053, 10.321346
265612632879645, 0.22731815, 4.6552362, 8.215756, -0.08588728, -0.5787306, 9.427579
265612642519957, 0.42711884, 6.2285175, 8.505288, 0.14065611, 0.5819297, 10.533677
265612652160270, 0.2656033, 4.642076, 8.141579, -0.04336065, -0.5416274, 9.359993
265612661800582, 0.3182454, 6.0418773, 8.475378, 0.017080009, 0.43845415, 10.404089
265612671440895, 0.25722843, 4.9663033, 8.189436, -0.04719463, -0.2960801, 9.576394
265612681081207, 0.23928227, 5.6183476, 8.455039, -0.065724164, 0.09955692, 10.153646
265612690721624, 0.37088752, 5.495117, 8.27797, 0.07373619, 0.08901501, 9.942097
265612700361936, 0.17706887, 5.0249276, 8.222935, -0.12582979, -0.26928568, 9.633772
265612710002249, 0.38644084, 5.948557, 8.32463, 0.10202131, 0.44409657, 10.228708
265612719642561, 0.21655045, 4.694718, 8.233703, -0.10009369, -0.54782605, 9.464195
265612729282874, 0.44027936, 6.242874, 8.562716, 0.15183204, 0.5595498, 10.590151
265612738923186, 0.26679972, 4.6229334, 8.184649, -0.056371123, -0.5921099, 9.384956
265612748563603, 0.38763726, 6.099305, 8.452646, 0.097673774, 0.4913411, 10.41864
265612758203916, 0.32662028, 4.9399824, 8.082955, 0.02161473, -0.26644087, 9.4748535
265612767844228, 0.25722843, 5.692525, 8.362915, -0.045478046, 0.21120358, 10.117444
265612777484541, 0.34217364, 5.424529, 8.206185, 0.04351771, 0.06775284, 9.842641
265612787124853, 0.20219351, 5.123033, 8.254042, -0.10567367, -0.20664549, 9.713993
265612796765166, 0.42711884, 5.9318075, 8.355737, 0.13220748, 0.40499544, 10.247224
265612806405478, 0.20578274, 4.679165, 8.29113, -0.111803055, -0.5942185, 9.50338
265612816045895, 0.38883367, 6.1830535, 8.59143, 0.09015021, 0.4884138, 10.580517
265612825686207, 0.19980069, 4.601398, 8.19781, -0.12367907, -0.61052155, 9.382368
265612835326520, 0.32063824, 6.1184473, 8.462217, 0.03449121, 0.51893425, 10.434408
265612844966832, 0.2955136, 4.8861437, 8.087741, -0.0063957274, -0.3092656, 9.448683
265612854607145, 0.2955136, 5.74756, 8.398808, -3.877282E-4, 0.23472357, 10.178735
265612864247457, 0.36729828, 5.375476, 8.215756, 0.068223536, 0.025475979, 9.824663
265612873887770, 0.20697916, 5.188836, 8.257631, -0.09700981, -0.15072632, 9.753114
265612883528082, 0.40558344, 5.928218, 8.348558, 0.107999325, 0.4183731, 10.238163
265612893168499, 0.19740787, 4.743771, 8.281559, -0.105883405, -0.53252006, 9.530571
265612902808811, 0.39601216, 6.168697, 8.563912, 0.08556664, 0.50822306, 10.549152
265612912449124, 0.19740787, 4.59063, 8.22772, -0.105269745, -0.6369946, 9.4016695
265612922089436, 0.37686956, 6.141179, 8.506484, 0.080515414, 0.50496864, 10.485938
265612931729749, 0.29671, 4.8179483, 8.139186, -3.6144257E-4, -0.39236212, 9.454789
265612941370061, 0.2632105, 5.77747, 8.429914, -0.034817368, 0.24544954, 10.2201
265612951010374, 0.32542387, 5.300102, 8.193025, 0.027105033, -0.024162292, 9.763264
265612960650686, 0.19142582, 5.2510495, 8.244471, -0.10989031, -0.09196854, 9.775526
265612970290999, 0.37208393, 5.8468623, 8.260024, 0.08899227, 0.39127684, 10.118855
265612979931416, 0.16749759, 4.802395, 8.200203, -0.14903438, -0.4380741, 9.493168
265612989571728, 0.40917268, 6.15434, 8.484949, 0.11776468, 0.5269432, 10.475979
265612999212041, 0.22253251, 4.57747, 8.199007, -0.090583414, -0.63884497, 9.3707075
265613008852353, 0.41156548, 6.1794643, 8.5220375, 0.121331096, 0.51749563, 10.5213
265613018492666, 0.31585258, 4.790431, 8.155936, 0.0050687194, -0.43087983, 9.4541855
265613028132978, 0.32542387, 5.8420763, 8.458628, 0.02749306, 0.28277683, 10.281217
265613037773291, 0.3792624, 5.2666025, 8.185846, 0.07838389, -0.054745674, 9.740631
265613047413603, 0.21894327, 5.346762, 8.30788, -0.087162435, -0.046670437, 9.881644
265613057053916, 0.38763726, 5.790631, 8.27797, 0.10376316, 0.3307643, 10.103777
265613066694228, 0.13399807, 4.8119664, 8.2145605, -0.18776071, -0.4358821, 9.509298
265613076334645, 0.32303107, 6.13759, 8.516056, 0.041952193, 0.49842548, 10.490347
265613085974957, 0.148355, 4.578666, 8.233703, -0.18360746, -0.6498785, 9.398084
265613095615270, 0.36610186, 6.1651077, 8.550752, 0.0739764, 0.49119377, 10.536184
265613105255582, 0.30867413, 4.7198424, 8.166703, -0.0030599236, -0.49710894, 9.424443
265613114895895, 0.32662028, 5.9150577, 8.427522, 0.02468121, 0.359313, 10.295046
265613124536207, 0.34456646, 5.218746, 8.163115, 0.044770777, -0.08131075, 9.694424
265613134176520, 0.2548356, 5.3946185, 8.292327, -0.04832399, -0.008354187, 9.895813
265613143816832, 0.44027936, 5.729614, 8.199007, 0.13859889, 0.32200956, 10.006154
265613153457145, 0.2117648, 4.9052863, 8.177471, -0.08938296, -0.35281134, 9.531278
265613163097457, 0.41994038, 6.155536, 8.4813595, 0.10836199, 0.519711, 10.474664
265613172737770, 0.1902294, 4.6301117, 8.260024, -0.117412984, -0.62505007, 9.449742
265613182378082, 0.39361933, 6.204589, 8.53161, 0.08158812, 0.53238344, 10.542776
265613192018395, 0.28953153, 4.6803613, 8.129615, -0.012605637, -0.5127139, 9.371084
265613201658811, 0.33379877, 5.9318075, 8.476574, 0.01873833, 0.33685064, 10.345833
265613211299124, 0.317049, 5.0883374, 8.193025, 0.011873722, -0.21275043, 9.64738
265613220939436, 0.19621146, 5.453243, 8.368897, -0.11125067, 0.004096508, 9.990116
265613230579749, 0.3493521, 5.6745787, 8.26481, 0.04712984, 0.24191809, 10.028421
265613240220061, 0.16510476, 4.942375, 8.230113, -0.13762838, -0.35316706, 9.59403
265613249860374, 0.4319045, 6.1160545, 8.457432, 0.12245914, 0.5001583, 10.433392
265613259500686, 0.23808585, 4.638487, 8.22772, -0.066206664, -0.602782, 9.428675
265613269140999, 0.4223332, 6.209375, 8.5016985, 0.11331564, 0.5499706, 10.521325
265613278781311, 0.25962126, 4.679165, 8.096115, -0.049981892, -0.5056863, 9.3408165
265613288421624, 0.30269206, 6.0227346, 8.425129, -0.010217309, 0.44658947, 10.351242
265613298061936, 0.29910284, 5.0859447, 8.165507, -0.00219059, -0.19672298, 9.622531
265613307702249, 0.2117648, 5.5310097, 8.35454, -0.09591572, 0.06679249, 10.021057
265613317342561, 0.39361933, 5.6004014, 8.210971, 0.091130346, 0.20267391, 9.944349
265613326982874, 0.22971097, 4.991428, 8.216953, -0.072493434, -0.30769396, 9.611738
265613336623186, 0.44506502, 6.056234, 8.426325, 0.12799321, 0.47116566, 10.374998
265613346263499, 0.2117648, 4.651647, 8.29472, -0.09461045, -0.63103557, 9.490936
265613355903811, 0.41874397, 6.2201424, 8.590233, 0.10358393, 0.5092864, 10.601298
265613365544228, 0.2321038, 4.6576295, 8.146365, -0.072303474, -0.5420563, 9.370785
265613375184541, 0.31345975, 6.0598235, 8.4502535, 0.015803099, 0.46376133, 10.392841
265613384824853, 0.27996024, 5.0249276, 8.111669, -0.024942428, -0.21732092, 9.543562
265613394465166, 0.2656033, 5.593223, 8.3174515, -0.036792934, 0.14263725, 10.025617
265613404105478, 0.39840496, 5.5597234, 8.218149, 0.10116655, 0.15784693, 9.928347
265613413745791, 0.21774685, 5.0548377, 8.262417, -0.105109334, -0.27510786, 9.683986
265613423386103, 0.4534399, 6.020342, 8.453842, 0.15961164, 0.4087267, 10.3790655
265613433026416, 0.21655045, 4.6528435, 8.273184, -0.116760075, -0.6159296, 9.473564
265613442666728, 0.40797627, 6.2201424, 8.563912, 0.10725117, 0.53012085, 10.578501
265613452307041, 0.2416751, 4.6169515, 8.149954, -0.07626566, -0.579016, 9.351753
265613461947353, 0.33738798, 6.070591, 8.386844, 0.034730226, 0.4953375, 10.346909
265613471587666, 0.28953153, 4.9495535, 8.073383, -0.017045557, -0.261971, 9.4706135
265613481227978, 0.2955136, 5.6709895, 8.372486, -0.014441907, 0.1698575, 10.115182
265613490868291, 0.40079778, 5.508278, 8.222935, 0.09732345, 0.11456919, 9.904335
265613500508603, 0.23449662, 5.1290154, 8.280363, -0.07973081, -0.22812605, 9.740011
265613510148916, 0.4438686, 5.9724855, 8.414361, 0.14296314, 0.3978343, 10.319418
265613519789228, 0.21655045, 4.7102714, 8.301898, -0.11654347, -0.5919223, 9.528436
265613529429541, 0.4103691, 6.2081785, 8.57468, 0.10971671, 0.5112939, 10.581189
265613539069853, 0.20937198, 4.613362, 8.1679, -0.12107119, -0.590384, 9.36367
265613548710166, 0.35533416, 6.1292152, 8.349754, 0.064590156, 0.5607238, 10.348591
265613558350478, 0.21535404, 4.87418, 8.069795, -0.09655589, -0.33036852, 9.423755
265613567990791, 0.22492532, 5.672186, 8.411968, -0.08864617, 0.15021706, 10.146679
265613577631103, 0.37328035, 5.430511, 8.191829, 0.067825615, 0.06701708, 9.834974
265613587271416, 0.28115666, 5.204389, 8.329415, -0.03399086, -0.1951971, 9.823677
265613596911728, 0.47976094, 5.919843, 8.382058, 0.16732016, 0.37310743, 10.264814
265613606552041, 0.23330021, 4.741378, 8.215756, -0.079648525, -0.5162332, 9.474225
265613616192353, 0.424726, 6.212964, 8.506484, 0.1079683, 0.5559468, 10.527149
265613625832666, 0.21774685, 4.564309, 8.175078, -0.100454, -0.63810897, 9.343177
265613635472978, 0.32662028, 6.114858, 8.467003, 0.008265436, 0.5006628, 10.437317
265613645113291, 0.25004998, 4.8047876, 8.191829, -0.06748375, -0.4442916, 9.489605
265613654753707, 0.23928227, 5.7990055, 8.505288, -0.07815352, 0.21764898, 10.294278
265613664394020, 0.32183465, 5.3790655, 8.323434, 0.009987533, -0.04161644, 9.915424
265613674034332, 0.18185452, 5.245067, 8.362915, -0.13218583, -0.17180777, 9.870924
265613683674645, 0.41874397, 5.8564334, 8.336594, 0.112787485, 0.34652472, 10.190149
265613693314957, 0.22971097, 4.7784667, 8.166703, -0.07604836, -0.45679092, 9.453417
265613702955270, 0.45104706, 6.1902323, 8.413164, 0.13749418, 0.5852957, 10.437542
265613712595582, 0.2620141, 4.6061835, 8.092526, -0.049616367, -0.5619283, 9.298189
265613722235895, 0.39960137, 6.206982, 8.426325, 0.09334874, 0.5809989, 10.45672
265613731876207, 0.30388847, 4.8382874, 8.120044, -0.012376428, -0.3840413, 9.449278
265613741516520, 0.31226337, 5.858826, 8.469396, 9.0515614E-4, 0.27064896, 10.299552
265613751156832, 0.36370903, 5.267799, 8.260024, 0.046067417, -0.10911989, 9.802855
265613760797145, 0.2548356, 5.2905307, 8.383254, -0.06738046, -0.14897346, 9.914982
265613770437457, 0.4319045, 5.818148, 8.362915, 0.1249066, 0.2978778, 10.191732
265613780077770, 0.18424734, 4.802395, 8.286345, -0.1493175, -0.5021143, 9.564834
265613789718082, 0.41635114, 6.122037, 8.5112705, 0.11514419, 0.47346354, 10.48127
265613799358395, 0.19860429, 4.5535417, 8.17149, -0.12351021, -0.6527698, 9.333063
265613808998707, 0.3589234, 6.1998034, 8.467003, 0.05377844, 0.56838465, 10.484777
265613818639020, 0.23449662, 4.770092, 8.09133, -0.07855663, -0.428864, 9.385536
265613828279332, 0.27158538, 5.8863435, 8.445468, -0.03751141, 0.3187313, 10.292995
265613837919645, 0.33260235, 5.2019963, 8.226524, 0.018897414, -0.14329386, 9.737875
265613847559957, 0.23928227, 5.4173503, 8.331808, -0.074976325, -0.014465809, 9.940732
265613857200270, 0.41515473, 5.7966127, 8.297112, 0.112359494, 0.31403017, 10.124422
265613866840582, 0.20697916, 4.8658047, 8.219346, -0.11663306, -0.41691685, 9.544063
265613876480895, 0.4235296, 6.148358, 8.4347, 0.1261372, 0.53417206, 10.431902
265613886121207, 0.21774685, 4.6061835, 8.130812, -0.1119847, -0.58779263, 9.328258
265613895761520, 0.41156548, 6.209375, 8.420342, 0.11974871, 0.5950985, 10.452723
265613905401832, 0.30029923, 4.7282176, 8.037491, -0.019419521, -0.42945576, 9.320015
265613915042145, 0.38883367, 5.989235, 8.438289, 0.0869326, 0.4036832, 10.346804
265613924682457, 0.39720857, 5.191229, 8.239685, 0.076218516, -0.1597867, 9.745138
265613934322770, 0.21655045, 5.4388857, 8.413164, -0.106957525, -0.033316135, 10.019836
265613943963082, 0.30149564, 5.6267223, 8.362915, -0.013812244, 0.15127897, 10.082964
265613953603395, 0.13280165, 4.861019, 8.344969, -0.2016409, -0.47208643, 9.644797
265613963243707, 0.44745782, 6.111269, 8.549556, 0.13487601, 0.44714642, 10.508311
265613972884020, 0.23449662, 4.6265225, 8.283952, -0.08695939, -0.63495135, 9.469574
265613982524332, 0.3792624, 6.1998034, 8.550752, 0.06398833, 0.5362549, 10.554861
265613992164645, 0.22013968, 4.6396832, 8.141579, -0.08028786, -0.5464308, 9.357105
265614001804957, 0.30269206, 5.940182, 8.499306, -0.022623986, 0.33883095, 10.368235
265614011445270, 0.30987054, 5.072784, 8.271988, -0.0042019486, -0.25667238, 9.705105
265614021085582, 0.25842485, 5.4927244, 8.456235, -0.06388438, -0.011726379, 10.086649
265614030725895, 0.4103691, 5.619544, 8.276773, 0.094341576, 0.19038916, 10.01037
265614040366207, 0.20697916, 4.9399824, 8.175078, -0.10141075, -0.32096434, 9.548031
265614050006520, 0.424726, 6.058627, 8.395218, 0.10217565, 0.4879861, 10.349806
265614059646832, 0.19980069, 4.62413, 8.195417, -0.12711331, -0.5938897, 9.392471
265614069287145, 0.4235296, 6.2261243, 8.532805, 0.121619284, 0.5519476, 10.556199
265614078927457, 0.276371, 4.666004, 8.130812, -0.061273515, -0.52624154, 9.363621
265614088567770, 0.36131623, 6.096912, 8.476574, 0.06309402, 0.46578693, 10.437158
265614098208082, 0.30867413, 5.0859447, 8.258827, -0.018440425, -0.25055075, 9.700888
265614107848395, 0.21535404, 5.581259, 8.433503, -0.10485214, 0.066707134, 10.114612
265614117488707, 0.36370903, 5.511867, 8.175078, 0.056751817, 0.14056921, 9.865187
265614127129020, 0.19860429, 4.9674997, 8.181061, -0.11835042, -0.3141117, 9.567266
265614136769332, 0.44147578, 6.0047884, 8.435896, 0.12443179, 0.4028468, 10.355625
265614146409645, 0.2727818, 4.6731825, 8.260024, -0.048805594, -0.60472345, 9.474862
265614156049957, 0.4977071, 6.282356, 8.547162, 0.18134564, 0.56898594, 10.602503
265614165690270, 0.34456646, 4.7102714, 8.141579, 0.02631709, -0.50957465, 9.39842
265614175330582, 0.45583272, 6.1627145, 8.438289, 0.13791272, 0.5276513, 10.444813
265614184970895, 0.38165522, 5.029713, 8.1020975, 0.057715416, -0.23723936, 9.540862
265614194611207, 0.27876383, 5.6733823, 8.355737, -0.0432328, 0.16774845, 10.102142
265614204251520, 0.32422748, 5.5310097, 8.19781, 0.0055419207, 0.13582802, 9.893574
265614213891832, 0.12562318, 5.103891, 8.209774, -0.2032445, -0.21909094, 9.6631565
265614223532145, 0.3505485, 5.9712887, 8.383254, 0.034615427, 0.3961978, 10.2907715
265614233172457, 0.15672988, 4.6600223, 8.243274, -0.17910191, -0.6158385, 9.448841
265614242812770, 0.39720857, 6.206982, 8.52443, 0.082203, 0.52389145, 10.538933
265614252453082, 0.25244278, 4.584648, 8.1738825, -0.08059314, -0.6353061, 9.35334
265614262093395, 0.3912265, 6.113662, 8.506484, 0.07370326, 0.447361, 10.473043
265614271733707, 0.31465617, 4.981857, 8.232507, -0.00790745, -0.33500242, 9.62184
265614281374020, 0.29910284, 5.802595, 8.4705925, -0.016954482, 0.2205472, 10.269449
265614291014332, 0.3696911, 5.534599, 8.215756, 0.0568614, 0.1319499, 9.911936
265614300654645, 0.20578274, 5.1960144, 8.17149, -0.111531466, -0.124293804, 9.684332
265614310294957, 0.42951167, 5.940182, 8.230113, 0.119214416, 0.45414352, 10.148129
265614319935270, 0.22372891, 4.7306104, 8.100901, -0.093284994, -0.47720623, 9.371067
265614329575582, 0.44985065, 6.198607, 8.452646, 0.13097352, 0.5569029, 10.475927
265614339215895, 0.2632105, 4.6061835, 8.215756, -0.058639526, -0.6410303, 9.400559
265614348856207, 0.43070808, 6.142376, 8.559127, 0.10837886, 0.4594164, 10.533285
265614358496520, 0.3469593, 4.8861437, 8.246863, 0.034706265, -0.4190216, 9.582731
265614368136832, 0.27158538, 5.7786665, 8.520842, -0.05356908, 0.18129778, 10.297366
265614377777145, 0.34217364, 5.3790655, 8.267202, 0.02579391, -0.020281792, 9.868991
265614387417457, 0.21535404, 5.2402816, 8.2456665, -0.10420805, -0.11817646, 9.771035
265614397057770, 0.42592242, 5.8971114, 8.275578, 0.12600735, 0.40602112, 10.161779
265614406698082, 0.2009971, 4.753342, 8.1679, -0.13001543, -0.48484278, 9.439136
265614416338395, 0.43070808, 6.2081785, 8.493324, 0.12707233, 0.5522766, 10.513915
265614425978707, 0.24047868, 4.599005, 8.191829, -0.09704575, -0.62654495, 9.376181
265614435619020, 0.40438703, 6.142376, 8.512466, 0.09529504, 0.4942441, 10.492905
265614445259436, 0.27517462, 4.7808595, 8.170293, -0.054658443, -0.45929456, 9.458969
265614454899645, 0.2213361, 5.8217373, 8.49452, -0.08800328, 0.24867201, 10.297034
265614464540061, 0.20219351, 5.285745, 8.336594, -0.11500466, -0.1140995, 9.871806
265614474180374, 0.050249275, 5.237889, 8.408379, -0.2672524, -0.19027662, 9.901071
265614483820686, 0.3900301, 5.8013983, 8.420342, 0.08623406, 0.2622137, 10.229092
265614493460999, 0.42951167, 4.8646083, 8.335398, 0.097949624, -0.48397923, 9.648001
265614503101311, 0.78723866, 6.2751775, 8.502895, 0.47765493, 0.5933986, 10.569607
265614512741624, 0.5407779, 4.6372905, 8.076973, 0.20736307, -0.53656554, 9.311471
265614522381936, 0.51206404, 6.15434, 8.295917, 0.20956361, 0.6069355, 10.322213
265614532022249, 0.17108682, 4.7078786, 7.9298143, -0.15247023, -0.37647796, 9.214684
265614541662561, 0.061016977, 5.834898, 8.374879, -0.25746787, 0.32015133, 10.198997
265614551302874, 0.07537391, 5.21755, 8.316256, -0.24109018, -0.15377426, 9.813604
265614560943186, -0.010767702, 5.337191, 8.584251, -0.33455777, -0.2015357, 10.100622
265614570583499, 0.23330021, 5.7224355, 8.580662, -0.07990298, 0.122802734, 10.315376
265614580223811, 0.124426775, 4.79402, 8.4502535, -0.20729429, -0.5780759, 9.696791
265614589864124, 0.4869394, 6.1268225, 8.617751, 0.188025, 0.43207693, 10.574434
265614599504436, 0.37447673, 4.6265225, 8.199007, 0.04445088, -0.60328794, 9.402273
265614609144749, 0.6257231, 6.2524457, 8.3784685, 0.33900335, 0.64520645, 10.447591
265614618785061, 0.4953143, 4.784449, 7.8831544, 0.17564398, -0.31753922, 9.227608
265614628425374, 0.46899325, 5.9880385, 8.189436, 0.17297652, 0.5283785, 10.140727
265614638065686, 0.3469593, 5.1900325, 8.063812, 0.034861684, -0.0587883, 9.595687
265614647705999, 0.17467605, 5.424529, 8.333005, -0.1429233, -1.5926361E-4, 9.943569
265614657346311, 0.2835495, 5.716453, 8.425129, -0.029307514, 0.19352007, 10.1834545
265614666986624, 0.10289137, 4.8969116, 8.472985, -0.22697651, -0.5124173, 9.770758
265614676626936, 0.38883367, 6.105287, 8.690732, 0.071297586, 0.36897612, 10.621361
265614686267249, 0.19740787, 4.5894337, 8.312666, -0.12763858, -0.6791675, 9.472315
265614695907561, 0.40558344, 6.168697, 8.488539, 0.09174311, 0.53261137, 10.48716
265614705547874, 0.28953153, 4.6564326, 8.01117, -0.014680922, -0.46261477, 9.259092
265614715188186, 0.36251262, 5.9581285, 8.350951, 0.055952966, 0.43056917, 10.255759
265614724828603, 0.357727, 5.1206403, 8.145168, 0.050149858, -0.15076542, 9.626393
265614734468916, 0.22492532, 5.5094743, 8.410771, -0.09137711, 0.029074192, 10.056678
265614744109228, 0.3493521, 5.6781683, 8.359326, 0.037065208, 0.19868374, 10.109458
265614753749541, 0.16151553, 4.983053, 8.311469, -0.15169463, -0.35476208, 9.68445
265614763389853, 0.42711884, 6.1040907, 8.462217, 0.120132774, 0.50063133, 10.430073
265614773030166, 0.23449662, 4.65404, 8.166703, -0.07845068, -0.54744506, 9.386388
265614782670478, 0.42592242, 6.253642, 8.4347, 0.12288335, 0.6314573, 10.489033
265614792310791, 0.24526432, 4.6372905, 8.013563, -0.055868298, -0.4782443, 9.249323
265614801951103, 0.3062813, 5.9653068, 8.429914, -0.002493292, 0.39756632, 10.323958
265614811591416, 0.33260235, 5.015356, 8.269595, 0.021684438, -0.301764, 9.672594
265614821231728, 0.32183465, 5.5657053, 8.526823, 0.0041838586, 0.016292095, 10.187593
265614830872041, 0.41754755, 5.5800624, 8.443074, 0.104871064, 0.078092575, 10.128172
265614840512353, 0.17826529, 4.9531426, 8.384451, -0.13282506, -0.40811205, 9.730377
265614850152666, 0.3481557, 5.99761, 8.467003, 0.04646045, 0.42563343, 10.37301
265614859792978, 0.16749759, 4.662415, 8.200203, -0.1403493, -0.5518179, 9.417288
265614869433291, 0.38165522, 6.253642, 8.502895, 0.08421698, 0.61070395, 10.543857
265614879073603, 0.24526432, 4.633701, 8.084151, -0.062374473, -0.51688004, 9.306654
265614888713916, 0.3493521, 6.047859, 8.420342, 0.0547913, 0.4905262, 10.361333
265614898354332, 0.32662028, 4.995017, 8.2049885, 0.012577236, -0.28164148, 9.607248
265614907994645, 0.30987054, 5.608776, 8.487342, -0.003076911, 0.080574036, 10.177567
265614917634957, 0.44985065, 5.515456, 8.330612, 0.14289504, 0.08699703, 9.999687
265614927275270, 0.24765715, 5.06082, 8.303095, -0.064077556, -0.27090406, 9.72302
265614936915582, 0.41156548, 5.9784675, 8.377272, 0.106922895, 0.45777893, 10.289273
265614946555895, 0.15314065, 4.645665, 8.222935, -0.16651824, -0.5663266, 9.427294
265614956196207, 0.3469593, 6.206982, 8.547162, 0.038047463, 0.55195856, 10.554377
265614965836520, 0.1902294, 4.601398, 8.2145605, -0.12546775, -0.5978441, 9.397599
265614975476832, 0.3385844, 6.0693946, 8.530413, 0.030622125, 0.4579134, 10.46468
265614985117145, 0.3062813, 4.895715, 8.193025, -0.0104343, -0.3509612, 9.542757
265614994757457, 0.30029923, 5.682954, 8.488539, -0.009942681, 0.14922667, 10.218565
265615004397770, 0.40438703, 5.454439, 8.263613, 0.10131818, 0.07803297, 9.908853
265615014038186, 0.23330021, 5.1206403, 8.22772, -0.07544494, -0.17619085, 9.691958
265615023678499, 0.4331009, 5.9353967, 8.3581295, 0.13829929, 0.42647696, 10.250553
265615033318811, 0.18305093, 4.6779685, 8.286345, -0.14100322, -0.57732177, 9.4988
265615042959124, 0.3912265, 6.175875, 8.599805, 0.09052798, 0.51008034, 10.582191
265615052599436, 0.19980069, 4.587041, 8.258827, -0.12664557, -0.6286633, 9.4275055
265615062239749, 0.3684947, 6.125626, 8.556734, 0.06997517, 0.49374104, 10.51799
265615071880061, 0.28953153, 4.8825545, 8.19781, -0.021119565, -0.35154676, 9.539561
265615081520374, 0.28594232, 5.7403817, 8.489735, -0.020626366, 0.20665121, 10.250182
265615091160686, 0.37328035, 5.383851, 8.228917, 0.070311636, 0.043631554, 9.840399
265615100800999, 0.2440679, 5.2031927, 8.220542, -0.06351337, -0.102874756, 9.731161
265615110441311, 0.4235296, 5.8947186, 8.311469, 0.121994615, 0.42401123, 10.188864
265615120081728, 0.17706887, 4.749753, 8.254042, -0.14088863, -0.49582672, 9.510786
265615129722041, 0.39720857, 6.1902323, 8.554341, 0.083945185, 0.5456567, 10.552192
265615139362353, 0.2321038, 4.5678983, 8.226524, -0.07619962, -0.6427243, 9.390228
265615149002666, 0.37208393, 6.1387863, 8.551949, 0.06417015, 0.49426317, 10.521908
265615158642978, 0.30029923, 4.800002, 8.170293, -0.008669853, -0.40882635, 9.4718895
265615168283291, 0.28594232, 5.73081, 8.4705925, -0.025538951, 0.20794868, 10.2289295
265615177923603, 0.36610186, 5.2689953, 8.262417, 0.057202905, -0.07315254, 9.80588
265615187563916, 0.25603202, 5.258228, 8.334201, -0.057527304, -0.11515856, 9.856818
265615197204228, 0.44985065, 5.8504515, 8.347362, 0.14020637, 0.37188482, 10.195619
265615206844645, 0.21296121, 4.7676992, 8.2456665, -0.10137206, -0.47524714, 9.514788
265615216484957, 0.4031906, 6.172286, 8.52443, 0.086735934, 0.5414343, 10.517839
265615226125270, 0.17467605, 4.5894337, 8.224132, -0.13292225, -0.6102767, 9.398918
265615235765582, 0.34456646, 6.174679, 8.565108, 0.03242773, 0.53403664, 10.55084
265615245405895, 0.28115666, 4.749753, 8.178668, -0.017558128, -0.45185423, 9.451209
265615255046207, 0.27756742, 5.8480587, 8.474181, -0.032758236, 0.3015108, 10.295465
265615264686520, 0.29790643, 5.2701917, 8.243274, -0.0072062314, -0.056958675, 9.788355
265615274326832, 0.1794617, 5.296513, 8.34138, -0.12795359, -0.083740234, 9.881322
265615283967145, 0.40677986, 5.7200427, 8.30788, 0.11010069, 0.28491116, 10.090192
265615293607561, 0.23090738, 4.759324, 8.271988, -0.08250198, -0.4978714, 9.532869
265615303247874, 0.48215377, 6.125626, 8.60459, 0.17558801, 0.45836544, 10.561905
265615312888186, 0.25962126, 4.5834517, 8.328219, -0.06325632, -0.67527795, 9.485498
265615322528499, 0.4354937, 6.174679, 8.608179, 0.13156259, 0.5119548, 10.589508
265615332168811, 0.29312077, 4.7246284, 8.154739, -0.0117765665, -0.46399832, 9.417662
265615341809124, 0.28713873, 5.9270215, 8.411968, -0.019077897, 0.4064846, 10.2862835
265615351449436, 0.30269206, 5.2163534, 8.183454, -0.0015377998, -0.06141424, 9.7091255
265615361089853, 0.18903299, 5.4053864, 8.297112, -0.11771959, 0.03254223, 9.903589
265615370730166, 0.37208393, 5.7009, 8.230113, 0.07556045, 0.30987787, 10.013577
265615380370478, 0.18305093, 4.800002, 8.220542, -0.13166615, -0.43169117, 9.51037
265615390010791, 0.43070808, 6.053841, 8.545966, 0.12582287, 0.4294467, 10.472239
265615399651103, 0.25004998, 4.5690947, 8.362915, -0.07569489, -0.69983745, 9.506945
265615409291416, 0.42831525, 6.189036, 8.676374, 0.12756157, 0.48821115, 10.6542225
265615418931728, 0.25244278, 4.679165, 8.279166, -0.07523784, -0.5547168, 9.496817
265615428572145, 0.30029923, 5.938986, 8.52443, 0.0023127794, 0.36562347, 10.387202
265615438212457, 0.28594232, 5.12423, 8.209774, -0.023591965, -0.15608406, 9.680649
265615447852770, 0.22372891, 5.4616175, 8.318648, -0.08176556, 0.071068764, 9.953265
265615457493082, 0.4211368, 5.645865, 8.2049885, 0.12628436, 0.27803898, 9.964023
265615467133395, 0.23330021, 4.9136615, 8.2049885, -0.07871902, -0.32917976, 9.5606365
265615476773707, 0.42711884, 6.0933228, 8.49452, 0.1204696, 0.4990964, 10.450085
265615486414020, 0.19381863, 4.601398, 8.287541, -0.12656778, -0.6325209, 9.459263
265615496054436, 0.41874397, 6.0430737, 8.544769, 0.10811806, 0.4221301, 10.465052
265615505694749, 0.30867413, 5.1792645, 8.3174515, 0.002942562, -0.16467953, 9.801681
265615515335061, 0.32063824, 5.4424753, 8.390432, 0.009180456, 0.009216309, 10.006126
265615524975374, 0.28235307, 5.369494, 8.405986, -0.030528486, -0.058438778, 9.978349
265615534615686, 0.2883351, 5.4029937, 8.368897, -0.023089916, -0.01020956, 9.965606
265615544255999, 0.2847459, 5.4089756, 8.315059, -0.024005055, 0.021973133, 9.923571
265615553896416, 0.29790643, 5.424529, 8.29472, -0.0093820095, 0.045906067, 9.915364
265615563536728, 0.27756742, 5.4185467, 8.293523, -0.030121624, 0.040614128, 9.910481
265615573177041, 0.27756742, 5.3790655, 8.281559, -0.029719621, 0.012798786, 9.878998
265615582817353, 0.3182454, 5.3994045, 8.293523, 0.011384696, 0.021352768, 9.901355
265615592457666, 0.36011982, 5.386244, 8.377272, 0.049092233, -0.03550577, 9.965757
265615602097978, 0.35294133, 5.3946185, 8.432307, 0.03947544, -0.05811596, 10.016254
265615611738395, 0.31465617, 5.4173503, 8.43111, 0.0018753409, -0.035166264, 10.026421
265615621378707, 0.26679972, 5.4113684, 8.4012, -0.04444757, -0.021982193, 9.996591
265615631019020, 0.2739782, 5.447261, 8.377272, -0.035745293, 0.019384384, 9.996237
265615640659332, 0.30987054, 5.4723854, 8.343773, 0.0015420914, 0.0554204, 9.98291
265615650299645, 0.31106696, 5.4424753, 8.279166, 0.00475803, 0.062417984, 9.912517
265615659939957, 0.28235307, 5.40419, 8.238488, -0.022420406, 0.050932407, 9.856703
265615669580374, 0.28115666, 5.400601, 8.23131, -0.022921205, 0.05112505, 9.8487
265615679220686, 0.3278167, 5.38744, 8.270791, 0.021599859, 0.016824245, 9.876095
265615688860999, 0.34097722, 5.3886366, 8.362915, 0.030402869, -0.030127048, 9.954405
265615698501311, 0.28594232, 5.4029937, 8.4347, -0.02822119, -0.052966118, 10.02071
265615708141624, 0.24765715, 5.4089756, 8.455039, -0.06666377, -0.05562973, 10.039846
265615717782041, 0.29671, 5.369494, 8.456235, -0.019230902, -0.09166527, 10.02091
265615727422353, 0.33499518, 5.4484572, 8.405986, 0.02358672, -7.944107E-4, 10.022871
265615737062666, 0.37328035, 5.454439, 8.318648, 0.06683546, 0.04943943, 9.954056
265615746702978, 0.357727, 5.426922, 8.293523, 0.050573915, 0.03872156, 9.917556
265615756343291, 0.33140594, 5.465207, 8.2348995, 0.026821434, 0.10163736, 9.88842
265615765983707, 0.31345975, 5.4376893, 8.233703, 0.008190721, 0.07753754, 9.871905
265615775624020, 0.3182454, 5.3766723, 8.295917, 0.008834213, -0.0073952675, 9.891005
265615785264332, 0.3182454, 5.375476, 8.359326, 0.0059064627, -0.042778492, 9.943516
265615794904645, 0.29671, 5.413761, 8.440681, -0.01728335, -0.04891491, 10.031914
265615804544957, 0.2955136, 5.395815, 8.488539, -0.019090176, -0.08744955, 10.062277
265615814185374, 0.2943172, 5.3443694, 8.4705925, -0.018780649, -0.11961794, 10.019239
265615823825686, 0.2955136, 5.447261, 8.385647, -0.015405595, 0.013737202, 10.003931
265615833465999, 0.30149564, 5.410172, 8.340183, -0.007669091, 0.005437374, 9.945825
265615843106311, 0.3481557, 5.4017973, 8.334201, 0.038289815, -0.0011239052, 9.937708
265615852746728, 0.3684947, 5.453243, 8.244471, 0.060955107, 0.08821392, 9.891079
265615862387041, 0.34217364, 5.4616175, 8.244471, 0.0360671, 0.09551144, 9.894808
265615872027353, 0.30269206, 5.413761, 8.283952, -0.0075288415, 0.03394127, 9.9006605
265615881667666, 0.2536392, 5.3790655, 8.306684, -0.05877158, -0.005601406, 9.899303
265615891307978, 0.276371, 5.4017973, 8.383254, -0.03904587, -0.027927876, 9.976595
265615900948395, 0.2632105, 5.428118, 8.422736, -0.05173862, -0.025209904, 10.02362
265615910588707, 0.26679972, 5.416154, 8.407183, -0.045432836, -0.025452614, 10.004195
265615920229020, 0.2955136, 5.42094, 8.386844, -0.015258044, -0.012442112, 9.99063
265615929869332, 0.32662028, 5.395815, 8.382058, 0.015362859, -0.032922745, 9.973919
265615939509645, 0.32183465, 5.3718867, 8.330612, 0.012676418, -0.024869442, 9.917614
265615949150061, 0.3493521, 5.365905, 8.306684, 0.03904721, -0.018713951, 9.895158
265615958790374, 0.33738798, 5.3970113, 8.346166, 0.025582194, -0.013884544, 9.944808
265615968430686, 0.32662028, 5.4376893, 8.348558, 0.013027757, 0.019846916, 9.968603
265615978070999, 0.3278167, 5.4317074, 8.348558, 0.014248282, 0.014808655, 9.965387
265615987711416, 0.317049, 5.4293146, 8.327023, 0.00442037, 0.024582386, 9.945685
265615997351728, 0.2955136, 5.410172, 8.325827, -0.016341507, 0.009322643, 9.933596
265616006992041, 0.2739782, 5.4089756, 8.331808, -0.03730458, 0.006185055, 9.937288
265616016632353, 0.30867413, 5.380262, 8.37129, -0.004111469, -0.040334225, 9.955871
265616026272770, 0.3481557, 5.4412785, 8.416754, 0.03382212, -0.014895916, 10.028415
265616035913082, 0.36131623, 5.4520464, 8.432307, 0.04526335, -0.01527977, 10.047731
265616045553395, 0.35653058, 5.4484572, 8.364112, 0.04358852, 0.018634796, 9.988439
265616055193707, 0.32662028, 5.4412785, 8.262417, 0.017690897, 0.06502867, 9.898342
265616064834124, 0.30867413, 5.4149575, 8.219346, 0.0014402866, 0.06725454, 9.8473425
265616074474436, 0.30029923, 5.389833, 8.22772, -0.008270115, 0.040094852, 9.840437
265616084114749, 0.2847459, 5.419743, 8.29113, -0.02624476, 0.031423092, 9.909383
265616093755061, 0.25124636, 5.4017973, 8.382058, -0.06493911, -0.030341148, 9.974783
265616103395478, 0.25004998, 5.42094, 8.453842, -0.06741378, -0.050861835, 10.045369
265616113035791, 0.2847459, 5.4185467, 8.451449, -0.03257346, -0.053510666, 10.043146
265616122676103, 0.34576288, 5.4221363, 8.437093, 0.02969867, -0.045048237, 10.034975
265616132316416, 0.36610186, 5.4017973, 8.380861, 0.052054822, -0.03259468, 9.977401
265616141956832, 0.3696911, 5.4053864, 8.274381, 0.058705956, 0.02579403, 9.890205
265616151597145, 0.3361916, 5.4113684, 8.2456665, 0.026249617, 0.04815674, 9.868331
265616161237457, 0.31226337, 5.428118, 8.257631, 7.056296E-4, 0.05508423, 9.886728
265616170877770, 0.3361916, 5.424529, 8.319844, 0.02182594, 0.017225266, 9.937685
265616180518186, 0.3361916, 5.428118, 8.365308, 0.019657314, -0.0037169456, 9.977749
265616190158499, 0.30987054, 5.432904, 8.329415, -0.004942268, 0.021186352, 9.94943
265616199798811, 0.26919255, 5.410172, 8.35454, -0.045868605, -0.010795116, 9.956834
265616209439124, 0.276371, 5.4149575, 8.355737, -0.037447304, -0.0065979958, 9.960674
265616219079541, 0.27876383, 5.4221363, 8.347362, -0.034089804, 0.0039110184, 9.957636
265616228719853, 0.29910284, 5.4424753, 8.353344, -0.013510704, 0.016552925, 9.974362
265616238360166, 0.27996024, 5.424529, 8.361719, -0.03283438, -0.003765583, 9.971016
265616248000582, 0.2955136, 5.4185467, 8.323434, -0.01579082, 0.011538506, 9.936153
265616257640895, 0.28953153, 5.447261, 8.347362, -0.021594763, 0.022064209, 9.971658
265616267281207, 0.30867413, 5.406583, 8.350951, -0.0035048127, -0.015996933, 9.953116
265616276921520, 0.32662028, 5.3994045, 8.335398, 0.015122324, -0.014000893, 9.936734
265616286561936, 0.35174492, 5.3994045, 8.340183, 0.040038705, -0.017368793, 9.941532
265616296202249, 0.30388847, 5.3647084, 8.397611, -0.012481958, -0.07426548, 9.969286
265616305842561, 0.31345975, 5.4233327, 8.374879, 8.869171E-5, -0.012336254, 9.982447
265616315482874, 0.3505485, 5.4687963, 8.3174515, 0.041454107, 0.055015564, 9.960215
265616325123291, 0.34456646, 5.4628143, 8.347362, 0.03362316, 0.03357792, 9.981846
265616334763603, 0.29910284, 5.430511, 8.29113, -0.010577053, 0.038290024, 9.915704
265616344403916, 0.29312077, 5.393422, 8.273184, -0.016817719, 0.01631546, 9.8802805
265616354044228, 0.30508488, 5.3910294, 8.319844, -0.0073126256, -0.01235199, 9.918462
265616363684645, 0.31106696, 5.4113684, 8.379665, -0.0035260022, -0.027574062, 9.979864
265616373324957, 0.30029923, 5.4125648, 8.413164, -0.015606493, -0.04332447, 10.008259
265616382965270, 0.28953153, 5.400601, 8.422736, -0.026845902, -0.057038784, 10.009438
265616392605686, 0.28235307, 5.4185467, 8.331808, -0.028515816, 0.007616043, 9.942762
265616402245999, 0.31226337, 5.416154, 8.289934, 0.0029940903, 0.027516842, 9.907293
265616411886311, 0.34097722, 5.432904, 8.303095, 0.031119585, 0.03265953, 9.928346
265616421526624, 0.3385844, 5.4257255, 8.310273, 0.027057588, 0.022108078, 9.930386
265616431167041, 0.31465617, 5.430511, 8.310273, 0.00333786, 0.026697636, 9.932241
265616440807353, 0.317049, 5.4352965, 8.329415, 0.0046088398, 0.020354748, 9.950965
265616450447666, 0.32063824, 5.410172, 8.350951, 0.0072345436, -0.012164116, 9.95545
265616460088082, 0.30508488, 5.419743, 8.312666, -0.0064389706, 0.017879963, 9.92808
265616469728395, 0.27756742, 5.4221363, 8.295917, -0.033207387, 0.031013966, 9.914474
