timestamp_acc,device_acc_x,device_acc_y,device_acc_z,earth_acc_x,earth_acc_y,earth_acc_z
265749333568401, 5.5908303, -0.39720857, 8.178668, -0.0010560751, 0.06760788, 9.914697
265749343208713, 5.493921, -0.36131623, 8.183454, -0.017974555, -0.020471096, 9.863158
265749352849026, 5.4628143, -0.2943172, 8.232507, -0.0733825, -0.090602875, 9.883802
265749362489338, 5.5190454, -0.28594232, 8.299505, -0.08591926, -0.084720135, 9.970399
265749372129651, 5.6147585, -0.32662028, 8.338987, -0.0635491, -0.021566868, 10.05815
265749381769963, 5.6709895, -0.40677986, 8.4012, 0.004822731, 0.0062685013, 10.144244
265749391410172, 5.6997037, -0.47138608, 8.440681, 0.064884424, 0.020889282, 10.195553
265749401050484, 5.6709895, -0.49651068, 8.403593, 0.09205645, 0.024184227, 10.149777
265749410690797, 5.6374903, -0.47856453, 8.400003, 0.08209622, -0.0033426285, 10.12737
265749420331109, 5.588437, -0.41874397, 8.342576, 0.031248331, -0.020387173, 10.050034
265749429971422, 5.5250273, -0.3469593, 8.262417, -0.028530777, -0.038794518, 9.945428
265749439611734, 5.5250273, -0.28713873, 8.2456665, -0.082157195, -0.039119244, 9.929306
265749449252047, 5.5429735, -0.29312077, 8.210971, -0.08258617, -0.004946232, 9.910787
265749458892255, 5.6147585, -0.3290131, 8.193025, -0.053581655, 0.072806835, 9.937366
265749468532567, 5.6650076, -0.35174492, 8.172686, -0.04278648, 0.1275773, 9.9494095
265749478172880, 5.651847, -0.3684947, 8.2014, -0.023272157, 0.10095978, 9.966515
265749487813192, 5.595616, -0.34217364, 8.327023, -0.024771035, -0.019389153, 10.038243
265749497453505, 5.5633125, -0.36490545, 8.471788, 0.012604833, -0.12494421, 10.140959
265749507093817, 5.552545, -0.40797627, 8.445468, 0.04898256, -0.11283064, 10.114742
265749516734130, 5.5968122, -0.4354937, 8.368897, 0.05687952, -0.032280445, 10.077109
265749526374338, 5.6817575, -0.42592242, 8.276773, 0.022078812, 0.08466911, 10.047939
265749536014651, 5.6961145, -0.46779683, 8.114061, 0.049064755, 0.19120216, 9.922883
265749545654963, 5.623133, -0.55752766, 7.9704924, 0.1473118, 0.2075305, 9.767008
265749555295276, 5.485546, -0.6556334, 8.158329, 0.28913295, -0.011246204, 9.848639
265749564935588, 5.6099725, -0.7070791, 8.096115, 0.3108499, 0.13218641, 9.869385
265749574575901, 5.6733823, -0.6329016, 8.179864, 0.2308088, 0.09828758, 9.971715
265749584216109, 5.6578293, -0.5407779, 8.166703, 0.13273096, 0.017048836, 9.9489
265749593856422, 5.6733823, -0.36251262, 8.2253275, -0.041717708, -0.06533241, 9.998434
265749603496734, 5.7583275, 0.033499517, 8.437093, -0.42380822, -0.20972204, 10.20394
265749613137047, 6.020342, -0.18664017, 9.217153, -0.19560242, -0.40580034, 11.001469
265749622777359, 5.8133626, -0.58265233, 8.69791, 0.216847, -0.20099068, 10.473819
265749632417672, 5.633901, -0.32063824, 8.026724, -0.018135428, 0.054184437, 9.81166
265749642057984, 5.706882, 0.11964113, 8.019546, -0.46365124, 0.036814213, 9.832579
265749651698192, 5.808577, 0.0741775, 8.148758, -0.3786909, 0.08572626, 9.999828
265749661338505, 5.7379885, -0.15672988, 8.187042, -0.11466646, 0.06468487, 9.997972
265749670978817, 5.5944195, -0.16630118, 8.115258, -0.07649517, 0.002163887, 9.857826
265749680619130, 5.5836515, -0.07058827, 8.147561, -0.16386604, -0.035758495, 9.87607
265749690259442, 5.621937, -0.01794617, 8.232507, -0.21687424, -0.060534954, 9.966441
265749699899755, 5.588437, -0.040677983, 8.349754, -0.18181026, -0.15489483, 10.044582
265749709539963, 5.576473, -0.10767702, 8.452646, -0.10700458, -0.22247648, 10.123978
265749719180276, 5.6063833, -0.13040884, 8.480164, -0.09540373, -0.22249508, 10.163815
265749728820588, 5.7200427, -0.11964113, 8.414361, -0.14129072, -0.108091354, 10.173643
265749738460901, 5.767899, -0.17587246, 8.255239, -0.1107682, 0.031226158, 10.07151
265749748101213, 5.7260246, -0.28594232, 8.1344, -0.012823582, 0.080852985, 9.951427
265749757741526, 5.6889358, -0.40558344, 7.8831544, 0.080479264, 0.21270037, 9.727326
265749767381734, 5.721239, -0.465404, 7.8867435, 0.11891651, 0.24114847, 9.750775
265749777022047, 5.8241305, -0.4989035, 8.055437, 0.14815348, 0.23563528, 9.948971
265749786662359, 5.8707905, -0.5766702, 8.213364, 0.2098208, 0.19099522, 10.108293
265749796302672, 5.736792, -0.613759, 8.365308, 0.28532887, 0.0066981316, 10.157972
265749805942984, 5.5980086, -0.58983076, 8.456235, 0.28557998, -0.1593132, 10.153156
265749815583192, 5.5597234, -0.5515456, 8.475378, 0.24724042, -0.20015478, 10.14621
265749825223505, 5.629115, -0.4019942, 8.251649, 0.061520398, -0.03780079, 9.996652
265749834863817, 5.727221, -0.3696911, 8.348558, 0.01708752, -0.013027191, 10.130928
265749844504130, 5.8169518, -0.41635114, 8.367701, 0.0533818, 0.05168438, 10.199176
265749854144442, 5.855237, -0.40558344, 8.377272, 0.037397206, 0.070789814, 10.228419
265749863784755, 5.7427745, -0.3684947, 8.343773, 0.019509733, -0.010564804, 10.135744
265749873424963, 5.6303115, -0.317049, 8.29472, -0.013320267, -0.08397961, 10.029761
265749883065276, 5.6171513, -0.3290131, 8.270791, -0.0021321177, -0.078849316, 10.003021
265749892705588, 5.631508, -0.24885355, 8.193025, -0.09035903, -0.03838253, 9.944437
265749902345901, 5.7379885, -0.16510476, 8.213364, -0.18819577, 0.023051262, 10.018741
265749911986213, 5.692525, -0.22492532, 8.136793, -0.12326068, 0.04801655, 9.932036
265749921626422, 5.578866, -0.25722843, 8.042277, -0.0748955, 0.023277283, 9.790914
265749931266734, 5.656633, -0.30508488, 8.054241, -0.04149574, 0.09411383, 9.846361
265749940907047, 5.7762737, -0.38644084, 8.236095, 0.031866252, 0.107419014, 10.066549
265749950547359, 5.686543, -0.3912265, 8.30788, 0.060527325, -0.003636837, 10.075071
265749960187672, 5.599205, -0.38404804, 8.300702, 0.061137795, -0.07053614, 10.019556
265749969827984, 5.5944195, -0.357727, 8.331808, 0.03309828, -0.09875202, 10.041598
265749979468192, 5.704489, -0.40079778, 8.325827, 0.05341381, 0.0020151138, 10.100416
265749989108505, 5.8157554, -0.41635114, 8.267202, 0.035345435, 0.12589788, 10.115627
265749998748817, 5.8157554, -0.3696911, 8.335398, -0.009813726, 0.07474041, 10.170195
265750008389130, 5.7403817, -0.40558344, 8.321041, 0.03475356, 0.02534771, 10.117032
265750018029442, 5.6650076, -0.47736812, 8.325827, 0.12062526, -0.031176567, 10.080875
265750027669651, 5.6386867, -0.5132605, 8.311469, 0.15943974, -0.036993504, 10.055444
265750037309963, 5.6410794, -0.44506502, 8.3174515, 0.09413469, -0.056922436, 10.059213
265750046950276, 5.6745787, -0.317049, 8.215756, -0.043962777, -8.845329E-4, 9.989899
265750056590588, 5.68415, -0.25124636, 8.070991, -0.11980939, 0.07672453, 9.873871
265750066230901, 5.6709895, -0.2548356, 8.0817585, -0.109083354, 0.06464386, 9.875414
265750075871109, 5.660222, -0.29790643, 8.128419, -0.056484878, 0.04466772, 9.909231
265750085511422, 5.690132, -0.32063824, 8.292327, -0.025958776, -0.018706322, 10.061911
265750095151734, 5.6685967, -0.357727, 8.415557, 0.024018824, -0.095294, 10.152483
265750104792047, 5.5776696, -0.3792624, 8.489735, 0.066847265, -0.20257998, 10.1628895
265750114432359, 5.578866, -0.38524446, 8.502895, 0.0688473, -0.2022748, 10.174761
265750124072567, 5.633901, -0.3696911, 8.4012, 0.035515904, -0.103942394, 10.121542
265750133712880, 5.736792, -0.36011982, 8.252846, -0.008979857, 0.062354088, 10.057135
265750143353192, 5.797809, -0.36011982, 8.182257, -0.029618442, 0.14618921, 10.033512
265750152993505, 5.7954164, -0.44027936, 8.249256, 0.057677925, 0.11578798, 10.090302
265750162633817, 5.759524, -0.45583272, 8.361719, 0.08950806, 0.027534962, 10.163144
265750172274026, 5.666204, -0.46061835, 8.389236, 0.11675346, -0.06926727, 10.13306
265750181914338, 5.631508, -0.45224348, 8.3174515, 0.10826433, -0.05944395, 10.054012
265750191554651, 5.582455, -0.4235296, 8.153543, 0.08106303, -0.0059199333, 9.890241
265750201194963, 5.6004014, -0.36610186, 8.024331, 0.014306307, 0.072647095, 9.791984
265750210835276, 5.6470613, -0.2548356, 7.975278, -0.10619742, 0.11665678, 9.774172
265750220475484, 5.703293, -0.27158538, 8.048259, -0.08784765, 0.13120127, 9.866653
265750230115797, 5.690132, -0.28115666, 8.049456, -0.07449633, 0.1259675, 9.860476
265750239756109, 5.7009, -0.22372891, 8.187042, -0.12062371, 0.04902172, 9.978026
265750249396422, 5.743971, -0.2440679, 8.374879, -0.09010434, -0.01367712, 10.157907
265750259036630, 5.6985073, -0.30867413, 8.377272, -0.01790446, -0.038697243, 10.136328
265750268676942, 5.7224355, -0.36370903, 8.335398, 0.031128764, 0.019556522, 10.117118
265750278317255, 5.7343993, -0.33499518, 8.405986, 0.012146175, -0.016262531, 10.181147
265750287957567, 5.6877394, -0.31226337, 8.312666, -0.009205759, -0.0076618195, 10.077111
265750297597880, 5.7056856, -0.2739782, 8.346166, -0.046796024, -0.020344734, 10.113645
265750307238088, 5.6913285, -0.25244278, 8.487342, -0.05296552, -0.11798096, 10.221212
265750316878401, 5.6327047, -0.28953153, 8.452646, -0.010235667, -0.14054823, 10.160637
265750326518713, 5.6303115, -0.3469593, 8.293523, 0.032799304, -0.041215897, 10.029983
265750336159026, 5.4891353, -0.49292147, 8.183454, 0.19456953, -0.06291628, 9.864108
265750345799338, 5.54417, -0.6364908, 8.2145605, 0.32527888, -0.007390976, 9.925528
265750355439547, 5.767899, -0.506082, 8.149954, 0.15181267, 0.18258333, 9.994507
265750365079859, 5.779863, -0.35653058, 8.110473, -0.006353557, 0.18828297, 9.963845
265750374720172, 5.7284174, -0.33499518, 8.109276, -0.020941913, 0.148489, 9.93302
265750384360484, 5.706882, -0.41515473, 8.169097, 0.071186304, 0.11604214, 9.972786
265750394000692, 5.7020965, -0.4235296, 8.218149, 0.08665234, 0.09046936, 10.010773
265750403641005, 5.6793647, -0.7788638, 8.139186, 0.43392092, 0.18207455, 9.94418
265750413281317, 5.8037915, 0.1794617, 8.280363, -0.5184016, 0.0261302, 10.1000595
265750422921630, 5.7559347, -0.8530413, 8.328219, 0.52170736, 0.14693403, 10.145144
265750432561838, 5.6590257, 0.13280165, 8.474181, -0.42593604, -0.18794727, 10.180235
265750442202151, 5.6410794, -0.42831525, 8.550752, 0.1341829, -0.14606857, 10.250914
265750451842463, 5.5070815, -0.32183465, 8.319844, 0.048817694, -0.13556147, 9.981511
265750461482776, 5.6793647, -0.06460621, 8.487342, -0.2148422, -0.13224983, 10.209343
265750471123088, 5.503492, -0.82313097, 8.177471, 0.5432845, 0.043555737, 9.876232
265750480763297, 5.8827543, 0.36490545, 8.512466, -0.6670224, -0.06131649, 10.332152
265750490403609, 5.6350975, -0.9200403, 8.271988, 0.6334622, 0.11642027, 10.030542
265750500043922, 5.71765, 0.4319045, 8.580662, -0.68782437, -0.23698044, 10.294493
265750509684234, 5.5573306, -0.8243274, 8.287541, 0.5697364, 0.040184498, 9.996029
265750519324442, 5.619544, 0.29072794, 8.250452, -0.5374565, -0.10270643, 9.971678
265750528964755, 5.7116675, -0.41994038, 8.039884, 0.12505507, 0.22615862, 9.867748
265750538605067, 5.575277, -0.28713873, 7.7994056, 0.016165018, 0.22733259, 9.588793
265750548245380, 5.8277197, -0.09212367, 8.1020975, -0.19251406, 0.22423697, 9.976345
265750557885588, 5.651847, -0.762114, 7.993224, 0.48497248, 0.26913118, 9.803478
265750567525901, 5.7559347, 0.27996024, 8.414361, -0.5349715, -0.078614235, 10.1842165
265750577166213, 5.477171, -1.0097711, 8.145168, 0.762388, 0.07636261, 9.837467
265750586806526, 5.6817575, 0.32183465, 8.451449, -0.55674237, -0.16471434, 10.172309
265750596446734, 5.5740805, -1.0540384, 8.178668, 0.78123367, 0.1239934, 9.922009
265750606087047, 5.7343993, 0.1160519, 8.311469, -0.37843943, -0.01184082, 10.091284
265750615727359, 5.905486, -0.65922266, 8.311469, 0.34741837, 0.2561264, 10.208015
265750625367672, 5.8193445, -0.5395815, 8.222935, 0.24350727, 0.2183466, 10.082936
265750635007880, 5.9437714, -0.60059845, 8.390432, 0.29103822, 0.23317099, 10.293175
265750644648192, 5.697311, -1.2358929, 8.097312, 0.9257728, 0.30936193, 9.929778
265750654288505, 5.9581285, -0.17347965, 8.49452, -0.13029075, 0.116663456, 10.375727
265750663928817, 5.692525, -1.4201403, 8.158329, 1.1062071, 0.29904127, 9.98333
265750673569130, 5.8540406, -0.011964113, 8.236095, -0.29974008, 0.13739252, 10.099233
265750683209338, 5.703293, -1.3818551, 7.881958, 1.0353853, 0.45056438, 9.761521
265750692849651, 5.736792, -0.19980069, 7.9680996, -0.110897124, 0.22334814, 9.817287
265750702489963, 5.7200427, -1.0049855, 7.944171, 0.68145394, 0.3651638, 9.810251
265750712130276, 5.6350975, -0.424726, 7.945368, 0.12542468, 0.1895237, 9.747407
265750721770484, 5.8073807, -0.29192436, 8.301898, 0.0030941963, 0.11091328, 10.135092
265750731410797, 5.639883, -0.7920243, 7.962117, 0.49283963, 0.25402308, 9.773612
265750741051109, 5.9724855, 0.076570325, 8.415557, -0.36686295, 0.12792492, 10.312473
265750750691422, 5.7355957, -1.1174482, 8.155936, 0.8317018, 0.28324366, 9.994654
265750760331630, 5.736792, 0.34097722, 8.595019, -0.55410975, -0.18573761, 10.322784
265750769971942, 5.3682976, -0.9379865, 8.364112, 0.7716333, -0.12537909, 9.952169
265750779612255, 5.3336015, 0.49172506, 8.554341, -0.628854, -0.49314308, 10.061173
265750789252567, 5.3359947, -0.40558344, 8.60459, 0.296584, -0.36215496, 10.122114
265750798892776, 5.3276196, 0.17108682, 8.556734, -0.26654214, -0.4367838, 10.068201
265750808533088, 5.532206, 0.2428715, 8.575876, -0.35339743, -0.27988434, 10.198369
265750818173401, 5.3180485, -0.0047856453, 8.181061, -0.092758834, -0.17508173, 9.755623
265750827813609, 5.5800624, 0.97507524, 8.435896, -1.031547, -0.2433567, 10.105885
265750837453922, 5.2845488, -0.16031912, 8.075776, 0.09818792, -0.097272396, 9.651489
265750847094234, 5.5980086, 1.1174482, 8.462217, -1.1407788, -0.24424934, 10.140734
265750856734547, 5.5334024, -0.2883351, 8.221739, 0.27744186, 0.07550621, 9.910399
265750866374755, 5.6279187, 1.1832508, 8.526823, -1.1597414, -0.25431108, 10.216191
265750876015067, 5.599205, 0.22253251, 8.520842, -0.1715107, -0.0939703, 10.196427
265750885655380, 5.45085, 0.7298109, 8.407183, -0.663193, -0.23542833, 10.021469
265750895295692, 5.625526, 0.44985065, 8.469396, -0.38981324, -0.07106018, 10.169689
265750904935901, 5.5860443, 0.19142582, 8.132008, -0.1369837, 0.1316328, 9.865801
265750914576213, 5.9473605, 0.9403793, 8.374879, -0.9005788, 0.16731834, 10.273996
265750924216526, 5.615955, -0.3469593, 8.025527, 0.39263162, 0.30935192, 9.788696
265750933856838, 5.6781683, 0.8530413, 8.3784685, -0.7655705, -0.014643669, 10.128263
265750943497047, 5.440082, -0.57906306, 8.049456, 0.6486782, 0.17366362, 9.70941
265750953137359, 5.712864, 0.85184485, 8.303095, -0.78028154, 0.08404541, 10.084044
265750962777672, 5.7894344, -0.21655045, 8.226524, 0.26377672, 0.3097582, 10.053587
265750972417984, 5.8337016, 0.48215377, 8.300702, -0.43207404, 0.24042797, 10.145035
265750982058192, 5.877969, 0.02751746, 8.495717, 0.02967462, 0.2083559, 10.328805
265750991698505, 5.4843497, -0.3924229, 8.207381, 0.4697095, 0.067466736, 9.867523
265751001338817, 5.6004014, 0.1902294, 8.374879, -0.105401546, 0.03346014, 10.076064
265751010979130, 5.334798, -0.68075806, 8.140383, 0.77338004, 0.011949539, 9.725793
265751020619338, 5.629115, 0.7692925, 8.679964, -0.6615503, -0.15809011, 10.351708
265751030259651, 5.4891353, -0.6759724, 8.427522, 0.7831388, -0.0044379234, 10.049744
265751039899963, 5.611169, 0.70229346, 8.7469635, -0.5716717, -0.20158243, 10.398096
265751049540172, 5.548956, -0.55393845, 8.575876, 0.6729313, -0.043515682, 10.207288
265751059180484, 5.535795, 0.23090738, 8.368897, -0.106455654, -0.008292675, 10.036205
265751068820797, 5.6303115, -0.11724831, 8.188239, 0.23269674, 0.20896196, 9.932956
265751078461109, 5.456832, -0.021535404, 7.8831544, 0.14004388, 0.22692823, 9.583867
265751088101317, 5.6243296, 0.567099, 8.319844, -0.42062548, 0.07572746, 10.049469
265751097741630, 5.157729, -0.35533416, 8.218149, 0.52112603, -0.18003273, 9.693422
265751107381942, 5.258228, 0.997807, 8.788837, -0.79762495, -0.5236273, 10.245871
265751117022255, 5.0452666, -0.38285163, 8.597412, 0.57841897, -0.4649539, 9.948168
265751126662463, 5.2486563, 0.89013004, 8.87139, -0.68915564, -0.54537964, 10.30873
265751136302776, 5.180461, -0.36490545, 8.579466, 0.5543239, -0.33015966, 10.008061
265751145943088, 5.1924253, 0.6305088, 8.653643, -0.42686695, -0.437335, 10.09311
265751155583401, 5.3419766, 0.13519448, 8.742178, 0.068079084, -0.32297134, 10.24069
265751165223609, 5.2019963, 0.16510476, 8.437093, 0.03716886, -0.27593374, 9.909341
265751174863922, 5.3910294, 0.62093747, 8.618947, -0.40907517, -0.25060844, 10.173733
265751184504234, 5.09073, -0.13998012, 8.478967, 0.35474265, -0.36747074, 9.877607
265751194144442, 5.3539405, 1.0133604, 8.952746, -0.7920529, -0.4712367, 10.440011
265751203784755, 5.1816573, -0.57188463, 8.449057, 0.7637156, -0.25477123, 9.895202
265751213425067, 5.491528, 0.79920274, 8.689535, -0.60784274, -0.1879034, 10.290717
265751223065380, 5.6446686, -0.50009996, 8.447861, 0.6799761, 0.1439848, 10.148676
265751232705588, 5.7320065, 0.53240305, 8.440681, -0.3558467, 0.16137218, 10.209398
265751242345901, 5.7116675, -0.02632105, 8.523234, 0.19971395, 0.12072945, 10.257432
265751251986213, 5.5405807, 0.15792629, 8.336594, 0.013934523, 0.06119156, 10.010885
265751261626526, 5.7403817, 0.5371887, 8.432307, -0.36677673, 0.15582561, 10.207133
265751271266734, 5.477171, -0.1794617, 7.877172, 0.34347993, 0.27598858, 9.585787
265751280907047, 5.727221, 0.8769695, 8.2253275, -0.70433885, 0.21726751, 10.034085
265751290547359, 5.48076, -0.47736812, 7.7874413, 0.65643466, 0.32327175, 9.5066
265751300187672, 5.556134, 0.98943216, 7.9980097, -0.8110421, 0.19374466, 9.753074
265751309827880, 5.532206, -0.3924229, 7.745567, 0.56851166, 0.37696695, 9.501989
265751319468192, 5.7487564, 0.59581286, 7.8903327, -0.42921302, 0.42948723, 9.761755
265751329108505, 5.942575, -0.14476576, 8.128419, 0.31468678, 0.4838395, 10.053517
265751338748817, 5.8672013, 0.20578274, 8.328219, -0.04439783, 0.2955866, 10.1851015
265751348389026, 5.9066825, 0.38524446, 8.879765, -0.20768341, 0.015177727, 10.669778
265751358029338, 5.4484572, -0.38285163, 8.775677, 0.5523268, -0.28089952, 10.317986
265751367669651, 5.6506505, 0.6628119, 9.089137, -0.5179497, -0.3284769, 10.705392
265751377309859, 5.6482577, -0.4977071, 8.563912, 0.6273606, -0.0035128593, 10.251709
265751386950172, 6.017949, 1.0217353, 8.745767, -0.9117814, 0.110696316, 10.625652
265751396590484, 5.8911295, -0.4426722, 8.2660055, 0.5523898, 0.32809305, 10.139794
265751406230797, 5.812166, 0.5910272, 8.129615, -0.4838316, 0.28028965, 9.995427
265751415871005, 5.712864, -0.276371, 7.9154572, 0.3800549, 0.33560276, 9.752466
265751425511317, 5.5166526, 0.11964113, 7.696514, -0.013105392, 0.27036285, 9.466299
265751435151630, 5.686543, 0.29790643, 7.7276206, -0.20747969, 0.35937786, 9.59007
265751444791942, 5.473582, -0.16031912, 7.4213395, 0.24835378, 0.37132692, 9.212085
265751454432151, 5.858826, 0.84825563, 8.165507, -0.7490359, 0.21980524, 10.055424
265751464072463, 5.709275, -0.4319045, 8.01117, 0.527913, 0.25185108, 9.829502
265751473712776, 5.8013983, 0.991825, 8.312666, -0.88294363, 0.08092165, 10.146636
265751483353088, 5.6123657, -0.424726, 8.082955, 0.5343698, 0.15238285, 9.833841
265751492993297, 5.5776696, 0.87338024, 8.439486, -0.73979104, -0.11954117, 10.126032
265751502633609, 5.444868, 0.009571291, 8.633304, 0.13699448, -0.2853737, 10.201981
265751512273922, 5.4867425, 0.5886344, 8.673982, -0.44831035, -0.29959965, 10.2663555
265751521914234, 5.8420763, 0.56470615, 8.852247, -0.42998523, -0.103441715, 10.612043
265751531554442, 5.584848, 0.069391854, 8.56152, 0.034289867, -0.1399374, 10.221261
265751541194755, 5.757131, 0.98943216, 8.7266245, -0.90306866, -0.1392827, 10.461481
265751550835067, 5.558527, -0.2656033, 8.178668, 0.32714164, 0.034622192, 9.886868
265751560475380, 5.74756, 1.038485, 8.422736, -0.9750534, 0.013048172, 10.203159
265751570115588, 5.4460645, -0.51445687, 8.014759, 0.5559877, 0.033485413, 9.687642
265751579755901, 5.4699926, 0.6125626, 8.148758, -0.6043662, -0.09166908, 9.814512
265751589396213, 5.593223, -0.52283174, 8.17149, 0.5280479, 0.028057098, 9.902077
265751599036526, 5.6757755, -0.02632105, 8.148758, 0.011881769, 0.09064627, 9.930207
265751608676734, 5.782256, -0.27876383, 8.3174515, 0.24761748, 0.08814669, 10.130306
265751618317047, 5.5046883, -0.6795616, 7.995617, 0.6393828, 0.050516605, 9.709888
265751627957359, 5.660222, -0.013160525, 8.347362, -0.042288445, -0.032227993, 10.085333
265751637597672, 5.380262, -1.274178, 8.117651, 1.2227988, -0.10176182, 9.744816
265751647237880, 5.682954, 0.13998012, 8.408379, -0.1999298, -0.05184698, 10.147597
265751656878192, 5.595616, -1.3100704, 8.025527, 1.2363769, 0.14108562, 9.79223
265751666518505, 5.8337016, -0.020338992, 8.396415, -0.065496616, 0.098042965, 10.223423
265751676158817, 5.7056856, -1.0516455, 8.475378, 0.95484203, -0.015576363, 10.226479
265751685799026, 5.4352965, -0.26799613, 8.776874, 0.17089765, -0.43330097, 10.316531
265751695439338, 5.3611193, -0.3912265, 8.987442, 0.27401105, -0.6129608, 10.450739
265751705079651, 5.0368915, -0.4977071, 8.581859, 0.37654805, -0.64789295, 9.935026
265751714719963, 5.2402816, 0.21894327, 8.758927, -0.35687724, -0.58931637, 10.185905
265751724360172, 4.979464, -0.90448695, 8.374879, 0.76664466, -0.57166004, 9.7384405
265751734000484, 5.237889, 0.46301118, 8.656036, -0.59984946, -0.5398207, 10.095821
265751743640797, 5.10748, -0.9320044, 8.377272, 0.79353154, -0.4485569, 9.813398
265751753281109, 5.143372, 0.4103691, 8.786445, -0.5487303, -0.6846018, 10.151577
265751762921317, 4.941179, -0.72382885, 8.79482, 0.5660697, -0.83616877, 10.063221
265751772561630, 4.8442693, 0.22492532, 8.846265, -0.36198846, -0.9411125, 10.037789
265751782201942, 4.847859, 0.05742774, 8.861818, -0.21018678, -0.94072676, 10.055231
265751791842255, 4.674379, 0.069391854, 8.487342, -0.18334156, -0.861747, 9.649527
265751801482567, 5.0368915, 0.66759753, 8.681161, -0.77524096, -0.66827583, 10.006544
265751811122776, 4.8251266, -0.3385844, 8.3174515, 0.24605177, -0.6090169, 9.59922
265751820763088, 5.0943193, 0.91884387, 8.752945, -1.016749, -0.62750435, 10.098658
265751830403401, 4.9986067, -0.42951167, 8.586644, 0.33332482, -0.60233927, 9.921043
265751840043713, 5.1876397, 1.0612168, 9.12503, -1.143688, -0.7651744, 10.459945
265751849683922, 5.188836, -0.023928227, 8.979067, -0.048451416, -0.6402707, 10.350649
265751859324234, 5.1756754, 1.0444671, 8.860622, -1.1245658, -0.60045195, 10.235427
265751868964547, 5.2426744, 0.6999006, 8.7469635, -0.77322894, -0.4670515, 10.181789
265751878604859, 5.0739803, 0.73579293, 8.41795, -0.7946909, -0.42179203, 9.8152485
265751888245172, 5.493921, 1.0396814, 8.640483, -1.0888605, -0.18507767, 10.232409
265751897885380, 5.343173, -0.1471586, 8.327023, 0.099042766, -0.12371826, 9.893703
265751907525692, 5.538188, 0.9128618, 8.805588, -0.95795476, -0.23095036, 10.395778
265751917166005, 5.308477, -0.6053841, 8.443074, 0.56000406, -0.20267534, 9.973828
265751926806317, 5.5501523, 0.64845496, 8.55793, -0.7002813, -0.06840181, 10.196459
265751936446630, 5.5106707, -0.6987042, 8.346166, 0.63878673, 0.011527061, 10.005299
265751946086838, 5.5597234, 0.32303107, 8.469396, -0.3936391, -0.018945694, 10.128685
265751955727151, 5.6446686, -0.2656033, 8.577073, 0.17788327, -0.021443367, 10.26971
265751965367463, 5.562116, -0.2321038, 8.252846, 0.13630041, 0.08096361, 9.953659
265751975007776, 5.761917, 0.061016977, 8.292327, -0.16379848, 0.22924662, 10.093895
265751984648088, 5.4640107, -0.762114, 7.8604226, 0.6538703, 0.1837244, 9.5792055
265751994288297, 5.6578293, 0.2883351, 8.327023, -0.41299695, 0.12024832, 10.062229
265752003928609, 5.3216376, -1.1760724, 8.056634, 1.040757, -0.0525012, 9.670904
265752013568922, 5.4113684, 0.28235307, 8.310273, -0.44223768, -0.07747221, 9.910686
265752023209234, 5.3407803, -0.96550393, 8.09133, 0.81036747, -0.041582584, 9.709136
265752032849547, 5.5190454, 0.09930214, 8.428718, -0.2682184, -0.057453156, 10.071632
265752042489755, 5.7667027, -0.63170516, 8.632108, 0.4489485, 0.042988777, 10.390564
265752052130067, 5.721239, -0.3684947, 8.609376, 0.18865432, 0.031248093, 10.341816
265752061770380, 5.812166, -0.078963146, 8.825927, -0.095957376, -0.005941868, 10.567651
265752071410692, 5.460421, -0.695115, 8.372486, 0.5303825, -0.036667347, 10.005762
265752081051005, 5.682954, 0.587438, 8.599805, -0.73446566, 0.018285751, 10.298443
265752090691213, 5.3742795, -0.49292147, 8.1020975, 0.36547053, 0.058953285, 9.727939
265752100331526, 5.3790655, 1.0803595, 8.333005, -1.1996665, -0.10769749, 9.904025
265752109971838, 5.1254263, -0.3182454, 8.128419, 0.21112016, -0.16606188, 9.610948
265752119612151, 5.3072805, 0.80997044, 8.415557, -0.9221965, -0.19304895, 9.937663
265752129252463, 5.38744, 0.016749758, 8.513663, -0.12867542, -0.15909576, 10.073004
265752138892776, 5.2426744, 0.26679972, 8.3174515, -0.37535718, -0.18028307, 9.82667
265752148532984, 5.474778, 0.2620141, 8.488539, -0.3801784, -0.06630087, 10.096941
265752158173297, 5.377869, -0.51086766, 8.207381, 0.38342634, 0.030956745, 9.818127
265752167813609, 5.6793647, 0.41515473, 8.653643, -0.5496273, 0.025463581, 10.34458
265752177453922, 5.4843497, -0.7860422, 8.3784685, 0.6466631, 0.029728413, 10.023754
265752187094234, 5.703293, 0.6687939, 8.790034, -0.82981247, -0.025423527, 10.466628
265752196734547, 5.5477595, -0.7956135, 8.567501, 0.6384614, -0.031095982, 10.217833
265752206374755, 5.6650076, 0.29312077, 8.584251, -0.45443985, 0.053361893, 10.279019
265752216015067, 5.704489, -0.6975078, 8.488539, 0.532359, 0.14770365, 10.236103
265752225655380, 5.6004014, -0.35533416, 8.257631, 0.19431351, 0.18174219, 9.980402
265752235295692, 5.7320065, -0.40797627, 8.445468, 0.23933883, 0.18871403, 10.210554
265752244936005, 5.355137, -0.91884387, 8.196614, 0.7548166, 0.01184988, 9.804914
265752254576317, 5.4819565, 0.06460621, 8.59143, -0.2390567, -0.11434746, 10.188152
265752264216630, 5.218746, -1.0456635, 8.335398, 0.869877, -0.19722939, 9.849466
265752273856838, 5.4676, 0.51445687, 8.785249, -0.69982487, -0.2364726, 10.334129
265752283497151, 5.252246, -0.81595254, 8.392825, 0.646477, -0.19824219, 9.911314
265752293137463, 5.285745, 0.51206404, 8.373683, -0.68290544, -0.14837313, 9.890982
265752302777776, 5.375476, -0.39481574, 8.210971, 0.23591486, 0.01305294, 9.819157
265752312418088, 5.3814583, 0.23090738, 8.151151, -0.37834126, 0.057614326, 9.762593
265752322058401, 5.6004014, 0.19381863, 8.403593, -0.33529115, 0.110081196, 10.094448
265752331698713, 5.444868, -0.13160525, 8.268398, -0.005165316, 0.053350925, 9.900881
265752341338922, 5.564509, 0.59581286, 8.908479, -0.74166954, -0.19304514, 10.492493
265752350979234, 5.157729, -0.76331043, 8.633304, 0.63188654, -0.37959576, 10.058597
265752360619547, 5.288138, 0.50009996, 8.955139, -0.6505314, -0.43719482, 10.382422
265752370259859, 5.174479, -0.9403793, 8.543573, 0.80080456, -0.29401016, 9.996223
265752379900172, 5.4149575, 0.39840496, 8.683554, -0.56653935, -0.16064405, 10.224373
265752389540484, 5.4436717, -0.74895346, 8.476574, 0.58720905, -0.03881359, 10.084665
265752399180797, 5.4436717, -0.076570325, 8.443074, -0.09940924, -0.011772633, 10.045642
265752408821109, 5.5968122, -0.2644069, 8.65125, 0.081828505, 0.0010561943, 10.306873
265752418461317, 5.343173, -0.48933223, 8.344969, 0.31369048, -0.045701504, 9.915995
265752428101630, 5.56092, 0.28594232, 8.560323, -0.46708977, 0.02988863, 10.201258
265752437741942, 5.345566, -0.74416786, 8.152347, 0.5863481, 0.05637932, 9.7592325
265752447382255, 5.676972, 0.67118675, 8.364112, -0.83276796, 0.23087263, 10.094061
265752457022567, 5.5860443, -0.7178468, 7.921439, 0.5641604, 0.37802315, 9.695732
265752466662880, 5.6350975, 0.6029913, 8.097312, -0.74389523, 0.33279276, 9.849886
265752476303192, 5.501099, -0.54317075, 8.143971, 0.40127394, 0.19877386, 9.8326435
265752485943505, 5.4341, 0.2213361, 8.452646, -0.36294657, -0.034239292, 10.0445385
265752495583817, 5.619544, -0.11365908, 8.866604, -0.047081456, -0.09731388, 10.497483
265752505224130, 5.4819565, -0.29072794, 8.755338, 0.13435988, -0.14509964, 10.332144
265752514864338, 5.629115, 0.35174492, 9.029316, -0.5138266, -0.1755929, 10.632232
265752524504651, 5.282156, -0.66999036, 8.4682, 0.52863806, -0.13622475, 9.988116
265752534144963, 5.4664035, 0.59581286, 8.709874, -0.74194336, -0.13253021, 10.2728
265752543785276, 5.163711, -0.88414794, 8.226524, 0.74053156, -0.10050058, 9.724342
265752553425588, 5.285745, 0.46899325, 8.361719, -0.60260296, -0.08837938, 9.884657
265752563065901, 5.3012986, -0.7178468, 8.26122, 0.56932837, -0.014026165, 9.825604
265752572706213, 5.3611193, 0.13758731, 8.4813595, -0.28425324, -0.09287882, 10.030182
265752582346526, 5.4699926, -0.36251262, 8.723035, 0.19497696, -0.12422228, 10.300007
265752591986838, 5.3036914, -0.46779683, 8.487342, 0.29774106, -0.1334548, 10.013814
265752601627151, 5.528617, 0.05742774, 8.681161, -0.2387059, -0.06259918, 10.289343
265752611267463, 5.2749777, -0.8171489, 8.187042, 0.6500004, 0.024062157, 9.751805
265752620907776, 5.568098, 0.44506502, 8.543573, -0.6304015, 0.022312164, 10.188059
265752630548088, 5.3623157, -0.95353985, 8.327023, 0.7857696, 0.018666267, 9.91893
265752640188297, 5.4257255, 0.39481574, 8.646464, -0.57446945, -0.15812731, 10.198074
265752649828609, 5.2749777, -0.8985049, 8.572288, 0.72951823, -0.20356226, 10.076863
265752659468922, 5.221139, 0.13758731, 8.666803, -0.30532983, -0.32012224, 10.109252
265752669109234, 5.322834, -0.33379877, 8.648857, 0.16422385, -0.2036376, 10.157672
265752678749547, 5.21755, -0.22372891, 8.443074, 0.05846532, -0.18324041, 9.925795
265752688389859, 5.4616175, 0.2117648, 8.577073, -0.37579486, -0.05956793, 10.16344
265752698030172, 5.325227, -0.5778667, 8.148758, 0.42970753, 0.08096552, 9.741817
265752707670484, 5.5597234, 0.6963114, 8.572288, -0.8510128, 0.007833481, 10.205645
265752717310797, 5.276174, -0.61854464, 8.172686, 0.4676074, 0.03038168, 9.736212
265752726951109, 5.4113684, 0.77766734, 8.4012, -0.91660213, 0.0052604675, 9.981365
265752736591422, 5.363512, -0.573081, 8.29472, 0.42487377, 0.04420662, 9.885119
265752746231734, 5.535795, 0.3912265, 8.484949, -0.53374666, 0.07681322, 10.124311
265752755872047, 5.7020965, -0.39840496, 8.703893, 0.23711136, 0.1024847, 10.409786
265752765512359, 5.558527, -0.34456646, 8.610572, 0.17357236, 0.028639317, 10.253143
265752775152672, 5.692525, -0.11246266, 8.705089, -0.062093638, 0.09211683, 10.40114
265752784792984, 5.395815, -0.7298109, 8.142776, 0.55759573, 0.135396, 9.778701
265752794433297, 5.704489, 0.5312066, 8.510074, -0.72181547, 0.20262146, 10.231453
265752804073609, 5.3814583, -0.849452, 8.145168, 0.64634323, 0.12357426, 9.777138
265752813713922, 5.485546, 0.6029913, 8.407183, -0.83481467, 0.037913322, 10.021835
265752823354234, 5.345566, -0.64247286, 8.105687, 0.41683096, 0.09830046, 9.721451
265752832994547, 5.3970113, 0.5407779, 8.316256, -0.7908636, 0.017507076, 9.897197
265752842634859, 5.424529, -0.2428715, 8.370093, -0.009065703, 0.010928154, 9.977113
265752852275172, 5.319245, 0.050249275, 8.32463, -0.31811774, -0.059045315, 9.873786
265752861915484, 5.5477595, 0.1698904, 8.602198, -0.462066, -0.0130229, 10.226956
265752871555797, 5.2905307, -0.6221339, 8.366505, 0.32617804, -0.10632944, 9.912491
265752881196109, 5.5872407, 0.30508488, 8.742178, -0.6432406, -0.04487896, 10.359548
265752890836422, 5.3994045, -1.0695918, 8.402397, 0.731269, -0.039156914, 10.0180645
265752900476734, 5.6147585, 0.27517462, 8.852247, -0.66725445, -0.0738039, 10.464839
265752910117047, 5.3970113, -1.2023934, 8.658429, 0.80778956, -0.19497776, 10.239695
265752919757359, 5.355137, -0.041874398, 8.82473, -0.38950744, -0.28905582, 10.3111515
265752929397672, 5.2462635, -0.92482597, 8.799605, 0.49351072, -0.39120197, 10.267183
265752939037984, 5.0141597, -0.50488555, 8.495717, 0.08962399, -0.4081478, 9.869108
265752948678297, 5.2199426, -0.45822555, 8.544769, 0.02195546, -0.25970268, 10.020126
265752958318609, 5.1529436, -1.006182, 8.036295, 0.5850508, -0.04811573, 9.581369
265752967958922, 5.4616175, -0.19501504, 8.380861, -0.25095534, 0.043474674, 10.002063
265752977599234, 5.2534423, -1.5266209, 8.111669, 1.074897, -0.01561594, 9.724852
265752987239547, 5.639883, -0.10767702, 8.603394, -0.37725005, 0.073429585, 10.28059
265752996879859, 5.5501523, -1.5421742, 8.506484, 1.0323672, 0.008922577, 10.221395
265753006520172, 5.5453663, -0.31106696, 8.752945, -0.20999405, -0.09238243, 10.363844
265753016160484, 5.4520464, -1.1952149, 8.632108, 0.659227, -0.116940975, 10.257601
265753025800797, 5.2929235, -0.54317075, 8.4347, 0.02089715, -0.12473822, 9.971873
265753035441109, 5.4676, -0.51206404, 8.465807, -0.011283785, 0.010559082, 10.090912
265753045081422, 5.3072805, -0.85902333, 8.060223, 0.35491684, 0.10467768, 9.681705
265753054721734, 5.7056856, 0.07178468, 8.52802, -0.6013004, 0.16348314, 10.242013
265753064362047, 5.601598, -1.0348958, 8.251649, 0.5285502, 0.25659943, 10.0096655
265753074002463, 5.784649, 0.42711884, 8.689535, -0.95327914, 0.11076307, 10.403441
265753083642776, 5.535795, -1.0097711, 8.360522, 0.501979, 0.13881588, 10.06438
265753093283088, 5.515456, 0.27996024, 8.589037, -0.7674482, -0.04084158, 10.182315
265753102923401, 5.3994045, -0.77766734, 8.472985, 0.31176758, -0.037096024, 10.072301
265753112563713, 5.2546387, -0.07058827, 8.409575, -0.38325962, -0.15635395, 9.9078665
265753122204026, 5.3970113, -0.16271193, 8.46461, -0.30438533, -0.052841663, 10.035356
265753131844338, 5.1732826, -0.40438703, 8.252846, -0.04616359, -0.119933605, 9.747786
265753141484651, 5.3718867, 0.3290131, 8.622537, -0.7981574, -0.17637157, 10.131406
265753151124963, 5.1816573, -0.7920243, 8.267202, 0.33705038, -0.10314274, 9.7826
265753160765276, 5.569295, 0.5084748, 8.670393, -0.9903833, -0.03931713, 10.269805
265753170405588, 5.4640107, -1.0863415, 8.315059, 0.6122819, 0.12480593, 9.98926
265753180045901, 5.5836515, 0.11964113, 8.506484, -0.6152934, 0.090171814, 10.157019
265753189686317, 5.5334024, -1.105484, 8.377272, 0.6211196, 0.12951374, 10.080514
265753199326630, 5.426922, -0.4139583, 8.46102, -0.0843095, -0.014761925, 10.0600395
265753208966942, 5.5537415, -0.701097, 8.595019, 0.19312099, 0.022594452, 10.255347
265753218607255, 5.352744, -0.8578269, 8.316256, 0.3532382, 0.002482891, 9.92084
265753228247567, 5.5872407, -0.20338993, 8.608179, -0.3197369, 0.033347607, 10.259436
265753237887880, 5.38744, -1.2059826, 8.32463, 0.68691504, 0.030348301, 9.9652195
265753247528192, 5.621937, 0.124426775, 8.744571, -0.66556346, -0.019427776, 10.37525
265753257168505, 5.4029937, -1.3004991, 8.355737, 0.764656, 0.023543835, 10.005835
265753266808817, 5.4783673, 0.09810573, 8.518449, -0.6312568, -0.023239613, 10.108763
265753276449130, 5.38744, -1.0731809, 8.329415, 0.54505765, 0.026832104, 9.9628105
265753286089547, 5.3336015, -0.22612174, 8.402397, -0.31096178, -0.0713563, 9.94972
265753295729859, 5.3611193, -0.6520442, 8.5112705, 0.11159569, -0.09754896, 10.079014
265753305370172, 5.1936216, -0.6664011, 8.267202, 0.14070079, -0.09729147, 9.784435
265753315010484, 5.3970113, -0.14955142, 8.645268, -0.4002254, -0.1314435, 10.183974
265753324650797, 5.241478, -1.18684, 8.29472, 0.66156864, -0.065392494, 9.861141
265753334291109, 5.6243296, 0.04426722, 8.801998, -0.61145717, -0.005719185, 10.42767
265753343931422, 5.4783673, -1.3722838, 8.4909315, 0.8215771, 0.033614635, 10.164421
265753353571734, 5.6183476, 0.0035892338, 8.699107, -0.55271864, 0.044204235, 10.340836
265753363212151, 5.413761, -1.3136597, 8.463413, 0.7665334, -0.01201725, 10.103274
265753372852463, 5.4149575, -0.37806597, 8.551949, -0.16009857, -0.06643152, 10.127709
265753382492776, 5.3682976, -0.5802595, 8.389236, 0.036238104, -0.01848936, 9.976621
265753392133088, 5.3922257, -0.4235296, 8.329415, -0.12099767, 0.02865839, 9.930718
265753401773401, 5.477171, -0.44626144, 8.286345, -0.10161117, 0.123055935, 9.941658
265753411413713, 5.5776696, -0.42592242, 8.289934, -0.12985045, 0.20407534, 9.997815
265753421054130, 5.5226345, -0.526421, 8.372486, -0.02760771, 0.11672497, 10.042944
265753430694442, 5.4376893, -0.5180461, 8.471788, -0.033991963, -0.009040356, 10.080019
265753440334755, 5.3946185, -0.5802595, 8.548359, 0.029585838, -0.081138134, 10.124505
265753449975067, 5.3718867, -0.67477596, 8.610572, 0.1229825, -0.13172197, 10.16966
265753459615380, 5.3276196, -0.6843473, 8.535198, 0.13751549, -0.12668276, 10.082981
265753469255692, 5.298906, -0.61016977, 8.495717, 0.0670962, -0.1265254, 10.030325
265753478896109, 5.2498527, -0.5515456, 8.525627, 0.009533137, -0.18265295, 10.025867
265753488536422, 5.204389, -0.5886344, 8.53161, 0.047828317, -0.22023296, 10.008483
265753498176734, 5.2139606, -0.58983076, 8.499306, 0.04845509, -0.18989086, 9.986647
265753507817047, 5.2773705, -0.49651068, 8.545966, -0.048747107, -0.15770817, 10.055021
265753517457359, 5.386244, -0.526421, 8.629715, -0.026607424, -0.10459995, 10.185729
265753527097672, 5.4460645, -0.61734825, 8.57468, 0.07204735, -0.0100569725, 10.176473
265753536738088, 5.456832, -0.6233303, 8.402397, 0.0869593, 0.09532356, 10.03739
265753546378401, 5.5262237, -0.65324056, 8.408379, 0.117886156, 0.14968967, 10.08119
265753556018713, 5.5597234, -0.7070791, 8.46461, 0.16866738, 0.14907837, 10.149356
265753565659026, 5.5944195, -0.65324056, 8.480164, 0.1138493, 0.16157246, 10.178328
265753575299442, 5.6578293, -0.51086766, 8.549556, -0.032785133, 0.17214203, 10.263343
265753584939755, 5.6147585, -0.40797627, 8.529217, -0.1272901, 0.13520718, 10.217876
265753594580067, 5.5944195, -0.34097722, 8.413164, -0.1826161, 0.173347, 10.106024
265753604220380, 5.548956, -0.21774685, 8.333005, -0.30297518, 0.17150259, 10.0078
265753613860692, 5.495117, -0.16271193, 8.2456665, -0.34426448, 0.16467237, 9.902939
265753623501109, 5.3826547, -0.25124636, 8.202596, -0.23807663, 0.09240389, 9.810884
265753633141422, 5.276174, -0.3505485, 8.23131, -0.12212908, -0.008012295, 9.782657
265753642781734, 5.2737813, -0.32063824, 8.382058, -0.14852457, -0.09113693, 9.906772
265753652422047, 5.279763, -0.32303107, 8.59143, -0.14767826, -0.18947363, 10.086388
265753662062359, 5.2223353, -0.36370903, 8.76491, -0.10004482, -0.32352257, 10.203629
265753671702776, 5.1589255, -0.40797627, 8.796016, -0.051060714, -0.38073492, 10.198199
265753681343088, 5.1720862, -0.40677986, 8.543573, -0.04868228, -0.22392416, 9.992802
265753690983401, 5.3132625, -0.41156548, 8.449057, -0.053910926, -0.053579807, 9.98904
265753700623713, 5.4843497, -0.4977071, 8.492127, 0.019570298, 0.07483101, 10.121071
265753710264130, 5.599205, -0.5922236, 8.49452, 0.10313198, 0.17280865, 10.189121
265753719904442, 5.6183476, -0.6113662, 8.534002, 0.11577311, 0.16165161, 10.233731
265753729544755, 5.562116, -0.58504516, 8.60459, 0.08470416, 0.06623936, 10.26191
265753739185067, 5.4341, -0.5802595, 8.538788, 0.081783935, -0.013453007, 10.137564
265753748825484, 5.272585, -0.5886344, 8.472985, 0.093869835, -0.11711645, 9.995779
265753758465797, 5.2331033, -0.5515456, 8.392825, 0.05703789, -0.10579395, 9.905283
265753768106109, 5.3108697, -0.5192425, 8.311469, 0.02310729, 0.0026407242, 9.876989
265753777746422, 5.4496536, -0.5706882, 8.35454, 0.06343013, 0.10258436, 9.990406
265753787386838, 5.501099, -0.60658056, 8.400003, 0.09576686, 0.12507391, 10.058096
265753797027151, 5.485546, -0.5694918, 8.428718, 0.05740504, 0.09952068, 10.0720215
265753806667463, 5.4999027, -0.5563313, 8.49452, 0.042700738, 0.078997135, 10.134459
265753816307776, 5.538188, -0.49172506, 8.472985, -0.02281569, 0.12390423, 10.1335535
265753825948192, 5.564509, -0.44506502, 8.428718, -0.066096306, 0.1701765, 10.108006
265753835588505, 5.548956, -0.47856453, 8.517252, -0.032288805, 0.106785774, 10.176003
265753845228817, 5.511867, -0.51206404, 8.567501, 0.0026313215, 0.038609028, 10.2001705
265753854869234, 5.432904, -0.55034924, 8.55793, 0.042940795, -0.024345875, 10.151604
265753864509547, 5.3587265, -0.51445687, 8.57468, 0.006964177, -0.09769392, 10.12404
265753874149859, 5.343173, -0.465404, 8.620144, -0.043878928, -0.13576746, 10.151484
265753883790172, 5.3419766, -0.48215377, 8.622537, -0.02557744, -0.13800335, 10.1537
265753893430588, 5.3240304, -0.5192425, 8.560323, 0.022415698, -0.114421844, 10.093583
265753903070901, 5.308477, -0.4977071, 8.487342, 0.0034693256, -0.08920145, 10.022706
265753912711213, 5.298906, -0.49052864, 8.422736, 0.0017803758, -0.06044054, 9.962824
265753922351630, 5.2749777, -0.4941179, 8.348558, 0.012080416, -0.037479877, 9.88769
265753931991942, 5.2630134, -0.44865423, 8.27797, -0.028858237, -0.008539677, 9.819595
265753941632255, 5.278567, -0.47258246, 8.309076, -0.005909033, -0.009596348, 9.855315
265753951272672, 5.3515477, -0.50009996, 8.4502535, 0.013038345, -0.024883747, 10.014748
265753960912984, 5.4388857, -0.57188463, 8.568698, 0.07483207, -0.012856483, 10.164907
265753970553297, 5.447261, -0.59700924, 8.617751, 0.09884602, -0.030475616, 10.211954
265753980193713, 5.4843497, -0.6161518, 8.551949, 0.110921115, 0.035516262, 10.177426
265753989834026, 5.49751, -0.6257231, 8.6345005, 0.11643896, 3.0565262E-4, 10.25452
265753999474338, 5.5429735, -0.61734825, 8.609376, 0.10436334, 0.049333572, 10.257374
265754009114651, 5.575277, -0.5946164, 8.536395, 0.0811166, 0.113782406, 10.212141
265754018755067, 5.5166526, -0.54317075, 8.480164, 0.038009733, 0.091012955, 10.130743
265754028395380, 5.4424753, -0.4031906, 8.348558, -0.09029883, 0.094500065, 9.9731865
265754038035692, 5.3718867, -0.3182454, 8.35454, -0.1641196, 0.026869297, 9.936253
265754047676109, 5.337191, -0.2955136, 8.344969, -0.18453716, 0.0025076866, 9.90845
265754057316422, 5.285745, -0.32662028, 8.361719, -0.13330097, -0.045983315, 9.896679
265754066956734, 5.3204412, -0.36131623, 8.3784685, -0.101003036, -0.024250507, 9.931042
265754076597151, 5.4125648, -0.40558344, 8.376076, -0.051949352, 0.063130856, 9.980598
265754086237463, 5.453243, -0.42592242, 8.443074, -0.0357714, 0.06335068, 10.059796
265754095877776, 5.4388857, -0.46181476, 8.517252, -0.004307002, 0.014100552, 10.11623
265754105518192, 5.38744, -0.4235296, 8.532805, -0.04063064, -0.03835869, 10.0999775
265754115158505, 5.3216376, -0.45224348, 8.610572, -0.022766203, -0.13240767, 10.131547
265754124798817, 5.298906, -0.49292147, 8.68475, 0.016461343, -0.19066572, 10.183792
265754134439234, 5.3718867, -0.49052864, 8.682357, 0.005437702, -0.12733316, 10.220806
265754144079547, 5.493921, -0.48454657, 8.645268, -0.008204162, -0.0042595863, 10.254684
265754153719859, 5.523831, -0.47736812, 8.553144, -0.009705782, 0.06575632, 10.192764
265754163360276, 5.4795637, -0.4749753, 8.575876, -0.011113495, 0.016059399, 10.188057
265754173000588, 5.343173, -0.5599205, 8.480164, 0.098855644, -0.047952652, 10.038134
265754182641005, 5.288138, -0.6221339, 8.323434, 0.16697761, -0.00530529, 9.879427
265754192281317, 5.3204412, -0.6197411, 8.26122, 0.16806188, 0.057550907, 9.844154
265754201921630, 5.365905, -0.5802595, 8.286345, 0.12219429, 0.081820965, 9.887948
265754211562047, 5.413761, -0.587438, 8.366505, 0.12075919, 0.07721186, 9.981571
265754221202359, 5.386244, -0.567099, 8.5016985, 0.09231046, -0.019387245, 10.079842
265754230842672, 5.3682976, -0.49292147, 8.579466, 0.0124567, -0.07592058, 10.132271
265754240483088, 5.416154, -0.38763726, 8.562716, -0.095987186, -0.025639057, 10.138799
265754250123401, 5.45085, -0.34097722, 8.612965, -0.14555493, -0.024759293, 10.19752
265754259763713, 5.454439, -0.38285163, 8.603394, -0.0986345, -0.013022423, 10.193428
265754269404130, 5.4388857, -0.40079778, 8.493324, -0.056157306, 0.036839962, 10.093273
265754279044442, 5.4029937, -0.37567315, 8.312666, -0.07456972, 0.10310507, 9.920569
265754288684859, 5.406583, -0.3361916, 8.209774, -0.10228208, 0.16031075, 9.834042
265754298325172, 5.4424753, -0.3062813, 8.254042, -0.12946127, 0.15550423, 9.88952
265754307965484, 5.444868, -0.32063824, 8.353344, -0.11851396, 0.103581905, 9.975119
265754317605901, 5.4089756, -0.34576288, 8.545966, -0.10080506, -0.034567833, 10.119228
265754327246213, 5.3826547, -0.4139583, 8.713464, -0.04492989, -0.15120745, 10.249094
265754336886630, 5.3276196, -0.5694918, 8.805588, 0.10231802, -0.2481265, 10.304086
