timestamp_acc,device_acc_x,device_acc_y,device_acc_z,earth_acc_x,earth_acc_y,earth_acc_z
187758456505761, 7.1449685, 0.101694964, 7.1018977, -0.007641077, 0.003543377, 10.074614
187758466145449, 7.119844, 0.11006984, 7.09113, -0.019772768, -0.0018544197, 10.04928
187758475785136, 7.133004, 0.12203395, 7.0983086, -0.02825737, 0.0112781525, 10.063782
187758485424928, 7.1473613, 0.111266255, 7.075577, -0.007296562, 0.03068161, 10.05783
187758495064615, 7.1712894, 0.08973085, 7.0839515, 0.016855955, 0.030173779, 10.080507
187758504704303, 7.146165, 0.08973085, 7.088737, 0.007848978, 0.011080265, 10.066069
187758514343990, 7.112665, 0.08853444, 7.064809, 0.004872799, 0.003431797, 10.025436
187758523983782, 7.111469, 0.10289137, 7.076773, -0.013957977, -4.143715E-4, 10.033151
187758533623469, 7.1425757, 0.14117654, 7.092326, -0.043634415, 0.02558279, 10.066522
187758543263157, 7.1222367, 0.0741775, 7.097112, 0.008848906, -0.019778252, 10.054864
187758552902844, 7.1042905, 0.08135597, 7.097112, -0.0022146702, -0.027669907, 10.0422
187758562542532, 7.166504, 0.1052842, 7.058827, 0.0075588226, 0.046566486, 10.059556
187758572182324, 7.1677003, 0.11365908, 7.09113, -0.010495663, 0.0289402, 10.083254
187758581822011, 7.103094, 0.08733802, 7.07438, -0.0019717216, -0.012596607, 10.025381
187758591461699, 7.1306114, 0.058624156, 7.0600233, 0.03586459, -0.0011439323, 10.034525
187758601101386, 7.1342006, 0.05383851, 7.056434, 0.04236865, 0.0016746521, 10.0345
187758610741178, 7.112665, 0.07776674, 7.0731835, 0.0063774586, -0.015003204, 10.031238
187758620380865, 7.1007013, 0.0849452, 7.070791, -0.00303483, -0.017970562, 10.021126
187758630020553, 7.129415, 0.09451649, 7.0731835, -0.0049643517, 0.0028247833, 10.043276
187758639660240, 7.2095747, 0.047856454, 7.0468626, 0.06881881, 0.051845074, 10.081224
187758649299928, 7.115058, 0.16749759, 7.068398, -0.073984385, 0.027703285, 10.03036
187758658939719, 7.1306114, 0.13998012, 7.1210403, -0.05889249, -0.009687424, 10.078237
187758668579407, 7.1365933, 0.09092726, 7.066005, 0.004966736, 0.009350777, 10.043285
187758678219094, 7.1413794, 0.08973085, 7.0492554, 0.012637138, 0.022594929, 10.034875
187758687858782, 7.1270223, 0.09451649, 7.0815587, -0.006291628, -0.0061893463, 10.047476
187758697498469, 7.125826, 0.069391854, 7.1007013, 0.010270596, -0.030053139, 10.059879
187758707138261, 7.1162543, 0.08255238, 7.111469, -0.008179665, -0.03744173, 10.060785
187758716777949, 7.1222367, 0.0849452, 7.071987, 0.0031044483, -0.0056681633, 10.037252
187758726417636, 7.068398, 0.07178468, 7.1306114, -0.018655539, -0.080364704, 10.040231
187758736057324, 7.1712894, 0.12801601, 7.0145597, -0.0028908253, 0.085644245, 10.031973
187758745697115, 7.125826, 0.10767702, 7.105487, -0.026369572, -0.0063886642, 10.063608
187758755336803, 7.1581287, 0.11246266, 7.0576305, -0.0077261925, 0.045435905, 10.0528345
187758764976490, 7.159325, 0.11724831, 7.066005, -0.014926672, 0.0417881, 10.059629
187758774616178, 7.1413794, 0.111266255, 7.0731835, -0.019737482, 0.019881725, 10.0519085
187758784255969, 7.1677003, 0.11006984, 7.051648, -0.0038371086, 0.050005436, 10.05541
187758793895657, 7.129415, 0.106480606, 7.076773, -0.020793676, 0.0076675415, 10.0459
187758803535344, 7.0983086, 0.104087785, 7.021738, -0.0120790005, 0.021925926, 9.985039
187758813175032, 7.112665, 0.09212367, 7.0325055, 0.0022325516, 0.02435875, 10.002703
187758822814719, 7.07438, 0.062213387, 7.0468626, 0.013083935, -0.020486832, 9.985409
187758832454511, 7.111469, 0.040677983, 7.0396843, 0.046242, -0.0015897751, 10.006481
187758842094199, 7.153343, 0.0526421, 7.066005, 0.039842606, 0.015188694, 10.054836
187758851733886, 7.143772, 0.040677983, 7.0815587, 0.0418787, -0.0051760674, 10.058918
187758861373574, 7.1509504, 0.0526421, 7.117451, 0.020174265, -0.018505573, 10.089413
187758871013365, 7.1748786, 0.05623133, 7.143772, 0.015450478, -0.019206524, 10.124966
187758880653053, 7.1880393, 0.078963146, 7.115058, 0.0069208145, 0.017296791, 10.114241
187758890292740, 7.1545396, 0.11365908, 7.0935225, -0.030200243, 0.021254063, 10.075567
187758899932428, 7.076773, 0.106480606, 7.1007013, -0.048915505, -0.03741169, 10.025379
187758909572115, 7.1210403, 0.11006984, 7.0959153, -0.0380795, -0.0035705566, 10.05345
187758919211907, 7.1102724, 0.07298109, 7.0731835, -9.281635E-4, -0.01104641, 10.029511
187758928851594, 7.119844, 0.08733802, 7.0815587, -0.013710499, -0.004233837, 10.042315
187758938491282, 7.1222367, 0.1052842, 7.1018977, -0.035961628, -0.0075621605, 10.058476
187758948130969, 7.1210403, 0.101694964, 7.042077, -0.015921116, 0.032095432, 10.015444
187758957770761, 7.160522, 0.09092726, 7.0468626, 0.004221916, 0.049779892, 10.046747
187758967410449, 7.1772714, 0.11006984, 7.0540414, -0.010447025, 0.06438303, 10.0638275
187758977050136, 7.1629148, 0.086141616, 7.0612197, 0.004123926, 0.040240288, 10.058527
187758986689824, 7.1377897, 0.06580263, 7.105487, 6.568432E-4, -0.014596462, 10.071749
187758996329511, 7.1306114, 0.058624156, 7.0600233, 0.01742649, 0.0055246353, 10.034573
187759005969303, 7.1210403, 0.03589234, 7.0540414, 0.035085678, -0.0068392754, 10.023409
187759015608990, 7.117451, 0.013160525, 7.0085773, 0.06826043, 0.0105137825, 9.988677
187759025248678, 7.117451, 0.015553347, 6.9966135, 0.06594968, 0.019880772, 9.980291
187759034888365, 7.1413794, 0.043070808, 7.0025954, 0.0445199, 0.04288578, 10.001683
187759044528157, 7.111469, 0.07178468, 7.04447, -0.0031795502, 0.009355545, 10.010124
187759054167844, 7.0983086, 0.07776674, 7.075577, -0.024026632, -0.016164303, 10.022722
187759063807532, 7.1162543, 0.06580263, 7.09113, -0.012259722, -0.018924236, 10.046343
187759073447219, 7.1413794, 0.1160519, 7.0899334, -0.04974866, 0.021280289, 10.063648
187759083086907, 7.166504, 0.12801601, 7.042077, -0.038650036, 0.07380867, 10.04784
187759092726699, 7.152147, 0.12203395, 7.094719, -0.053141356, 0.027982235, 10.0746975
187759102366386, 7.1784678, 0.11964113, 7.1282187, -0.052749395, 0.022606373, 10.116964
187759112006074, 7.1880393, 0.09930214, 7.143772, -0.035386562, 0.010690689, 10.134588
187759121645761, 7.1784678, 0.078963146, 7.1282187, -0.014704466, 0.0035452843, 10.116715
187759131285449, 7.152147, 0.06819545, 7.079166, 0.0018229485, 0.013456821, 10.063414
187759140925240, 7.103094, 0.0059820567, 7.0779696, 0.042490244, -0.045292854, 10.027351
187759150564928, 7.0731835, -0.0011964113, 7.0731835, 0.03992176, -0.066523075, 10.002691
187759160204615, 7.1007013, 0.03589234, 7.0672016, 0.013850689, -0.029092312, 10.018261
187759169844303, 7.082755, 0.013160525, 7.0612197, 0.030806541, -0.046337605, 10.001166
187759179483990, 7.082755, 0.049052864, 7.0576305, -0.0010197163, -0.028321743, 9.9988575
187759189123782, 7.1425757, 0.083748795, 7.0396843, -0.010245323, 0.036998272, 10.0289135
187759198763469, 7.1629148, 0.08255238, 7.0408807, -0.006271839, 0.045290947, 10.044205
187759208403157, 7.179664, 0.061016977, 7.0205417, 0.024001122, 0.060462475, 10.041667
187759218042844, 7.2263246, 0.07178468, 6.9990063, 0.029983282, 0.101364136, 10.059812
187759227682636, 7.2119675, 0.0741775, 7.0205417, 0.017238379, 0.07920265, 10.06476
187759237322324, 7.1210403, 0.06699903, 6.995417, 2.3341179E-4, 0.026111126, 9.9824295
187759246962011, 7.146165, 0.086141616, 7.01097, -0.01424408, 0.039949894, 10.011343
187759256601699, 7.1222367, 0.083748795, 7.0468626, -0.031168938, -0.0021305084, 10.019509
187759266241386, 7.0899334, 0.07776674, 7.0540414, -0.037980556, -0.0312891, 10.001514
187759275881178, 7.09113, 0.047856454, 7.07438, -0.016165018, -0.056550503, 10.016477
187759285520865, 7.149754, 0.02871387, 7.103094, 0.010042906, -0.045610905, 10.078272
187759295160553, 7.194021, 0.008374879, 7.092326, 0.04447937, -0.018557549, 10.102118
187759304800240, 7.1856465, -0.025124637, 7.062416, 0.08072233, -0.018015385, 10.07497
187759314439928, 7.152147, 0.009571291, 7.042077, 0.043992996, -0.011816978, 10.037035
187759324079719, 7.149754, 0.031106694, 7.015756, 0.031107903, 0.013088226, 10.01697
187759333719407, 7.119844, 0.059820566, 6.9966135, 0.001285553, 0.01842022, 9.982386
187759343359094, 7.1138616, 0.06580263, 6.995417, -0.0061917305, 0.01731491, 9.977318
187759352998782, 7.140183, 0.096909314, 7.0025954, -0.028824806, 0.042333126, 10.0012665
187759362638469, 7.155736, 0.12323037, 6.991828, -0.044273376, 0.07003832, 10.004927
187759372278261, 7.152147, 0.12801601, 7.0528445, -0.068641424, 0.030274868, 10.045227
187759381917949, 7.146165, 0.13758731, 7.0731835, -0.084771395, 0.016523361, 10.055302
187759391557636, 7.194021, 0.12801601, 7.025327, -0.046150684, 0.07298136, 10.05575
187759401197324, 7.1712894, 0.041874398, 7.025327, 0.026033878, 0.022032738, 10.0390835
187759410837011, 7.166504, 0.013160525, 7.036095, 0.047680616, -0.0014514923, 10.043074
187759420476803, 7.1820574, 0.0035892338, 7.0695944, 0.048918247, -0.018097878, 10.07762
187759430116490, 7.155736, 0.0011964113, 7.0899334, 0.037237644, -0.04894924, 10.07313
187759439756178, 7.143772, 0.013160525, 7.0636125, 0.030577421, -0.034409046, 10.046202
187759449395865, 7.152147, 0.025124637, 7.0265236, 0.032845736, 2.3841858E-5, 10.026207
187759459035553, 7.1629148, 0.041874398, 7.0337024, 0.019105673, 0.009080887, 10.039004
187759468675240, 7.125826, 0.05623133, 7.024131, -0.002038002, -0.0029745102, 10.005947
187759478315032, 7.1653075, 0.08255238, 7.0097737, -0.009400368, 0.041698456, 10.024149
187759487954719, 7.1222367, -0.07298109, 6.9858456, 0.1267693, -0.03499508, 9.975788
187759497594407, 7.253842, 0.4869394, 7.04447, -0.36377883, 0.2367711, 10.113926
187759507234094, 7.038488, -0.48215377, 7.055238, 0.4529345, -0.3030343, 9.96254
187759516873782, 7.318448, 0.7860422, 7.036095, -0.60710216, 0.40910387, 10.156194
187759526513574, 7.0636125, -0.59700924, 6.9726853, 0.6039263, -0.27308798, 9.921193
187759536153261, 7.2346992, 0.7118647, 7.1856465, -0.6081325, 0.21615458, 10.201206
187759545792949, 7.1306114, -0.36610186, 6.9655066, 0.40178943, -0.1357913, 9.965845
187759555432636, 7.1222367, 0.30508488, 7.204789, -0.2758398, -0.019227505, 10.131725
187759565072324, 7.1880393, 0.02871387, 6.942775, 0.07072365, 0.080779076, 9.992964
187759574712011, 7.01097, -0.22253251, 7.1545396, 0.17970157, -0.2809825, 10.01396
187759584351803, 7.29452, 0.4869394, 7.0025954, -0.3159554, 0.3105607, 10.113712
187759593991490, 6.991828, -0.56590253, 7.068398, 0.5101867, -0.39265537, 9.937489
187759603631178, 7.2861447, 0.74536425, 7.0528445, -0.5702231, 0.39754915, 10.144107
187759613270865, 7.0396843, -0.63529444, 6.9188466, 0.6350293, -0.3029294, 9.86591
187759622910553, 7.2299137, 0.7369894, 7.099505, -0.60041785, 0.31657553, 10.136914
187759632550240, 7.0983086, -0.3912265, 6.8709903, 0.44382048, -0.11742306, 9.876173
187759642190032, 7.1138616, 0.35174492, 7.1342006, -0.28742027, 0.05464506, 10.076803
187759651829719, 7.196414, 0.0023928226, 6.8745794, 0.12569475, 0.118308544, 9.950799
187759661469407, 7.0672016, -0.106480606, 7.133004, 0.10400891, -0.17872953, 10.039606
187759671109094, 7.2897344, 0.47377887, 7.007381, -0.30702937, 0.30227232, 10.113478
187759680748782, 6.9882383, -0.56829536, 7.1569324, 0.48142934, -0.46021605, 9.996827
187759690388469, 7.300502, 0.7585248, 7.143772, -0.5969825, 0.36254978, 10.21853
187759700028261, 7.042077, -0.6855437, 7.001399, 0.6458814, -0.37361097, 9.925908
187759709667949, 7.2646093, 0.74895346, 7.1425757, -0.5844748, 0.33925295, 10.192898
187759719307636, 7.085148, -0.4749753, 6.927222, 0.49603987, -0.20387745, 9.905741
187759728947324, 7.131808, 0.44506502, 7.198807, -0.38305366, 0.07316685, 10.135654
187759738587011, 7.210771, 0.0011964113, 6.9128647, 0.12038207, 0.10145569, 9.9879
187759748226699, 7.0528445, -0.0849452, 7.0983086, 0.08974099, -0.15659714, 10.00516
187759757866386, 7.2705917, 0.4319045, 6.9415784, -0.24967742, 0.3131523, 10.053515
187759767506178, 7.0229344, -0.49292147, 7.097112, 0.4385569, -0.36254025, 9.980473
187759777145865, 7.29452, 0.762114, 7.0468626, -0.56065917, 0.4169283, 10.146969
187759786785553, 6.984649, -0.6879365, 6.954739, 0.64786005, -0.3774433, 9.852146
187759796425240, 7.257431, 0.7968099, 7.0863442, -0.61451983, 0.3837204, 10.1487255
187759806064928, 7.056434, -0.5084748, 6.8949184, 0.5400195, -0.21829271, 9.861664
187759815704615, 7.117451, 0.45104706, 7.237092, -0.4037689, 0.04072094, 10.152456
187759825344303, 7.192825, -0.096909314, 6.9212394, 0.20630622, 0.039584637, 9.980259
187759834984094, 7.07438, -0.033499517, 7.1282187, 0.043771744, -0.13817692, 10.041836
187759844623782, 7.2993054, 0.37088752, 6.9619174, -0.18769407, 0.29383278, 10.087823
187759854263469, 7.018149, -0.49052864, 7.1186476, 0.43058872, -0.38687468, 9.991751
187759863903157, 7.3136625, 0.7501499, 7.07438, -0.55084014, 0.42232084, 10.179266
187759873542844, 6.9930243, -0.68075806, 6.991828, 0.6301024, -0.42024112, 9.883211
187759883182532, 7.251449, 0.7680961, 7.103094, -0.596915, 0.37710905, 10.155241
187759892822219, 7.0576305, -0.5479564, 6.9391856, 0.54228044, -0.27881956, 9.893984
187759902461907, 7.159325, 0.5347959, 7.1784678, -0.4421352, 0.15181208, 10.141687
187759912101699, 7.1976104, -0.10289137, 6.9092755, 0.21705747, 0.036436558, 9.975262
187759921741386, 7.0875406, 0.062213387, 7.166504, -0.059029818, -0.110918045, 10.078695
187759931381074, 7.283752, 0.3385844, 6.940382, -0.15314817, 0.2837386, 10.061443
187759941020761, 7.036095, -0.41994038, 7.1222367, 0.3599646, -0.34987688, 10.00786
187759950660449, 7.3340015, 0.7118647, 7.0731835, -0.516325, 0.4078741, 10.192708
187759960300136, 6.9894347, -0.67836523, 7.0193453, 0.59969926, -0.44304204, 9.900892
187759969939824, 7.219146, 0.72263247, 7.0396843, -0.551227, 0.3456893, 10.088214
187759979579511, 7.045666, -0.613759, 6.9020967, 0.60909796, -0.31155157, 9.858447
187759989219303, 7.129415, 0.57547385, 7.1342006, -0.49613106, 0.16200542, 10.088813
187759998858990, 7.1306114, -0.18664017, 6.95115, 0.24029684, -0.071454525, 9.956713
187760008498678, 7.097112, 0.1160519, 7.135397, -0.08983779, -0.076100826, 10.063919
187760018138365, 7.328019, 0.29072794, 6.8853474, -0.09897566, 0.3066392, 10.054282
187760027778053, 7.051648, -0.35653058, 7.082755, 0.33798766, -0.27574396, 9.991398
187760037417740, 7.3435726, 0.7046863, 7.0372915, -0.51612127, 0.3966465, 10.174694
187760047057428, 7.0265236, -0.66041905, 7.0085773, 0.6202011, -0.40334463, 9.91872
187760056697115, 7.2969127, 0.8255238, 7.024131, -0.6408428, 0.42418337, 10.13283
187760066336803, 7.0301127, -0.59581286, 6.8865438, 0.5918088, -0.28764296, 9.837124
187760075976594, 7.1629148, 0.6364908, 7.18445, -0.56333375, 0.15241337, 10.148312
187760085616282, 7.140183, -0.22851457, 6.9344, 0.28163314, -0.089129925, 9.951536
187760095255969, 7.1342006, 0.19501504, 7.155736, -0.15922761, -0.04518652, 10.105049
187760104895657, 7.2550383, 0.22612174, 6.9415784, -0.08288503, 0.1865573, 10.041443
187760114535344, 7.0540414, -0.3397808, 7.115058, 0.30977464, -0.30205107, 10.015579
187760124175032, 7.361519, 0.6412765, 7.02772, -0.45331633, 0.37240934, 10.180758
187760133814719, 7.0935225, -0.64965135, 7.071987, 0.6036582, -0.3865261, 10.011959
187760143454407, 7.281359, 0.78364944, 7.085148, -0.617651, 0.35247564, 10.164933
187760153094094, 7.042077, -0.634098, 6.928418, 0.62063265, -0.33455038, 9.874149
187760162733782, 7.251449, 0.6664011, 7.159325, -0.5437157, 0.23994255, 10.194624
187760172373469, 7.119844, -0.29312077, 6.9415784, 0.33384943, -0.14350414, 9.941407
187760182013261, 7.088737, 0.2416751, 7.115058, -0.21089888, -0.01984787, 10.044291
187760191652949, 7.2382884, 0.20219351, 6.823134, -0.028925657, 0.23879242, 9.946406
187760201292636, 7.024131, -0.27158538, 7.0097737, 0.26171136, -0.2303052, 9.921066
187760210932324, 7.271788, 0.6041877, 6.96431, -0.41569114, 0.3546934, 10.072088
187760220572011, 7.0085773, -0.6520442, 6.984649, 0.60128665, -0.39514828, 9.890043
187760230211699, 7.322037, 0.75254273, 7.021738, -0.5494151, 0.4150977, 10.1493435
187760239851386, 7.0492554, -0.6987042, 6.948757, 0.6749306, -0.3651743, 9.893257
187760249491074, 7.2466636, 0.6628119, 7.227521, -0.5639322, 0.19940042, 10.238787
187760259130761, 7.1413794, -0.37208393, 6.983453, 0.38709545, -0.18297291, 9.986143
187760268770449, 7.1485577, 0.29072794, 7.2155566, -0.26517344, -0.027707577, 10.157736
187760278410136, 7.2873416, 0.1591227, 6.9451675, -0.020187378, 0.17348003, 10.066554
187760288049824, 7.079166, -0.20458634, 7.1018977, 0.18939829, -0.2261591, 10.025287
187760297689511, 7.3136625, 0.5946164, 6.9858456, -0.41208196, 0.36207104, 10.116539
187760307329303, 7.0097737, -0.56470615, 7.036095, 0.5068691, -0.3850646, 9.927602
187760316968990, 7.328019, 0.7920243, 7.0576305, -0.5959666, 0.41384172, 10.178942
187760326608678, 7.0348988, -0.6664011, 6.899704, 0.659641, -0.32734108, 9.848732
187760336248365, 7.253842, 0.70348984, 7.097112, -0.56561303, 0.30889463, 10.152182
187760345888053, 7.133004, -0.38285163, 6.8745794, 0.4291947, -0.12976646, 9.903793
187760355527740, 7.1449685, 0.3589234, 7.1413794, -0.310879, 0.0484972, 10.10345
187760365167428, 7.2299137, 0.043070808, 6.88774, 0.083515644, 0.11432743, 9.984711
187760374807115, 7.0528445, -0.18424734, 7.082755, 0.16032481, -0.2265935, 9.993244
187760384446803, 7.335198, 0.5072784, 6.9894347, -0.3281212, 0.33138227, 10.133963
187760394086490, 6.99781, -0.5778667, 7.115058, 0.47961545, -0.47473526, 9.97356
187760403726178, 7.30768, 0.7728817, 7.0983086, -0.6055286, 0.3787899, 10.191927
187760413365865, 7.0396843, -0.6963114, 6.9056864, 0.654948, -0.3738861, 9.857066
187760423005553, 7.2646093, 0.73459655, 7.109076, -0.5839348, 0.3136592, 10.169257
187760432645240, 7.1162543, -0.43788654, 6.9248285, 0.45980978, -0.21225023, 9.9262085
187760442285032, 7.1389866, 0.38644084, 7.153343, -0.33474517, 0.050765038, 10.107925
187760451924719, 7.227521, -0.0011964113, 6.8817577, 0.12426853, 0.09761, 9.978511
187760461564407, 7.042077, -0.12083755, 7.0863442, 0.102057695, -0.20233297, 9.988512
187760471204094, 7.2969127, 0.49052864, 6.977471, -0.3161447, 0.31339407, 10.098145
187760480843782, 7.02772, -0.57188463, 7.0492554, 0.49852252, -0.40063953, 9.949818
187760490483469, 7.3160553, 0.7920243, 7.0408807, -0.59599197, 0.4260955, 10.158208
187760500123157, 7.0169525, -0.66759753, 6.8745794, 0.6519656, -0.33094978, 9.818787
187760509762844, 7.2490563, 0.7369894, 7.088737, -0.58031464, 0.33869934, 10.143505
187760519402532, 7.09113, -0.47258246, 6.8925257, 0.49307585, -0.21084356, 9.885687
187760529042219, 7.119844, 0.4235296, 7.2095747, -0.38983846, 0.03938055, 10.1339035
187760538681907, 7.222735, -0.023928227, 6.9475603, 0.11766696, 0.056129456, 10.020981
187760548321594, 7.119844, -0.07537391, 7.1282187, 0.07247543, -0.14549065, 10.0738735
187760557961282, 7.3292155, 0.44985065, 7.012167, -0.28414702, 0.30266428, 10.144848
187760567600969, 7.0229344, -0.5455636, 7.149754, 0.44516134, -0.44941235, 10.01689
187760577240657, 7.3304124, 0.7501499, 7.1210403, -0.58400035, 0.38731337, 10.223297
187760586880344, 7.02772, -0.72263247, 6.96431, 0.659004, -0.4058628, 9.8900795
187760596520032, 7.268199, 0.77647096, 7.1102724, -0.6218302, 0.34930182, 10.172359
187760606159719, 7.0731835, -0.51206404, 6.8889365, 0.5275347, -0.22750854, 9.870134
187760615799407, 7.1449685, 0.4977071, 7.109076, -0.41373014, 0.15032673, 10.08184
187760625439094, 7.1748786, -0.083748795, 6.8219376, 0.20234823, 0.08085346, 9.898346
187760635078886, 7.0325055, -0.038285162, 7.0612197, 0.032969713, -0.13992357, 9.964825
187760644718574, 7.268199, 0.3912265, 6.9415784, -0.22823358, 0.2819996, 10.051551
187760654358261, 7.0193453, -0.49052864, 7.076773, 0.4254744, -0.37352705, 9.963533
187760663997949, 7.32443, 0.7286145, 7.109076, -0.554688, 0.3736968, 10.211258
187760673637636, 7.0145597, -0.71306115, 7.045666, 0.6269536, -0.47133493, 9.936734
187760683277324, 7.292127, 0.74895346, 7.198807, -0.6233425, 0.30938625, 10.250591
187760692917011, 7.062416, -0.567099, 6.9858456, 0.5403557, -0.32562923, 9.929921
187760702556699, 7.170093, 0.53359944, 7.239485, -0.47485757, 0.10836649, 10.191559
187760712196386, 7.200003, -0.1160519, 6.9702926, 0.18780375, -0.012111664, 10.020134
187760721836074, 7.117451, 0.043070808, 7.117451, -0.021358252, -0.07899618, 10.065356
187760731475761, 7.2933235, 0.3589234, 6.930811, -0.18327951, 0.2952037, 10.06165
187760741115449, 7.0229344, -0.4331009, 7.082755, 0.380224, -0.3327837, 9.9709215
187760750755136, 7.29452, 0.73100734, 7.0839515, -0.5548167, 0.37544298, 10.172413
187760760394824, 6.977471, -0.67118675, 6.9786673, 0.62464905, -0.39754915, 9.863527
187760770034511, 7.2490563, 0.7896315, 7.0504518, -0.6230705, 0.39619923, 10.116127
187760779674199, 7.038488, -0.63529444, 6.8805614, 0.6303575, -0.27715063, 9.839303
187760789313886, 7.1629148, 0.53359944, 7.179664, -0.45942378, 0.12761354, 10.144569
187760798953574, 7.2023964, -0.20338993, 6.926025, 0.2810874, -0.009596825, 9.990326
187760808593261, 7.105487, 0.09092726, 7.1342006, -0.072252035, -0.072473526, 10.068891
187760818232949, 7.237092, 0.31226337, 6.9619174, -0.16874647, 0.22407436, 10.043039
187760827872636, 6.99781, -0.37567315, 7.1018977, 0.32137513, -0.3356495, 9.966518
187760837512324, 7.3136625, 0.72741807, 7.064809, -0.5324409, 0.404809, 10.172659
187760847152115, 6.9822564, -0.6376872, 6.9966135, 0.5731952, -0.40201283, 9.880333
187760856791803, 7.288538, 0.81236327, 7.07438, -0.60907507, 0.42872572, 10.162419
187760866431490, 7.0731835, -0.6041877, 6.884151, 0.61287904, -0.25946093, 9.866283
187760876071178, 7.213164, 0.6125626, 7.1808605, -0.5058993, 0.22617579, 10.181484
187760885710865, 7.140183, -0.27038896, 6.9332037, 0.3267219, -0.08932972, 9.950373
187760895350553, 7.0528445, 0.1363909, 7.1916285, -0.14138317, -0.1125226, 10.0721445
187760904990240, 7.1976104, 0.21655045, 6.9966135, -0.10127926, 0.1409769, 10.038673
187760914629928, 6.99781, -0.38763726, 7.1748786, 0.31216502, -0.3776803, 10.017906
187760924269615, 7.300502, 0.63170516, 7.146165, -0.48019004, 0.30249643, 10.219686
187760933909303, 6.9990063, -0.6376872, 7.1018977, 0.5659771, -0.43721724, 9.965851
187760943548990, 7.32443, 0.78723866, 7.119844, -0.6119826, 0.41305113, 10.218321
187760953188678, 7.092326, -0.64008003, 6.8949184, 0.6589587, -0.26060677, 9.886787
187760962828365, 7.219146, 0.6652047, 7.160522, -0.53999925, 0.26190138, 10.172092
187760972468053, 7.112665, -0.26919255, 6.91765, 0.32157755, -0.07938242, 9.920013
187760982107740, 7.092326, 0.20937198, 7.1545396, -0.18198276, -0.018365383, 10.074667
187760991747428, 7.2287173, 0.14117654, 6.8721867, 0.012980223, 0.2152338, 9.9727
187761001387115, 6.9894347, -0.3074777, 7.1066833, 0.26165366, -0.28640556, 9.964998
187761011026803, 7.280163, 0.6017949, 7.0528445, -0.4377761, 0.3375306, 10.139032
187761020666490, 6.9882383, -0.65084773, 7.088737, 0.57029676, -0.44491768, 9.949175
187761030306178, 7.292127, 0.7920243, 7.131808, -0.63310313, 0.38987446, 10.203543
187761039945865, 7.007381, -0.68075806, 6.9523463, 0.6408694, -0.35002327, 9.867559
187761049585553, 7.1892357, 0.6472585, 7.222735, -0.56153405, 0.21477795, 10.193651
187761059225240, 7.105487, -0.33260235, 7.003792, 0.34891558, -0.15769243, 9.975224
187761068864928, 7.097112, 0.28115666, 7.223932, -0.2657323, -0.014930248, 10.127311
187761078504719, 7.207182, 0.15194423, 6.943971, -0.021345377, 0.16903877, 10.0078125
187761088144303, 7.042077, -0.23569304, 7.135397, 0.20094967, -0.23803425, 10.023136
187761097784094, 7.3292155, 0.58504516, 7.0803623, -0.40933895, 0.3555379, 10.193001
187761107423782, 6.9786673, -0.6448657, 7.164111, 0.5251372, -0.4898424, 9.996322
187761117063469, 7.2693954, 0.7680961, 7.176075, -0.6192579, 0.33984852, 10.219156
187761126703157, 7.0528445, -0.6987042, 6.923632, 0.6870427, -0.29592323, 9.879671
187761136342844, 7.2263246, 0.6723832, 7.1617184, -0.5567007, 0.28546715, 10.17697
187761145982532, 7.068398, -0.41635114, 6.9355965, 0.43388057, -0.16665125, 9.90061
187761155622219, 7.103094, 0.3182454, 7.2179494, -0.29062152, 0.0122766495, 10.127656
187761165261907, 7.216753, 0.10289137, 6.9320073, 0.023486853, 0.1650691, 10.005851
187761174901594, 7.0061846, -0.20578274, 7.149754, 0.15766215, -0.24945545, 10.008039
187761184541282, 7.2993054, 0.552742, 7.0839515, -0.40474486, 0.32415533, 10.173439
187761194180969, 6.984649, -0.58504516, 7.1270223, 0.50612354, -0.41496658, 9.974651
187761203820657, 7.2765737, 0.75972116, 7.159325, -0.6104057, 0.35472536, 10.211916
187761213460344, 6.9930243, -0.6999006, 6.995417, 0.6529646, -0.3777628, 9.887318
187761223100032, 7.219146, 0.7070791, 7.1688967, -0.5934484, 0.30058002, 10.176766
187761232739719, 7.071987, -0.44865423, 6.91765, 0.48146772, -0.1507659, 9.890079
187761242379407, 7.088737, 0.37208393, 7.1772714, -0.33049, 0.058082104, 10.089067
187761252019094, 7.1784678, 0.016749758, 6.906883, 0.0974586, 0.12882996, 9.9604025
187761261658782, 7.015756, -0.16510476, 7.146165, 0.13155508, -0.20717192, 10.012769
187761271298469, 7.2969127, 0.4749753, 7.0301127, -0.31170273, 0.34095907, 10.133095
187761280938261, 6.995417, -0.58983076, 7.164111, 0.48992968, -0.4341569, 10.008982
187761290577949, 7.2765737, 0.7465607, 7.176075, -0.5998149, 0.36075115, 10.223111
187761300217636, 7.0002027, -0.73100734, 7.0432734, 0.6446867, -0.41791725, 9.927468
187761309857324, 7.2179494, 0.72382885, 7.1856465, -0.60339653, 0.30490255, 10.188189
187761319497011, 7.0576305, -0.5276174, 6.948757, 0.5296178, -0.22677231, 9.9016075
187761329136699, 7.115058, 0.4139583, 7.257431, -0.3850479, 0.048944473, 10.164402
187761338776386, 7.111469, -0.025124637, 7.031309, 0.0699029, -0.0035672188, 10.000402
187761348416074, 7.111469, -0.062213387, 7.129415, 0.08102989, -0.08120203, 10.069372
187761358055761, 7.2765737, 0.41754755, 7.01097, -0.26037216, 0.31066275, 10.105061
187761367695449, 6.91765, -0.5623133, 7.152147, 0.46483183, -0.432755, 9.94585
187761377335136, 7.328019, 0.7908279, 7.159325, -0.6222011, 0.40885782, 10.248264
187761386974824, 6.995417, -0.6963114, 7.0133634, 0.64587235, -0.35513544, 9.902761
187761396614511, 7.2083783, 0.79800636, 7.2011995, -0.67906106, 0.3051157, 10.193164
187761406254199, 7.04447, -0.5180461, 7.018149, 0.51026106, -0.25500536, 9.940924
187761415893886, 7.133004, 0.49651068, 7.274181, -0.45144904, 0.08395004, 10.18966
187761425533574, 7.164111, -0.101694964, 6.969096, 0.18246412, 0.038066864, 9.993418
187761435173365, 7.025327, -0.0526421, 7.1772714, 0.036880255, -0.16300917, 10.042076
187761444813053, 7.26102, 0.36370903, 7.02772, -0.21631527, 0.26745462, 10.105703
187761454452740, 6.963114, -0.55034924, 7.172486, 0.4748497, -0.40510416, 9.992138
187761464092428, 7.2825556, 0.7106683, 7.176075, -0.5781424, 0.3264904, 10.227213
187761473732115, 6.9822564, -0.7190432, 7.004988, 0.68984914, -0.3608985, 9.8859825
187761483371803, 7.2095747, 0.7692925, 7.172486, -0.64326525, 0.2985196, 10.174057
187761493011490, 7.004988, -0.56829536, 6.9332037, 0.5678742, -0.23438501, 9.853157
187761502651178, 7.140183, 0.53599226, 7.2346992, -0.47095823, 0.12186098, 10.167288
187761512290865, 7.1617184, -0.12083755, 6.957132, 0.20283914, 0.03416109, 9.983196
187761521930553, 7.07438, 0.0526421, 7.220342, -0.058935642, -0.116137505, 10.10772
187761531570240, 7.281359, 0.3696911, 7.0576305, -0.23168647, 0.25528526, 10.14131
187761541209928, 7.012167, -0.4749753, 7.2059855, 0.39735794, -0.379416, 10.050894
187761550849615, 7.3100734, 0.6735796, 7.1880393, -0.51966, 0.3360362, 10.255525
187761560489407, 6.975078, -0.71306115, 7.0540414, 0.639585, -0.4387536, 9.915548
187761570129094, 7.2382884, 0.7573284, 7.1509504, -0.60287976, 0.3533368, 10.179104
187761579768782, 7.007381, -0.6556334, 6.88774, 0.6544161, -0.28293324, 9.821705
187761589408469, 7.123433, 0.5240282, 7.203593, -0.45087457, 0.15149021, 10.133284
187761599048157, 7.0983086, -0.20219351, 6.863812, 0.27789426, -0.009995937, 9.872257
187761608687844, 7.058827, 0.09451649, 7.094719, -0.07388735, -0.029307365, 10.008232
187761618327532, 7.268199, 0.3469593, 6.930811, -0.14179182, 0.33028507, 10.042612
187761627967219, 7.021738, -0.3493521, 7.0959153, 0.28837895, -0.286664, 9.980658
187761637606907, 7.350751, 0.73100734, 7.125826, -0.4997897, 0.48227358, 10.240259
187761647246594, 7.131808, -0.6759724, 7.0731835, 0.5978353, -0.4047513, 10.04133
187761656886282, 7.1808605, 0.7800602, 7.164111, -0.6076789, 0.40806246, 10.1470175
187761666526074, 7.0935225, -0.62452674, 6.9559355, 0.5916152, -0.3245659, 9.931656
187761676165761, 7.1066833, 0.50009996, 7.2490563, -0.43773675, 0.13857651, 10.153475
187761685805449, 7.0935225, -0.2835495, 6.910472, 0.33208942, -0.10083389, 9.901143
187761695445136, 7.0372915, 0.148355, 7.26102, -0.18864202, -0.112981796, 10.110369
187761705084824, 7.1162543, 0.19501504, 6.969096, -0.08160949, 0.13174868, 9.961094
187761714724511, 7.056434, -0.3481557, 7.1210403, 0.28695273, -0.29679155, 10.022638
187761724364199, 7.292127, 0.65324056, 7.164111, -0.46431828, 0.372581, 10.226043
187761734003886, 6.9559355, -0.6305088, 7.0695944, 0.50559664, -0.48940516, 9.912951
187761743643574, 7.301698, 0.8458628, 7.1784678, -0.616493, 0.50000286, 10.243565
187761753283261, 7.0396843, -0.61734825, 6.9116683, 0.5921793, -0.34217358, 9.861119
187761762923053, 7.186843, 0.64965135, 7.207182, -0.50895643, 0.31160545, 10.18136
187761772562740, 7.112665, -0.2739782, 6.9523463, 0.31637335, -0.13953352, 9.943875
187761782202428, 7.1018977, 0.18544376, 7.2059855, -0.16346765, -0.017493248, 10.117832
187761791842115, 7.2083783, 0.2009971, 6.9798636, -0.04057312, 0.18412805, 10.034143
187761801481803, 6.984649, -0.30867413, 7.105487, 0.23453808, -0.30896664, 9.960827
187761811121490, 7.2909307, 0.613759, 7.09113, -0.38747597, 0.41137934, 10.173451
187761820761178, 6.963114, -0.6855437, 7.075577, 0.549453, -0.51267385, 9.922398
187761830400865, 7.2825556, 0.76331043, 7.1856465, -0.5615165, 0.43006754, 10.234819
187761840040657, 6.987042, -0.70588267, 6.9595246, 0.6203289, -0.46080685, 9.856717
187761849680344, 7.1820574, 0.6472585, 7.2526455, -0.525758, 0.25581932, 10.210773
187761859320032, 7.092326, -0.35294133, 6.9858456, 0.36590362, -0.20668888, 9.952442
187761868959719, 7.085148, 0.2644069, 7.239485, -0.24466968, -0.008281231, 10.130126
187761878599407, 7.196414, 0.13758731, 6.9391856, 0.025211573, 0.16461849, 9.996593
187761888239094, 7.025327, -0.25722843, 7.1342006, 0.19525671, -0.27797055, 10.010136
187761897878782, 7.318448, 0.587438, 7.1186476, -0.36082387, 0.39280558, 10.212513
187761907518574, 6.9798636, -0.6125626, 7.1342006, 0.4502697, -0.51462317, 9.97612
187761917158261, 7.3363943, 0.7968099, 7.190432, -0.5670717, 0.4864974, 10.276268
187761926797949, 7.0205417, -0.6795616, 6.984649, 0.59319186, -0.44452596, 9.898771
187761936437636, 7.21436, 0.68195444, 7.257431, -0.5409045, 0.306942, 10.236969
187761946077324, 7.1018977, -0.3912265, 6.960721, 0.39028025, -0.21299553, 9.942029
187761955717011, 7.1018977, 0.30388847, 7.233503, -0.27406907, 0.04104328, 10.137854
187761965356699, 7.196414, 0.062213387, 6.937989, 0.07604432, 0.12208128, 9.995362
187761974996490, 6.9930243, -0.22612174, 7.1282187, 0.14534068, -0.2752633, 9.983393
187761984636178, 7.300502, 0.54317075, 7.0325055, -0.30631924, 0.4059596, 10.138535
187761994275865, 6.977471, -0.62811595, 7.094719, 0.46411753, -0.522048, 9.946193
187762003915553, 7.304091, 0.76331043, 7.166504, -0.53572154, 0.47683334, 10.236054
187762013555240, 6.9906316, -0.69152576, 6.9583282, 0.571635, -0.48489356, 9.859188
187762023194928, 7.2418776, 0.74536425, 7.213164, -0.5628488, 0.4141307, 10.224567
187762032834615, 7.0983086, -0.42831525, 6.95115, 0.42092395, -0.248137, 9.932229
187762042474407, 7.1365933, 0.3684947, 7.2323065, -0.323287, 0.09845543, 10.161634
187762052114094, 7.2023964, 0.02751746, 6.9092755, 0.12113643, 0.11506367, 9.979252
187762061753782, 7.056434, -0.14955142, 7.085148, 0.12420273, -0.1733985, 9.998474
187762071393469, 7.271788, 0.52522457, 6.9702926, -0.28245473, 0.41194296, 10.074239
187762081033157, 6.960721, -0.5778667, 7.0396843, 0.44622755, -0.45356274, 9.8963585
187762090672844, 7.298109, 0.76570326, 7.1246295, -0.52913356, 0.48815203, 10.202488
187762100312636, 6.9655066, -0.7106683, 6.937989, 0.6084807, -0.45416474, 9.82764
187762109952324, 7.2263246, 0.715454, 7.23111, -0.5619588, 0.3598652, 10.226206
187762119592011, 7.066005, -0.4977071, 7.0289164, 0.44900465, -0.33038664, 9.963485
187762129231699, 7.1342006, 0.4223332, 7.373483, -0.4208367, 0.047174454, 10.25983
187762138871386, 7.190432, -0.040677983, 7.038488, 0.116042376, 0.0049328804, 10.061352
187762148511178, 7.0636125, -0.11365908, 7.24786, 0.039679527, -0.2350564, 10.118408
187762158150865, 7.314859, 0.4331009, 7.1042905, -0.24172425, 0.3072505, 10.1986685
187762167790553, 7.02772, -0.52283174, 7.1581287, 0.40362787, -0.44226885, 10.027088
187762177430240, 7.312466, 0.782453, 7.186843, -0.55341935, 0.46185827, 10.257462
187762187069928, 6.9822564, -0.6879365, 6.9619174, 0.59670806, -0.4364643, 9.856312
187762196709719, 7.2418776, 0.77647096, 7.1007013, -0.5503192, 0.4560609, 10.146764
187762206349407, 7.031309, -0.49651068, 6.8075805, 0.5163491, -0.21429634, 9.783478
187762215989094, 7.1102724, 0.485743, 7.153343, -0.3835187, 0.19516516, 10.088463
187762225628782, 7.1365933, -0.096909314, 6.8542404, 0.21734118, 0.03881836, 9.893039
187762235268469, 7.0348988, -0.038285162, 7.1509504, -0.0024342537, -0.15433359, 10.03013
187762244908261, 7.268199, 0.38644084, 7.025327, -0.17991304, 0.31210756, 10.109476
187762254547949, 6.9678993, -0.53240305, 7.2179494, 0.33456063, -0.53104997, 10.02696
187762264187636, 7.298109, 0.69272214, 7.281359, -0.5121343, 0.39166498, 10.312361
187762273827324, 7.0432734, -0.73459655, 7.1545396, 0.5481303, -0.58378696, 10.0346155
187762283467115, 7.320841, 0.76689965, 7.355537, -0.58718324, 0.39722252, 10.381917
187762293106803, 7.0863442, -0.54317075, 7.079166, 0.44527364, -0.40572453, 10.013142
187762302746490, 7.1856465, 0.5407779, 7.312466, -0.45258045, 0.20317745, 10.254364
187762312386178, 7.18445, -0.10289137, 6.936793, 0.21480966, 0.013449192, 9.984973
187762322025969, 7.064809, 0.049052864, 7.133004, -0.041736603, -0.06994772, 10.039276
187762331665657, 7.219146, 0.3493521, 6.9248285, -0.12726331, 0.31480455, 10.003803
187762341305344, 6.9762745, -0.43429732, 7.0935225, 0.31139493, -0.39501405, 9.945957
187762350945032, 7.274181, 0.69272214, 7.125826, -0.46025538, 0.43927622, 10.186567
187762360584824, 6.9499536, -0.71665037, 7.042077, 0.53398466, -0.55656075, 9.889965
187762370224511, 7.2705917, 0.7585248, 7.1820574, -0.5426011, 0.44289017, 10.2239065
187762379864199, 7.0636125, -0.6125626, 6.991828, 0.51463675, -0.40464163, 9.936143
187762389503886, 7.172486, 0.5383851, 7.2957163, -0.4694476, 0.20527983, 10.232271
187762399143678, 7.1342006, -0.20338993, 6.9619174, 0.25139785, -0.08944821, 9.966709
187762408783365, 7.0540414, 0.09810573, 7.190432, -0.11985278, -0.076389074, 10.072299
187762418423053, 7.240681, 0.27756742, 6.926025, -0.061846256, 0.28731942, 10.019381
187762428062844, 6.9990063, -0.4127619, 7.068398, 0.32020974, -0.3454628, 9.944689
187762437702532, 7.259824, 0.6257231, 7.071987, -0.39645743, 0.41687775, 10.1379795
187762447342219, 6.9559355, -0.73579293, 7.003792, 0.58322215, -0.53121376, 9.866974
187762456982011, 7.268199, 0.77407813, 7.176075, -0.56395555, 0.43501806, 10.218351
187762466621699, 7.0372915, -0.6269195, 6.9942207, 0.5364783, -0.40755367, 9.9187565
187762476261386, 7.190432, 0.49292147, 7.332805, -0.42519975, 0.15930939, 10.271765
187762485901074, 7.1808605, -0.014356935, 7.222735, 0.008707762, -0.08742452, 10.184554
187762495540865, 7.200003, 0.1471586, 7.2765737, -0.13098264, -0.01396656, 10.236839
187762505180553, 7.192825, 0.047856454, 7.207182, -0.023869991, -0.037831783, 10.182361
187762514820240, 7.204789, 0.13040884, 7.160522, -0.066474676, 0.04429531, 10.15838
187762524460032, 7.164111, 0.086141616, 7.082755, -0.015637398, 0.03663969, 10.074509
187762534099719, 7.1102724, 0.09212367, 7.0301127, -0.020599604, 0.037582874, 9.999256
187762543739407, 7.068398, 0.06819545, 6.987042, -3.2138824E-4, 0.025458813, 9.939064
187762553379199, 7.0540414, 0.04426722, 6.99781, 0.010761976, -0.005445957, 9.936331
187762563018886, 7.1007013, 0.023928227, 7.0229344, 0.036346912, -0.002644062, 9.987032
187762572658678, 7.1186476, 0.02632105, 7.058827, 0.028016329, -0.009727001, 10.025067
187762582298365, 7.1449685, 0.03589234, 7.094719, 0.0163517, -0.011175156, 10.069088
187762591938053, 7.1629148, 0.05503492, 7.1545396, -0.015799284, -0.023942947, 10.12408
187762601577844, 7.1581287, 0.034695927, 7.176075, -0.008214235, -0.050606728, 10.13575
187762611217532, 7.1617184, 0.046660043, 7.1677003, -0.01363802, -0.03716278, 10.13246
187762620857219, 7.155736, 0.06580263, 7.173682, -0.035147667, -0.034692764, 10.13253
187762630497011, 7.1677003, 0.08853444, 7.1545396, -0.04287696, -0.003786087, 10.127653
187762640136699, 7.1808605, 0.1052842, 7.119844, -0.0396595, 0.033209324, 10.112634
187762649776490, 7.1365933, 0.07537391, 7.1078796, -0.02671671, -0.0019412041, 10.072631
187762659416178, 7.097112, 0.083748795, 7.0935225, -0.04336953, -0.012427807, 10.034544
187762669055865, 7.140183, 0.0849452, 7.071987, -0.020444393, 0.027140617, 10.049938
187762678695657, 7.117451, 0.05742774, 7.082755, -0.009939671, -0.005581856, 10.04125
187762688335344, 7.111469, 0.02871387, 7.0803623, 0.013085127, -0.022742748, 10.035171
187762697975136, 7.1485577, 0.021535404, 7.0779696, 0.03384924, -7.8964233E-4, 10.059764
187762707614824, 7.1342006, -0.014356935, 7.079166, 0.057866573, -0.027710915, 10.050249
187762717254615, 7.1413794, -0.0047856453, 7.0899334, 0.046448708, -0.025363922, 10.062986
187762726894303, 7.173682, 0.0023928226, 7.123433, 0.036174774, -0.02318573, 10.109558
187762736533990, 7.149754, 0.04546363, 7.133004, -0.013165712, -0.021250725, 10.099514
187762746173782, 7.1509504, 0.069391854, 7.1102724, -0.025857687, 0.0050940514, 10.084453
187762755813469, 7.133004, 0.096909314, 7.071987, -0.041651726, 0.032055855, 10.044868
187762765453261, 7.1377897, 0.09212367, 7.0875406, -0.04121232, 0.020881653, 10.059206
187762775092949, 7.097112, 0.083748795, 7.0600233, -0.03818202, 0.009205341, 10.010914
187762784732740, 7.129415, 0.09451649, 7.0731835, -0.04003477, 0.026402473, 10.043162
187762794372428, 7.1246295, 0.07058827, 7.0839515, -0.024267435, 0.0047974586, 10.047243
187762804012219, 7.1377897, 0.076570325, 7.1162543, -0.036562204, -0.00381279, 10.079367
187762813651907, 7.1282187, 0.01794617, 7.1677003, -0.009374142, -0.07206488, 10.108535
187762823291699, 7.1688967, 0.059820566, 7.176075, -0.033628225, -0.030183315, 10.143504
187762832931386, 7.1569324, 0.0071784677, 7.143772, 0.018300295, -0.046358585, 10.112009
187762842571178, 7.170093, -0.008374879, 7.1425757, 0.036800146, -0.046020985, 10.120436
187762852210865, 7.160522, 0.022731815, 7.0839515, 0.02717495, -5.426407E-4, 10.072496
187762861850553, 7.119844, 0.02751746, 7.0815587, 0.0073633194, -0.021053791, 10.041958
187762871490344, 7.1222367, 0.04426722, 7.055238, 0.0029699802, 0.0048775673, 10.025196
187762881130136, 7.131808, 0.062213387, 7.0145597, 0.006473303, 0.04509735, 10.003426
187762890769824, 7.1342006, 0.08255238, 7.0348988, -0.017114878, 0.043440342, 10.019544
187762900409615, 7.166504, 0.11485548, 7.1102724, -0.059397936, 0.033099174, 10.095708
187762910049303, 7.1688967, 0.076570325, 7.125826, -0.031651497, 0.004887581, 10.108181
187762919689094, 7.1916285, 0.06819545, 7.131808, -0.014947176, 0.009662151, 10.128502
187762929328782, 7.1748786, 0.0634098, 7.152147, -0.023534536, -0.015370369, 10.130909
187762938968574, 7.1712894, 0.02632105, 7.1581287, 0.004843712, -0.040097713, 10.132387
187762948608261, 7.172486, 0.009571291, 7.1808605, 0.011021614, -0.06172514, 10.14916
187762958248053, 7.1509504, 0.025124637, 7.207182, -0.020515442, -0.082521915, 10.152485
187762967887740, 7.140183, -0.0011964113, 7.176075, 0.008225679, -0.08361292, 10.122807
187762977527532, 7.149754, 0.02871387, 7.1413794, -3.5190582E-4, -0.03973627, 10.105322
187762987167324, 7.166504, 0.041874398, 7.112665, 0.0058116913, -0.0037522316, 10.097054
187762996807011, 7.1581287, 0.059820566, 7.103094, -0.008660555, 0.005256653, 10.084455
187763006446803, 7.1581287, 0.06819545, 7.058827, 4.3201447E-4, 0.036505222, 10.053316
187763016086490, 7.135397, 0.069391854, 7.003792, 0.011137009, 0.05667305, 9.998423
187763025726282, 7.125826, 0.08853444, 7.042077, -0.022546291, 0.036468506, 10.018696
187763035366074, 7.1102724, 0.111266255, 7.079166, -0.06060767, 0.015054226, 10.0338955
187763045005761, 7.1365933, 0.09451649, 7.0839515, -0.03634405, 0.02133274, 10.055868
187763054645553, 7.1306114, 0.06460621, 7.0899334, -0.01472044, -0.0012083054, 10.055681
187763064285240, 7.125826, 0.031106694, 7.0863442, 0.01473546, -0.017138004, 10.0495825
187763073925032, 7.1473613, 0.032303106, 7.1365933, 0.0038414001, -0.032851696, 10.100282
187763083564824, 7.1545396, 0.015553347, 7.117451, 0.028089523, -0.02200365, 10.0918045
187763093204511, 7.1365933, 0.039481573, 7.1018977, 0.006164789, -0.009961605, 10.0682335
187763102844303, 7.1545396, 0.04426722, 7.1186476, 0.002454996, -0.006948948, 10.092794
187763112483990, 7.155736, 0.041874398, 7.1365933, -0.002013445, -0.018451214, 10.106281
187763122123782, 7.186843, 0.038285162, 7.1449685, 0.008781433, -0.00698328, 10.13423
187763131763574, 7.172486, 0.051445685, 7.2011995, -0.029627085, -0.0437212, 10.163744
187763141403261, 7.1413794, 0.047856454, 7.18445, -0.031165123, -0.053485394, 10.129862
187763151043053, 7.1342006, 0.039481573, 7.149754, -0.01390481, -0.041106224, 10.100271
187763160682844, 7.119844, 0.040677983, 7.112665, -0.00501585, -0.024725914, 10.063955
187763170322532, 7.112665, 0.02871387, 7.0504518, 0.025182009, 0.0024271011, 10.014941
187763179962324, 7.129415, 0.040677983, 7.024131, 0.030614614, 0.03528452, 10.00832
187763189602115, 7.1102724, 0.058624156, 7.042077, -0.0020067692, 0.019743443, 10.00749
187763199241803, 7.1425757, 0.0849452, 7.0504518, -0.016098738, 0.04605913, 10.036438
187763208881594, 7.1449685, 0.096909314, 7.070791, -0.03264332, 0.039271355, 10.052534
187763218521386, 7.1389866, 0.07537391, 7.056434, -0.0107803345, 0.033312798, 10.038071
187763228161178, 7.153343, 0.05383851, 7.0600233, 0.013695955, 0.027345657, 10.050682
187763237800865, 7.1653075, 0.0634098, 7.0863442, 0.0016667843, 0.02390623, 10.077765
187763247440657, 7.1629148, 0.033499517, 7.0899334, 0.026333094, 0.0057463646, 10.078439
187763257080449, 7.196414, 0.058624156, 7.123433, 0.0050387383, 0.01887083, 10.125944
187763266720136, 7.1820574, 0.039481573, 7.1066833, 0.021918297, 0.011384964, 10.103853
187763276359928, 7.153343, 0.06699903, 7.155736, -0.031281233, -0.019405365, 10.118203
187763285999719, 7.1377897, 0.058624156, 7.1820574, -0.041674852, -0.048056602, 10.125679
187763295639407, 7.123433, 0.04546363, 7.2119675, -0.04929614, -0.07923651, 10.136524
187763305279199, 7.1509504, 0.047856454, 7.227521, -0.04704261, -0.06977177, 10.167023
187763314918990, 7.1413794, 0.0526421, 7.2215385, -0.052377462, -0.06894636, 10.156042
187763324558782, 7.164111, 0.034695927, 7.176075, -0.01178956, -0.037338734, 10.140032
187763334198574, 7.200003, 0.014356935, 7.1162543, 0.041198492, 0.009459496, 10.123219
187763343838261, 7.1856465, 0.059820566, 7.068398, 0.014585733, 0.052670956, 10.079502
187763353478053, 7.173682, 0.06580263, 7.003792, 0.026783466, 0.083952904, 10.025536
187763363117844, 7.1270223, 0.05503492, 6.9966135, 0.0214324, 0.054671288, 9.987323
187763372757636, 7.09113, 0.047856454, 7.007381, 0.009698868, 0.020879745, 9.969417
187763382397324, 7.109076, 0.03708875, 7.0193453, 0.020011425, 0.018385887, 9.990537
187763392037115, 7.1270223, 0.038285162, 7.0408807, 0.017144203, 0.017477512, 10.018448
187763401676907, 7.1306114, 0.040677983, 7.0731835, 0.0043029785, 0.00219059, 10.043762
187763411316699, 7.115058, 0.050249275, 7.085148, -0.014005899, -0.008816242, 10.041197
187763420956386, 7.1413794, 0.043070808, 7.1246295, -0.012776613, -0.020207405, 10.087663
187763430596178, 7.1784678, 0.040677983, 7.192825, -0.022193909, -0.040404797, 10.162021
187763440235969, 7.190432, 0.040677983, 7.194021, -0.018921375, -0.03336239, 10.171354
187763449875761, 7.2023964, 0.01794617, 7.196414, 0.0041496754, -0.03949976, 10.181437