timestamp_acc,device_acc_x,device_acc_y,device_acc_z,earth_acc_x,earth_acc_y,earth_acc_z
772050534881573, -7.745567, 1.0540384, 5.8636117, -0.08918232, 0.048690796, 9.771204
772050544521678, -7.7383885, 1.0923235, 5.879165, -0.049280584, 0.03961706, 9.779388
772050554161782, -7.7001033, 1.1724831, 5.8911295, 0.023870468, 0.023354053, 9.765786
772050563801886, -7.611569, 1.3112668, 5.8731833, 0.17636836, 0.016050339, 9.701459
772050573441938, -7.5314093, 1.396212, 5.8360944, 0.26374942, 0.017580032, 9.626092
772050583081990, -7.5086775, 1.4656038, 5.7786665, 0.309771, 0.06616831, 9.582321
772050592722094, -7.4847493, 1.5158532, 5.7559347, 0.3607576, 0.084682465, 9.555771
772050602362198, -7.470392, 1.564906, 5.8193445, 0.40415108, 0.037372112, 9.5893545
772050612002303, -7.493124, 1.6043876, 5.9174504, 0.44329554, -0.012453556, 9.671635
772050621642355, -7.5122666, 1.6809579, 6.0191455, 0.5205024, -0.06461048, 9.757806
772050631282407, -7.539784, 1.7730815, 6.096912, 0.6076779, -0.08707762, 9.838072
772050640922511, -7.5050883, 1.8017955, 6.111269, 0.6412616, -0.106264114, 9.823337
772050650562615, -7.507481, 1.7958134, 6.108876, 0.6312013, -0.09927702, 9.823306
772050660202719, -7.5792656, 1.7706888, 6.046663, 0.5818726, -0.015817642, 9.838899
772050669842771, -7.6737823, 1.6965113, 5.9724855, 0.47622734, 0.076488495, 9.859159
772050679482823, -7.7240314, 1.550549, 5.9377894, 0.31907612, 0.09784269, 9.859555
772050689122928, -7.769495, 1.3818551, 5.9174504, 0.14663595, 0.09458494, 9.862067
772050698763032, -7.8053875, 1.2143575, 5.8564334, -0.014682353, 0.115810394, 9.832748
772050708403136, -7.9274216, 1.0313065, 5.773881, -0.21647424, 0.20134783, 9.856871
772050718043188, -7.98126, 0.80997044, 5.7427745, -0.4435748, 0.2098732, 9.85369
772050727683240, -8.032705, 0.613759, 5.7631135, -0.6048063, 0.17161274, 9.885307
772050737323344, -7.9980097, 0.44745782, 5.710471, -0.7637011, 0.15778065, 9.806617
772050746963448, -7.9429746, 0.38404804, 5.5537415, -0.7941052, 0.22036695, 9.6645355
772050756603553, -7.8831544, 0.30269206, 5.456832, -0.85299087, 0.24808645, 9.551106
772050766243605, -7.838887, 0.3290131, 5.3994045, -0.823697, 0.27380323, 9.484542
772050775883657, -7.780263, 0.2739782, 5.424529, -0.84887886, 0.20482445, 9.448308
772050785523761, -7.798209, 0.30867413, 5.3515477, -0.8145869, 0.2762351, 9.423724
772050795163865, -7.7910304, 0.36490545, 5.38744, -0.74124926, 0.25302076, 9.446923
772050804803969, -7.826923, 0.43669012, 5.5968122, -0.6285748, 0.12998676, 9.610605
772050814444021, -7.847262, 0.56470615, 5.84088, -0.48263514, -0.024598598, 9.786764
772050824084073, -7.844869, 0.76570326, 6.10768, -0.25000507, -0.18807268, 9.966653
772050833724178, -7.8759756, 0.95353985, 6.263213, -0.056413054, -0.23520708, 10.104927
772050843364282, -7.8436728, 1.0779666, 6.3481584, 0.07172561, -0.28291225, 10.143922
772050853004386, -7.8580294, 1.2047862, 6.4055862, 0.1974765, -0.29366064, 10.203257
772050862644438, -7.813762, 1.3208381, 6.4091754, 0.30477816, -0.2865224, 10.183419
772050872284490, -7.664211, 1.4081762, 6.3744793, 0.39948434, -0.31805038, 10.0546665
772050881924594, -7.5254273, 1.4871392, 6.300302, 0.48322803, -0.30867624, 9.910029
772050891564698, -7.4010005, 1.544567, 6.2309103, 0.52022845, -0.30213928, 9.778691
772050901204803, -7.3375907, 1.6031911, 6.181857, 0.5685319, -0.28476334, 9.706776
772050910844855, -7.3567333, 1.5720844, 6.128019, 0.51350117, -0.23762894, 9.686354
772050920484907, -7.495517, 1.5565311, 6.125626, 0.46671444, -0.16132593, 9.792089
772050930125011, -7.5816584, 1.4919249, 6.157929, 0.37832284, -0.14830208, 9.872303
772050939765115, -7.5696945, 1.5182459, 6.2464633, 0.40774417, -0.21956968, 9.920141
772050949405167, -7.533802, 1.5050855, 6.245267, 0.393735, -0.24153614, 9.890069
772050959045219, -7.5960155, 1.5062819, 6.227321, 0.3760664, -0.18838263, 9.92829
772050968685323, -7.6534433, 1.4895321, 6.1734824, 0.33630997, -0.1176877, 9.938754
772050978325428, -7.6139617, 1.5014962, 6.053841, 0.346349, -0.040506363, 9.836376
772050987965532, -7.570891, 1.5206388, 5.9521465, 0.3525483, 0.011987686, 9.743427
772050997605584, -7.578069, 1.4560326, 5.8241305, 0.27140927, 0.09951162, 9.663544
772051007245636, -7.655836, 1.3555341, 5.7116675, 0.14471179, 0.21297598, 9.64397
772051016885740, -7.733603, 1.2059826, 5.6327047, -0.027242362, 0.28244448, 9.638975
772051026525844, -7.7706914, 1.0827522, 5.6123657, -0.15264595, 0.28798056, 9.640976
772051036165948, -7.780263, 0.99661064, 5.6004014, -0.2260148, 0.2717209, 9.6314745
772051045806000, -7.795816, 0.8913264, 5.5800624, -0.33430064, 0.2748642, 9.61868
772051055446053, -7.8317084, 0.8219346, 5.5872407, -0.4015221, 0.2691641, 9.643381
772051065086157, -7.8017983, 0.7716853, 5.5465627, -0.4366594, 0.27410507, 9.589687
772051074726261, -7.8017983, 0.7920243, 5.4999027, -0.409391, 0.30477476, 9.564716
772051084366313, -7.7347994, 0.8111669, 5.4580283, -0.3771386, 0.29668522, 9.489201
772051094006365, -7.753942, 0.82672024, 5.528617, -0.35183892, 0.2562704, 9.54899
772051103646469, -7.8077803, 0.8207382, 5.6075797, -0.35573804, 0.22278452, 9.638662
772051113286573, -7.8699937, 0.82313097, 5.749953, -0.34800112, 0.14363718, 9.774178
772051122926678, -7.897511, 0.83030945, 5.8863435, -0.33369827, 0.051983356, 9.879021
772051132566730, -7.864012, 0.8745767, 6.0658054, -0.25721496, -0.099935055, 9.966214
772051142206782, -7.853244, 0.9320044, 6.181857, -0.17688274, -0.1854248, 10.03453
772051151846886, -7.818548, 0.9834501, 6.250053, -0.106883764, -0.24223661, 10.054348
772051161486990, -7.7850485, 1.0564312, 6.253642, -0.03048098, -0.23657465, 10.038635
772051171127042, -7.7383885, 1.1270195, 6.2584276, 0.044183075, -0.24463987, 10.0129385
772051180767094, -7.692925, 1.1760724, 6.2057858, 0.085838675, -0.21322107, 9.95104
772051190407198, -7.6953177, 1.2239288, 6.134001, 0.114064634, -0.14026117, 9.9151
772051200047303, -7.6534433, 1.253839, 6.078966, 0.13722754, -0.11256981, 9.852392
772051209687355, -7.62114, 1.2777673, 6.0801625, 0.16040462, -0.12618637, 9.830626
772051219327407, -7.5816584, 1.3076776, 6.081359, 0.19096148, -0.14492369, 9.80393
772051228967511, -7.580462, 1.3555341, 6.078966, 0.2310242, -0.13416672, 9.807311
772051238607615, -7.560123, 1.416551, 6.0957155, 0.2896943, -0.1473484, 9.808884
772051248247667, -7.5290165, 1.4404793, 6.1160545, 0.31560874, -0.17436075, 9.799856
772051257887719, -7.5457664, 1.4524434, 6.0981083, 0.31491703, -0.14456892, 9.803828
772051267527823, -7.584051, 1.4380864, 6.003592, 0.2810378, -0.051742554, 9.774836
772051277167928, -7.676175, 1.4129617, 5.9449677, 0.21577823, 0.037777424, 9.808913
772051286808032, -7.725228, 1.3698909, 5.916254, 0.15572101, 0.075184345, 9.824862
772051296448084, -7.7826557, 1.3172488, 5.885147, 0.0879572, 0.12048721, 9.844672
772051306088136, -7.7347994, 1.2729816, 5.8432727, 0.04867059, 0.10397625, 9.776414
772051315728240, -7.6953177, 1.2957134, 5.8169518, 0.07699609, 0.10763359, 9.732225
772051325368344, -7.6390862, 1.2933207, 5.81097, 0.08689004, 0.067857265, 9.68419
772051335008396, -7.624729, 1.2299109, 5.771488, 0.024607837, 0.07093668, 9.641246
772051344648448, -7.672586, 1.174876, 5.716453, -0.04558885, 0.12594795, 9.638922
772051354288553, -7.704889, 1.1485549, 5.621937, -0.08889735, 0.21304798, 9.604031
772051363928657, -7.6941214, 1.1318051, 5.576473, -0.10567808, 0.22998619, 9.566268
772051373568709, -7.7144604, 1.0803595, 5.5872407, -0.15829754, 0.22192001, 9.582435
772051383208761, -7.759924, 1.052842, 5.613562, -0.18516701, 0.21244478, 9.631073
772051392848865, -7.765906, 1.0624132, 5.6267223, -0.17481178, 0.20848513, 9.644896
772051402488917, -7.7312098, 1.0707881, 5.6937213, -0.14665353, 0.13431263, 9.659042
772051412128969, -7.7503524, 1.0767702, 5.7463636, -0.13761622, 0.10024071, 9.706652
772051421769073, -7.7754774, 1.0576276, 5.7858453, -0.15250552, 0.07911348, 9.74798
772051431409178, -7.780263, 1.1126626, 5.828916, -0.09317392, 0.061834812, 9.7843895
772051441049230, -7.7347994, 1.1581261, 5.844469, -0.036758065, 0.034177303, 9.763386
772051450689282, -7.713264, 1.1796615, 5.881558, -0.0061873794, -0.001856327, 9.771321
772051460329386, -7.756335, 1.1569297, 5.9353967, -0.03189099, -0.023483753, 9.834968
772051469969490, -7.763513, 1.1688938, 5.9820566, -0.015406728, -0.04966402, 9.870194
772051479609542, -7.749156, 1.1820544, 5.9964137, 0.0029838085, -0.06384373, 9.869122
772051489249594, -7.7443705, 1.174876, 6.017949, -1.4525652E-4, -0.08281088, 9.877472
772051498889698, -7.7144604, 1.1820544, 6.0861444, 0.02172792, -0.15188408, 9.895845
772051508529803, -7.725228, 1.2191432, 6.076573, 0.052452266, -0.12538576, 9.903116
772051518169855, -7.7300134, 1.2514462, 6.038288, 0.07663888, -0.08431101, 9.887729
772051527809907, -7.6953177, 1.2765709, 5.983253, 0.10074407, -0.054192543, 9.830248
772051537450011, -7.628319, 1.2969099, 5.9617176, 0.13100314, -0.07005072, 9.766947
772051547090063, -7.576873, 1.3220345, 5.9353967, 0.16441202, -0.072407246, 9.713571
772051556730115, -7.6390862, 1.2861422, 5.922236, 0.10741061, -0.034053802, 9.750384
772051566370219, -7.751549, 1.2406785, 5.875576, 0.029408634, 0.055668354, 9.805315
772051576010323, -7.6534433, 1.2957134, 5.8396835, 0.10324061, 0.03836775, 9.713076
772051585650375, -7.9298143, 1.1928221, 5.797809, -0.0681119, 0.20010519, 9.893164
772051595290428, -7.466803, 1.5098711, 5.95095, 0.37009054, -0.09788847, 9.659199
772051604930532, -7.7850485, 0.79920274, 5.5429735, -0.4509247, 0.21164942, 9.577168
772051614570584, -7.463214, 1.9537396, 6.209375, 0.83306146, -0.20220852, 9.866009
772051624210636, -7.6067834, 0.55752766, 5.383851, -0.65084326, 0.17495155, 9.311586
772051633850740, -7.7120676, 2.009971, 6.189036, 0.823731, -0.023246288, 10.056891
772051643490792, -7.5864444, 0.57188463, 5.346762, -0.63894415, 0.18804502, 9.27499
772051653130844, -7.9226356, 1.7216359, 6.038288, 0.47946435, 0.12653828, 10.096891
772051662770948, -7.500303, 0.91405827, 5.6446686, -0.24399924, -0.0020508766, 9.428297
772051672411053, -7.9310107, 1.2454642, 5.8743796, -0.0018066168, 0.14618254, 9.946812
772051682051105, -7.472785, 1.4464613, 5.9904313, 0.3251624, -0.14996195, 9.679453
772051691691157, -7.908279, 0.72502524, 5.6207404, -0.5305124, 0.18575382, 9.713049
772051701331261, -7.661818, 1.7730815, 6.309873, 0.6332642, -0.20136642, 10.060826
772051710971313, -7.830512, 0.3696911, 5.491528, -0.8577977, 0.1660142, 9.531376
772051720611365, -7.751549, 1.8604196, 6.2775702, 0.6884281, -0.1068449, 10.122758
772051730251469, -7.5529447, 0.39481574, 5.436493, -0.7660929, 0.061647892, 9.28265
772051739891521, -7.8592257, 1.6390835, 6.2261243, 0.4468251, -0.06258774, 10.149633
772051749531573, -7.499106, 0.71665037, 5.7427745, -0.40492344, -0.10698652, 9.463309
772051759171678, -7.993224, 1.1700903, 6.0526447, -0.03888762, 0.042151928, 10.094156
772051768811730, -7.5290165, 1.2239288, 6.101698, 0.12921977, -0.24686766, 9.764076
772051778451782, -8.002795, 0.61854464, 5.797809, -0.59977674, 0.12851477, 9.882593
772051788091886, -7.6366935, 1.6247265, 6.4091754, 0.52661324, -0.33141327, 10.082122
772051797731938, -7.8460655, 0.35413775, 5.6685967, -0.8227316, 0.08213663, 9.650673
772051807371990, -7.7742805, 1.8795621, 6.503692, 0.7531519, -0.2703085, 10.27764
772051817012094, -7.600801, 0.41156548, 5.6039906, -0.7126311, -2.8705597E-4, 9.425415
772051826652146, -7.874779, 1.7096717, 6.317052, 0.5471134, -0.09600735, 10.224074
772051836292198, -7.4823565, 0.7178468, 5.7559347, -0.38281465, -0.11168194, 9.4590025
772051845932303, -7.989635, 1.3890336, 5.919843, 0.17288971, 0.20248365, 10.0368
772051855572355, -7.4153576, 1.2179468, 5.8157554, 0.1293971, -0.08213711, 9.501076
772051865212407, -7.8723865, 0.81236327, 5.556134, -0.4062639, 0.27758265, 9.657273
772051874852511, -7.5122666, 1.719243, 6.10768, 0.6223783, -0.13795376, 9.812611
772051884492563, -7.7754774, 0.44985065, 5.326423, -0.7556704, 0.30975056, 9.400225
772051894132615, -7.7479596, 1.8915263, 6.168697, 0.7506694, -0.0025749207, 10.054754
772051903772719, -7.655836, 0.34337005, 5.245067, -0.83394724, 0.28283024, 9.24473
772051913412771, -7.8723865, 1.7156538, 6.0251274, 0.5212075, 0.12325382, 10.046555
772051923052823, -7.4715886, 0.7082755, 5.4424753, -0.41161448, 0.10689974, 9.260992
772051932692928, -7.945368, 1.3579268, 5.8480587, 0.14352638, 0.21242094, 9.955244
772051942332980, -7.4309106, 1.2299109, 5.7427745, 0.13369161, -0.029068947, 9.470579
772051951973032, -7.8257265, 0.9487542, 5.5597234, -0.2519681, 0.27315187, 9.639219
772051961613084, -7.3950186, 1.7958134, 6.142376, 0.7412411, -0.2161789, 9.749044
772051971253136, -7.728817, 0.5491528, 5.4783673, -0.63293207, 0.19871902, 9.466183
772051980893240, -7.7407813, 1.9166509, 6.3924255, 0.7936798, -0.18769312, 10.187797
772051990533292, -7.7036924, 0.37088752, 5.554938, -0.7783014, 0.07777214, 9.472591
772052000173344, -7.874779, 1.8113668, 6.4558353, 0.6722211, -0.16992474, 10.319411
772052009813448, -7.4273214, 0.7393822, 5.7966127, -0.32012492, -0.17396688, 9.443504
772052019453500, -7.8699937, 1.5756737, 6.5108705, 0.46652448, -0.26145554, 10.3210945
772052029093553, -7.4416785, 1.2047862, 6.3421764, 0.18858689, -0.45265484, 9.839352
772052038733657, -8.075776, 0.86261255, 5.9294147, -0.35204917, 0.15821457, 10.048445
772052048373709, -7.6534433, 1.5876378, 6.2847486, 0.4882329, -0.19272184, 10.015903
772052058013761, -7.8687973, 0.46061835, 5.642276, -0.72918767, 0.16898441, 9.664635
772052067653813, -7.6809607, 1.841277, 6.506085, 0.7630649, -0.2956977, 10.200338
772052077293865, -7.6713896, 0.30149564, 5.5513487, -0.83400065, 0.09416723, 9.4368515
772052086933969, -7.832905, 1.7036897, 6.3218374, 0.5715093, -0.104777336, 10.192398
772052096574021, -7.4943204, 0.46181476, 5.6147585, -0.62812614, -0.034559727, 9.354566
772052106214073, -7.9190464, 1.3435699, 6.105287, 0.18258679, 0.028606415, 10.0874605
772052115854125, -7.5026956, 0.89371926, 5.7834525, -0.1940248, -0.057490826, 9.512968
772052125494178, -7.9884386, 0.7932207, 5.6279187, -0.4279155, 0.30898857, 9.789753
772052135134282, -7.548159, 1.4488541, 6.0023956, 0.36134213, -0.081160545, 9.745024
772052144774334, -7.874779, 0.43070808, 5.4089756, -0.7761662, 0.31296444, 9.5265045
772052154414386, -7.635497, 1.835295, 6.259624, 0.74027616, -0.1337471, 10.014296
772052164054490, -7.6678, 0.37088752, 5.4556355, -0.7817229, 0.13768578, 9.384382
772052173694542, -7.8352976, 1.841277, 6.364908, 0.7155349, -0.09802437, 10.235851
772052183334594, -7.503892, 0.5766702, 5.6530433, -0.5141755, -0.0529356, 9.39844
772052192974646, -7.884351, 1.5732809, 6.259624, 0.4303382, -0.053547382, 10.18003
772052202614698, -7.472785, 1.0612168, 5.899504, -0.009880602, -0.13834715, 9.578811
772052212254750, -7.9980097, 1.0193424, 5.779863, -0.19397229, 0.24344206, 9.915502
772052221894803, -7.5385876, 1.4895321, 6.005985, 0.3958844, -0.083628654, 9.7445965
772052231534907, -7.853244, 0.5168497, 5.4616175, -0.69155025, 0.28289604, 9.550475
772052241174959, -7.649854, 1.867598, 6.245267, 0.75529003, -0.12920427, 10.021197
772052250815011, -7.6977105, 0.37088752, 5.386244, -0.7952013, 0.20865345, 9.366325
772052260455063, -7.765906, 1.8592232, 6.282356, 0.73666596, -0.09394789, 10.133238
772052270095115, -7.483553, 0.49172506, 5.5393844, -0.60643184, 0.011853218, 9.303883
772052279735219, -7.8580294, 1.6031911, 6.196214, 0.45570868, -0.03379011, 10.124382
772052289375271, -7.389036, 1.012164, 5.81097, -0.054723084, -0.13717365, 9.453459
772052299015323, -7.897511, 1.1353943, 5.8229337, -0.05195278, 0.17150068, 9.875942
772052308655375, -7.440482, 1.5194423, 6.0227346, 0.44757462, -0.16136694, 9.680727
772052318295428, -7.830512, 0.63888365, 5.568098, -0.5452381, 0.21548271, 9.611715
772052327935480, -7.618747, 1.7874385, 6.3589263, 0.70921785, -0.2638998, 10.055027
772052337575532, -7.771888, 0.30867413, 5.541777, -0.84773624, 0.13342047, 9.511696
772052347215636, -7.8400836, 1.8113668, 6.428318, 0.690752, -0.18317318, 10.274265
772052356855688, -7.597212, 0.45942193, 5.611169, -0.6525563, 0.018607616, 9.43333
772052366495740, -7.952546, 1.6366907, 6.303891, 0.485174, -0.059861183, 10.267513
772052376135792, -7.4620175, 0.9236295, 5.9042897, -0.13732821, -0.18929434, 9.557236
772052385775844, -7.9022965, 1.18684, 6.0155563, 0.02576375, 0.034264565, 10.001999
772052395415896, -7.365108, 1.5314065, 6.1160545, 0.49327773, -0.2716527, 9.678793
772052405055948, -7.789834, 0.7800602, 5.601598, -0.3969624, 0.20826006, 9.615974
772052414696053, -7.5661054, 1.8388842, 6.2488565, 0.747724, -0.19965792, 9.953728
772052424336105, -7.813762, 0.357727, 5.4113684, -0.83252287, 0.28023767, 9.470699
772052433976157, -7.8687973, 1.8364913, 6.306284, 0.6819621, -0.072393894, 10.226905
772052443616209, -7.6331043, 0.3900301, 5.4819565, -0.7518602, 0.113752365, 9.3749695
772052453256261, -7.8867435, 1.6390835, 6.192625, 0.47864133, -0.010634899, 10.149223
772052462896313, -7.4237323, 0.8650054, 5.697311, -0.21461886, -0.073149204, 9.395104
772052472536365, -7.9238324, 1.1653047, 5.8600225, -0.024897337, 0.15610981, 9.922698
772052482176417, -7.457232, 1.3136597, 5.9066825, 0.23624372, -0.106225014, 9.599888
772052491816469, -7.881958, 0.6472585, 5.532206, -0.5611999, 0.25935936, 9.631578
772052501456521, -7.6103725, 1.713261, 6.1399827, 0.6191781, -0.10704613, 9.907451
772052511096573, -7.797013, 0.31345975, 5.3611193, -0.87167335, 0.26977205, 9.42341
772052520736678, -7.7611203, 1.9046868, 6.2644095, 0.7885997, -0.074605465, 10.123151
772052530376730, -7.5254273, 0.37328035, 5.4341, -0.7378884, 0.06848478, 9.26022
772052540016782, -7.8927255, 1.6845472, 6.218946, 0.5368599, -0.033768177, 10.174417
772052549656834, -7.4943204, 0.7190432, 5.6793647, -0.36593306, -0.04951334, 9.423412
772052559296886, -7.982456, 1.1760724, 5.9916277, 0.0016082525, 0.09126091, 10.049579
772052568936938, -7.4907312, 1.2000005, 6.007181, 0.1372711, -0.19663858, 9.673664
772052578576990, -7.938189, 0.6795616, 5.666204, -0.50886774, 0.21429396, 9.761027
772052588217042, -7.568498, 1.6821543, 6.257231, 0.62758416, -0.21660042, 9.941026
772052597857094, -7.757531, 0.38285163, 5.572884, -0.7683567, 0.11202669, 9.527853
772052607497146, -7.6833534, 1.9453648, 6.4881387, 0.88300145, -0.2746687, 10.200939
772052617137198, -7.5661054, 0.4331009, 5.601598, -0.6604297, -0.02560234, 9.400776
772052626777250, -7.8723865, 1.7491534, 6.364908, 0.63185614, -0.11607599, 10.253456
772052636417303, -7.524231, 0.68075806, 5.7870417, -0.38494354, -0.12407589, 9.508089
772052646057407, -8.037491, 1.2801601, 6.088537, 0.105954766, 0.08094978, 10.163296
772052655697459, -7.5146594, 1.2083755, 5.956932, 0.14745271, -0.13071346, 9.663153
772052665337511, -7.899904, 0.7848458, 5.6709895, -0.39516675, 0.20050192, 9.74619
772052674977563, -7.4644103, 1.6893328, 6.2285175, 0.65043783, -0.26584673, 9.842355
772052684617615, -7.7407813, 0.46301118, 5.5046883, -0.67847073, 0.16997862, 9.484011
772052694257667, -7.690532, 1.8783658, 6.2775702, 0.7948914, -0.13016462, 10.071327
772052703897719, -7.62114, 0.3361916, 5.3647084, -0.78851825, 0.1849041, 9.2908
772052713537771, -7.856833, 1.7455641, 6.1268225, 0.6059381, 0.05387497, 10.096766
772052723177823, -7.4979095, 0.634098, 5.5130634, -0.45635688, 0.06560421, 9.316761
772052732817875, -8.012366, 1.3579268, 5.925825, 0.16845381, 0.20639706, 10.054173
772052742457928, -7.452446, 1.1425728, 5.8301125, 0.08239359, -0.08988476, 9.529942
772052752097980, -7.847262, 0.863809, 5.743971, -0.29106647, 0.13528538, 9.757862
772052761738032, -7.457232, 1.6917256, 6.2548385, 0.6611826, -0.2910099, 9.852584
772052771378084, -7.692925, 0.5276174, 5.621937, -0.5962524, 0.07835579, 9.523865
772052781018136, -7.60798, 1.9405792, 6.4941206, 0.9024867, -0.33371687, 10.143716
772052790658188, -7.6163545, 0.4019942, 5.5429735, -0.69976187, 0.05793619, 9.402233
772052800298240, -7.885547, 1.7635103, 6.3182483, 0.64765924, -0.062856674, 10.236634
772052809938292, -7.605587, 0.5168497, 5.6243296, -0.5732051, 0.017306328, 9.45602
772052819578032, -8.084151, 1.3100704, 6.13759, 0.14794171, 0.076040745, 10.232895
772052829218448, -7.585248, 1.0013963, 5.9318075, -0.055872977, -0.12122631, 9.680254
772052838858448, -7.98126, 0.849452, 5.8480587, -0.31065947, 0.12897778, 9.925157
772052848498553, -7.4883385, 1.564906, 6.290731, 0.56227535, -0.3175845, 9.883342
772052858138553, -7.795816, 0.4941179, 5.6650076, -0.63508135, 0.080776215, 9.628155
772052867778657, -7.6127653, 1.8867407, 6.430711, 0.852188, -0.26910067, 10.10294
772052877418657, -7.5625157, 0.37806597, 5.4412785, -0.71073246, 0.10342026, 9.296572
772052887058761, -7.7240314, 1.8077775, 6.218946, 0.726618, -0.080742836, 10.053334
772052896698761, -7.483553, 0.52522457, 5.453243, -0.5504347, 0.079744816, 9.257859
772052906338865, -7.9657063, 1.4057833, 5.9653068, 0.25157505, 0.16176176, 10.046101
772052915978865, -7.4883385, 0.94277215, 5.709275, -0.113287866, -0.017335892, 9.4629135
772052925618969, -8.002795, 0.85064846, 5.6889358, -0.32704914, 0.26527166, 9.846574
772052935258969, -7.5864444, 1.4608182, 6.0622163, 0.4148897, -0.10677242, 9.8109665
772052944899073, -7.9070826, 0.42711884, 5.541777, -0.72264165, 0.21078253, 9.63582
772052954539073, -7.7001033, 1.7970098, 6.407979, 0.7717248, -0.23105478, 10.145644
772052964179178, -7.7036924, 0.33020952, 5.523831, -0.76408064, 0.07423067, 9.454063
772052973819178, -7.739585, 1.8568304, 6.381658, 0.8016318, -0.1685772, 10.168751
772052983459282, -7.422536, 0.5922236, 5.5896335, -0.4504251, -0.05013323, 9.2996435
772052993099282, -7.810173, 1.5924234, 6.1710896, 0.49866956, -0.029640675, 10.068139
772053002739386, -7.3435726, 1.0432707, 5.858826, 0.040877998, -0.18892002, 9.45013
772053012379386, -7.879565, 1.0863415, 5.845666, -0.046767354, 0.13879061, 9.870059
772053022019490, -7.4979095, 1.430908, 6.1399827, 0.4174506, -0.22492933, 9.784718
772053031659490, -7.9920278, 0.42711884, 5.639883, -0.7312227, 0.20151949, 9.761554
772053041299594, -7.806584, 1.6630118, 6.4558353, 0.60466355, -0.24260569, 10.245083
772053050939594, -7.8352976, 0.16031912, 5.6303115, -0.9406637, 0.061903477, 9.60361
772053060579698, -7.879565, 1.727618, 6.4677997, 0.6621624, -0.17720747, 10.316724
772053070219698, -7.585248, 0.38644084, 5.5968122, -0.6762222, -0.016103745, 9.4102125
772053079859803, -7.895118, 1.5194423, 6.189036, 0.4156385, -0.008152962, 10.137699
772053089499803, -7.399804, 0.9128618, 5.7726846, -0.10714644, -0.11901951, 9.42808
772053099139907, -7.885547, 1.0636097, 5.7523456, -0.08765036, 0.20920801, 9.815863
772053108779907, -7.4010005, 1.410569, 5.9138613, 0.38615507, -0.106482506, 9.56963
772053118420011, -7.7994056, 0.60059845, 5.4723854, -0.5449192, 0.26767206, 9.527321
772053128060011, -7.5924263, 1.719243, 6.2608204, 0.68845546, -0.19744873, 9.964218
772053137700115, -7.8077803, 0.25124636, 5.460421, -0.8871325, 0.21062231, 9.487328
772053147340115, -7.884351, 1.7718852, 6.32423, 0.6672413, -0.075330734, 10.23951
772053156980219, -7.6366935, 0.3493521, 5.5298133, -0.74540454, 0.08607054, 9.405155
772053166620219, -7.969296, 1.5900307, 6.2512493, 0.46286744, -0.0059080124, 10.242153
772053176260219, -7.5146594, 0.8650054, 5.837291, -0.18770117, -0.11168718, 9.552204
772053185900323, -7.9860454, 1.1892328, 5.9880385, 0.034972906, 0.114011765, 10.051546
772053195540428, -7.4177504, 1.4584254, 6.094519, 0.4381588, -0.22765875, 9.697906
772053205180428, -7.776674, 0.73579293, 5.6506505, -0.4002996, 0.1561718, 9.631369
772053214820532, -7.4943204, 1.8496519, 6.303891, 0.8113166, -0.27157736, 9.929405
772053224460532, -7.68455, 0.38524446, 5.4891353, -0.73857355, 0.15781164, 9.421302
772053234100532, -7.743174, 1.8604196, 6.3326054, 0.7580327, -0.1353097, 10.145288
772053243740636, -7.5732837, 0.3804588, 5.485546, -0.7302483, 0.08812952, 9.330035
772053253380636, -7.938189, 1.6582261, 6.257231, 0.50958693, -0.016767979, 10.2302265
772053263020740, -7.5625157, 0.782453, 5.8037915, -0.30261862, -0.070204735, 9.559883
772053272660740, -8.109276, 1.1282159, 6.0693946, -0.061349213, 0.11079502, 10.190915
772053282300844, -7.5732837, 1.2382857, 6.1064835, 0.17028391, -0.2011137, 9.803453
772053291940844, -7.908279, 0.67836523, 5.6937213, -0.5017039, 0.18228865, 9.753696
772053301580948, -7.4715886, 1.7886349, 6.235696, 0.7422326, -0.21336222, 9.864651
772053311220948, -7.5385876, 0.49651068, 5.395815, -0.62067556, 0.16367245, 9.261727
772053320861053, -7.500303, 2.003989, 6.1998034, 0.92684937, -0.12753725, 9.891045
772053330501053, -7.4476604, 0.47856453, 5.2977095, -0.64387965, 0.17851305, 9.127757
772053340141157, -7.879565, 1.7312071, 6.058627, 0.5565433, 0.124414444, 10.0730505
772053349781157, -7.60798, 0.6939186, 5.608776, -0.43039203, 0.09382963, 9.467165
772053359421261, -8.103293, 1.174876, 6.026324, -0.03217256, 0.15709734, 10.165361
772053369061261, -7.6139617, 1.1533405, 6.1005015, 0.07368106, -0.18321657, 9.822409
772053378701365, -8.017152, 0.66161543, 5.838487, -0.5279947, 0.136302, 9.92487
772053388341365, -7.6139617, 1.6283158, 6.3972116, 0.56535965, -0.3033719, 10.056663
772053397981469, -7.7754774, 0.37208393, 5.5980086, -0.78726256, 0.110815525, 9.555216
772053407621469, -7.649854, 1.8317057, 6.35773, 0.7462569, -0.18863297, 10.084824
772053417261573, -7.5086775, 0.33499518, 5.386244, -0.78577226, 0.12994432, 9.212479
772053426901573, -7.7419777, 1.7312071, 6.0634127, 0.5852605, 0.06852436, 9.967601
772053436541678, -7.3806615, 0.61854464, 5.45085, -0.4773578, 0.07466364, 9.183414
772053446181678, -7.925029, 1.2382857, 5.9030933, 0.047402024, 0.18131685, 9.957451
772053455821782, -7.5230346, 1.0911272, 5.905486, 0.0037404895, -0.08041191, 9.625741
772053465461782, -8.014759, 0.67836523, 5.759524, -0.5230399, 0.22271872, 9.876513
772053475101886, -7.59123, 1.5816557, 6.424729, 0.5225494, -0.3365245, 10.050833
772053484741886, -7.810173, 0.44626144, 5.881558, -0.67657185, -0.04481888, 9.763755
772053494381990, -7.702496, 1.9034904, 6.739385, 0.85942054, -0.42766237, 10.365786
772053504021990, -7.6510506, 0.39481574, 5.8013983, -0.70121104, -0.078350544, 9.583989
772053513662094, -7.8089767, 1.835295, 6.5108705, 0.7341331, -0.21343565, 10.303173
772053523302094, -7.3974113, 0.75613195, 5.804988, -0.29697162, -0.14330292, 9.427756
772053532942198, -7.899904, 1.4644074, 6.172286, 0.3126024, 0.023372173, 10.126787
772053542582198, -7.4979095, 1.1306087, 5.910272, 0.050037384, -0.080863, 9.613491
772053552222303, -8.029117, 0.7932207, 5.7379885, -0.41790342, 0.2829876, 9.887653
772053561862303, -7.6067834, 1.5074782, 6.178268, 0.42293668, -0.15119267, 9.904793
772053571502407, -7.8089767, 0.36370903, 5.505885, -0.80489725, 0.23497486, 9.52492
772053581142407, -7.6343007, 1.7706888, 6.2931237, 0.67423207, -0.16717005, 10.026902
772053590782511, -7.6139617, 0.2620141, 5.334798, -0.8882578, 0.23045397, 9.255217
772053600422511, -7.810173, 1.713261, 6.111269, 0.5536663, 0.06283569, 10.048444
772053610062615, -7.476374, 0.5300102, 5.4029937, -0.59734166, 0.16229296, 9.2188
772053619702615, -7.8867435, 1.3950156, 6.0047884, 0.21186453, 0.1223793, 10.007217
772053629342719, -7.3974113, 1.0707881, 5.895915, 0.00238204, -0.14898872, 9.518818
772053638982719, -7.9190464, 0.94755775, 5.925825, -0.23731267, 0.09755707, 9.932711
772053648622823, -7.5026956, 1.6043876, 6.4414787, 0.5580509, -0.38854647, 9.994737
772053658262823, -7.8484583, 0.58265233, 5.9760747, -0.56067955, -0.06335783, 9.865743
772053667902928, -7.6510506, 1.98365, 6.8578296, 0.9338854, -0.5332751, 10.408975
772053677542928, -7.682157, 0.4881358, 5.938986, -0.6200885, -0.14278936, 9.7015705
772053687183032, -7.832905, 1.969293, 6.6221366, 0.8504542, -0.24773884, 10.406755
772053696823032, -7.5026956, 0.66400826, 5.757131, -0.43651235, -0.06938934, 9.469981
772053706463136, -7.9226356, 1.6019948, 6.204589, 0.415053, 0.03190279, 10.181267
772053716103136, -7.4344997, 1.1090733, 5.751149, 7.414222E-4, -0.006310463, 9.46454
772053725743240, -7.884351, 1.079163, 5.645865, -0.15276915, 0.3196206, 9.750789
772053735383240, -7.4536424, 1.5361922, 5.9007006, 0.42163694, -0.012077332, 9.620656
772053745023344, -7.8400836, 0.5347959, 5.2809596, -0.7131832, 0.43842363, 9.430832
772053754663344, -7.62114, 1.7970098, 5.9820566, 0.6401135, 0.06984949, 9.83267
772053764303448, -7.6307116, 0.30867413, 5.1062837, -0.9070593, 0.3899026, 9.133586
772053773943448, -7.7144604, 1.8592232, 5.936593, 0.66630566, 0.16426897, 9.886445
772053783583553, -7.4440713, 0.4941179, 5.1553364, -0.67877007, 0.29829168, 9.038038
772053793223553, -7.864012, 1.5601203, 5.8432727, 0.33027142, 0.25281, 9.911988
772053802863657, -7.396215, 0.96430755, 5.6327047, -0.15939736, 0.010673046, 9.34536
772053812503657, -7.8903327, 1.0935199, 5.852844, -0.122017086, 0.15989733, 9.882736
772053822143761, -7.4620175, 1.5194423, 6.222535, 0.44122255, -0.2620492, 9.820744
772053831783761, -7.928618, 0.6197411, 5.8480587, -0.588092, 0.06680298, 9.853757
772053841423865, -7.7300134, 1.7982062, 6.7011, 0.71037835, -0.40827084, 10.3547125
772053851063969, -7.8460655, 0.3469593, 5.9270215, -0.8124874, -0.109573364, 9.805028
772053860703969, -7.8592257, 1.867598, 6.778867, 0.75936943, -0.36814785, 10.511719
772053870344073, -7.587641, 0.506082, 5.910272, -0.6020686, -0.19899988, 9.61029
772053879984073, -7.9537425, 1.6223338, 6.5312095, 0.45561552, -0.19905615, 10.406897
772053889624178, -7.4883385, 0.8985049, 6.04427, -0.19227904, -0.25156927, 9.659994
772053899264178, -7.8687973, 1.1712867, 6.076573, -0.017567813, 0.0010790825, 10.01071
772053908904282, -7.3627152, 1.5038891, 6.15434, 0.42470193, -0.28374386, 9.699808
772053918544282, -7.797013, 0.715454, 5.6039906, -0.49819374, 0.21849966, 9.613224
772053928184386, -7.5828547, 1.8173488, 6.245267, 0.6873283, -0.15768099, 9.965366
772053937824386, -7.763513, 0.37686956, 5.4113684, -0.84205765, 0.26188993, 9.429709
772053947464490, -7.722835, 1.9298115, 6.2057858, 0.75561965, -0.033250332, 10.065092
772053957104490, -7.503892, 0.53240305, 5.3216376, -0.64367247, 0.22346497, 9.189528
772053966744594, -7.82453, 1.7515461, 5.9988065, 0.5308908, 0.15897465, 9.9984865
772053976384594, -7.4153576, 0.9726824, 5.588437, -0.16840374, 0.05873823, 9.334476
772053986024698, -7.905886, 1.3603196, 5.7762737, 0.10883331, 0.28026628, 9.880712
772053995664698, -7.442875, 1.558924, 5.852844, 0.41823786, 8.1014633E-4, 9.586842
772054005304803, -7.8376904, 0.83748794, 5.4460645, -0.41349083, 0.38327074, 9.564127
772054014944803, -7.501499, 1.9106688, 6.174679, 0.7788013, -0.14766645, 9.870232
772054024584907, -7.6953177, 0.46779683, 5.4173503, -0.7404823, 0.2423954, 9.390281
772054034225011, -7.728817, 1.9561325, 6.276374, 0.7848227, -0.06862593, 10.115991
772054043865011, -7.59123, 0.43788654, 5.444868, -0.7368772, 0.16390514, 9.321762
772054053505115, -7.85444, 1.7288144, 6.262017, 0.54254866, -0.04541874, 10.178284
772054063145115, -7.4715886, 0.83988076, 5.871987, -0.2688669, -0.15450096, 9.534888
772054072785219, -7.984849, 1.2729816, 6.1651077, 0.06609827, 0.0111756325, 10.16771
772054082425219, -7.5314093, 1.2969099, 6.168697, 0.19471037, -0.24540281, 9.816252
772054092065323, -7.91785, 0.7465607, 5.8875403, -0.45709455, 0.0712471, 9.884272
772054101705323, -7.550552, 1.7850457, 6.5048885, 0.70362544, -0.38138437, 10.09308
772054111345428, -7.8424764, 0.50368917, 5.6590257, -0.6979503, 0.1594739, 9.657647
772054120985428, -7.7216387, 1.8807586, 6.4498534, 0.74975103, -0.2163682, 10.205519
772054130625532, -7.5756764, 0.4331009, 5.5573306, -0.71623933, 0.060757637, 9.377935
772054140265532, -7.7946196, 1.7371893, 6.2321067, 0.5691986, -0.040425777, 10.113727
772054149905636, -7.4679995, 0.6759724, 5.578866, -0.4510944, 0.041225433, 9.33523
772054159545740, -7.9740815, 1.2155539, 5.861219, -0.018232822, 0.23249483, 9.968102
772054169185740, -7.452446, 1.1377872, 5.7858453, 0.025044143, -0.02396202, 9.503069
772054178825844, -7.847262, 0.72502524, 5.5046883, -0.5009732, 0.3217554, 9.594387
772054188465844, -7.5086775, 1.6271194, 6.111269, 0.5252687, -0.12323189, 9.8022585
772054198105948, -7.8520474, 0.32422748, 5.4221363, -0.8983132, 0.28497505, 9.501115
772054207745948, -7.77787, 1.7862421, 6.350551, 0.650012, -0.117376804, 10.177384
772054217386053, -7.685746, 0.30029923, 5.5740805, -0.8560041, 0.07361078, 9.460079
772054227026053, -7.8699937, 1.7515461, 6.431907, 0.60638756, -0.12651348, 10.295166
772054236666157, -7.5146594, 0.701097, 5.825327, -0.3924467, -0.121255875, 9.525091
772054246306157, -7.9070826, 1.4141582, 6.2440705, 0.25055742, -0.049237728, 10.170793
772054255946261, -7.372287, 1.2502499, 6.0837517, 0.19965911, -0.2642131, 9.63411
772054265586365, -7.812566, 0.94396853, 5.812166, -0.23408389, 0.12657452, 9.779453
772054275226365, -7.4129643, 1.7754744, 6.233303, 0.71470314, -0.24288654, 9.817771
772054284866469, -7.7036924, 0.57188463, 5.538188, -0.59428835, 0.19504309, 9.484422
772054294506469, -7.6199436, 1.9621146, 6.4031935, 0.87107974, -0.21489763, 10.1049185
772054304146573, -7.643872, 0.39840496, 5.5226345, -0.743583, 0.13897133, 9.408229
772054313786573, -7.9190464, 1.7802601, 6.306284, 0.6225532, -0.014368057, 10.259729
772054323426678, -7.6366935, 0.587438, 5.6267223, -0.5414448, 0.099276066, 9.487949
772054333066782, -8.01117, 1.396212, 6.1268225, 0.21442795, 0.09734821, 10.178937
772054342706782, -7.429714, 1.1162517, 5.901897, 0.050686777, -0.121834755, 9.553097
772054352346886, -7.8149586, 1.0037891, 5.733203, -0.16568208, 0.20624495, 9.740678
772054361986886, -7.328019, 1.6845472, 6.06102, 0.64775074, -0.16773415, 9.634616
772054371626990, -7.678568, 0.52163535, 5.377869, -0.65192825, 0.28230858, 9.36212
772054381266990, -7.5696945, 1.8257236, 6.135197, 0.7269139, -0.060427666, 9.886463
772054390907094, -7.649854, 0.24885355, 5.258228, -0.9042032, 0.30631733, 9.236869
772054400547094, -7.8687973, 1.7144574, 6.0933228, 0.5592036, 0.13281727, 10.0824375
772054410187198, -7.564909, 0.49292147, 5.4616175, -0.6184123, 0.14947319, 9.321766
772054419827303, -7.9561353, 1.442872, 6.13759, 0.29606092, 0.09143591, 10.146723
772054429467303, -7.489535, 1.0600204, 6.0311093, 0.02740091, -0.18304777, 9.672476
772054439107407, -7.8987074, 0.9954142, 5.973682, -0.14230198, 0.07742977, 9.951837
772054448747407, -7.3459654, 1.7060826, 6.3924255, 0.73306465, -0.3764453, 9.851799
772054458387511, -7.6331043, 0.721436, 5.8743796, -0.34963197, -0.05768919, 9.652332
772054468027511, -7.580462, 1.98365, 6.6628146, 0.9766775, -0.36255264, 10.232597
772054477667615, -7.769495, 0.3696911, 5.7750773, -0.73337895, 0.03723097, 9.659918
772054487307719, -7.932207, 1.8161523, 6.6017976, 0.7305892, -0.158988, 10.451939
772054496947719, -7.6271224, 0.46899325, 5.8229337, -0.5907214, -0.06178713, 9.588886
772054506587823, -7.993224, 1.4356936, 6.4055862, 0.3365214, -0.06052351, 10.337674
772054516227823, -7.537391, 0.8386843, 6.0957155, -0.17335337, -0.23103237, 9.725739
772054525867928, -8.036295, 0.84107715, 6.0215383, -0.29578412, 0.106990814, 10.072212
772054535508032, -7.5493555, 1.3016955, 6.1914287, 0.29101467, -0.18984127, 9.843792
772054545148032, -7.861619, 0.36610186, 5.5908303, -0.76769334, 0.21035242, 9.620959
772054554788136, -7.6067834, 1.5098711, 6.2715883, 0.4854238, -0.1603818, 9.960638
772054564428136, -7.68455, 0.6687939, 5.6793647, -0.421466, 0.13215685, 9.568682
772054574068240, -7.7144604, 0.94636136, 5.855237, -0.13611817, 0.0783453, 9.729729
772054583708240, -7.708478, 0.85184485, 5.834898, -0.22612184, 0.06899214, 9.702392
772054593348344, -7.692925, 0.9200403, 5.9557357, -0.1370421, -0.020854473, 9.771343
772054602988448, -7.661818, 0.9607183, 5.9653068, -0.085982084, -0.03658533, 9.757182
772054612628448, -7.6773715, 0.9499506, 5.983253, -0.098454535, -0.042582035, 9.779175
772054622268553, -7.726424, 0.93679005, 6.0011992, -0.11598754, -0.028432846, 9.827276
772054631908553, -7.753942, 0.94636136, 6.009574, -0.11034727, -0.016885757, 9.855035
772054641548657, -7.7623167, 0.98584294, 6.0083776, -0.07389212, -0.0028624535, 9.865119
772054651188761, -7.743174, 1.0097711, 5.979664, -0.049160123, 0.013105869, 9.83515
772054660828761, -7.735996, 1.0624132, 5.992824, 0.0048630238, 0.00980854, 9.84318
772054670468865, -7.7623167, 1.0803595, 6.0287166, 0.019457221, 5.1546097E-4, 9.887658
772054680108865, -7.752745, 1.0755738, 6.005985, 0.012657702, 0.011640549, 9.865772
772054689748969, -7.7611203, 1.0683953, 5.9760747, -0.0028042793, 0.03601265, 9.853356
772054699389073, -7.682157, 1.0552348, 5.9449677, -0.0018624663, 0.011827946, 9.770954
772054709029073, -7.585248, 1.0648061, 5.973682, 0.029883027, -0.06650162, 9.713359
772054718669178, -7.55773, 1.1330016, 5.968896, 0.099778414, -0.064546585, 9.696215
772054728309178, -7.5996046, 1.1593226, 5.933004, 0.10952246, -0.0055389404, 9.710126
772054737949282, -7.6594253, 1.1234303, 5.9138613, 0.0559389, 0.037014484, 9.741568
772054747589386, -7.7036924, 1.1389836, 5.977271, 0.065518975, 0.017138958, 9.816689
772054757229386, -7.733603, 1.1210374, 6.02752, 0.045624554, -0.009161472, 9.868849
772054766869490, -7.7623167, 1.1353943, 6.050252, 0.054564357, -0.008293152, 9.906826
772054776509594, -7.7910304, 1.1126626, 6.09093, 0.03092736, -0.028344631, 9.951675
772054786149594, -7.7300134, 1.1353943, 6.114858, 0.067985654, -0.0795002, 9.920825
772054795789698, -7.6713896, 1.1736795, 6.101698, 0.11268467, -0.0966835, 9.870989
772054805429698, -7.6366935, 1.1353943, 6.0394845, 0.07661998, -0.07611847, 9.801628
772054815069803, -7.609176, 1.154537, 5.940182, 0.085664034, -0.0101594925, 9.72167
772054824709907, -7.5864444, 1.18684, 5.8731833, 0.109847486, 0.036505222, 9.666624
772054834349907, -7.605587, 1.1772687, 5.800202, 0.07983482, 0.099193096, 9.636235
772054843990011, -7.649854, 1.1485549, 5.7523456, 0.03548318, 0.15571117, 9.638642
772054853630011, -7.6678, 1.1078769, 5.7523456, -0.008475959, 0.15351439, 9.648233
772054863270115, -7.6809607, 1.0899308, 5.820541, -0.021167338, 0.100355625, 9.698109
772054872910219, -7.732406, 1.079163, 5.858826, -0.03649336, 0.09433079, 9.760652
772054882550219, -7.776674, 1.0372887, 5.858826, -0.08719891, 0.10969114, 9.790752
772054892190323, -7.756335, 1.0229317, 5.901897, -0.088561654, 0.06011057, 9.799391
772054901830428, -7.739585, 1.0396814, 5.933004, -0.06379765, 0.030899525, 9.807019
772054911470428, -7.728817, 1.0432707, 5.9318075, -0.05782175, 0.026881218, 9.79823
772054921110532, -7.7012997, 1.0851451, 5.9353967, -0.01075685, 0.018297672, 9.783457
772054930750532, -7.6462646, 1.1042876, 5.977271, 0.024768293, -0.041139603, 9.767818
772054940390636, -7.5996046, 1.1186446, 5.9880385, 0.04891622, -0.07186079, 9.739324
772054950030740, -7.6223364, 1.1174482, 5.985646, 0.039525032, -0.054922104, 9.755619
772054959670740, -7.688139, 1.0612168, 5.9964137, -0.031309843, -0.03498745, 9.80757
772054969310844, -7.7479596, 1.0229317, 5.9964137, -0.08384484, -0.004980564, 9.850239
772054978950948, -7.793423, 0.971486, 6.0358953, -0.14009541, -0.017338753, 9.904208
772054988590948, -7.765906, 0.96789676, 6.0753765, -0.13270313, -0.06449556, 9.906289
772054998231053, -7.733603, 1.018146, 6.105287, -0.07162613, -0.09536219, 9.904823
772055007871157, -7.7072816, 1.0516455, 6.135197, -0.029822469, -0.12431049, 9.906183
772055017511157, -7.6737823, 1.0875379, 6.1639113, 0.014356971, -0.15860605, 9.90142
772055027151261, -7.6271224, 1.160519, 6.174679, 0.09274757, -0.17534113, 9.879631
772055036791365, -7.597212, 1.1928221, 6.1363935, 0.12689972, -0.15559769, 9.836435
772055046431365, -7.658229, 1.1784651, 6.0717874, 0.08919412, -0.07011938, 9.843323
772055056071469, -7.732406, 1.1641082, 5.9964137, 0.04251343, 0.030273438, 9.853907
772055065711469, -7.725228, 1.1473584, 5.9150577, 0.020255446, 0.08614588, 9.796717
772055075351573, -7.716853, 1.1174482, 5.866005, -0.013474107, 0.11157036, 9.75684
772055084991678, -7.6917286, 1.1210374, 5.85763, -0.006339848, 0.10082817, 9.732473
772055094631678, -7.7001033, 1.0959128, 5.8707905, -0.030869573, 0.08677578, 9.744246
772055104271782, -7.7180495, 1.1030912, 5.885147, -0.027175784, 0.08089876, 9.767946
772055113911886, -7.7012997, 1.1330016, 5.871987, 0.0050852, 0.08705187, 9.750196
772055123551886, -7.6678, 1.1712867, 5.8707905, 0.04509929, 0.0707407, 9.7276
772055133191990, -7.658229, 1.1976078, 5.851648, 0.07012993, 0.08601189, 9.711447
772055142832094, -7.6366935, 1.2155539, 5.825327, 0.083606005, 0.094569206, 9.680659
772055152472094, -7.624729, 1.2251252, 5.8217373, 0.09285486, 0.09090614, 9.670221
772055162112198, -7.6390862, 1.2287145, 5.845666, 0.09513193, 0.08154631, 9.696468
772055171752303, -7.685746, 1.1832508, 5.844469, 0.03969127, 0.09710121, 9.727159
772055181392303, -7.7156568, 1.1353943, 5.8911295, -0.009732544, 0.067539215, 9.773497
772055191032407, -7.7096744, 1.1006985, 5.9473605, -0.034662902, 0.010607719, 9.799001
772055200672511, -7.696514, 1.1174482, 5.9748783, -0.010735393, -0.015192509, 9.807337
772055210312511, -7.6737823, 1.166501, 5.9653068, 0.0420084, -0.00916481, 9.789315
772055219952615, -7.6510506, 1.1712867, 5.953343, 0.048568845, -0.010242939, 9.76475
772055229592719, -7.647461, 1.1712867, 5.925825, 0.046372235, 0.009206772, 9.745193
772055239232719, -7.6606216, 1.1892328, 5.9210396, 0.057302535, 0.026896954, 9.754696
772055248872823, -7.6666036, 1.1653047, 5.9246287, 0.03239286, 0.023100376, 9.75881
772055258512928, -7.678568, 1.1294123, 5.9581285, -0.0013661385, -0.0044169426, 9.78444
772055268152928, -7.713264, 1.1186446, 6.0023956, -0.014862418, -0.020328522, 9.837374
772055277793032, -7.6893353, 1.099502, 6.026324, -0.02413708, -0.055025578, 9.830959
772055287433136, -7.6510506, 1.1353943, 6.0574307, 0.022998929, -0.09304428, 9.824
772055297073136, -7.6019974, 1.1820544, 6.087341, 0.08113921, -0.13587856, 9.8090925
772055306713240, -7.6199436, 1.1820544, 6.1244297, 0.080159485, -0.15264702, 9.845797
772055316353240, -7.6749787, 1.1389836, 6.1184473, 0.024981856, -0.12136841, 9.880416
772055325993344, -7.7479596, 1.099502, 6.0921264, -0.030826628, -0.06289768, 9.917101
772055335633448, -7.7682986, 1.079163, 6.0526447, -0.05661124, -0.021957397, 9.906658
772055345273553, -7.7443705, 1.0432707, 6.0251274, -0.08723378, -0.023365498, 9.867001
772055354913553, -7.7587276, 1.0348958, 6.0191455, -0.09743327, -0.01376915, 9.873667
772055364553657, -7.726424, 1.0408778, 5.9581285, -0.0894115, 0.014374256, 9.811837
772055374193761, -7.725228, 1.0624132, 5.9030933, -0.07445401, 0.061005116, 9.779832
772055383833761, -7.7240314, 1.0205388, 5.855237, -0.119336665, 0.08435631, 9.744979
772055393473865, -7.7216387, 0.97866446, 5.808577, -0.16379845, 0.10862923, 9.709914
772055403113969, -7.688139, 1.0145568, 5.767899, -0.1252566, 0.12696743, 9.663004
772055412753969, -7.618747, 1.0432707, 5.7786665, -0.0806278, 0.084870815, 9.618368
772055422394073, -7.6426754, 1.0827522, 5.8133626, -0.043655336, 0.07820511, 9.662816
772055432034178, -7.672586, 1.0911272, 5.8432727, -0.0383327, 0.072257996, 9.705478
772055441674178, -7.6953177, 1.1150553, 5.907879, -0.012060761, 0.039818287, 9.765376
772055451314282, -7.7407813, 1.1353943, 5.968896, 0.003709793, 0.022234917, 9.84053
772055460954386, -7.732406, 1.1413764, 6.033502, 0.017270088, -0.031814575, 9.87394
772055470594386, -7.7012997, 1.1904292, 6.0729837, 0.075816214, -0.06940746, 9.879154
772055480234490, -7.7001033, 1.1736795, 6.1040907, 0.06313068, -0.09605646, 9.895244
772055489874594, -7.7443705, 1.154537, 6.105287, 0.03274995, -0.073969364, 9.928556
772055499514594, -7.7383885, 1.1485549, 6.0622163, 0.019583523, -0.042182922, 9.896976
772055509154698, -7.698907, 1.1557333, 6.06102, 0.033717513, -0.062139988, 9.866096
772055518794803, -7.6259255, 1.2047862, 6.0323057, 0.09380078, -0.06610489, 9.79703
772055528434803, -7.6019974, 1.2167503, 6.0047884, 0.10761702, -0.053696632, 9.76288
