timestamp_acc,device_acc_x,device_acc_y,device_acc_z,earth_acc_x,earth_acc_y,earth_acc_z
94868745734582, 7.347162, -0.3062813, 6.8817577, 0.009396642, 0.0017499924, 10.071401
94868755374582, 7.3579297, -0.30867413, 6.8817577, 0.009332001, 0.012067795, 10.079325
94868765014582, 7.3579297, -0.27876383, 6.8865438, -0.019236654, 0.0032525063, 10.081714
94868774654477, 7.393822, -0.27517462, 6.882954, -0.026427656, 0.030035496, 10.105334
94868784294477, 7.365108, -0.25004998, 6.9128647, -0.042013854, -0.020023346, 10.104103
94868793934477, 7.331609, -0.29671, 6.869794, 0.0073240697, -0.0065021515, 10.051592
94868803574477, 7.3268228, -0.2847459, 6.829116, -0.006981045, 0.01831913, 10.019973
94868813214373, 7.3100734, -0.23449662, 6.8781686, -0.05221951, -0.03346014, 10.039797
94868822854373, 7.34118, -0.23569304, 6.8446693, -0.05749905, 0.013187885, 10.039646
94868832494373, 7.3627152, -0.25244278, 6.853044, -0.04259342, 0.023228645, 10.061567
94868842134373, 7.353144, -0.2428715, 6.8578296, -0.050524533, 0.010220528, 10.057578
94868851774373, 7.37109, -0.26081768, 6.853044, -0.035617113, 0.026998043, 10.067929
94868861414269, 7.379465, -0.27996024, 6.818348, -0.02042836, 0.061103344, 10.0509
94868871054269, 7.3435726, -0.27876383, 6.79442, -0.019077241, 0.051965714, 10.008339
94868880694269, 7.350751, -0.28235307, 6.798009, -0.016511083, 0.051871777, 10.016148
94868890334269, 7.3543406, -0.33260235, 6.79442, 0.03185165, 0.060108185, 10.017809
94868899974269, 7.3064837, -0.29790643, 6.914061, 0.011059821, -0.0665822, 10.063456
94868909614269, 7.3028946, -0.2847459, 6.946364, -0.0013184547, -0.09305143, 10.082493
94868919254165, 7.283752, -0.33738798, 6.91765, 0.050711185, -0.079114914, 10.05047
94868928894165, 7.281359, -0.3469593, 6.899704, 0.059323728, -0.063464165, 10.036779
94868938534165, 7.3112698, -0.3278167, 6.9332037, 0.03853318, -0.06613636, 10.080952
94868948174165, 7.331609, -0.31106696, 6.9009004, 0.017890722, -0.027487755, 10.073262
94868957814165, 7.3292155, -0.30149564, 6.855437, 0.0062743127, 0.0052428246, 10.040181
94868967454061, 7.37109, -0.27158538, 6.863812, -0.025826007, 0.024973392, 10.0755825
94868977094061, 7.368697, -0.27756742, 6.8709903, -0.018342584, 0.019141674, 10.078917
94868986734061, 7.359126, -0.25124636, 6.863812, -0.043515205, 0.0146451, 10.066264
94868996374061, 7.34118, -0.30987054, 6.79442, 0.013209134, 0.05824423, 10.007473
94869006014061, 7.359126, -0.31585258, 6.792027, 0.017259806, 0.07280064, 10.019108
94869015653957, 7.342376, -0.28713873, 6.8303123, -0.006516278, 0.025111675, 10.032221
94869025293957, 7.348358, -0.26081768, 6.8889365, -0.029234946, -0.03085804, 10.075815
94869034933957, 7.3304124, -0.28235307, 6.879365, -0.0068522096, -0.033615112, 10.056797
94869044573957, 7.32443, -0.26081768, 6.879365, -0.028021425, -0.041955948, 10.051786
94869054213957, 7.322037, -0.2644069, 6.800402, -0.03061673, 0.017528057, 9.996319
94869063853957, 7.34118, -0.29910284, 6.6975107, -0.007752627, 0.12066603, 9.941048
94869073493852, 7.2969127, -0.28115666, 6.7908306, -0.017134696, 0.020691872, 9.971891
94869083133852, 7.2897344, -0.276371, 6.8925257, -0.015582442, -0.05681038, 10.035937
94869092773852, 7.3292155, -0.3589234, 6.88774, 0.062395662, -0.015959263, 10.063947
94869102413852, 7.2933235, -0.36610186, 6.893722, 0.08045682, -0.044162273, 10.04199
94869112053852, 7.2873416, -0.32063824, 6.9391856, 0.043150008, -0.08610058, 10.067333
94869121693852, 7.3363943, -0.32542387, 6.9344, 0.045093298, -0.044854164, 10.100021
94869131333748, 7.335198, -0.35413775, 6.843473, 0.06663877, 0.029098034, 10.0378475
94869140973748, 7.372287, -0.30508488, 6.7872415, 0.009476185, 0.08837271, 10.025091
94869150613748, 7.375876, -0.25842485, 6.8039913, -0.04157281, 0.07780743, 10.037771
94869160253748, 7.37109, -0.25603202, 6.8422766, -0.04345578, 0.04564333, 10.060383
94869169893748, 7.353144, -0.23928227, 6.9451675, -0.054454416, -0.044748306, 10.117132
94869179533748, 7.331609, -0.20219351, 6.920043, -0.09237799, -0.044236183, 10.083149
94869189173644, 7.338787, -0.20578274, 6.849455, -0.09291491, 0.013635635, 10.040237
94869198813644, 7.328019, -0.2632105, 6.8075805, -0.034799725, 0.044293404, 10.005455
94869208453644, 7.3196445, -0.3074777, 6.79442, 0.012726545, 0.05360031, 9.991638
94869218093644, 7.342376, -0.28713873, 6.769295, -0.011631042, 0.084905624, 9.990444
94869227733644, 7.338787, -0.28953153, 6.6975107, -0.011033058, 0.13465595, 9.938813
94869237373644, 7.3160553, -0.30269206, 6.799206, 0.017717183, 0.04245901, 9.992165
94869247013540, 7.3112698, -0.25004998, 6.9619174, -0.022080064, -0.08554649, 10.098399
94869256653540, 7.3399835, -0.24646074, 7.0193453, -0.025701761, -0.10795832, 10.158493
94869266293540, 7.3292155, -0.28235307, 6.96431, 0.006670058, -0.06598425, 10.114067
94869275933540, 7.3268228, -0.28713873, 6.899704, 0.00770849, -0.013091087, 10.06829
94869285573540, 7.332805, -0.317049, 6.8781686, 0.034564674, 0.015829086, 10.058743
94869295213540, 7.355537, -0.33379877, 6.906883, 0.050797492, 0.012428284, 10.095427
94869304853540, 7.27777, -0.34217364, 6.832705, 0.062155634, 0.011455536, 9.988237
94869314493436, 7.2418776, -0.317049, 6.8446693, 0.040827543, -0.03611803, 9.969545
94869324133436, 7.268199, -0.25962126, 6.903293, -0.018021524, -0.07043886, 10.027177
94869333773436, 7.308877, -0.23928227, 6.9320073, -0.042221606, -0.06499052, 10.075895
94869343413436, 7.304091, -0.28594232, 6.8602223, -6.915927E-4, -0.008636951, 10.024673
94869353053436, 7.3268228, -0.3074777, 6.7704916, 0.011011481, 0.074701786, 9.980517
94869362693436, 7.365108, -0.3278167, 6.6963143, 0.023050368, 0.15612459, 9.958313
94869372333436, 7.367501, -0.30029923, 6.71426, -0.003934115, 0.12463093, 9.97176
94869381973332, 7.368697, -0.24885355, 6.8171515, -0.048035383, 0.04434681, 10.041359
94869391613332, 7.3459654, -0.2321038, 6.7704916, -0.06227085, 0.038764477, 9.992559
94869401253332, 7.344769, -0.23688944, 6.751349, -0.058140934, 0.052984715, 9.97879
94869410893332, 7.3782687, -0.25124636, 6.77767, -0.044380754, 0.041139603, 10.021733
94869420533332, 7.3196445, -0.22013968, 6.908079, -0.062871575, -0.096945286, 10.066473
94869430173332, 7.4440713, -0.25244278, 6.908079, -0.040433645, -0.024196625, 10.158606
94869439813227, 7.48116, -0.3481557, 6.855437, 0.050385773, 0.042479515, 10.152913
94869449453227, 7.450053, -0.23449662, 6.963114, -0.053584486, -0.07444382, 10.199747
94869459093227, 7.409375, -0.2632105, 6.91765, -0.022583485, -0.06576204, 10.139881
94869468733227, 7.4189467, -0.33140594, 6.855437, 0.040796578, -0.005156994, 10.106728
94869478373227, 7.402197, -0.29192436, 6.798009, -0.0026906729, 0.02527237, 10.054354
94869488013227, 7.353144, -0.24885355, 6.7573314, -0.04652515, 0.020523071, 9.989475
94869497653227, 7.3567333, -0.30987054, 6.6927247, 0.012084633, 0.07573223, 9.950088
94869507293227, 7.348358, -0.3278167, 6.775277, 0.030949906, 0.010985851, 10.000456
94869516933123, 7.359126, -0.28953153, 6.8195443, -0.011526942, -0.02492857, 10.037231
94869526573123, 7.365108, -0.36251262, 6.8195443, 0.061403662, -0.019440651, 10.0438175
94869536213123, 7.3363943, -0.35653058, 6.782456, 0.056245998, -0.012050152, 9.997409
94869545853123, 7.335198, -0.35413775, 6.7609205, 0.05294186, 0.0012745857, 9.981873
94869555493123, 7.348358, -0.33140594, 6.806384, 0.030047327, -0.022218704, 10.02166
94869565133123, 7.385447, -0.28953153, 6.876972, -0.013144702, -0.047923088, 10.095491
94869574773019, 7.3986077, -0.2632105, 6.882954, -0.038395792, -0.03624916, 10.108459
94869584413019, 7.4129643, -0.2847459, 6.8303123, -0.021561652, 0.013791084, 10.083929
94869594053019, 7.3830543, -0.24885355, 6.832705, -0.05077097, -0.009325504, 10.062535
94869603693019, 7.3663044, -0.27038896, 6.820741, -0.025147587, -0.009638786, 10.042775
94869613333019, 7.3842506, -0.31345975, 6.8219376, 0.020471036, 0.0034899712, 10.058022
94869622973019, 7.3926253, -0.30269206, 6.789634, 0.0050906837, 0.031658173, 10.041946
94869632613019, 7.3698936, -0.2955136, 6.7908306, -0.0027935207, 0.015261173, 10.025856
94869642252915, 7.355537, -0.35294133, 6.771688, 0.049859643, 0.027977943, 10.004049
94869651892915, 7.385447, -0.34456646, 6.8051877, 0.04068002, 0.02264309, 10.048481
94869661532915, 7.3866434, -0.2739782, 6.8195443, -0.03877431, 0.010978699, 10.056944
94869671172915, 7.372287, -0.25124636, 6.8219376, -0.06041214, -3.2281876E-4, 10.047335
94869680812915, 7.38784, -0.28235307, 6.8171515, -0.030962467, 0.01647091, 10.056452
94869690452915, 7.347162, -0.31585258, 6.7908306, 0.012030005, 0.012434483, 10.009777
94869700092915, 7.3256264, -0.30269206, 6.8255267, 0.0032821, -0.028915405, 10.017155
94869709732811, 7.3340015, -0.30388847, 6.8243303, 0.0081220865, -0.024032116, 10.022514
94869719372811, 7.3902326, -0.29192436, 6.7465634, -0.010968149, 0.068538666, 10.010596
94869729012811, 7.4105716, -0.26081768, 6.727421, -0.04397759, 0.094409466, 10.011591
94869738652811, 7.4069824, -0.24646074, 6.7322063, -0.057519555, 0.08677721, 10.011788
94869748292811, 7.3627152, -0.276371, 6.8446693, -0.016178578, -0.021657467, 10.056576
94869757932811, 7.367501, -0.29072794, 6.875776, -6.0868263E-4, -0.041247368, 10.081627
94869767572811, 7.3902326, -0.32542387, 6.8339014, 0.029262692, 0.0065922737, 10.070887
94869777212707, 7.381858, -0.27038896, 6.890133, -0.021108419, -0.046606064, 10.101299
94869786852707, 7.2729845, -0.72382885, 6.768099, 0.43297842, 0.017165184, 9.951868
94869796492707, 7.4584284, 0.34217364, 6.914061, -0.64556503, -0.05956459, 10.155254
94869806132707, 7.263413, -1.0360922, 6.6939216, 0.74084324, 0.10781145, 9.903473
94869815772707, 7.4392858, 0.37328035, 6.843473, -0.66846037, -0.0294981, 10.092955
94869825412707, 7.288538, -0.8470592, 6.7740808, 0.5402869, 0.057218075, 9.971622
94869835052707, 7.416554, 0.04546363, 6.9116683, -0.34003064, -0.05843544, 10.1321
94869844692602, 7.365108, -0.3684947, 6.9559355, 0.07616037, -0.08447933, 10.136702
94869854332602, 7.271788, -0.5072784, 6.7585278, 0.21062064, 0.017586708, 9.938272
94869863972602, 7.472785, 0.11006984, 6.897311, -0.41291356, -0.02892828, 10.161506
94869873612602, 7.240681, -0.90807617, 6.690332, 0.6089252, 0.103428364, 9.880846
94869883252602, 7.4476604, 0.42711884, 6.975078, -0.72833866, -0.13129139, 10.185974
94869892892602, 7.196414, -1.1150553, 6.6771717, 0.8166445, 0.11742449, 9.845591
94869902532602, 7.4679995, 0.42711884, 6.8374906, -0.72921115, -0.025981426, 10.108031
94869912172498, 7.2897344, -0.87338024, 6.7561345, 0.56787056, 0.08730507, 9.960837
94869921812498, 7.3830543, 0.07537391, 6.896115, -0.37123698, -0.08002567, 10.095908
94869931452498, 7.3806615, -0.41156548, 6.88774, 0.108042866, -0.010762215, 10.103106
94869941092498, 7.292127, -0.38165522, 6.728617, 0.07639682, 0.04197979, 9.929123
94869950732498, 7.4440713, 0.10767702, 6.832705, -0.4159361, 0.006385803, 10.096464
94869960372498, 7.2562346, -0.8745767, 6.680761, 0.57984656, 0.11474514, 9.88438
94869970012394, 7.507481, 0.44745782, 6.928418, -0.7396418, -0.0619545, 10.198751
94869979652394, 7.2550383, -1.0875379, 6.647261, 0.7898339, 0.11788893, 9.867454
94869989292394, 7.4847493, 0.4534399, 6.8315086, -0.756373, 0.0066595078, 10.115556
94869998932394, 7.318448, -0.9020941, 6.725028, 0.6124555, 0.09165859, 9.96072
94870008572394, 7.402197, 0.13399807, 6.8853474, -0.41896018, -0.058648586, 10.10146
94870018212394, 7.368697, -0.45942193, 6.9990063, 0.16573125, -0.114528656, 10.1712475
94870027852394, 7.318448, -0.33379877, 6.884151, 0.039380223, -0.065630436, 10.0527
94870037492290, 7.442875, 0.06819545, 6.9344, -0.37145224, -0.050130367, 10.165946
94870047132290, 7.2382884, -0.8913264, 6.661618, 0.5936225, 0.11486673, 9.858948
94870056772290, 7.466803, 0.39840496, 6.9858456, -0.68612474, -0.1316185, 10.209105
94870066412290, 7.239485, -1.0743774, 6.6939216, 0.7791088, 0.133533, 9.886768
94870076052290, 7.466803, 0.44745782, 6.856633, -0.753191, -0.03612709, 10.119199
94870085692290, 7.2658057, -0.96909314, 6.6999035, 0.66140014, 0.123315334, 9.907933
94870095332186, 7.420143, 0.17228323, 6.896115, -0.4739067, -0.064035416, 10.120075
94870104972186, 7.3435726, -0.50129634, 6.9296145, 0.20371953, -0.05914879, 10.107122
94870114612186, 7.335198, -0.28115666, 6.8303123, -0.021383882, -0.009580135, 10.026804
94870124252186, 7.4333034, -0.020338992, 6.859026, -0.28843474, 0.004321575, 10.110264
94870133892186, 7.2789664, -0.8219346, 6.7238317, 0.5128727, 0.094845295, 9.929592
94870143532186, 7.52782, 0.38165522, 7.0337024, -0.68688065, -0.10571194, 10.286093
94870153172082, 7.2287173, -1.0408778, 6.7740808, 0.72678685, 0.050559044, 9.934545
94870162812082, 7.432107, 0.45822555, 6.923632, -0.7776824, -0.08573294, 10.137589
94870172452082, 7.2095747, -1.0432707, 6.641279, 0.72988915, 0.13759184, 9.829612
94870182092082, 7.3304124, 0.18065812, 6.806384, -0.50029373, -0.044444084, 9.992106
94870191732082, 7.2789664, -0.6329016, 6.8398833, 0.31499895, -0.007287979, 10.003433
94870201372082, 7.29452, -0.27517462, 6.849455, -0.038553596, -0.051909924, 10.009825
94870211011977, 7.4189467, -0.12203395, 6.876972, -0.20184252, -0.0067100525, 10.114723
94870220651977, 7.253842, -0.82911307, 6.6364937, 0.502032, 0.14348316, 9.85272
94870230291977, 7.4943204, 0.3062813, 6.9882383, -0.6203351, -0.090687275, 10.232355
94870239931977, 7.2263246, -1.0899308, 6.768099, 0.7788475, 0.085618496, 9.9298
94870249571977, 7.457232, 0.4331009, 6.9451675, -0.741114, -0.102155685, 10.1721945
94870259211977, 7.24786, -1.012164, 6.680761, 0.68078923, 0.1477108, 9.884494
94870268851873, 7.4344997, 0.2739782, 6.8542404, -0.58884513, -0.017927647, 10.098535
94870278491873, 7.314859, -0.65084773, 6.875776, 0.33360508, -0.0074062347, 10.054636
94870288131873, 7.2957163, -0.16271193, 6.8482585, -0.13923284, -0.07490206, 10.006379
94870297771873, 7.4069824, -0.13280165, 6.893722, -0.17471257, -0.04253769, 10.117909
94870307411873, 7.27777, -0.70229346, 6.7405815, 0.39477307, 0.040860176, 9.936653
94870317051873, 7.501499, 0.29312077, 6.9930243, -0.60766256, -0.0954299, 10.241214
94870326691769, 7.2442703, -1.0432707, 6.721439, 0.7380327, 0.0753603, 9.909352
94870336331769, 7.503892, 0.45583272, 6.927222, -0.7654239, -0.04760313, 10.193844
94870345971769, 7.2861447, -1.0564312, 6.6831536, 0.7403289, 0.14139652, 9.914658
94870355611769, 7.4344997, 0.31226337, 6.8339014, -0.6250675, -0.01969719, 10.08367
94870365251769, 7.3052874, -0.66759753, 6.7537417, 0.34305966, 0.061946392, 9.96516
94870374891769, 7.3196445, -0.12921242, 6.815955, -0.18068334, -0.04132223, 10.000839
94870384531665, 7.359126, -0.18424734, 6.879365, -0.1182735, -0.06359434, 10.074636
94870394171665, 7.2358956, -0.67477596, 6.640083, 0.36239755, 0.09519386, 9.83686
94870403811665, 7.466803, 0.2620141, 6.8506513, -0.5729988, -0.035847187, 10.120455
94870413451665, 7.2179494, -1.0241281, 6.7465634, 0.7210908, 0.04508066, 9.906652
94870423091665, 7.457232, 0.44985065, 7.0169525, -0.7488871, -0.17016077, 10.2205925
94870432731665, 7.251449, -1.1018949, 6.68435, 0.79252887, 0.105838776, 9.8913555
94870442371561, 7.4787674, 0.29790643, 6.8039913, -0.60136783, 0.021064281, 10.097174
94870452011561, 7.3375907, -0.7956135, 6.765706, 0.48162156, 0.0847559, 10.000443
94870461651561, 7.3866434, -0.059820566, 6.8865438, -0.23834398, -0.04967308, 10.096103
94870471291561, 7.4309106, -0.2117648, 6.9559355, -0.090639055, -0.059652805, 10.180204
94870480931561, 7.3064837, -0.567099, 6.7740808, 0.26803222, 0.026184559, 9.97607
94870490571561, 7.440482, 0.2440679, 6.942775, -0.5436059, -0.09810352, 10.164515
94870500211457, 7.198807, -1.0097711, 6.735796, 0.7129489, 0.028580189, 9.884548
94870509851457, 7.466803, 0.50368917, 7.012167, -0.8007575, -0.16380787, 10.222979
94870519491457, 7.2646093, -1.0169497, 6.7645097, 0.71452546, 0.046123028, 9.95262
94870529131457, 7.499106, 0.38404804, 6.856633, -0.6960459, -0.0062379837, 10.144602
94870538771457, 7.385447, -0.8386843, 6.727421, 0.53443, 0.12994003, 10.01019
94870548411352, 7.475178, -0.032303106, 6.7728844, -0.28433868, 0.08078623, 10.082851
94870558051352, 7.429714, -0.27876383, 6.829116, -0.032305866, 0.032672882, 10.0952015
94870567691352, 7.2705917, -0.5204389, 6.7130637, 0.2194179, 0.031105995, 9.90699
94870577331352, 7.4512496, 0.2009971, 6.8303123, -0.50815564, -0.00288105, 10.097348
94870586971352, 7.1916285, -0.96789676, 6.641279, 0.6628464, 0.076812744, 9.8141575
94870596611248, 7.4309106, 0.45583272, 6.971489, -0.7578789, -0.16358852, 10.169893
94870606251248, 7.222735, -1.1126626, 6.7537417, 0.81723595, 0.044384003, 9.917112
94870615891248, 7.436893, 0.37088752, 6.9296145, -0.68184584, -0.09795952, 10.148398
94870625531248, 7.3028946, -0.8913264, 6.8015985, 0.57887346, 0.035612106, 10.002605
94870635171248, 7.385447, -0.009571291, 6.9499536, -0.29430294, -0.11099005, 10.136461
94870644811248, 7.389036, -0.41156548, 6.9355965, 0.10493493, -0.062005043, 10.141739
94870654451144, 7.3136625, -0.5132605, 6.780063, 0.21284482, 0.008270264, 9.983835
94870664091144, 7.4679995, 0.08733802, 6.8721867, -0.39351174, -0.014092922, 10.141525
94870673731144, 7.223932, -0.97507524, 6.6556363, 0.6724687, 0.06898832, 9.847664
94870683371144, 7.4512496, 0.45583272, 6.991828, -0.7511195, -0.1327138, 10.199648
94870693011144, 7.222735, -1.099502, 6.666404, 0.7994739, 0.09607601, 9.857452
94870702651040, 7.4883385, 0.46899325, 6.789634, -0.79372716, 0.03289938, 10.087776
94870712291040, 7.3256264, -0.8745767, 6.6819572, 0.5591391, 0.14749098, 9.936995
94870721931040, 7.4356966, 0.12921242, 6.879365, -0.43390983, -0.048857212, 10.121328
94870731571040, 7.3830543, -0.38404804, 6.942775, 0.074540704, -0.07116604, 10.141424
94870741211040, 7.3363943, -0.40677986, 6.799206, 0.10207555, 0.0043911934, 10.010341
94870750850936, 7.4943204, 0.07298109, 6.8171515, -0.38693526, 0.054500103, 10.123787
94870760490936, 7.2765737, -0.8865408, 6.6388865, 0.5824965, 0.14652824, 9.871602
94870770130936, 7.487142, 0.45224348, 6.95115, -0.7486049, -0.083530426, 10.198672
94870779770936, 7.240681, -1.0671989, 6.725028, 0.7749841, 0.071778774, 9.908916
94870789410936, 7.475178, 0.48095736, 6.896115, -0.7908242, -0.05002451, 10.150768
94870799050936, 7.2861447, -0.91884387, 6.666404, 0.61552465, 0.13898563, 9.898229
94870808690832, 7.4189467, 0.16031912, 6.9009004, -0.45566398, -0.057279587, 10.123141
94870818330832, 7.3842506, -0.48215377, 6.9116683, 0.1797485, -0.015001297, 10.124142
94870827970832, 7.3136625, -0.34337005, 6.7908306, 0.041236103, 0.007864952, 9.98605
94870837610832, 7.432107, 0.0741775, 6.859026, -0.38503397, 0.0031991005, 10.106419
94870847250832, 7.227521, -0.8219346, 6.672386, 0.52056307, 0.091406345, 9.856674
94870856890727, 7.452446, 0.4127619, 6.943971, -0.71405387, -0.07155228, 10.169222
94870866530727, 7.257431, -1.1150553, 6.7130637, 0.80541027, 0.09561777, 9.915697
94870876170727, 7.4512496, 0.4354937, 6.975078, -0.73206997, -0.0747242, 10.189259
94870885810727, 7.2059855, -1.0157533, 6.7740808, 0.7134216, -0.0026307106, 9.91651
94870895450727, 7.361519, 0.104087785, 6.910472, -0.4124133, -0.06004429, 10.088793
94870905090623, 7.268199, -0.6364908, 6.899704, 0.33260316, -0.06851387, 10.036055
94870914730623, 7.23111, -0.37447673, 6.847062, 0.07652961, -0.06445122, 9.965012
94870924370623, 7.38784, -0.069391854, 6.9009004, -0.24866018, -0.016560078, 10.106695
94870934010623, 7.225128, -0.8350951, 6.6855464, 0.51691866, 0.10273409, 9.865021
94870943650623, 7.4847493, 0.37686956, 6.9822564, -0.70040596, -0.0640192, 10.218647
94870953290519, 7.1688967, -1.1078769, 6.79442, 0.79551625, 0.016433716, 9.907145
94870962930519, 7.4129643, 0.48454657, 7.0145597, -0.7999059, -0.1542511, 10.184656
94870972570519, 7.2646093, -0.9667004, 6.745367, 0.6423162, 0.09140873, 9.93922
94870982210519, 7.429714, 0.27996024, 6.862615, -0.5939681, -0.0011630058, 10.10058
94870991850519, 7.301698, -0.61016977, 6.8195443, 0.2992276, 0.036165237, 10.005121
94871001490519, 7.2825556, -0.27756742, 6.7968125, -0.03432861, 0.0073804855, 9.965344
94871011130415, 7.379465, -0.10289137, 6.884151, -0.21112254, -0.007440567, 10.090292
94871020770415, 7.220342, -0.7585248, 6.623333, 0.4447301, 0.12704563, 9.816483
94871030410415, 7.450053, 0.32183465, 6.923632, -0.6386894, -0.038443565, 10.1555
94871040050415, 7.223932, -1.0217353, 6.8602223, 0.7143199, -0.036770344, 9.989004
94871049690415, 7.470392, 0.5276174, 7.131808, -0.82213044, -0.19887924, 10.306908
94871059330311, 7.2215385, -1.0372887, 6.8243303, 0.73015654, 0.017074108, 9.963165
94871068970311, 7.367501, 0.21894327, 6.908079, -0.51224244, -0.061233997, 10.088777
94871078610311, 7.27777, -0.6723832, 6.8255267, 0.3785396, 0.03068161, 9.99308
94871088250311, 7.3292155, -0.19142582, 6.8219376, -0.10874361, 0.021226883, 10.014019
94871097890311, 7.373483, -0.16031912, 6.863812, -0.14106981, 0.02086687, 10.074004
94871107530311, 7.21436, -0.6628119, 6.7633133, 0.3722505, 0.005733967, 9.904044
94871117170207, 7.436893, 0.34217364, 7.085148, -0.643576, -0.14586449, 10.256136
94871126810207, 7.225128, -1.0253245, 6.9020967, 0.7373451, -0.074858665, 10.017157
94871136450207, 7.5050883, 0.48095736, 7.1042905, -0.7780851, -0.10530138, 10.315625
94871146090207, 7.283752, -1.0420742, 6.7429743, 0.74657154, 0.103018284, 9.951818
94871155730207, 7.4847493, 0.30867413, 6.800402, -0.6269812, 0.099336624, 10.097488
94871165370207, 7.3579297, -0.70229346, 6.7226353, 0.38889664, 0.14931631, 9.982616
94871175010102, 7.344769, -0.06460621, 6.795616, -0.23916242, 0.024840832, 10.003619
94871184650102, 7.3639116, -0.14356937, 6.8374906, -0.15683421, 0.0044670105, 10.048606
94871194290102, 7.2011995, -0.57906306, 6.6556363, 0.28334627, 0.063601494, 9.818642
94871203930102, 7.429714, 0.3469593, 6.966703, -0.64283335, -0.09398174, 10.170246
94871213570102, 7.2023964, -0.95473623, 6.8374906, 0.65858716, -0.03097248, 9.9550295
94871223210102, 7.4620175, 0.4749753, 7.068398, -0.7807387, -0.15369368, 10.25848
94871232849998, 7.225128, -1.1389836, 6.7058854, 0.8441671, 0.084356785, 9.886806
94871242489998, 7.411768, 0.30029923, 6.876972, -0.5986853, -0.012819767, 10.097457
94871252129998, 7.2861447, -0.849452, 6.812366, 0.5541316, 0.026177883, 9.9955015
94871261769998, 7.2957163, -0.11006984, 6.8949184, -0.1860531, -0.08311701, 10.036831
94871271409998, 7.314859, -0.29910284, 6.875776, 1.21325254E-4, -0.04094076, 10.043468
94871281049894, 7.2442703, -0.6221339, 6.7537417, 0.3269209, 0.028077126, 9.91826
94871290689894, 7.448857, 0.1794617, 6.977471, -0.4805817, -0.08275032, 10.1963215
94871300329894, 7.207182, -1.0037891, 6.7645097, 0.7065594, 0.029501915, 9.910074
94871309969894, 7.503892, 0.47138608, 7.075577, -0.7752923, -0.14014864, 10.294353
94871319609894, 7.251449, -1.1306087, 6.748956, 0.8234845, 0.09368801, 9.935961
94871329249894, 7.411768, 0.317049, 6.977471, -0.60145795, -0.13112736, 10.165676
94871338889894, 7.2490563, -0.83389866, 6.826723, 0.53390133, -0.009552002, 9.978138
94871348529790, 7.353144, 0.021535404, 6.8542404, -0.31474105, -0.04070759, 10.047343
94871358169790, 7.34118, -0.3062813, 6.862615, 0.0035392344, -0.02124691, 10.053943
94871367809790, 7.257431, -0.45583272, 6.7262244, 0.15677285, 0.037642956, 9.904251
94871377449790, 7.499106, 0.2428715, 6.903293, -0.5509267, 0.016352177, 10.180729
94871387089790, 7.2622166, -0.92482597, 6.768099, 0.63087225, 0.065577984, 9.949873
94871396729790, 7.493124, 0.43908295, 7.0492554, -0.73030615, -0.12757349, 10.270448
94871406369686, 7.225128, -1.1330016, 6.7226353, 0.8448211, 0.08156443, 9.897455
94871416009686, 7.436893, 0.4354937, 6.802795, -0.7435853, 0.02140522, 10.060898
94871425649686, 7.288538, -0.86141616, 6.704689, 0.5554867, 0.109880924, 9.924568
94871435289686, 7.3974113, 0.038285162, 6.847062, -0.33916628, -0.0064225197, 10.074244
94871444929686, 7.328019, -0.37208393, 6.8949184, 0.07638101, -0.053515434, 10.068244
94871454569686, 7.245467, -0.45822555, 6.7441707, 0.16572051, 0.014480114, 9.907721
94871464209686, 7.452446, 0.10887343, 6.847062, -0.41599905, 0.045506954, 10.112267
94871473849582, 7.240681, -0.8817552, 6.800402, 0.59142, 0.011251926, 9.954924
94871483489582, 7.4656067, 0.44985065, 7.038488, -0.7517556, -0.122117996, 10.241968
94871493129582, 7.210771, -1.0743774, 6.7202425, 0.77177286, 0.07964373, 9.884796
94871502769582, 7.4859457, 0.46899325, 6.9702926, -0.7613906, -0.06164646, 10.210817
94871512409582, 7.283752, -0.86859465, 6.8279195, 0.5693054, 0.018603802, 10.005177
94871522049582, 7.4045897, 0.13160525, 6.9224358, -0.4220596, -0.06350613, 10.128336
94871531689582, 7.347162, -0.45822555, 6.8985076, 0.17660655, -0.03153324, 10.087021
94871541329477, 7.2993054, -0.4127619, 6.795616, 0.13097712, 0.008972645, 9.980651
94871550969477, 7.4440713, 0.0526421, 6.8482585, -0.34344232, 0.031963825, 10.109236
94871560609477, 7.2095747, -0.8709874, 6.629315, 0.5852461, 0.11877823, 9.8146715
94871570249477, 7.4620175, 0.4354937, 6.9894347, -0.73518986, -0.069461346, 10.206774
94871579889477, 7.1856465, -1.1066805, 6.769295, 0.8256329, 0.014644623, 9.899483
94871589529477, 7.440482, 0.47018966, 6.9212394, -0.7583157, -0.054512024, 10.144329
94871599169477, 7.251449, -0.92482597, 6.7058854, 0.6220536, 0.09880209, 9.900051
94871608809373, 7.379465, 0.19262223, 6.853044, -0.4884231, -0.01569748, 10.060766
94871618449373, 7.320841, -0.4869394, 6.884151, 0.1947555, -0.016952038, 10.059082
94871628089373, 7.281359, -0.31585258, 6.8195443, 0.036747694, -0.013347626, 9.981113
94871637729373, 7.472785, 0.009571291, 6.928418, -0.2970127, -0.0049147606, 10.186134
94871647369373, 7.274181, -0.81954175, 6.721439, 0.5315976, 0.123432636, 9.922968
94871657009373, 7.5122666, 0.4019942, 7.099505, -0.66469455, -0.16594219, 10.321306
94871666649373, 7.2670026, -1.0001999, 6.843473, 0.7276278, 0.07847643, 10.005362
94871676289373, 7.470392, 0.5180461, 7.0432734, -0.7932885, -0.15648127, 10.248367
94871685929373, 7.2323065, -0.96909314, 6.812366, 0.68453354, 0.08014488, 9.958851
94871695569269, 7.3866434, 0.25722843, 6.991828, -0.5299578, -0.13539982, 10.159484
94871705209269, 7.300502, -0.53359944, 6.940382, 0.26480693, -0.044959545, 10.083591
94871714849269, 7.298109, -0.21894327, 6.875776, -0.0583753, -0.037236214, 10.029049
94871724489269, 7.4129643, -0.019142581, 6.873383, -0.2712117, 0.020441055, 10.1055355
94871734129269, 7.222735, -0.8147561, 6.579066, 0.52319473, 0.19053221, 9.788042
94871743769269, 7.483553, 0.30867413, 6.8853474, -0.60043275, 0.029417992, 10.156055
94871753409269, 7.1820574, -1.0755738, 6.808777, 0.7864535, 0.012367249, 9.923689
94871763049269, 7.426125, 0.46899325, 7.048059, -0.75115097, -0.15774727, 10.220241
94871772689269, 7.2215385, -1.0636097, 6.7968125, 0.7742599, 0.04677725, 9.943686
94871782329165, 7.355537, 0.2321038, 6.954739, -0.52740556, -0.12799644, 10.110968
94871791969165, 7.2646093, -0.61854464, 6.9499536, 0.33856046, -0.076575756, 10.066704
94871801609165, 7.271788, -0.20338993, 6.8745794, -0.08182192, -0.06987667, 10.008422
94871811249165, 7.3663044, -0.06580263, 6.88774, -0.22562721, -0.023932457, 10.082474
94871820889165, 7.223932, -0.6652047, 6.661618, 0.37302876, 0.12436867, 9.841251
94871830529165, 7.4584284, 0.4127619, 6.936793, -0.70337343, -0.06609583, 10.169489
94871840169165, 7.240681, -1.0480564, 6.7130637, 0.7522657, 0.13747072, 9.899813
94871849809165, 7.517052, 0.4941179, 7.0265236, -0.76719964, -0.10799456, 10.27239
94871859449165, 7.2562346, -1.0875379, 6.7226353, 0.7944307, 0.14931822, 9.918472
94871869089165, 7.456035, 0.27517462, 6.882954, -0.55777466, -0.011675358, 10.135679
94871878729165, 7.3196445, -0.67836523, 6.8805614, 0.4150918, -0.014837265, 10.060167
94871888369061, 7.3232336, -0.10049855, 6.859026, -0.16591045, -0.055206776, 10.032722
94871898009061, 7.391429, -0.10767702, 6.8279195, -0.16541365, 0.015778065, 10.061694
94871907649061, 7.2670026, -0.6161518, 6.617351, 0.34440327, 0.11681032, 9.84104
94871917289061, 7.537391, 0.40438703, 6.942775, -0.691767, -0.028479576, 10.232231
94871926929061, 7.29452, -0.92602235, 6.8171515, 0.6471072, -0.0018081665, 10.006115
94871936569061, 7.556534, 0.62093747, 7.1246295, -0.9085506, -0.1589551, 10.363224
94871946209061, 7.30768, -1.1294123, 6.8015985, 0.84464145, 0.025218964, 10.011267
94871955849061, 7.440482, 0.30029923, 6.9906316, -0.5762279, -0.13584423, 10.196537
94871965489061, 7.240681, -0.8063812, 6.7704916, 0.53107476, -0.008208752, 9.931522
94871975129061, 7.350751, -0.14237295, 6.7573314, -0.13693994, 0.02379036, 9.984789
94871984769061, 7.4141607, -0.2632105, 6.778867, -0.021849066, 0.06391811, 10.049255
94871994409061, 7.271788, -0.6017949, 6.661618, 0.32067263, 0.08429527, 9.874628
94872004049061, 7.4715886, 0.30867413, 6.9655066, -0.59885615, -0.07044029, 10.201696
94872013689061, 7.251449, -0.94277215, 6.7740808, 0.6665741, 0.013746262, 9.945652
94872023329061, 7.5433736, 0.5312066, 7.0337024, -0.8250946, -0.10366297, 10.293985
94872032968957, 7.300502, -1.0360922, 6.7764735, 0.75874925, 0.040946007, 9.985691
94872042608957, 7.5110703, 0.36370903, 6.856633, -0.6609128, 0.03333807, 10.154997
94872052248957, 7.365108, -0.8135597, 6.739385, 0.52974355, 0.09719896, 10.001797
94872061888957, 7.365108, 0.025124637, 6.8219376, -0.3125255, -0.025875568, 10.034238
94872071528957, 7.350751, -0.2428715, 6.890133, -0.042154968, -0.06555748, 10.077718
94872081168957, 7.2729845, -0.5168497, 6.7405815, 0.23516338, 0.010966778, 9.926907
94872090808957, 7.466803, 0.25722843, 6.884151, -0.5438466, -0.03249836, 10.144655
94872100448957, 7.2562346, -0.9798609, 6.6831536, 0.6899141, 0.09345102, 9.889029
94872110088957, 7.493124, 0.45702913, 7.0193453, -0.7340696, -0.121269226, 10.250533
94872119728957, 7.219146, -1.1114662, 6.7848487, 0.8276665, 0.02696848, 9.93478
94872129368957, 7.466803, 0.38404804, 6.928418, -0.6714155, -0.07769966, 10.170879
94872139008957, 7.2957163, -0.8865408, 6.778867, 0.5980444, 0.056729794, 9.980261
94872148648957, 7.353144, 0.038285162, 6.9320073, -0.3129676, -0.111492634, 10.100126
94872158288957, 7.365108, -0.34217364, 6.966703, 0.073067576, -0.08716297, 10.143169
94872167928957, 7.3052874, -0.46660042, 6.7669024, 0.18917057, 0.030640125, 9.966906
94872177568957, 7.489535, 0.1698904, 6.8805614, -0.45901412, 0.0054159164, 10.161366
94872187208957, 7.2526455, -0.9320044, 6.7130637, 0.6541182, 0.08373356, 9.904536
94872196848957, 7.537391, 0.45702913, 7.0289164, -0.74830216, -0.10652828, 10.28861
94872206488957, 7.281359, -1.0887343, 6.7525454, 0.8081306, 0.07538319, 9.95699
94872216128957, 7.4656067, 0.465404, 6.9020967, -0.7447437, -0.07564163, 10.150393
94872225768957, 7.274181, -0.87218386, 6.7130637, 0.5760276, 0.07854843, 9.919762
94872235408957, 7.375876, 0.086141616, 6.867401, -0.37412933, -0.07254839, 10.0710945
94872245048957, 7.332805, -0.42711884, 6.856633, 0.13881359, -0.042470455, 10.047131
94872254688957, 7.274181, -0.41994038, 6.715457, 0.13412082, 0.026339054, 9.908014
94872264328957, 7.4979095, 0.17826529, 6.937989, -0.46961242, -0.03574276, 10.206092
94872273968957, 7.292127, -0.8781659, 6.7704916, 0.589593, 0.031377792, 9.971823
94872283608957, 7.517052, 0.42592242, 7.0576305, -0.70350575, -0.13663864, 10.294855
94872293248957, 7.239485, -1.0851451, 6.8075805, 0.8153322, 0.009879589, 9.96323
94872302888957, 7.5146594, 0.4426722, 6.8745794, -0.7248466, -0.0035767555, 10.168603
94872312528957, 7.308877, -0.9487542, 6.6735826, 0.65727556, 0.12792635, 9.920088
94872322168957, 7.402197, 0.1363909, 6.8506513, -0.41285822, -0.02134943, 10.078276
94872331808957, 7.342376, -0.48933223, 6.8949184, 0.20534539, -0.04966259, 10.081924
94872341448957, 7.281359, -0.37328035, 6.808777, 0.0959391, -0.039126396, 9.975282
94872351088957, 7.4177504, 0.049052864, 6.8542404, -0.3409338, -0.020163536, 10.094028
94872360728957, 7.2346992, -0.85902333, 6.704689, 0.57069993, 0.05393839, 9.884485
94872370368957, 7.442875, 0.39720857, 7.055238, -0.67449427, -0.17850113, 10.239323
94872380008957, 7.210771, -1.1114662, 6.786045, 0.83625823, -0.01764965, 9.928814
94872389648957, 7.4847493, 0.4881358, 6.9583282, -0.7823484, -0.09618139, 10.200822
94872399288957, 7.2897344, -0.9487542, 6.7094746, 0.6502979, 0.10271549, 9.930961
94872408928957, 7.428518, 0.1794617, 6.8506513, -0.4714898, -0.017755508, 10.095737
94872418568957, 7.3663044, -0.50488555, 6.8650084, 0.22483334, -0.0025863647, 10.07944
94872428208957, 7.365108, -0.25722843, 6.8051877, -0.02499938, 0.014642239, 10.030989
94872437848957, 7.4907312, 0.03708875, 6.927222, -0.32218426, -0.024400234, 10.197765
94872447488957, 7.26102, -0.8327023, 6.7094746, 0.559505, 0.07680464, 9.905247
94872457128957, 7.487142, 0.41635114, 7.0061846, -0.68010974, -0.14789438, 10.238792
94872466768957, 7.271788, -1.032503, 6.7441707, 0.74972737, 0.06608915, 9.942955
94872476408957, 7.5254273, 0.5192425, 6.8985076, -0.79872715, -0.03425455, 10.190778
94872486048957, 7.2670026, -0.9415757, 6.721439, 0.64765155, 0.09269953, 9.921976
94872495688957, 7.420143, 0.30269206, 6.8721867, -0.5838053, -0.059037685, 10.101128
94872505328957, 7.3375907, -0.5623133, 6.8506513, 0.27842847, 0.002073288, 10.05039
94872514968957, 7.328019, -0.2117648, 6.7932234, -0.072526366, 0.0019626617, 9.994365
94872524608957, 7.399804, -0.069391854, 6.8709903, -0.20946845, -0.02843523, 10.095926
94872534248957, 7.2287173, -0.7692925, 6.6855464, 0.50138575, 0.066800594, 9.863409
94872543888957, 7.470392, 0.35533416, 6.942775, -0.6236796, -0.097754955, 10.185118
94872553529061, 7.251449, -1.0695918, 6.68435, 0.80593055, 0.13793373, 9.886331
94872563169061, 7.5493555, 0.54675996, 6.940382, -0.8068982, -0.06604624, 10.23744
94872572809061, 7.34118, -0.9762716, 6.7405815, 0.7108878, 0.14541006, 9.98774
94872582449061, 7.4919276, 0.28235307, 6.786045, -0.5487623, 0.04441166, 10.097326
94872592089061, 7.3639116, -0.6041877, 6.8925257, 0.34586984, -0.0035676956, 10.098491
94872601729061, 7.3926253, -0.08733802, 6.9296145, -0.16656083, -0.07886076, 10.131344
94872611369061, 7.448857, -0.0741775, 6.884151, -0.19673812, -0.008635998, 10.14119
94872621009061, 7.27777, -0.6975078, 6.6592255, 0.42507318, 0.11069393, 9.879514
94872630649061, 7.432107, 0.37088752, 6.99781, -0.63562864, -0.15480328, 10.193876
94872640289061, 7.1952176, -0.9954142, 6.8410797, 0.74534285, -0.0655241, 9.950003
94872649929061, 7.4847493, 0.5192425, 6.9966135, -0.7794706, -0.114584446, 10.228538
94872659569061, 7.216753, -1.0923235, 6.678368, 0.8211027, 0.06560707, 9.858843
94872669209061, 7.459625, 0.2883351, 6.8111696, -0.5545285, 0.030982018, 10.090229
94872678849165, 7.3399835, -0.70947194, 6.7836523, 0.44224954, 0.03655529, 10.009981
94872688489165, 7.3806615, -0.10887343, 6.8075805, -0.15923403, 0.010585308, 10.040106
94872698129165, 7.4105716, -0.16869399, 6.896115, -0.10629207, -0.031211853, 10.1236925
94872707769165, 7.2622166, -0.6652047, 6.771688, 0.3967106, -0.0151433945, 9.943864
94872717409165, 7.4452677, 0.27038896, 7.07438, -0.54393077, -0.16556978, 10.258104
94872727049165, 7.194021, -1.006182, 6.8518476, 0.7410264, -0.104991436, 9.957611
94872736689165, 7.446464, 0.5240282, 7.048059, -0.7837048, -0.15660667, 10.235275
94872746329165, 7.259824, -1.0372887, 6.762117, 0.79098403, 0.017285347, 9.943907
94872755969165, 7.4440713, 0.3493521, 6.8709903, -0.60819566, -0.038179874, 10.118072
94872765609165, 7.30768, -0.78723866, 6.7537417, 0.52982277, 0.042635918, 9.967567
94872775249269, 7.4129643, -0.13998012, 6.8255267, -0.10762423, 0.012020588, 10.077089
94872784889269, 7.450053, -0.27996024, 6.806384, 0.019267768, 0.06253576, 10.094764
94872794529269, 7.4452677, -0.14955142, 6.7501526, -0.116708755, 0.08768988, 10.049757
94872804169269, 7.4656067, -0.21655045, 6.687939, -0.057706267, 0.15365028, 10.0241585
94872813809269, 7.446464, -0.15074782, 6.8111696, -0.11479947, 0.040318012, 10.092065
94872823449269, 7.409375, -0.13519448, 6.879365, -0.12188527, -0.03575468, 10.11072
94872833089269, 7.3782687, -0.2009971, 6.806384, -0.05755648, 0.0034575462, 10.040059
94872842729269, 7.361519, -0.24885355, 6.768099, -0.009481013, 0.024101734, 10.003019
94872852369269, 7.368697, -0.25962126, 6.829116, 0.0051550865, -0.016981125, 10.049957
94872862009373, 7.3842506, -0.2835495, 6.843473, 0.026808918, -0.016566753, 10.071728
94872871649373, 7.3304124, -0.3074777, 6.8422766, 0.050768256, -0.047183514, 10.032021
94872881289373, 7.37109, -0.25244278, 6.9116683, -0.0063020587, -0.07436609, 10.107536
94872890929373, 7.38784, -0.22731815, 6.96431, -0.028918982, -0.09983921, 10.154932
94872900569373, 7.405786, -0.27876383, 6.8279195, 0.009997427, 0.018354416, 10.076876
94872910209373, 7.4010005, -0.30867413, 6.7298136, 0.037383556, 0.09469366, 10.007502
94872919849373, 7.3866434, -0.2943172, 6.7609205, 0.027037978, 0.06051159, 10.017722
94872929489477, 7.399804, -0.32183465, 6.7669024, 0.054831207, 0.062871456, 10.032183
94872939129477, 7.381858, -0.31585258, 6.7369924, 0.0432916, 0.063700676, 9.998636
94872948769477, 7.368697, -0.2548356, 6.789634, -0.018687963, 0.008137703, 10.023042
94872958409477, 7.3495545, -0.21774685, 6.7932234, -0.05689621, -0.011249542, 10.010389
94872968049477, 7.3196445, -0.25244278, 6.795616, -0.019678503, -0.03160858, 9.9909935
94872977689477, 7.331609, -0.2632105, 6.7932234, -0.010031849, -0.0208354, 9.998455
94872987329477, 7.391429, -0.20578274, 6.9009004, -0.06575829, -0.0656209, 10.113821
94872996969582, 7.391429, -0.2632105, 6.8578296, -0.0010208488, -0.03194475, 10.086195
94873006609582, 7.436893, -0.3074777, 6.876972, 0.045022875, -0.011600971, 10.133732
94873016249582, 7.448857, -0.25124636, 6.859026, -0.012720615, 0.0047860146, 10.128902
94873025889582, 7.457232, -0.25004998, 6.775277, -0.016532332, 0.07456732, 10.078264
94873035529582, 7.448857, -0.25842485, 6.7298136, -0.00794974, 0.11054659, 10.041431
94873045169686, 7.367501, -0.2847459, 6.7848487, 0.027840227, 0.0177989, 10.019691
94873054809686, 7.344769, -0.2656033, 6.814759, 0.010895431, -0.021635532, 10.0228
94873064449686, 7.385447, -0.24047868, 6.818348, -0.019957393, -4.8971176E-4, 10.054458
94873074089686, 7.3830543, -0.25244278, 6.8410797, -0.009398848, -0.020843506, 10.0684185
94873083729686, 7.344769, -0.27996024, 6.8853474, 0.021948695, -0.08127737, 10.070995
94873093369686, 7.3459654, -0.276371, 6.884151, 0.018390954, -0.084549904, 10.07093
94873103009790, 7.4069824, -0.23928227, 6.8255267, -0.026122034, -0.0031113625, 10.075107
94873112649790, 7.385447, -0.25004998, 6.765706, -0.015112132, 0.027095795, 10.01904
94873122289790, 7.3770723, -0.27876383, 6.7525454, 0.013705969, 0.033830643, 10.004721
94873131929790, 7.411768, -0.32422748, 6.7836523, 0.059273183, 0.035859585, 10.052492
94873141569790, 7.408179, -0.27517462, 6.8506513, 0.013746947, -0.021958828, 10.093937
94873151209894, 7.393822, -0.22492532, 6.8853474, -0.032911897, -0.06206608, 10.1055565
94873160849894, 7.4177504, -0.20578274, 6.8650084, -0.055221826, -0.03301668, 10.108885
94873170489894, 7.38784, -0.2632105, 6.815955, 0.002980858, -0.010199547, 10.055178
94873180129894, 7.3603225, -0.25244278, 6.8015985, -0.0042630434, -0.018886566, 10.024941
94873189769894, 7.372287, -0.23808585, 6.802795, -0.019720137, -0.013643742, 10.034179
94873199409998, 7.420143, -0.2955136, 6.8051877, 0.033315778, 0.022607327, 10.072478
94873209049998, 7.399804, -0.30987054, 6.7740808, 0.04600957, 0.031922817, 10.0368395
94873218689998, 7.385447, -0.27876383, 6.7872415, 0.015942544, 0.008393288, 10.034384
94873228329998, 7.3770723, -0.27517462, 6.7932234, 0.014090687, -0.0034832954, 10.032178
94873237969998, 7.368697, -0.28115666, 6.7812595, 0.020124853, 2.48909E-4, 10.018076
94873247610102, 7.344769, -0.28235307, 6.7537417, 0.024165422, 0.0024747849, 9.981874
94873257250102, 7.3196445, -0.26081768, 6.7334027, 0.01197508, -0.009535313, 9.949057
94873266890102, 7.3567333, -0.28235307, 6.725028, 0.029587984, 0.023524284, 9.97125
94873276530102, 7.3782687, -0.24526432, 6.7405815, -0.0028299391, 0.01540041, 9.99671
94873286170207, 7.4380894, -0.17467605, 6.7537417, -0.06473291, 0.00924921, 10.048107
94873295810207, 7.456035, -0.32063824, 6.7740808, 0.08846003, 0.0080013275, 10.07847
94873305450207, 7.5409803, -0.15553348, 6.9152575, -0.07336056, -0.05981779, 10.232419
94873315090207, 7.54457, -0.19381863, 6.687939, -0.038645625, 0.08952522, 10.083508
94873324730207, 7.4344997, -0.14117654, 6.68435, -0.07297552, 0.0030565262, 9.998346
94873334370311, 7.5433736, -0.18065812, 6.7669024, -0.03335458, 0.017640114, 10.135317
94873344010311, 7.499106, -0.22492532, 6.721439, 0.011177242, 0.027394772, 10.072935
94873353650311, 7.4775705, -0.12562318, 6.715457, -0.08443615, 0.009054184, 10.05087
94873363290311, 7.4943204, -0.13878371, 6.6855464, -0.07597196, 0.04993725, 10.043524
94873372930415, 7.5230346, -0.13758731, 6.7525454, -0.07670501, 0.026062489, 10.109663
94873382570415, 7.537391, -0.07776674, 6.814759, -0.13366765, -0.01635313, 10.160763
94873392210415, 7.560123, -0.096909314, 6.812366, -0.116357505, 0.0035328865, 10.176426
94873401850415, 7.4859457, -0.17467605, 6.7740808, -0.032918334, -0.0074625015, 10.097372
94873411490519, 7.450053, -0.18305093, 6.780063, -0.019604743, -0.032010555, 10.074952
94873421130519, 7.470392, -0.26081768, 6.74776, 0.055125773, 0.011523247, 10.06995
94873430770519, 7.446464, -0.3278167, 6.707082, 0.12063989, 0.033699512, 10.026293
94873440410519, 7.411768, -0.2644069, 6.739385, 0.052827507, -0.014681339, 10.021004
94873450050623, 7.3926253, -0.31106696, 6.7764735, 0.09887758, -0.0496397, 10.032747
94873459690623, 7.3543406, -0.31226337, 6.7872415, 0.09908965, -0.08010912, 10.011705
94873469330623, 7.3495545, -0.25004998, 6.8243303, 0.034719765, -0.11092472, 10.031771
94873478970623, 7.399804, -0.18903299, 6.7932234, -0.03449416, -0.052015305, 10.046732
94873488610727, 7.416554, -0.19740787, 6.735796, -0.029848337, 0.0018091202, 10.020694
94873498250727, 7.4069824, -0.23569304, 6.7202425, 0.008125395, 0.016654015, 10.004013
94873507890727, 7.4237323, -0.25244278, 6.7740808, 0.029013544, -0.0060358047, 10.053001
94873517530727, 7.470392, -0.21655045, 6.8303123, -0.0073913336, -0.019843578, 10.124543
94873527170832, 7.4584284, -0.22851457, 6.8015985, 0.0055526793, -0.0051379204, 10.096636
94873536810832, 7.4416785, -0.2620141, 6.727421, 0.038851976, 0.043130398, 10.035041
94873546450832, 7.456035, -0.20697916, 6.7022963, -0.017392188, 0.069381714, 10.02751
94873556090936, 7.4656067, -0.16031912, 6.715457, -0.06539285, 0.061959267, 10.042422
94873565730936, 7.466803, -0.13998012, 6.7836523, -0.08050218, 0.0025248528, 10.088816
94873575370936, 7.4548388, -0.14117654, 6.792027, -0.07653263, -0.017566204, 10.085634
94873585010936, 7.4416785, -0.11724831, 6.7645097, -0.10075393, -0.008387566, 10.056873
94873594651040, 7.4739814, -0.15194423, 6.778867, -0.06712204, 0.0015406609, 10.091185
94873604291040, 7.472785, -0.19501504, 6.748956, -0.02595523, 0.023356915, 10.071135
94873613931040, 7.469196, -0.25603202, 6.73101, 0.033816427, 0.04097843, 10.057739
94873623571144, 7.4644103, -0.27756742, 6.725028, 0.05129522, 0.048659325, 10.050646
94873633211144, 7.4344997, -0.25962126, 6.754938, 0.035942197, 0.0072340965, 10.048235
94873642851144, 7.402197, -0.23569304, 6.7501526, 0.014918268, -0.013208866, 10.02059
94873652491144, 7.411768, -0.2428715, 6.739385, 0.0188649, 0.0049123764, 10.02059
94873662131248, 7.4213395, -0.19740787, 6.7166533, -0.029404372, 0.025958061, 10.011353
94873671771248, 7.4380894, -0.16151553, 6.7740808, -0.0635764, -0.0068297386, 10.061577
94873681411248, 7.4045897, -0.18185452, 6.899704, -0.03329411, -0.118676186, 10.121845
94873691051352, 7.3950186, -0.23569304, 6.9056864, 0.024089575, -0.12411833, 10.119999
94873700691352, 7.426125, -0.26799613, 6.8506513, 0.051973015, -0.057136536, 10.106663
94873710331352, 7.4512496, -0.2727818, 6.7836523, 0.049084753, 0.015212536, 10.080219
94873719971352, 7.4476604, -0.25244278, 6.741778, 0.023699433, 0.042747498, 10.048908
94873729611457, 7.466803, -0.27756742, 6.6735826, 0.042823434, 0.10829592, 10.017651
94873739251457, 7.4213395, -0.22013968, 6.74776, -0.008140713, 0.016800404, 10.03278
