timestamp_acc,device_acc_x,device_acc_y,device_acc_z,earth_acc_x,earth_acc_y,earth_acc_z
1123740551438183, -1.550549, 4.92084, 8.499306, -0.009977579, 0.029934168, 9.942639
1123740561076204, -1.5182459, 4.9340005, 8.4909315, -0.022654295, -0.0036375523, 9.937043
1123740570714120, -1.5062819, 4.955536, 8.486146, -0.017882586, -0.027511835, 9.94182
1123740580352141, -1.4979069, 4.9567323, 8.500503, -0.030025482, -0.028976917, 9.953378
1123740589990162, -1.4644074, 4.979464, 8.489735, -0.037328005, -0.07011366, 9.950319
1123740599628079, -1.4141582, 4.9902315, 8.519645, -0.08097172, -0.102460146, 9.973442
1123740609266099, -1.4356936, 4.9471607, 8.495717, -0.078401566, -0.06280661, 9.934925
1123740618904016, -1.4620147, 4.948357, 8.480164, -0.05132675, -0.047802925, 9.926327
1123740628542037, -1.4548361, 4.9459643, 8.463413, -0.04996109, -0.054704428, 9.909741
1123740638180058, -1.4691931, 4.9160542, 8.492127, -0.0681088, -0.01601839, 9.921565
1123740647817974, -1.4691931, 4.9292145, 8.500503, -0.064224005, -0.021655321, 9.935272
1123740657455995, -1.5529419, 4.895715, 8.428718, 0.010640383, 0.037349463, 9.87023
1123740667093912, -1.7144574, 4.901697, 8.360522, 0.16051197, 0.1218369, 9.839905
1123740676731933, -1.7587247, 4.9435716, 8.281559, 0.24755788, 0.09949422, 9.800257
1123740686369954, -1.8005991, 4.981857, 8.210971, 0.321867, 0.07746768, 9.765835
1123740696007870, -1.7826529, 5.015356, 8.221739, 0.31748295, 0.04535985, 9.789065
1123740705645891, -1.6570296, 5.048856, 8.283952, 0.21683097, -0.04289341, 9.839294
1123740715283912, -1.5720844, 5.028517, 8.421539, 0.08032656, -0.049125195, 9.933322
1123740724921829, -1.5110675, 5.002196, 8.5423765, -0.031223059, -0.0386796, 10.013741
1123740734559849, -1.4201403, 4.9471607, 8.642876, -0.16846848, -0.03520584, 10.057877
1123740744197766, -1.3411771, 4.8765726, 8.754142, -0.30452204, -0.011371851, 10.105536
1123740753835787, -1.3232309, 4.8323054, 8.792427, -0.35304785, 0.017902136, 10.113552
1123740763473808, -1.3471591, 4.7976093, 8.758927, -0.33509827, 0.05172205, 10.071531
1123740773111724, -1.4153546, 4.820341, 8.5938225, -0.20086312, 0.03673482, 9.952436
1123740782749745, -1.4871392, 4.8382874, 8.438289, -0.0684917, 0.03047967, 9.839703
1123740792387766, -1.570888, 4.8849473, 8.331808, 0.061531782, 0.026181936, 9.784937
1123740802025683, -1.6127625, 4.9663033, 8.207381, 0.18633747, -0.035647154, 9.725755
1123740811663704, -1.6713866, 5.026124, 8.179864, 0.26884818, -0.0430789, 9.741226
1123740821301724, -1.6857436, 5.0656056, 8.275578, 0.25788236, -0.03395605, 9.844776
1123740830939641, -1.6438692, 5.0512486, 8.380861, 0.16789603, -0.023930311, 9.921063
1123740840577662, -1.599602, 5.023731, 8.495717, 0.069616795, -0.0046231747, 9.998447
1123740850215683, -1.5696917, 4.9938207, 8.551949, 0.007028103, 0.010382891, 10.026855
1123740859853599, -1.524228, 4.9435716, 8.572288, -0.061579943, 0.01888895, 10.0121
1123740869491620, -1.4835501, 4.9088755, 8.541181, -0.09561753, 0.0068182945, 9.961956
1123740879129641, -1.4644074, 4.88734, 8.462217, -0.08569789, -0.012742519, 9.880899
1123740888767558, -1.4715859, 4.877769, 8.390432, -0.053843975, -0.018945456, 9.816023
1123740898405579, -1.4620147, 4.8658047, 8.342576, -0.045649767, -0.028831005, 9.767763
1123740908043599, -1.4548361, 4.8681974, 8.447861, -0.09577346, -0.0050411224, 9.857639
1123740917681516, -1.4189439, 4.9519463, 8.530413, -0.11271858, -0.0627296, 9.964259
1123740927319537, -1.4129617, 5.035695, 8.499306, -0.05747342, -0.13297796, 9.978573
1123740936957558, -1.4285151, 5.130212, 8.438289, 0.03196931, -0.2034111, 9.976075
1123740946595474, -1.5146568, 5.1720862, 8.322237, 0.16152287, -0.2006402, 9.911507
1123740956233495, -1.5744773, 5.1469617, 8.232507, 0.23218465, -0.16723657, 9.831707
1123740965871516, -1.5984055, 5.0715876, 8.177471, 0.22334313, -0.10820842, 9.751172
1123740975509433, -1.5876378, 4.9866424, 8.183454, 0.16496468, -0.053984165, 9.712155
1123740985147454, -1.5840486, 4.9064827, 8.289934, 0.07123041, 0.026412725, 9.762174
1123740994785474, -1.6139588, 4.8765726, 8.350951, 0.05052781, 0.0809412, 9.803831
1123741004423391, -1.6187445, 4.8586264, 8.413164, 0.015635252, 0.11365819, 9.848591
1123741014061412, -1.6223338, 4.8490553, 8.478967, -0.0114171505, 0.13149452, 9.900542
1123741023699433, -1.6618153, 4.831109, 8.573483, -0.034809113, 0.19640636, 9.97828
1123741033337349, -1.7144574, 4.81077, 8.641679, -0.03337145, 0.25960088, 10.034588
1123741042975370, -1.6893328, 4.813163, 8.678768, -0.06151986, 0.24517322, 10.063672
1123741052613391, -1.6510476, 4.8035913, 8.7266245, -0.1098907, 0.23285818, 10.093965
1123741062251412, -1.6151553, 4.807181, 8.691928, -0.11404419, 0.19148874, 10.060698
1123741071889329, -1.5613167, 4.8179483, 8.626125, -0.110740185, 0.123087406, 10.00165
1123741081527349, -1.4739788, 4.867001, 8.602198, -0.13362575, 0.022354126, 9.991987
1123741091165370, -1.4249259, 4.95075, 8.578269, -0.111871004, -0.07240033, 10.005463
1123741100803287, -1.4153546, 5.0045886, 8.518449, -0.06434035, -0.12894964, 9.979596
1123741110441308, -1.3938192, 5.0333023, 8.3784685, -0.005236149, -0.19744825, 9.870998
1123741120079329, -1.4584254, 5.063213, 8.285149, 0.100422144, -0.19939232, 9.816161
1123741129717245, -1.5014962, 5.0440702, 8.280363, 0.11989021, -0.15360165, 9.809362
1123741139355266, -1.4979069, 5.0309095, 8.359326, 0.07206321, -0.12118149, 9.869762
1123741148993287, -1.5158532, 4.968696, 8.446664, 0.010318041, -0.04019904, 9.916157
1123741158631308, -1.5230316, 4.930411, 8.52443, -0.040841103, 0.013651848, 9.964569
1123741168269224, -1.4991034, 4.9064827, 8.539984, -0.079164505, 0.018914223, 9.962207
1123741177907245, -1.4703895, 4.8622155, 8.538788, -0.12322974, 0.028264284, 9.934692
1123741187545266, -1.457229, 4.867001, 8.53161, -0.12799549, 0.015702248, 9.928894
1123741197183183, -1.4787644, 4.8789654, 8.469396, -0.07837629, 0.005751133, 9.885117
1123741206821204, -1.5349957, 4.9172506, 8.394022, 0.013661146, 0.0013859272, 9.848602
1123741216459224, -1.6091732, 4.959125, 8.395218, 0.08849144, 0.024703264, 9.881983
1123741226097245, -1.6594225, 4.9866424, 8.377272, 0.14471865, 0.037208796, 9.8882065
1123741235735162, -1.6510476, 5.0069814, 8.407183, 0.13377881, 0.02539301, 9.922602
1123741245373183, -1.6426728, 4.9878387, 8.37129, 0.1260202, 0.023746014, 9.881243
1123741255011204, -1.6498512, 5.0009995, 8.321041, 0.1608026, 0.005772114, 9.8461075
1123741264649224, -1.5924234, 4.996214, 8.243274, 0.14775181, -0.050682783, 9.768578
1123741274287141, -1.5062819, 5.0273204, 8.267202, 0.08867478, -0.12274194, 9.791146
1123741283925162, -1.4608182, 5.056034, 8.271988, 0.06621957, -0.16791105, 9.802587
1123741293563183, -1.463211, 5.050052, 8.270791, 0.06532359, -0.1625061, 9.798946
1123741303201204, -1.4811572, 5.046463, 8.370093, 0.030717134, -0.11876011, 9.884536
1123741312839120, -1.4919249, 5.028517, 8.400003, 0.016196966, -0.08870506, 9.902715
1123741322477141, -1.4847465, 4.9770713, 8.41795, -0.0249784, -0.05401206, 9.89111
1123741332115162, -1.4787644, 4.9663033, 8.455039, -0.05038762, -0.04057336, 9.91637
1123741341753079, -1.5122639, 4.9363933, 8.437093, -0.03185439, -0.0030772686, 9.891332
1123741351391099, -1.5278172, 4.910072, 8.383254, -0.009134531, 0.009462595, 9.834724
1123741361029120, -1.538585, 4.9088755, 8.408379, -0.010757923, 0.022562265, 9.857207
1123741370667141, -1.5421742, 4.898108, 8.413164, -0.013190746, 0.031378746, 9.856468
1123741380305058, -1.5672989, 4.88734, 8.432307, -0.0059752464, 0.05862713, 9.871316
1123741389943079, -1.5565311, 4.8729835, 8.499306, -0.051059723, 0.079325914, 9.91958
1123741399581099, -1.5804594, 4.9088755, 8.471788, 0.0052309036, 0.05786109, 9.917799
1123741409219120, -1.6067804, 4.900501, 8.459825, 0.025514126, 0.07794261, 9.9075
1123741418857037, -1.6019948, 4.924429, 8.530413, 0.008669138, 0.073179245, 9.978923
1123741428495058, -1.5816557, 4.924429, 8.553144, -0.016435385, 0.065700054, 9.995167
1123741438133079, -1.5816557, 4.90409, 8.543573, -0.020100355, 0.0746727, 9.976892
1123741447771099, -1.5637096, 4.9088755, 8.553144, -0.03271985, 0.059833765, 9.984683
1123741457409016, -1.544567, 4.9256253, 8.548359, -0.031903505, 0.03147936, 9.985987
1123741467047037, -1.5337993, 4.924429, 8.463413, -0.0017166138, 0.001240015, 9.911201
1123741476685058, -1.5266209, 4.907679, 8.426325, 0.0012755394, -0.0022912025, 9.870098
1123741486323079, -1.4859428, 4.9112687, 8.4705925, -0.044927835, -0.020335436, 9.903388
1123741495960995, -1.4644074, 4.907679, 8.484949, -0.06777167, -0.027983904, 9.91054
1123741505599016, -1.4679967, 4.918447, 8.516056, -0.073124886, -0.024508, 9.9430065
1123741515237037, -1.4727824, 4.9531426, 8.508878, -0.046994686, -0.045573235, 9.954868
1123741524875058, -1.4715859, 4.9782677, 8.495717, -0.029192686, -0.06690884, 9.955933
1123741534512974, -1.5170496, 4.9986067, 8.46461, 0.025991678, -0.05659294, 9.946519
1123741544150995, -1.5613167, 5.011767, 8.439486, 0.07596612, -0.043550253, 9.938449
1123741553789016, -1.5804594, 5.009374, 8.38804, 0.10847235, -0.043156385, 9.896326
1123741563427037, -1.5517455, 4.968696, 8.343773, 0.079959154, -0.04453659, 9.833921
1123741573064954, -1.5696917, 4.959125, 8.372486, 0.07410073, -0.01706767, 9.856449
1123741582702974, -1.564906, 4.9268217, 8.323434, 0.07381606, -0.012522221, 9.797777
1123741592340995, -1.4931214, 5.2139606, 8.335398, 0.15745997, -0.25981522, 9.939888
1123741601979016, -1.6749759, 4.456632, 8.310273, -0.07853484, 0.38753915, 9.569294
1123741611616933, -1.4273187, 5.548956, 8.415557, 0.23883629, -0.5221448, 10.164649
1123741621254954, -1.7467605, 4.2041893, 8.271988, -0.1262958, 0.59466684, 9.422451
1123741630892974, -1.4392828, 5.6123657, 8.568698, 0.21301746, -0.51949644, 10.328482
1123741640530995, -1.678565, 4.331009, 8.2253275, -0.08719683, 0.4515581, 9.435026
1123741650168912, -1.4464613, 5.326423, 8.683554, 0.03183961, -0.2775936, 10.285382
1123741659806933, -1.5337993, 4.7306104, 8.352147, -0.051941156, 0.10417271, 9.719878
1123741669444954, -1.5457634, 4.816752, 8.623733, -0.11411333, 0.13531184, 9.996397
1123741679082974, -1.4344971, 5.2103715, 8.429914, 0.07893133, -0.2789743, 10.009254
1123741688720891, -1.6235301, 4.3561335, 8.492127, -0.21953464, 0.47076154, 9.6673765
1123741698358912, -1.3208381, 5.5896335, 8.55793, 0.13464737, -0.5905936, 10.288822
1123741707996933, -1.6606189, 4.2125645, 8.312666, -0.18594623, 0.5425855, 9.448535
1123741717634954, -1.3890336, 5.669793, 8.532805, 0.23378682, -0.6034391, 10.318234
1123741727272974, -1.6630118, 4.3262234, 8.182257, -0.071121454, 0.42376018, 9.393962
1123741736910891, -1.451247, 5.380262, 8.675179, 0.086726904, -0.32292414, 10.305351
1123741746548912, -1.5828521, 4.715057, 8.340183, -0.0023031235, 0.13863373, 9.709616
1123741756186933, -1.6031911, 4.834698, 8.669196, -0.066082716, 0.15985346, 10.053336
1123741765824954, -1.4476577, 5.1625147, 8.484949, 0.063611984, -0.22912812, 10.034197
1123741775462870, -1.6031911, 4.3334017, 8.602198, -0.29019856, 0.49032187, 9.747911
1123741785100891, -1.3208381, 5.5202417, 8.664411, 0.07421446, -0.5165529, 10.344919
1123741794738912, -1.6594225, 4.113262, 8.419147, -0.28410506, 0.62956226, 9.49092
1123741804376933, -1.3567305, 5.6279187, 8.7015, 0.13967228, -0.5498421, 10.435922
1123741814014849, -1.6821543, 4.2795634, 8.305488, -0.13432407, 0.49384344, 9.479636
1123741823652870, -1.4967105, 5.4017973, 8.636893, 0.15842223, -0.32817245, 10.289932
1123741833290891, -1.6211374, 4.694718, 8.196614, 0.07841301, 0.13039899, 9.582787
1123741842928912, -1.5840486, 4.910072, 8.493324, 0.03427601, 0.04016304, 9.937393
1123741852566933, -1.4871392, 5.1349974, 8.257631, 0.17167497, -0.25405312, 9.832306
1123741862204849, -1.7096717, 4.35733, 8.3581295, -0.09817791, 0.46913183, 9.567545
1123741871842870, -1.4057833, 5.474778, 8.469396, 0.19590998, -0.4871292, 10.168795
1123741881480891, -1.68694, 4.092923, 8.327023, -0.23820567, 0.63374364, 9.406312
1123741891118912, -1.3471591, 5.6123657, 8.636893, 0.14200854, -0.5674281, 10.371466
1123741900756829, -1.6677973, 4.219743, 8.327023, -0.18335795, 0.5292653, 9.466433
1123741910394849, -1.422533, 5.407779, 8.7780695, 0.053090572, -0.3443203, 10.401962
1123741920032870, -1.5397813, 4.664808, 8.3784685, -0.06495452, 0.14053345, 9.711134
1123741929670891, -1.4979069, 5.0069814, 8.6548395, -0.043110132, -0.044655323, 10.110191
1123741939308912, -1.4440684, 5.191229, 8.353344, 0.137671, -0.2973411, 9.935049
1123741948946829, -1.6354942, 4.503292, 8.421539, -0.09436989, 0.33831525, 9.682635
1123741958584849, -1.3686945, 5.601598, 8.4909315, 0.22207093, -0.5989661, 10.243977
1123741968222870, -1.6833507, 4.2245283, 8.348558, -0.1689651, 0.5389644, 9.489979
1123741977860891, -1.3423735, 5.7080784, 8.551949, 0.23759031, -0.66982746, 10.344797
1123741987498808, -1.6701902, 4.28076, 8.220542, -0.10612321, 0.4622208, 9.405682
1123741997136829, -1.4356936, 5.493921, 8.635697, 0.16467309, -0.42081356, 10.325476
1123742006774849, -1.5768701, 4.599005, 8.240881, -0.019385576, 0.18284631, 9.566383
1123742016412870, -1.4656038, 4.9603214, 8.598608, -0.07061958, -0.040409565, 10.034053
1123742026050787, -1.4081762, 5.0069814, 8.377272, 0.0107963085, -0.17747808, 9.858999
1123742035688808, -1.5326029, 4.382455, 8.633304, -0.3354175, 0.41126776, 9.788109
1123742045326829, -1.2801601, 5.367101, 8.632108, -0.005017519, -0.43842125, 10.23551
1123742054964849, -1.7216359, 3.9984066, 8.443074, -0.30471706, 0.7448548, 9.465155
1123742064602870, -1.4943178, 5.5573306, 8.559127, 0.29400706, -0.4475119, 10.299944
1123742074240787, -1.9262222, 4.1647077, 8.110473, 0.07406044, 0.67139256, 9.294011
1123742083878808, -1.6845472, 5.5334024, 8.457432, 0.46365047, -0.3387668, 10.230087
1123742093516829, -1.7910278, 4.666004, 8.01117, 0.275033, 0.20066428, 9.436223
1123742103154849, -1.6211374, 5.1421757, 8.507681, 0.1839366, -0.101870775, 10.070078
1123742112792870, -1.451247, 5.1696935, 8.411968, 0.11344004, -0.2645867, 9.97548
1123742122430787, -1.5050855, 4.595416, 8.724232, -0.2801442, 0.26014638, 9.967406
1123742132068808, -1.1629118, 5.501099, 8.825927, -0.09319234, -0.5689237, 10.448879
1123742141706829, -1.4524434, 4.135994, 8.758927, -0.55981493, 0.5720018, 9.761878
1123742151344849, -1.160519, 5.5405807, 8.9348, -0.11843443, -0.56309223, 10.561458
1123742160982766, -1.5314065, 4.007978, 8.437093, -0.422333, 0.62432444, 9.435333
1123742170620787, -1.3304094, 5.3383875, 8.693125, 0.005769968, -0.3765049, 10.280906
1123742180258808, -1.6414764, 4.3932223, 8.182257, -0.029656172, 0.3426125, 9.424751
1123742189896829, -1.6079768, 5.035695, 8.444271, 0.15338612, -0.05213666, 9.96109
1123742199534849, -1.6031911, 5.040481, 8.070991, 0.31300688, -0.16562796, 9.643245
1123742209172766, -1.7551354, 4.6564326, 8.257631, 0.1392901, 0.25782466, 9.636673
1123742218810787, -1.4871392, 5.5860443, 8.267202, 0.40176153, -0.5699289, 10.063591
1123742228448808, -1.7659031, 4.31067, 8.288737, -0.04653883, 0.52352536, 9.493536
1123742238086829, -1.3950156, 5.710471, 8.633304, 0.23046851, -0.6042619, 10.424551
1123742247724849, -1.707279, 4.1790648, 8.365308, -0.19291854, 0.59138024, 9.485295
1123742257362766, -1.3782659, 5.5130634, 8.76132, 0.06416464, -0.43639207, 10.433584
1123742267000787, -1.5828521, 4.429115, 8.384451, -0.16825008, 0.33905125, 9.606157
1123742276638808, -1.4297116, 5.0620165, 8.763713, -0.118554115, -0.09061718, 10.220004
1123742286276829, -1.410569, 4.8933225, 8.419147, -0.06798434, -0.08313441, 9.838944
1123742295914745, -1.5326029, 4.5559344, 8.642876, -0.24717593, 0.30081844, 9.88196
1123742305552766, -1.3627125, 5.3383875, 8.510074, 0.088660955, -0.39689732, 10.129725
1123742315190787, -1.6534405, 4.174279, 8.416754, -0.25722623, 0.5850142, 9.517974
1123742324828808, -1.3172488, 5.642276, 8.534002, 0.19732499, -0.62900686, 10.293931
1123742334466829, -1.6953149, 4.174279, 8.147561, -0.1194613, 0.5349426, 9.294138
1123742344104745, -1.4237294, 5.5896335, 8.507681, 0.25758052, -0.5270741, 10.261944
1123742353742766, -1.6486548, 4.516453, 8.116454, 0.030763388, 0.25768542, 9.430053
1123742363380787, -1.5349957, 5.2462635, 8.541181, 0.1436851, -0.20857334, 10.137413
1123742373018808, -1.5565311, 4.9722853, 8.267202, 0.1368227, -0.08046293, 9.770766
1123742382656829, -1.6594225, 4.6576295, 8.548359, -0.07739258, 0.2893362, 9.87076
1123742392294745, -1.4392828, 5.3790655, 8.486146, 0.16537023, -0.37427068, 10.141653
1123742401932766, -1.692922, 4.2448673, 8.480164, -0.23945403, 0.5803952, 9.612694
1123742411570787, -1.3411771, 5.6470613, 8.615358, 0.1752832, -0.58691, 10.370018
1123742421208808, -1.7084754, 4.145565, 8.249256, -0.16984034, 0.5875088, 9.369142
1123742430846829, -1.4009976, 5.608776, 8.571091, 0.20922256, -0.5473366, 10.321889
1123742440484745, -1.6390835, 4.4171505, 8.179864, -0.049087286, 0.33270144, 9.433708
1123742450122766, -1.4979069, 5.206782, 8.659625, 0.03841877, -0.16596079, 10.213442
1123742459760787, -1.5433706, 4.8681974, 8.364112, 0.029580116, 0.008820534, 9.799936
1123742469398808, -1.5601203, 4.688736, 8.664411, -0.1758337, 0.23746681, 9.970101
1123742479036829, -1.3603196, 5.3587265, 8.512466, 0.07482338, -0.4106083, 10.141712
1123742488674849, -1.6331015, 4.267599, 8.535198, -0.27320385, 0.5485374, 9.6619625
1123742498312766, -1.3507484, 5.6506505, 8.691928, 0.14809704, -0.57421565, 10.438023
1123742507950787, -1.6953149, 4.1371903, 8.328219, -0.205271, 0.6208321, 9.4298525
1123742517588808, -1.4069797, 5.6039906, 8.584251, 0.2106328, -0.5355027, 10.331629
1123742527226829, -1.666601, 4.3405805, 8.157132, -0.053816557, 0.40733814, 9.380203
1123742536864849, -1.4907285, 5.252246, 8.57468, 0.095793486, -0.23322868, 10.162182
1123742546502766, -1.5326029, 4.8358946, 8.176275, 0.084252834, -0.029878616, 9.621758
1123742556140787, -1.6354942, 4.7222357, 8.467003, -0.027246475, 0.20483875, 9.829638
1123742565778808, -1.4416757, 5.325227, 8.349754, 0.19102526, -0.37721276, 9.998805
1123742575416829, -1.6881363, 4.316652, 8.4502535, -0.19441557, 0.5185486, 9.6220255
1123742585054849, -1.3495519, 5.6590257, 8.633304, 0.1732626, -0.5864532, 10.392586
1123742594692766, -1.68694, 4.1898327, 8.411968, -0.2424581, 0.5958941, 9.526165
1123742604330787, -1.3423735, 5.6446686, 8.790034, 0.10662866, -0.544858, 10.517639
1123742613968808, -1.6139588, 4.325027, 8.43111, -0.23036551, 0.45942986, 9.598448
1123742623606829, -1.4213367, 5.282156, 8.805588, -0.03774786, -0.22787452, 10.363706
1123742633244849, -1.5337993, 4.733003, 8.3377905, -0.03634143, 0.08892846, 9.708934
1123742642882766, -1.570888, 4.755735, 8.507681, -0.076963186, 0.15122604, 9.8709955
1123742652520787, -1.4392828, 5.2510495, 8.251649, 0.1918025, -0.35488057, 9.877857
1123742662158808, -1.6797615, 4.3178487, 8.254042, -0.11459446, 0.46196938, 9.453468
1123742671796829, -1.3998013, 5.599205, 8.368897, 0.29305673, -0.5804801, 10.145252
1123742681434849, -1.7575282, 4.1647077, 8.16431, -0.09903002, 0.59530497, 9.312651
1123742691072870, -1.4249259, 5.680561, 8.571091, 0.25404572, -0.56545067, 10.36236
1123742700710787, -1.7252251, 4.35733, 8.27797, -0.07109618, 0.47021425, 9.500599
1123742710348808, -1.5361922, 5.413761, 8.7673025, 0.11817837, -0.2607913, 10.414044
1123742719986829, -1.6043876, 4.807181, 8.397611, 0.019133091, 0.10711551, 9.807704
1123742729624849, -1.5625132, 4.898108, 8.672786, -0.085422516, 0.09631705, 10.0813465
1123742739262870, -1.410569, 5.2534423, 8.396415, 0.09740996, -0.33475447, 9.99833
1123742748900891, -1.6283158, 4.3633122, 8.453842, -0.21287823, 0.45843482, 9.638563
1123742758538808, -1.3363914, 5.5836515, 8.4909315, 0.16813874, -0.58037424, 10.232005
1123742768176829, -1.6498512, 4.1168513, 8.281559, -0.24962568, 0.59845924, 9.371992
1123742777814849, -1.3208381, 5.6004014, 8.616554, 0.111052275, -0.5722537, 10.344771
1123742787452870, -1.625923, 4.220939, 8.218149, -0.18576384, 0.4809941, 9.366539
1123742797090891, -1.4129617, 5.3539405, 8.665607, 0.033635855, -0.3236165, 10.278524
1123742806728912, -1.5433706, 4.6803613, 8.305488, -0.05215025, 0.13010979, 9.656567
1123742816366933, -1.538585, 4.8861437, 8.573483, -0.06631112, 0.06297302, 9.986886
1123742826004849, -1.4991034, 5.229514, 8.322237, 0.18889284, -0.27841234, 9.936878
1123742835642870, -1.7216359, 4.456632, 8.447861, -0.10030627, 0.44841886, 9.69437
1123742845280891, -1.430908, 5.639883, 8.553144, 0.25026655, -0.5461571, 10.327203
1123742854918912, -1.7563318, 4.188636, 8.343773, -0.16805267, 0.6300684, 9.477484
1123742864556933, -1.4141582, 5.723632, 8.596215, 0.25340986, -0.6072309, 10.402968
1123742874194954, -1.7048861, 4.302295, 8.209774, -0.09220672, 0.4788928, 9.411638
1123742883832870, -1.4129617, 5.4628143, 8.633304, 0.10043168, -0.41060066, 10.30505
1123742893470891, -1.5529419, 4.662415, 8.2253275, -0.022710323, 0.12502027, 9.580689
1123742903108912, -1.5349957, 4.944768, 8.597412, -0.05390191, 0.030669928, 10.035866
1123742912746933, -1.4488541, 5.160122, 8.383254, 0.08477116, -0.24213552, 9.946817
1123742922384954, -1.6319051, 4.401597, 8.560323, -0.23412609, 0.46337652, 9.749194
1123742932022974, -1.3435699, 5.523831, 8.636893, 0.080284834, -0.4901495, 10.327977
1123742941660995, -1.6713866, 4.1479583, 8.462217, -0.2934239, 0.6407397, 9.545238
1123742951298912, -1.3722838, 5.65424, 8.687142, 0.14789653, -0.5481522, 10.440197
1123742960936933, -1.6833507, 4.220939, 8.249256, -0.16109037, 0.5223347, 9.4022045
1123742970574954, -1.4608182, 5.4616175, 8.636893, 0.13820577, -0.37887025, 10.31487
1123742980212974, -1.6354942, 4.6205406, 8.2145605, 0.02430749, 0.20321417, 9.563543
1123742989850995, -1.5972091, 4.9770713, 8.517252, 0.041821957, 0.019372225, 9.993187
1123742999489016, -1.5050855, 5.0979085, 8.262417, 0.14760399, -0.19665074, 9.821457
1123743009127037, -1.6546369, 4.473382, 8.41795, -0.13013673, 0.38191962, 9.666853
1123743018764954, -1.3830515, 5.5310097, 8.462217, 0.1893146, -0.5268009, 10.188263
1123743028402974, -1.7120646, 4.1850467, 8.316256, -0.19932008, 0.5863408, 9.445759
1123743038040995, -1.396212, 5.709275, 8.583055, 0.23471141, -0.59958005, 10.382653
1123743047679016, -1.7288144, 4.2257247, 8.289934, -0.15148163, 0.5694556, 9.4457035
1123743057317037, -1.4524434, 5.4999027, 8.773284, 0.09140396, -0.36175728, 10.449392
1123743066955058, -1.6019948, 4.57747, 8.3784685, -0.10001063, 0.25589347, 9.676925
1123743076593079, -1.5182459, 5.046463, 8.7266245, -0.07067728, -0.020537138, 10.194138
1123743086231099, -1.4584254, 5.087141, 8.407183, 0.04715252, -0.18068767, 9.932365
1123743095869120, -1.599602, 4.5535417, 8.544769, -0.19244242, 0.3246801, 9.806331
1123743105507037, -1.3351951, 5.5190454, 8.469396, 0.15427661, -0.54355454, 10.181062
1123743115145058, -1.6713866, 4.214957, 8.311469, -0.2097261, 0.5390607, 9.4501505
1123743124783079, -1.3399807, 5.703293, 8.536395, 0.21539426, -0.6407678, 10.331321
1123743134421099, -1.6821543, 4.202993, 8.202596, -0.15739202, 0.52606726, 9.352852
1123743144059120, -1.3926228, 5.5262237, 8.566305, 0.14509821, -0.48195314, 10.276517
1123743153697141, -1.6067804, 4.5284166, 8.10808, -0.002870798, 0.2241683, 9.422261
1123743163335162, -1.544567, 5.103891, 8.52443, 0.05716324, -0.090820074, 10.054342
1123743172973183, -1.5218352, 5.022535, 8.251649, 0.11633468, -0.13364959, 9.7775345
1123743182611204, -1.6737795, 4.546363, 8.488539, -0.10977483, 0.37183166, 9.76606
1123743192249224, -1.43689, 5.4616175, 8.514859, 0.17210889, -0.42300773, 10.207261
1123743201887141, -1.7144574, 4.2329035, 8.5220375, -0.25799298, 0.62564147, 9.644895
1123743211525162, -1.3447664, 5.7009, 8.752945, 0.1335783, -0.58529043, 10.514862
1123743221163183, -1.7060826, 4.2221355, 8.397611, -0.21542835, 0.5899067, 9.532188
1123743230801204, -1.3974084, 5.6004014, 8.7469635, 0.12847233, -0.48076916, 10.467998
1123743240439224, -1.6223338, 4.5415773, 8.305488, -0.07379365, 0.2755742, 9.599876
1123743250077245, -1.5469599, 5.133801, 8.647661, 0.0283041, -0.083101034, 10.174643
1123743259715266, -1.5481563, 4.9722853, 8.273184, 0.11010504, -0.07584405, 9.774871
1123743269353287, -1.6223338, 4.6002016, 8.423932, -0.094688416, 0.27717423, 9.729885
1123743278991308, -1.3998013, 5.4376893, 8.315059, 0.20996547, -0.48587584, 10.019378
1123743288629329, -1.6845472, 4.223332, 8.274381, -0.17343593, 0.537768, 9.424455
1123743298267349, -1.3531412, 5.6877394, 8.536395, 0.19841242, -0.62508273, 10.32576
1123743307905370, -1.7312071, 4.197011, 8.248059, -0.13667083, 0.57778597, 9.396275
1123743317543391, -1.4117653, 5.6039906, 8.672786, 0.14356041, -0.49947906, 10.408886
1123743327181412, -1.6438692, 4.4662037, 8.306684, -0.09254503, 0.34753704, 9.566658
1123743336819329, -1.4751751, 5.2079782, 8.768498, -0.043030977, -0.14751554, 10.303501
1123743346457349, -1.4847465, 4.932804, 8.38804, -0.010297298, -0.05911851, 9.843405
1123743356095370, -1.6091732, 4.6396832, 8.620144, -0.16228986, 0.2997694, 9.914978
1123743365733391, -1.410569, 5.365905, 8.493324, 0.11336708, -0.3767848, 10.137278
1123743375371412, -1.7084754, 4.2329035, 8.423932, -0.21064186, 0.5953387, 9.560345
1123743385009433, -1.3866407, 5.6530433, 8.541181, 0.22457862, -0.5756419, 10.317444
1123743394647454, -1.7359928, 4.1515474, 8.233703, -0.15261102, 0.6046257, 9.362371
1123743404285474, -1.4333007, 5.6063833, 8.548359, 0.23360968, -0.50730133, 10.307687
1123743413923495, -1.6642082, 4.462614, 8.1679, -0.024257898, 0.32903814, 9.44935
1123743423561516, -1.5218352, 5.2689953, 8.618947, 0.08906746, -0.20381117, 10.213475
1123743433199537, -1.5637096, 4.9160542, 8.299505, 0.07683444, -0.017724752, 9.771813
1123743442837558, -1.6426728, 4.733003, 8.595019, -0.08637452, 0.24653769, 9.94514
1123743452475579, -1.4380864, 5.413761, 8.52443, 0.14471579, -0.38711524, 10.191764
1123743462113599, -1.6833507, 4.3238306, 8.535198, -0.2386837, 0.5384288, 9.697006
1123743471751620, -1.3435699, 5.6757755, 8.640483, 0.15601897, -0.60107374, 10.406342
1123743481389641, -1.68694, 4.1431723, 8.360522, -0.25101614, 0.6281078, 9.457931
1123743491027662, -1.3555341, 5.6243296, 8.636893, 0.1373334, -0.5571475, 10.379654
1123743500665683, -1.6307086, 4.368098, 8.148758, -0.09123111, 0.37122965, 9.380596
1123743510303704, -1.477568, 5.2426744, 8.572288, 0.057453156, -0.21833539, 10.1539135
1123743519941724, -1.5146568, 4.8358946, 8.213364, 0.03382659, -0.016202211, 9.650803
1123743529579745, -1.564906, 4.7365923, 8.502895, -0.10201502, 0.17212772, 9.856136
1123743539217766, -1.4177474, 5.3419766, 8.372486, 0.14535618, -0.38994384, 10.023575
1123743548855787, -1.6893328, 4.3334017, 8.402397, -0.16382766, 0.505182, 9.589081
1123743558493808, -1.3387842, 5.682954, 8.538788, 0.18476272, -0.62952256, 10.323215
1123743568131829, -1.6917256, 4.208975, 8.3174515, -0.18621874, 0.5669019, 9.455228
1123743577769849, -1.3782659, 5.6733823, 8.691928, 0.15272522, -0.56147933, 10.454565
1123743587407870, -1.707279, 4.3633122, 8.316256, -0.091715574, 0.47527266, 9.533052
1123743597045891, -1.4979069, 5.3336015, 8.751749, 0.04466343, -0.2175808, 10.355423
1123743606683912, -1.5637096, 4.7832522, 8.350951, -0.0076344013, 0.09094238, 9.749604
1123743616321933, -1.5888343, 4.7856455, 8.612965, -0.1020782, 0.18064523, 9.978322
1123743625959954, -1.451247, 5.282156, 8.43111, 0.120126486, -0.31567764, 10.048723
1123743635597974, -1.6630118, 4.342973, 8.420342, -0.18902206, 0.48108923, 9.605312
1123743645235995, -1.3627125, 5.6350975, 8.49452, 0.20344996, -0.6044426, 10.264571
1123743654874016, -1.7264216, 4.1611185, 8.2348995, -0.14770174, 0.59661686, 9.366495
1123743664512037, -1.3842479, 5.666204, 8.597412, 0.18676901, -0.5717714, 10.371871
1123743674150058, -1.6546369, 4.308277, 8.207381, -0.120025635, 0.4465896, 9.404593
1123743683788079, -1.4584254, 5.332405, 8.646464, 0.05923271, -0.2733283, 10.258884
1123743693426099, -1.5337993, 4.738985, 8.273184, -0.020581722, 0.08000517, 9.656567
1123743703064120, -1.564906, 4.8646083, 8.645268, -0.09464908, 0.11764526, 10.041474
1123743712702141, -1.4656038, 5.278567, 8.444271, 0.12461209, -0.29780412, 10.060455
1123743722340162, -1.7012969, 4.408776, 8.5112705, -0.1698277, 0.4895537, 9.721365
1123743731978183, -1.396212, 5.642276, 8.612965, 0.1853745, -0.5457511, 10.37476
1123743741616204, -1.7336, 4.156333, 8.400003, -0.22506833, 0.65757954, 9.505655
1123743751254224, -1.396212, 5.6446686, 8.7015, 0.14800858, -0.5194807, 10.451605
1123743760892245, -1.6677973, 4.253242, 8.273184, -0.16058588, 0.5017705, 9.436081
1123743770530266, -1.4548361, 5.365905, 8.685946, 0.059699535, -0.2903056, 10.308602
1123743780168287, -1.5804594, 4.709075, 8.221739, 0.021855354, 0.115082026, 9.605026
1123743789806308, -1.5816557, 4.92084, 8.474181, 0.019072294, 0.039131403, 9.926035
1123743799444329, -1.4548361, 5.2366924, 8.2660055, 0.17800331, -0.3246081, 9.885813
1123743809082349, -1.6163517, 4.429115, 8.415557, -0.18068862, 0.38937116, 9.636751
1123743818720370, -1.3447664, 5.631508, 8.534002, 0.17765093, -0.59150577, 10.294176
1123743828358391, -1.7084754, 4.1982074, 8.392825, -0.21945405, 0.6023358, 9.5169525
1123743837996412, -1.3531412, 5.71765, 8.690732, 0.17139745, -0.6080589, 10.471496
1123743847634537, -1.672583, 4.2915273, 8.287541, -0.15595222, 0.49024296, 9.467493
1123743857272558, -1.4356936, 5.4257255, 8.693125, 0.080079794, -0.34869146, 10.341282
1123743866910579, -1.5900307, 4.6468616, 8.2660055, -0.021960974, 0.17941189, 9.613309
1123743876548599, -1.5613167, 4.9459643, 8.583055, -0.02648282, 0.04334593, 10.028286
1123743886186620, -1.4691931, 5.1696935, 8.283952, 0.15256429, -0.26285434, 9.869942
1123743895824641, -1.6821543, 4.465007, 8.416754, -0.114197016, 0.40575612, 9.665919
1123743905462662, -1.4081762, 5.558527, 8.49452, 0.22700644, -0.51365757, 10.233363
1123743915100683, -1.7036897, 4.1611185, 8.364112, -0.23748946, 0.6186824, 9.472943
1123743924738704, -1.3304094, 5.6733823, 8.733803, 0.12423849, -0.582273, 10.482466
1123743934376724, -1.6486548, 4.24726, 8.360522, -0.23192382, 0.50833774, 9.504914
1123743944014745, -1.430908, 5.456832, 8.769695, 0.0702436, -0.34510732, 10.421516
1123743953652766, -1.6139588, 4.6372905, 8.376076, -0.054534197, 0.22230792, 9.706471
1123743963290891, -1.5409778, 4.9974103, 8.682357, -0.051254272, 0.018211603, 10.135537
1123743972928912, -1.5002998, 5.133801, 8.385647, 0.12135649, -0.1899488, 9.943595
1123743982566933, -1.7048861, 4.490132, 8.4502535, -0.098412275, 0.4082297, 9.710735
1123743992204954, -1.416551, 5.556134, 8.422736, 0.25285387, -0.5285988, 10.172335
1123744001842974, -1.7024933, 4.2006, 8.310273, -0.18220878, 0.577384, 9.446566
1123744011480995, -1.3208381, 5.6985073, 8.579466, 0.17820406, -0.64464784, 10.362312
1123744021119016, -1.6546369, 4.213761, 8.237292, -0.18172312, 0.5155691, 9.383377
1123744030757037, -1.3806586, 5.5022955, 8.650054, 0.10217905, -0.4545486, 10.333822
1123744040395162, -1.6007984, 4.575077, 8.244471, -0.038842916, 0.22058511, 9.561121
1123744050033183, -1.5553347, 5.0249276, 8.652447, -0.016226292, -0.0033845901, 10.125883
1123744059671204, -1.5086746, 5.058427, 8.38804, 0.084914446, -0.13228846, 9.909506
1123744069309224, -1.666601, 4.517649, 8.563912, -0.15591311, 0.39963913, 9.815462
1123744078947245, -1.4213367, 5.505885, 8.55793, 0.17764425, -0.45176625, 10.263406
1123744088585266, -1.7216359, 4.202993, 8.443074, -0.2265079, 0.6127542, 9.56493
1123744098223287, -1.3543376, 5.697311, 8.662018, 0.1814754, -0.6102152, 10.436419
1123744107861308, -1.6833507, 4.213761, 8.267202, -0.17110229, 0.5280975, 9.414243
1123744117499433, -1.416551, 5.511867, 8.664411, 0.12205958, -0.42977858, 10.356626
1123744127137454, -1.605584, 4.5248275, 8.297112, -0.076675415, 0.2712934, 9.581993
1123744136775474, -1.5266209, 5.1003013, 8.644072, 0.007944584, -0.0809679, 10.151701
1123744146413495, -1.4847465, 5.0368915, 8.250452, 0.11468983, -0.17779016, 9.777524
1123744156051516, -1.605584, 4.578666, 8.451449, -0.12120104, 0.283777, 9.740322
1123744165689537, -1.3890336, 5.491528, 8.453842, 0.19409776, -0.4984882, 10.162066
1123744175327662, -1.7228323, 4.23051, 8.41795, -0.19749928, 0.59779525, 9.556719
1123744184965683, -1.3794622, 5.6877394, 8.671589, 0.18497491, -0.5732508, 10.4444685
1123744194603704, -1.6749759, 4.173083, 8.29472, -0.2120049, 0.569903, 9.415562
1123744204241724, -1.3698909, 5.534599, 8.715857, 0.0870862, -0.45786977, 10.404677
1123744213879745, -1.5864414, 4.496114, 8.288737, -0.100967884, 0.277004, 9.557619
1123744223517766, -1.4835501, 5.099105, 8.685946, -0.039915085, -0.09025478, 10.180262
1123744233155891, -1.4967105, 4.9567323, 8.395218, 0.0245018, -0.06838155, 9.863252
1123744242793912, -1.6426728, 4.57747, 8.56152, -0.13648319, 0.33943033, 9.8395815
1123744252431933, -1.4273187, 5.4352965, 8.446664, 0.20036674, -0.43664908, 10.133854
1123744262069954, -1.6833507, 4.2388854, 8.402397, -0.21648407, 0.5509144, 9.542102
1123744271707974, -1.3411771, 5.6949177, 8.584251, 0.2168014, -0.63561034, 10.366736
1123744281346099, -1.7156538, 4.2006, 8.258827, -0.14875078, 0.5567162, 9.405567
1123744290984120, -1.4117653, 5.621937, 8.597412, 0.22398758, -0.53409934, 10.352744
1123744300622141, -1.6390835, 4.505685, 8.222935, -0.026402473, 0.29336858, 9.514078
1123744310260162, -1.5158532, 5.2199426, 8.705089, 0.03626561, -0.14830375, 10.261621
1123744319898183, -1.5014962, 4.959125, 8.416754, 0.017772436, -0.062076807, 9.883574
1123744329536308, -1.6139588, 4.664808, 8.683554, -0.15901089, 0.29759192, 9.982765
1123744339174329, -1.4321043, 5.3982077, 8.5220375, 0.14596963, -0.38821673, 10.180603
1123744348812349, -1.692922, 4.2388854, 8.437093, -0.2035613, 0.57515323, 9.573214
1123744358450370, -1.3399807, 5.6482577, 8.548359, 0.19219351, -0.6175022, 10.312835
1123744368088495, -1.6941184, 4.125226, 8.17149, -0.15911937, 0.5731976, 9.290151
1123744377726516, -1.3914263, 5.556134, 8.538788, 0.19048977, -0.5207181, 10.266945
1123744387364537, -1.6558332, 4.3848476, 8.157132, -0.053408146, 0.36129713, 9.400749
1123744397002558, -1.4931214, 5.2283173, 8.640483, 0.05117941, -0.18775725, 10.207095
1123744406640579, -1.5134603, 4.8825545, 8.319844, 0.031217575, -0.029964685, 9.764622
1123744416278704, -1.5900307, 4.699504, 8.640483, -0.14477015, 0.23883462, 9.959592
1123744425916724, -1.3890336, 5.3982077, 8.581859, 0.09755325, -0.39656115, 10.225046
1123744435554745, -1.68694, 4.3034916, 8.554341, -0.23338556, 0.55136764, 9.704848
1123744445192766, -1.375873, 5.6674004, 8.670393, 0.1851623, -0.56695676, 10.43228
1123744454830891, -1.7455641, 4.141976, 8.347362, -0.17897344, 0.64165986, 9.457148
1123744464468912, -1.43689, 5.605187, 8.671589, 0.20147681, -0.47993064, 10.411931
1123744474106933, -1.6845472, 4.362116, 8.203793, -0.05891943, 0.4129597, 9.4336605
1123744483745058, -1.5170496, 5.2606206, 8.610572, 0.10429764, -0.2142961, 10.2010145
1123744493383079, -1.5337993, 4.833502, 8.251649, 0.049106836, -0.003955126, 9.685171
1123744503021099, -1.5637096, 4.735396, 8.539984, -0.10758853, 0.16411781, 9.887467
1123744512659120, -1.3926228, 5.345566, 8.407183, 0.15002036, -0.40754366, 10.050203
1123744522297245, -1.6510476, 4.3154554, 8.432307, -0.22053576, 0.48488963, 9.600478
1123744531935266, -1.3172488, 5.6530433, 8.567501, 0.19123411, -0.6295812, 10.327689
1123744541573287, -1.6905292, 4.1467614, 8.306684, -0.22379732, 0.59399784, 9.415497
1123744551211308, -1.3986049, 5.6410794, 8.647661, 0.20311284, -0.5356908, 10.403446
1123744560849433, -1.6821543, 4.3501515, 8.258827, -0.09422946, 0.43380165, 9.474421
1123744570487454, -1.4943178, 5.3336015, 8.699107, 0.09070468, -0.25749683, 10.309229
1123744580125474, -1.5577276, 4.662415, 8.347362, -0.056554317, 0.15659213, 9.685832
1123744589763599, -1.4835501, 5.0452666, 8.529217, 0.005345583, -0.107830286, 10.019557
1123744599401620, -1.5254245, 4.9292145, 8.457432, 0.00916934, -0.021616697, 9.907152
1123744609039641, -1.5469599, 4.9495535, 8.420342, 0.051972628, -0.0320282, 9.8888645
1123744618677662, -1.5720844, 4.928018, 8.427522, 0.056408644, 0.0012803078, 9.888212
1123744628315787, -1.564906, 4.90409, 8.4347, 0.036296368, 0.014588118, 9.881379
1123744637953808, -1.564906, 4.910072, 8.487342, 0.016306877, 0.02539587, 9.92934
1123744647591829, -1.564906, 4.889733, 8.547162, -0.018239975, 0.05497265, 9.970409
1123744657229954, -1.5457634, 4.889733, 8.534002, -0.022980452, 0.03516364, 9.956219
1123744666867974, -1.5337993, 4.875376, 8.520842, -0.03198409, 0.031903505, 9.936022
1123744676505995, -1.5469599, 4.889733, 8.505288, -0.007925749, 0.026824474, 9.931854
1123744686144120, -1.5349957, 4.8969116, 8.487342, -0.0031497478, 0.007803917, 9.918208
1123744695782141, -1.5314065, 4.95075, 8.496913, 0.020280123, -0.030941963, 9.952454
1123744705420162, -1.538585, 4.959125, 8.486146, 0.034811735, -0.03455329, 9.94849
1123744715058287, -1.5601203, 4.948357, 8.517252, 0.030233383, -0.0046100616, 9.973106
1123744724696308, -1.524228, 4.9268217, 8.499306, 3.9720535E-4, -0.019629955, 9.941563
1123744734334329, -1.5409778, 4.9112687, 8.489735, 0.0069186687, -1.3113022E-4, 9.928278
1123744743972454, -1.5397813, 4.8909297, 8.462217, 0.007181883, 0.0054194927, 9.894502
1123744753610474, -1.5326029, 4.853841, 8.462217, -0.01848793, 0.0257411, 9.875058
1123744763248495, -1.5218352, 4.8562336, 8.467003, -0.026798487, 0.01781249, 9.878669
1123744772886620, -1.5302101, 4.87418, 8.4705925, -0.011461258, 0.011868238, 9.891909
1123744782524641, -1.5397813, 4.8729835, 8.472985, -0.0048069954, 0.019148588, 9.894846
1123744792162766, -1.5457634, 4.895715, 8.510074, -0.0033185482, 0.017015457, 9.938736
1123744801800787, -1.5337993, 4.912465, 8.549556, -0.017757416, 0.0061597824, 9.978949
1123744811438808, -1.5517455, 4.918447, 8.601001, -0.022995472, 0.027705193, 10.0287075
1123744821076933, -1.5625132, 4.9375896, 8.575876, 0.006376505, 0.014673948, 10.018314
1123744830714954, -1.538585, 4.922036, 8.49452, 0.016584158, -0.013002634, 9.937309
1123744840352974, -1.5230316, 4.910072, 8.456235, 0.015347481, -0.025260925, 9.8962345
1123744849991099, -1.5314065, 4.8861437, 8.438289, 0.015733242, -0.00707078, 9.870361
1123744859629120, -1.5361922, 4.88734, 8.4502535, 0.013873816, -7.3099136E-4, 9.881931
1123744869267245, -1.524228, 4.9160542, 8.455039, 0.018015146, -0.027001858, 9.898359
1123744878905266, -1.5397813, 4.9256253, 8.455039, 0.03398919, -0.022987843, 9.905491
1123744888543287, -1.5266209, 4.92084, 8.453842, 0.022486925, -0.02896595, 9.900069
1123744898181412, -1.524228, 4.928018, 8.520842, -0.004691124, -0.01774931, 9.960575
1123744907819433, -1.5194423, 4.928018, 8.563912, -0.027126312, -0.009424448, 9.996691
1123744917457558, -1.5469599, 4.9136615, 8.518449, 0.0050389767, 0.0068058968, 9.954951
1123744927095579, -1.544567, 4.8993044, 8.495717, 0.0060482025, 0.009153843, 9.928039
1123744936733599, -1.5122639, 4.8729835, 8.477771, -0.023009777, 4.646778E-4, 9.894695
1123744946371724, -1.4883357, 4.8681974, 8.482556, -0.044868708, -0.011154413, 9.892729
1123744956009745, -1.4739788, 4.85743, 8.480164, -0.05804038, -0.014582157, 9.88316
1123744965647870, -1.5050855, 4.8993044, 8.4705925, -0.008133888, -0.024505138, 9.900442
1123744975285891, -1.5218352, 4.901697, 8.422736, 0.026426792, -0.027701855, 9.863248
1123744984923912, -1.5278172, 4.9172506, 8.428718, 0.036635637, -0.033004522, 9.876965
1123744994562037, -1.5326029, 4.92084, 8.5112705, 0.005739689, -0.010611296, 9.950131
1123745004200058, -1.5780666, 4.9316072, 8.526823, 0.037415504, 0.016978025, 9.975774
1123745013838183, -1.5756737, 4.9172506, 8.476574, 0.05005479, 0.010898352, 9.92531
1123745023476204, -1.5457634, 4.9292145, 8.400003, 0.06843543, -0.038101673, 9.861058
1123745033114329, -1.550549, 4.9136615, 8.374879, 0.07495594, -0.030732155, 9.832615
1123745042752349, -1.5349957, 4.907679, 8.438289, 0.032577753, -0.020200968, 9.881537
1123745052390474, -1.5050855, 4.8885365, 8.486146, -0.016822338, -0.015693665, 9.908442
1123745062028495, -1.5086746, 4.855037, 8.523234, -0.045675278, 0.01872015, 9.924243
1123745071666516, -1.4967105, 4.8681974, 8.578269, -0.071502924, 0.015844107, 9.976013
1123745081304641, -1.5050855, 4.8658047, 8.606983, -0.073822975, 0.027554512, 10.000765
1123745090942662, -1.5122639, 4.8789654, 8.583055, -0.0490458, 0.015882254, 9.987864
1123745100580787, -1.5553347, 4.883751, 8.562716, -0.0070080757, 0.03734231, 9.979416
1123745110218808, -1.5661024, 4.889733, 8.472985, 0.044442177, 0.016912222, 9.907139
1123745119856933, -1.5565311, 4.881358, 8.425129, 0.054037094, 0.0025219917, 9.860544
1123745129494954, -1.5577276, 4.877769, 8.475378, 0.030267954, 0.01811409, 9.902018
1123745139133079, -1.5361922, 4.881358, 8.474181, 0.017703295, 3.6239624E-4, 9.899445
1123745148771099, -1.5170496, 4.8646083, 8.504091, -0.01610446, 0.0051259995, 9.913885
1123745158409224, -1.5230316, 4.8825545, 8.563912, -0.02848196, 0.012924194, 9.974896
1123745168047245, -1.5206388, 4.871787, 8.568698, -0.036320686, 0.019679546, 9.973341
1123745177685266, -1.5254245, 4.8765726, 8.586644, -0.036420584, 0.024417162, 9.991818
1123745187323391, -1.5110675, 4.8681974, 8.572288, -0.043150663, 0.01614523, 9.973198
1123745196961412, -1.5170496, 4.8861437, 8.505288, 1.8119812E-4, -0.010524988, 9.925506
1123745206599537, -1.5529419, 4.901697, 8.507681, 0.033492327, 0.0035555363, 9.940713
1123745216237558, -1.5326029, 4.901697, 8.510074, 0.01651597, -0.009466171, 9.939643
1123745225875683, -1.4979069, 4.8909297, 8.486146, -0.0044441223, -0.03154254, 9.90851
1123745235513704, -1.5349957, 4.8825545, 8.483752, 0.01905322, -0.0014197826, 9.90804
1123745245151829, -1.5732809, 4.8909297, 8.475378, 0.05461836, 0.017140388, 9.910862
1123745254789849, -1.544567, 4.8885365, 8.472985, 0.032009125, -0.0012910366, 9.903227
1123745264427974, -1.5278172, 4.907679, 8.493324, 0.02140975, -0.020268202, 9.927498
1123745274065995, -1.5122639, 4.9088755, 8.492127, 0.010276556, -0.03115511, 9.924675
1123745283704120, -1.4967105, 4.92084, 8.492127, 0.0059497356, -0.049929142, 9.928168
1123745293342141, -1.5373886, 4.9232326, 8.465807, 0.046501637, -0.028406143, 9.913056
1123745302980266, -1.5529419, 4.900501, 8.477771, 0.038910866, 0.0010313988, 9.914516
1123745312618287, -1.5625132, 4.88734, 8.512466, 0.023052454, 0.02566433, 9.939239
1123745322256412, -1.550549, 4.8598228, 8.53161, -0.009381056, 0.041022062, 9.940256
1123745331894537, -1.5493526, 4.851448, 8.538788, -0.017929077, 0.046959877, 9.942102
1123745341532558, -1.5337993, 4.855037, 8.537591, -0.026109457, 0.03312826, 9.940453
1123745351170683, -1.5433706, 4.8598228, 8.530413, -0.013294935, 0.034744978, 9.938128
1123745360808704, -1.5038891, 4.871787, 8.502895, -0.022625685, -0.0067920685, 9.914366
1123745370446829, -1.4943178, 4.90409, 8.4705925, 0.0018372536, -0.044252157, 9.901115
1123745380084849, -1.4991034, 4.901697, 8.400003, 0.034683228, -0.05776906, 9.840197
1123745389722974, -1.5349957, 4.912465, 8.392825, 0.06740165, -0.041611195, 9.844884
1123745399360995, -1.5170496, 4.918447, 8.438289, 0.037277937, -0.04584217, 9.884017
1123745408999120, -1.5062819, 4.9256253, 8.451449, 0.026446104, -0.054463625, 9.897171
1123745418637141, -1.5541383, 4.92084, 8.456235, 0.056470394, -0.017468452, 9.906282
1123745428275266, -1.5529419, 4.912465, 8.493324, 0.035683393, -0.0024118423, 9.933743
1123745437913287, -1.5361922, 4.8909297, 8.559127, -0.015629053, 0.018836737, 9.976931
1123745447551412, -1.5254245, 4.880162, 8.615358, -0.05379963, 0.034283638, 10.018146
1123745457189433, -1.5014962, 4.8586264, 8.652447, -0.09499407, 0.043145895, 10.035671
1123745466827558, -1.4835501, 4.8502517, 8.636893, -0.10536623, 0.03382778, 10.015467
1123745476465683, -1.5062819, 4.8394837, 8.589037, -0.072497845, 0.042735815, 9.97266
1123745486103704, -1.5158532, 4.8418765, 8.504091, -0.028801203, 0.02411437, 9.90251
1123745495741829, -1.5373886, 4.853841, 8.438289, 0.02032113, 0.011907816, 9.8553295
1123745505379849, -1.5337993, 4.8789654, 8.419147, 0.03896427, -0.013427019, 9.850745
1123745515017974, -1.5337993, 4.889733, 8.384451, 0.056276083, -0.029708385, 9.826344
1123745524655995, -1.5421742, 4.910072, 8.374879, 0.07730031, -0.040828943, 9.82945
1123745534294120, -1.599602, 4.930411, 8.425129, 0.105582, -0.0014836788, 9.891376
1123745543932245, -1.5816557, 4.9471607, 8.441878, 0.0942657, -0.018991232, 9.91121
