timestamp_acc,device_acc_x,device_acc_y,device_acc_z,earth_acc_x,earth_acc_y,earth_acc_z
1124366603119546, 5.4640107, 0.0035892338, 8.398808, 0.028995514, -0.042330742, 10.019619
1124366612759754, 5.473582, 0.0023928226, 8.455039, 0.020638108, -0.01948309, 10.07209
1124366622399962, 5.456832, -0.010767702, 8.504091, -0.0025541782, 0.016400814, 10.104279
1124366632040067, 5.4388857, -0.03589234, 8.476574, -0.02625084, 0.007864475, 10.071461
1124366641680275, 5.4173503, -0.061016977, 8.480164, -0.05586362, 0.020350933, 10.062856
1124366651320483, 5.3886366, -0.043070808, 8.480164, -0.043349504, 0.047537327, 10.047303
1124366660960692, 5.383851, -0.011964113, 8.477771, -0.014242172, 0.058926105, 10.042656
1124366670600900, 5.42094, 0.029910283, 8.472985, 0.035761118, 0.037610054, 10.058641
1124366680241108, 5.4221363, 0.05623133, 8.4502535, 0.06489539, 0.0312953, 10.040135
1124366689881212, 5.4484572, 0.047856454, 8.471788, 0.05937159, 0.018723965, 10.072502
1124366699521421, 5.48076, 0.023928227, 8.504091, 0.038208008, 0.0028800964, 10.117184
1124366709161629, 5.4628143, -0.025124637, 8.41795, -0.0027450323, -0.043103695, 10.035088
1124366718801837, 5.4592247, -0.033499517, 8.398808, -0.008842945, -0.0523324, 10.017056
1124366728442046, 5.4676, -0.039481573, 8.435896, -0.017132878, -0.041935444, 10.052786
1124366738082254, 5.4628143, -0.013160525, 8.496913, 5.877018E-5, 9.279251E-4, 10.101487
1124366747722462, 5.4149575, -0.011964113, 8.475378, -0.0065950155, 0.03151083, 10.05748
1124366757362671, 5.3970113, 0.014356935, 8.445468, 0.01876247, 0.037700176, 10.022578
1124366767002775, 5.424529, 0.020338992, 8.443074, 0.030266762, 0.018945694, 10.035445
1124366776642983, 5.4257255, 0.019142581, 8.463413, 0.026302457, 0.028262138, 10.053195
1124366786283192, 5.4113684, -0.0011964113, 8.453842, 0.004482627, 0.030605793, 10.0374
1124366795923400, 5.4484572, -0.032303106, 8.422736, -0.012104392, -0.0236063, 10.031376
1124366805563608, 5.4424753, -0.039481573, 8.40479, -0.017382145, -0.028465271, 10.013065
1124366815203817, 5.4723854, -0.022731815, 8.433503, 0.0012038946, -0.033114433, 10.053376
1124366824844025, 5.491528, -0.05383851, 8.446664, -0.023991585, -0.048646927, 10.074867
1124366834484129, 5.503492, -0.05383851, 8.462217, -0.023120284, -0.05040264, 10.094421
1124366844124337, 5.4867425, -0.07178468, 8.449057, -0.040517926, -0.048758984, 10.074326
1124366853764546, 5.4388857, -0.04546363, 8.443074, -0.024621725, -0.006067753, 10.043325
1124366863404754, 5.4125648, -0.050249275, 8.445468, -0.03406596, 0.014814377, 10.031097
1124366873044962, 5.4149575, -0.039481573, 8.459825, -0.023546338, 0.022547245, 10.044446
1124366882685171, 5.432904, -0.029910283, 8.453842, -0.0068234205, 0.007326603, 10.049114
1124366892325379, 5.473582, 0.025124637, 8.41795, 0.060627818, -0.02951336, 10.040819
1124366901965587, 5.4664035, 0.06580263, 8.411968, 0.09818411, -0.012775421, 10.031815
1124366911605692, 5.4628143, 0.069391854, 8.465807, 0.09185302, 0.018129349, 10.075131
1124366921245900, 5.473582, 0.034695927, 8.475378, 0.058727026, 0.0046606064, 10.089098
1124366930886108, 5.460421, -0.008374879, 8.496913, 0.0114558935, 0.015700817, 10.100169
1124366940526317, 5.419743, -0.03589234, 8.46102, -0.018253207, 0.022034645, 10.048033
1124366950166525, 5.428118, -0.058624156, 8.478967, -0.04043579, 0.018884182, 10.067711
1124366959806733, 5.424529, -0.08733802, 8.506484, -0.071936965, 0.029797554, 10.088972
1124366969446942, 5.534599, -0.09092726, 8.506484, -0.05109048, -0.06280899, 10.148584
1124366979087046, 5.3814583, -0.034695927, 8.373683, -0.010110199, 0.0055799484, 9.953882
1124366988727254, 5.343173, -0.061016977, 8.484949, -0.05733812, 0.08903742, 10.026783
1124366998367462, 5.5537415, -0.010767702, 8.447861, 0.04026699, -0.08971262, 10.109443
1124367008007671, 5.4903316, 0.0047856453, 8.435896, 0.04508388, -0.04180956, 10.065004
1124367017647879, 5.4053864, 0.015553347, 8.429914, 0.037623048, 0.02930975, 10.013971
1124367027288087, 5.4317074, -0.0071784677, 8.422736, 0.02203679, -0.0014491081, 10.022251
1124367036928296, 5.4412785, -0.039481573, 8.451449, -0.0113556385, -0.0022258759, 10.051664
1124367046568504, 5.4460645, -0.02751746, 8.500503, -0.0061569214, 0.02399683, 10.095459
1124367056208608, 5.4029937, -0.032303106, 8.506484, -0.021223187, 0.061614037, 10.077173
1124367065848817, 5.406583, -0.02751746, 8.476574, -0.011770606, 0.043445587, 10.053964
1124367075489025, 5.436493, 0.0023928226, 8.469396, 0.025647044, 0.02172327, 10.064045
1124367085129233, 5.454439, 0.0011964113, 8.409575, 0.03745222, -0.02454853, 10.023467
1124367094769442, 5.495117, 0.01794617, 8.405986, 0.06316364, -0.05323267, 10.042432
1124367104409650, 5.483153, -0.009571291, 8.422736, 0.031138659, -0.039297104, 10.050127
1124367114049858, 5.4580283, -0.040677983, 8.432307, -0.007745743, -0.018431664, 10.044659
1124367123690067, 5.4388857, -0.05623133, 8.432307, -0.027166367, -0.007460594, 10.034324
1124367133330171, 5.444868, -0.08135597, 8.471788, -0.055799723, 3.8337708E-4, 10.070815
1124367142970379, 5.4221363, -0.0526421, 8.445468, -0.02906859, 0.012042046, 10.036299
1124367152610587, 5.400601, -0.034695927, 8.4682, -0.018772125, 0.04445219, 10.043694
1124367162250796, 5.4520464, 0.009571291, 8.4813595, 0.034614682, 0.02203226, 10.082494
1124367171891004, 5.4520464, 0.040677983, 8.465807, 0.06691754, 0.023118496, 10.069326
1124367181531212, 5.454439, 0.022731815, 8.432307, 0.052461028, 0.0010294914, 10.042532
1124367191171421, 5.4520464, 0.0059820567, 8.443074, 0.033816457, 0.0044345856, 10.050332
1124367200811629, 5.460421, 0.0023928226, 8.419147, 0.03609693, -0.016532421, 10.034772
1124367210451733, 5.4412785, -0.03589234, 8.384451, -1.2874603E-4, -0.029196262, 9.995347
1124367220091942, 5.432904, -0.07537391, 8.427522, -0.046245694, -0.010066986, 10.027113
1124367229732150, 5.4436717, -0.1052842, 8.469396, -0.07790911, -0.00182724, 10.068229
1124367239372358, 5.456832, -0.09571291, 8.433503, -0.05964172, -0.028499126, 10.045186
1124367249012567, 5.491528, -0.06460621, 8.40479, -0.017056584, -0.062328815, 10.039789
1124367258652775, 5.485546, -0.031106694, 8.425129, 0.011249065, -0.038027287, 10.053527
1124367268292983, 5.477171, -0.029910283, 8.471788, 0.003663063, -0.0010671616, 10.088184
1124367277933087, 5.4628143, -0.033499517, 8.4813595, -0.0044716597, 0.014564991, 10.088444
1124367287573296, 5.4676, -0.008374879, 8.451449, 0.025120378, 0.0027227402, 10.065837
1124367297213504, 5.4388857, -0.039481573, 8.416754, -0.004880309, -0.0027098656, 10.0212145
1124367306853712, 5.4233327, 0.0071784677, 8.441878, 0.034297466, 0.03479147, 10.033719
1124367316493921, 5.395815, -0.008374879, 8.449057, 0.011764765, 0.056764603, 10.024875
1124367326134129, 5.4233327, -0.051445685, 8.402397, -0.016572833, -0.002485752, 10.00076
1124367335774337, 5.4352965, -0.049052864, 8.395218, -0.010369778, -0.015779972, 10.001209
1124367345414546, 5.460421, -0.010767702, 8.432307, 0.02702856, -0.005821228, 10.045863
1124367355054650, 5.523831, -0.022731815, 8.444271, 0.02861178, -0.054426193, 10.09035
1124367364694858, 5.5262237, -0.059820566, 8.428718, -0.0051232576, -0.07599735, 10.078701
1124367374335067, 5.447261, -0.09212367, 8.3581295, -0.044383645, -0.0565691, 9.976687
1124367383975275, 5.393422, -0.05503492, 8.441878, -0.031196117, 0.042929173, 10.01771
1124367393615483, 5.474778, -0.062213387, 8.513663, -0.030333757, 0.012447834, 10.122177
1124367403255692, 5.4795637, -0.059820566, 8.465807, -0.019371748, -0.015824318, 10.084565
1124367412895900, 5.4221363, -0.040677983, 8.451449, -0.011027217, 0.026937008, 10.041283
1124367422536004, 5.3826547, 0.0023928226, 8.458628, 0.021537662, 0.072766304, 10.025747
1124367432176212, 5.3922257, 0.009571291, 8.465807, 0.03063798, 0.06861782, 10.036953
1124367441816421, 5.393422, -0.016749758, 8.457432, 0.0064092875, 0.05391407, 10.030678
1124367451456629, 5.4317074, -0.021535404, 8.435896, 0.012978554, 0.011048794, 10.033342
1124367461096837, 5.432904, -0.025124637, 8.4502535, 0.0077677965, 0.016644001, 10.046069
1124367470737046, 5.4412785, -0.034695927, 8.453842, -0.0010750294, 0.010354519, 10.0536585
1124367480377254, 5.45085, -0.078963146, 8.452646, -0.041785717, -0.009047031, 10.058002
1124367490017358, 5.4556355, -0.0849452, 8.447861, -0.04568982, -0.017739773, 10.056596
1124367499657567, 5.4520464, -0.07537391, 8.428718, -0.03278494, -0.022635937, 10.038535
1124367509297775, 5.4460645, -0.058624156, 8.423932, -0.01753664, -0.013920307, 10.03121
1124367518937983, 5.416154, -0.040677983, 8.432307, -0.0073987246, 0.01930523, 10.021964
1124367528578192, 5.4221363, -0.011964113, 8.433503, 0.020356774, 0.024286747, 10.0261
1124367538218400, 5.4580283, 0.0035892338, 8.4347, 0.041941524, -0.0027127266, 10.046515
1124367547858608, 5.4640107, -0.0023928226, 8.449057, 0.03551209, -0.0015354156, 10.061844
1124367557498712, 5.474778, -0.02632105, 8.471788, 0.011386037, -0.006239891, 10.086869
1124367567138921, 5.4867425, -0.029910283, 8.475378, 0.008779287, -0.014577389, 10.096386
1124367576779129, 5.4843497, -0.01794617, 8.397611, 0.029610634, -0.048181057, 10.029709
1124367586419337, 5.4903316, -0.02632105, 8.379665, 0.02484703, -0.061431408, 10.017926
1124367596059546, 5.501099, -0.0047856453, 8.389236, 0.046334386, -0.055891037, 10.031755
1124367605699754, 5.4759746, 0.02751746, 8.377272, 0.0721941, -0.031431675, 10.007975
1124367615339962, 5.471189, 0.029910283, 8.37129, 0.073290944, -0.028995037, 10.000355
1124367624980067, 5.4783673, 0.0059820567, 8.419147, 0.04497266, -0.016243935, 10.044516
1124367634620275, 5.465207, 0.0023928226, 8.467003, 0.030653596, 0.017720222, 10.077567
1124367644260483, 5.4173503, -0.21774685, 8.516056, -0.1993376, 0.022269726, 10.093467
1124367653900692, 5.508278, 0.16510476, 8.367701, 0.21131098, -0.029678345, 10.017049
1124367663540900, 5.3144593, -0.55513483, 8.500503, -0.5407985, 0.010467052, 10.025848
1124367673181108, 5.535795, 0.5886344, 8.457432, 0.6246766, 0.09540844, 10.105461
1124367682821212, 5.3359947, -0.69272214, 8.386844, -0.6501504, -0.09236574, 9.942868
1124367692461421, 5.5573306, 0.71306115, 8.568698, 0.722968, 0.17240953, 10.210905
1124367702101629, 5.4125648, -0.62093747, 8.2456665, -0.54656935, -0.20652103, 9.86565
1124367711741837, 5.541777, 0.46061835, 8.628518, 0.46553338, 0.15821743, 10.253441
1124367721382046, 5.4999027, -0.30149564, 8.23131, -0.23068088, -0.20072699, 9.899535
1124367731022254, 5.4484572, -0.016749758, 8.575876, -0.0035057068, 0.09286213, 10.159872
1124367740662358, 5.5477595, 0.16151553, 8.249256, 0.23064888, -0.120070934, 9.939131
1124367750302567, 5.363512, -0.50009996, 8.4813595, -0.48282933, -0.002693653, 10.035821
1124367759942775, 5.569295, 0.5312066, 8.4347, 0.56613946, 0.051450253, 10.105456
1124367769582983, 5.3300123, -0.73818576, 8.396415, -0.702124, -0.07563782, 9.947615
1124367779223192, 5.517849, 0.69272214, 8.532805, 0.7125287, 0.1737485, 10.158612
1124367788863400, 5.322834, -0.6855437, 8.244471, -0.6304767, -0.14291906, 9.816105
1124367798503504, 5.5094743, 0.51206404, 8.673982, 0.5040045, 0.21729946, 10.2739105
1124367808143712, 5.4388857, -0.31465617, 8.26481, -0.2526238, -0.13086748, 9.894778
1124367817783921, 5.3850474, 0.051445685, 8.618947, 0.047139406, 0.18393326, 10.161279
1124367827424129, 5.5022955, 0.1268196, 8.301898, 0.18160212, -0.063034534, 9.958711
1124367837064337, 5.359923, -0.4941179, 8.495717, -0.4784996, 0.0068850517, 10.045951
1124367846704546, 5.605187, 0.5084748, 8.403593, 0.563959, 0.007745266, 10.098461
1124367856344650, 5.386244, -0.75972116, 8.398808, -0.70963305, -0.13383293, 9.980343
1124367865984858, 5.5669017, 0.69272214, 8.514859, 0.7196883, 0.15270996, 10.170143
1124367875625067, 5.3850474, -0.695115, 8.2145605, -0.6238785, -0.20397663, 9.824973
1124367885265275, 5.5633125, 0.56350976, 8.598608, 0.57085896, 0.16203499, 10.239723
1124367894905483, 5.471189, -0.3385844, 8.221739, -0.25928438, -0.18823051, 9.876381
1124367904545587, 5.4293146, 0.1363909, 8.5938225, 0.13018322, 0.16199541, 10.163988
1124367914185796, 5.5106707, 0.106480606, 8.23131, 0.17114532, -0.10095167, 9.904232
1124367923826004, 5.3587265, -0.38883367, 8.5112705, -0.38216817, 0.0452137, 10.057872
1124367933466212, 5.568098, 0.506082, 8.4012, 0.5505655, 0.04167366, 10.076464
1124367943106421, 5.359923, -0.7286145, 8.441878, -0.69417423, -0.0789032, 10.0018425
1124367952746629, 5.584848, 0.6448657, 8.580662, 0.6521734, 0.1699543, 10.236207
1124367962386733, 5.3503513, -0.78843504, 8.282756, -0.73728013, -0.18422699, 9.86278
1124367972026942, 5.517849, 0.506082, 8.605786, 0.49885845, 0.20420837, 10.221144
1124367981667150, 5.444868, -0.47138608, 8.218149, -0.39758635, -0.20587397, 9.859327
1124367991307358, 5.4412785, 0.11964113, 8.585447, 0.12267506, 0.154809, 10.163301
1124368000947567, 5.5298133, 0.008374879, 8.210971, 0.09226394, -0.14398289, 9.8979645
1124368010587671, 5.4113684, -0.3589234, 8.49452, -0.33488595, -0.004354477, 10.072559
1124368020227879, 5.572884, 0.4761717, 8.365308, 0.52914727, 0.041859627, 10.0489
1124368029868087, 5.359923, -0.66400826, 8.426325, -0.62505466, -0.0758605, 9.988803
1124368039508296, 5.625526, 0.74177504, 8.5112705, 0.7672926, 0.13601637, 10.199573
1124368049148400, 5.395815, -0.6939186, 8.218149, -0.6169304, -0.21298027, 9.83404
1124368058788608, 5.501099, 0.64965135, 8.55793, 0.6466112, 0.21922636, 10.171338
1124368068428817, 5.4257255, -0.45224348, 8.232507, -0.3789286, -0.17206192, 9.861237
1124368078069025, 5.460421, 0.24885355, 8.652447, 0.23982298, 0.21023798, 10.22943
1124368087709233, 5.5310097, -0.022731815, 8.252846, 0.046410084, -0.13413382, 9.933876
1124368097349337, 5.3718867, -0.33738798, 8.566305, -0.33500534, 0.08226347, 10.111063
1124368106989546, 5.5262237, 0.36011982, 8.356933, 0.40704083, 0.021826744, 10.0170355
1124368116629754, 5.325227, -0.73100734, 8.437093, -0.70216745, -0.05261898, 9.979035
1124368126269962, 5.588437, 0.6161518, 8.536395, 0.6475915, 0.1362443, 10.200117
1124368135910171, 5.359923, -0.7752745, 8.310273, -0.7133072, -0.16755295, 9.8920965
1124368145550275, 5.56092, 0.64965135, 8.551949, 0.6744487, 0.16908836, 10.197952
1124368155190483, 5.444868, -0.50129634, 8.216953, -0.41926754, -0.20358086, 9.858955
1124368164830692, 5.4843497, 0.2727818, 8.646464, 0.27463365, 0.18991375, 10.237303
1124368174470900, 5.5166526, -0.09332009, 8.207381, -0.01775384, -0.16536951, 9.888155
1124368184111108, 5.4029937, -0.21535404, 8.493324, -0.19689608, 0.051864624, 10.06647
1124368193751212, 5.5908303, 0.3912265, 8.321041, 0.45583844, -0.043326855, 10.022001
1124368203391421, 5.3706903, -0.6472585, 8.472985, -0.6161627, -0.041635036, 10.03361
1124368213031629, 5.5836515, 0.6759724, 8.512466, 0.6986586, 0.12685537, 10.178014
1124368222671837, 5.3611193, -0.75254273, 8.323434, -0.69829756, -0.1377759, 9.903578
1124368232311942, 5.5597234, 0.68075806, 8.60459, 0.68484044, 0.19726706, 10.242315
1124368241952150, 5.4592247, -0.5288138, 8.208578, -0.45996082, -0.2178855, 9.859234
1124368251592358, 5.5393844, 0.3804588, 8.589037, 0.39944994, 0.13620377, 10.218756
1124368261232567, 5.5190454, -0.11006984, 8.17149, -0.026898503, -0.18394518, 9.859546
1124368270872775, 5.424529, -0.17826529, 8.517252, -0.16442424, 0.064418316, 10.098005
1124368280512879, 5.595616, 0.30149564, 8.297112, 0.36761963, -0.07800245, 10.005131
1124368290153087, 5.3982077, -0.64606214, 8.463413, -0.61357707, -0.055488586, 10.04031
1124368299793296, 5.575277, 0.5838487, 8.495717, 0.60685945, 0.11041069, 10.15979
1124368309433504, 5.322834, -0.8446664, 8.311469, -0.80282116, -0.1459322, 9.87222
1124368319073608, 5.5477595, 0.6221339, 8.55793, 0.64110935, 0.18941164, 10.19588
1124368328713817, 5.4017973, -0.60059845, 8.226524, -0.5340486, -0.19421816, 9.84342
1124368338354025, 5.4496536, 0.41635114, 8.659625, 0.39811397, 0.26139498, 10.229093
1124368347994233, 5.424529, -0.1794617, 8.251649, -0.117893696, -0.083500385, 9.875553
1124368357634337, 5.3790655, -0.0634098, 8.572288, -0.0660311, 0.14775419, 10.119105
1124368367274546, 5.5657053, 0.30508488, 8.282756, 0.37559474, -0.05568409, 9.976475
1124368376914754, 5.3850474, -0.5084748, 8.46461, -0.4757955, -0.025681019, 10.033936
1124368386554962, 5.6063833, 0.61016977, 8.489735, 0.64459074, 0.08763361, 10.171345
1124368396195067, 5.369494, -0.79441714, 8.360522, -0.7519583, -0.12818289, 9.938765
1124368405835275, 5.569295, 0.6364908, 8.544769, 0.65443945, 0.14822388, 10.197303
1124368415475483, 5.428118, -0.6939186, 8.22772, -0.6252118, -0.21957397, 9.85912
1124368425115692, 5.5369916, 0.39601216, 8.636893, 0.40563166, 0.16213942, 10.25769
1124368434755900, 5.495117, -0.31106696, 8.2014, -0.22226524, -0.20032692, 9.872515
1124368444396004, 5.4460645, -0.0741775, 8.538788, -0.053791046, 0.075276375, 10.12756
1124368454036212, 5.564509, 0.18424734, 8.222935, 0.26619732, -0.11838198, 9.926202
1124368463676421, 5.3886366, -0.48933223, 8.496913, -0.4660853, -0.0070490837, 10.062658
1124368473316629, 5.613562, 0.6472585, 8.472985, 0.6915052, 0.103052616, 10.1603985
1124368482956733, 5.3503513, -0.6867401, 8.394022, -0.64192134, -0.08540106, 9.956813
1124368492596942, 5.548956, 0.7190432, 8.56152, 0.7357267, 0.20909786, 10.199144
1124368502237150, 5.346762, -0.6963114, 8.242078, -0.6396785, -0.17756605, 9.82669
1124368511877358, 5.4580283, 0.47856453, 8.618947, 0.46824253, 0.23400545, 10.199575
1124368521517462, 5.4341, -0.33140594, 8.23131, -0.26247966, -0.1585083, 9.864063
1124368531157671, 5.424529, 0.0047856453, 8.6345005, 0.0076618195, 0.1535368, 10.195908
1124368540797879, 5.521438, 0.111266255, 8.282756, 0.17961526, -0.08703613, 9.953033
1124368550438087, 5.3407803, -0.48454657, 8.5112705, -0.4685858, 0.039048195, 10.048847
1124368560078192, 5.534599, 0.5096712, 8.469396, 0.5480678, 0.10094166, 10.114922
1124368569718400, 5.3419766, -0.8147561, 8.438289, -0.77947545, -0.09150028, 9.98946
1124368579358608, 5.578866, 0.69272214, 8.530413, 0.7183, 0.13817501, 10.19002
1124368588998817, 5.4029937, -0.7298109, 8.238488, -0.65857005, -0.22436333, 9.854624
1124368598638921, 5.511867, 0.5371887, 8.660822, 0.5486723, 0.22167635, 10.262987
1124368608279129, 5.4436717, -0.33499518, 8.219346, -0.2563169, -0.16542864, 9.859532
1124368617919337, 5.4699926, 0.16510476, 8.579466, 0.18011093, 0.11960268, 10.173917
1124368627559442, 5.5453663, 0.16151553, 8.215756, 0.24167478, -0.1302309, 9.9096155
1124368637199650, 5.349155, -0.39481574, 8.519645, -0.38050032, 0.04736519, 10.060152
1124368646839858, 5.5465627, 0.5132605, 8.446664, 0.547271, 0.06889486, 10.102954
1124368656480067, 5.3359947, -0.7298109, 8.452646, -0.7052314, -0.057266235, 9.9976015
1124368666120171, 5.5716877, 0.6963114, 8.57468, 0.7129009, 0.14976883, 10.223651
1124368675760379, 5.3706903, -0.7680961, 8.280363, -0.7128891, -0.18772793, 9.871942
1124368685400587, 5.4783673, 0.52163535, 8.639286, 0.51651716, 0.22023201, 10.227737
1124368695040796, 5.3563333, -0.44027936, 8.310273, -0.4002918, -0.07833052, 9.888297
1124368704680900, 5.4699926, 0.09451649, 8.565108, 0.113767624, 0.0913558, 10.162163
1124368714321108, 5.503492, -0.041874398, 8.195417, 0.035947084, -0.1702795, 9.870399
1124368723961317, 5.3718867, -0.37447673, 8.500503, -0.35429138, 0.013683319, 10.056353
1124368733601525, 5.605187, 0.5132605, 8.438289, 0.56286347, 0.0155210495, 10.127646
1124368743241629, 5.3850474, -0.68195444, 8.4347, -0.63364005, -0.11199093, 10.009693
1124368752881837, 5.54417, 0.71306115, 8.512466, 0.73016274, 0.15083313, 10.1564
1124368762522046, 5.332405, -0.73100734, 8.243274, -0.664211, -0.1865859, 9.820615
1124368772162254, 5.532206, 0.6412765, 8.603394, 0.64981425, 0.21088171, 10.22586
1124368781802358, 5.4424753, -0.4438686, 8.209774, -0.36577547, -0.20314598, 9.851036
1124368791442567, 5.45085, 0.22612174, 8.628518, 0.21935701, 0.17330456, 10.204709
1124368801082775, 5.5202417, -0.040677983, 8.251649, 0.031191826, -0.15247965, 9.926742
1124368810722983, 5.3766723, -0.34217364, 8.562716, -0.3337015, 0.04866886, 10.110987
1124368820363087, 5.5537415, 0.40438703, 8.377272, 0.45769787, 0.0020394325, 10.048719
1124368830003296, 5.3216376, -0.7046863, 8.476574, -0.68545055, -0.053806305, 10.009794
1124368839643504, 5.532206, 0.6891329, 8.583055, 0.70358205, 0.19780254, 10.208569
1124368849283608, 5.3383875, -0.73818576, 8.321041, -0.6935835, -0.15505075, 9.888271
1124368858923817, 5.5190454, 0.62093747, 8.599805, 0.6299392, 0.20255947, 10.21588
1124368868564025, 5.395815, -0.50129634, 8.239685, -0.4293214, -0.18404007, 9.850905
1124368878204233, 5.460421, 0.2955136, 8.644072, 0.287979, 0.1797967, 10.222926
1124368887844337, 5.5070815, -0.05742774, 8.256434, 0.019841433, -0.14903736, 9.923575
1124368897484546, 5.352744, -0.2739782, 8.559127, -0.2719996, 0.07233524, 10.09487
1124368907124754, 5.521438, 0.33738798, 8.362915, 0.38334215, -8.482933E-4, 10.019556
1124368916764962, 5.3240304, -0.6891329, 8.472985, -0.66247135, -0.042052746, 10.008551
1124368926405067, 5.5501523, 0.63170516, 8.518449, 0.6617936, 0.12349987, 10.164349
1124368936045275, 5.3276196, -0.7680961, 8.346166, -0.71718174, -0.14011097, 9.904444
1124368945685483, 5.517849, 0.6867401, 8.569894, 0.6938362, 0.17332649, 10.190678
1124368955325587, 5.426922, -0.47377887, 8.189436, -0.39524937, -0.21788836, 9.825431
1124368964965796, 5.4903316, 0.33379877, 8.7266245, 0.33666337, 0.19557238, 10.308131
1124368974606004, 5.453243, -0.13758731, 8.257631, -0.08328855, -0.12593412, 9.895577
1124368984246212, 5.3539405, -0.18065812, 8.526823, -0.17312801, 0.089464664, 10.068071
1124368993886317, 5.556134, 0.30388847, 8.29113, 0.36981714, -0.08901405, 9.978033
1124369003526525, 5.3623157, -0.66161543, 8.5112705, -0.64135426, -0.040418148, 10.06086
1124369013166733, 5.5776696, 0.6161518, 8.586644, 0.63509643, 0.11813831, 10.237344
1124369022806942, 5.3503513, -0.7716853, 8.376076, -0.7314732, -0.13993931, 9.941116
1124369032447046, 5.5573306, 0.6771688, 8.58784, 0.6869552, 0.16476965, 10.227142
1124369042087254, 5.3814583, -0.56470615, 8.215756, -0.50135815, -0.2010479, 9.8227215
1124369051727462, 5.4783673, 0.4319045, 8.676374, 0.432665, 0.21325493, 10.25894
1124369061367671, 5.4520464, -0.14237295, 8.270791, -0.08525735, -0.11930752, 9.906036
1124369071007775, 5.3587265, -0.124426775, 8.556734, -0.12447703, 0.11033201, 10.095616
1124369080647983, 5.487939, 0.2739782, 8.309076, 0.32436013, -0.024338245, 9.95628
1124369090288192, 5.332405, -0.6233303, 8.517252, -0.6110583, -0.015060902, 10.04953
1124369099928400, 5.5716877, 0.5946164, 8.53161, 0.625077, 0.120121956, 10.187271
1124369109568504, 5.3503513, -0.7968099, 8.35454, -0.7547611, -0.15053034, 9.923063
1124369119208712, 5.5453663, 0.6963114, 8.5423765, 0.70832515, 0.15750933, 10.182416
1124369128848921, 5.3970113, -0.634098, 8.268398, -0.56004566, -0.2014761, 9.876333
1124369138489025, 5.4819565, 0.4103691, 8.71466, 0.39542997, 0.23106432, 10.293483
1124369148129233, 5.447261, -0.23808585, 8.252846, -0.17611682, -0.14558029, 9.88871
1124369157769442, 5.4089756, -0.07298109, 8.534002, -0.060622215, 0.07727718, 10.1035595
1124369167409650, 5.51426, 0.22013968, 8.293523, 0.27865756, -0.058614254, 9.95776
1124369177049754, 5.3132625, -0.573081, 8.547162, -0.5696671, 0.04649973, 10.064117
1124369186689962, 5.5094743, 0.58624154, 8.493324, 0.60423255, 0.12786579, 10.121912
1124369196330171, 5.3072805, -0.79441714, 8.346166, -0.75038856, -0.111159325, 9.893502
1124369205970379, 5.528617, 0.71306115, 8.567501, 0.72873163, 0.2012825, 10.19336
1124369215610483, 5.3611193, -0.61734825, 8.292327, -0.55891925, -0.1383543, 9.876937
1124369225250692, 5.4891353, 0.51086766, 8.703893, 0.4951161, 0.2495904, 10.2879505
1124369234890900, 5.4616175, -0.25962126, 8.295917, -0.19295126, -0.13242292, 9.9329815
1124369244531108, 5.528617, -0.0071784677, 8.612965, 0.016891003, 0.039310932, 10.234597
1124369254171212, 5.576473, 0.18903299, 8.1679, 0.27256733, -0.18461752, 9.886304
1124369263811421, 5.2402816, -0.50129634, 8.478967, -0.5091344, 0.093412876, 9.9667845
1124369273451629, 5.6063833, 0.54675996, 8.504091, 0.5898315, 0.054097176, 10.183283
1124369283091837, 5.400601, -0.80877405, 8.396415, -0.76630485, -0.14834356, 9.985547
1124369292731942, 5.5740805, 0.6723832, 8.537591, 0.69046676, 0.13139296, 10.194063
1124369302372150, 5.3922257, -0.6831509, 8.206185, -0.6106467, -0.2113533, 9.821747
1124369312012358, 5.56092, 0.5276174, 8.639286, 0.5367656, 0.15188122, 10.272696
1124369321652567, 5.4628143, -0.30987054, 8.276773, -0.24941409, -0.1534586, 9.917541
1124369331292671, 5.4089756, 0.05623133, 8.5938225, 0.04942143, 0.14907646, 10.153291
1124369340932879, 5.5022955, 0.15314065, 8.29113, 0.21059132, -0.056972504, 9.949572
1124369350573087, 5.339584, -0.4211368, 8.526823, -0.41664225, 0.03975296, 10.060817
1124369360213296, 5.5501523, 0.5395815, 8.474181, 0.56368124, 0.107075214, 10.128073
1124369369853400, 5.3204412, -0.7896315, 8.46102, -0.7673929, -0.07638788, 9.996237
1124369379493608, 5.558527, 0.65084773, 8.595019, 0.6678678, 0.19164133, 10.232908
1124369389133817, 5.3718867, -0.7645068, 8.297112, -0.70749646, -0.19439125, 9.886626
1124369398774025, 5.5369916, 0.4869394, 8.627322, 0.5005331, 0.18083096, 10.249042
1124369408414129, 5.4723854, -0.39720857, 8.2049885, -0.31154227, -0.21615219, 9.863207
1124369418054337, 5.483153, 0.14476576, 8.581859, 0.16367376, 0.10780907, 10.183113
1124369427694546, 5.56092, 0.12203395, 8.252846, 0.20004082, -0.13479328, 9.949371
1124369437334650, 5.3766723, -0.3505485, 8.489735, -0.32912862, 0.017282486, 10.049799
1124369446974858, 5.5860443, 0.5288138, 8.402397, 0.57472396, 0.029435158, 10.087252
1124369456615067, 5.3587265, -0.6975078, 8.416754, -0.6664853, -0.08445215, 9.979622
1124369466255275, 5.5800624, 0.70947194, 8.566305, 0.7326319, 0.17728949, 10.220267
1124369475895483, 5.3563333, -0.74177504, 8.298309, -0.69073343, -0.16975164, 9.879096
1124369485535587, 5.4927244, 0.5240282, 8.635697, 0.525769, 0.23301458, 10.231773
1124369495175796, 5.4317074, -0.45822555, 8.271988, -0.38354707, -0.16996288, 9.897635
1124369504816004, 5.4388857, 0.16151553, 8.6345005, 0.16147792, 0.17775011, 10.203159
1124369514456212, 5.5070815, 0.008374879, 8.2660055, 0.07984877, -0.11309433, 9.93155
1124369524096317, 5.3682976, -0.3397808, 8.569894, -0.33044642, 0.061828136, 10.112574
1124369533736525, 5.5298133, 0.44506502, 8.456235, 0.48306274, 0.088161945, 10.101669
1124369543376733, 5.3072805, -0.7190432, 8.482556, -0.6923372, -0.03150034, 10.007881
1124369553016942, 5.5405807, 0.6628119, 8.514859, 0.6799575, 0.16076422, 10.156378
1124369562657046, 5.3515477, -0.80877405, 8.240881, -0.7419263, -0.22241545, 9.828803
1124369572297254, 5.5369916, 0.5766702, 8.6141615, 0.58436143, 0.186625, 10.23808
1124369581937462, 5.444868, -0.50488555, 8.295917, -0.4263295, -0.17677307, 9.925257
1124369591577671, 5.447261, 0.23688944, 8.687142, 0.23363745, 0.21849918, 10.251483
1124369601217775, 5.49751, -0.0035892338, 8.249256, 0.07184696, -0.11641884, 9.912322
1124369610857983, 5.395815, -0.2739782, 8.52802, -0.25105238, 0.04415846, 10.092176
1124369620498192, 5.562116, 0.4127619, 8.392825, 0.4645108, 0.01050806, 10.066338
1124369630138400, 5.339584, -0.69152576, 8.478967, -0.6592362, -0.040988922, 10.022274
1124369639778608, 5.605187, 0.6939186, 8.495717, 0.72645867, 0.10910225, 10.1753235
1124369649418712, 5.4113684, -0.7513463, 8.2348995, -0.67647326, -0.24442911, 9.856148
1124369659058921, 5.532206, 0.66161543, 8.532805, 0.68207073, 0.19515753, 10.166047
1124369668699129, 5.4723854, -0.4953143, 8.251649, -0.4008335, -0.22398376, 9.903091
1124369678339337, 5.508278, 0.33020952, 8.672786, 0.3250153, 0.19923258, 10.272392
1124369687979442, 5.460421, -0.09212367, 8.232507, -0.018695354, -0.108406544, 9.878601
1124369697619650, 5.3766723, -0.27158538, 8.543573, -0.26172137, 0.067876816, 10.094648
1124369707259858, 5.575277, 0.33140594, 8.364112, 0.3912952, -0.015721321, 10.049805
1124369716900067, 5.3419766, -0.66999036, 8.4909315, -0.64649165, -0.034541607, 10.033065
1124369726540275, 5.5896335, 0.58265233, 8.555537, 0.61762524, 0.1426835, 10.216599
1124369736180379, 5.359923, -0.8315059, 8.368897, -0.7794639, -0.1565504, 9.9411545
1124369745820587, 5.5369916, 0.6221339, 8.602198, 0.63262475, 0.19911623, 10.227574
1124369755460796, 5.389833, -0.5802595, 8.244471, -0.5065424, -0.15597105, 9.852786
1124369765101004, 5.4723854, 0.33499518, 8.669196, 0.3318001, 0.22066116, 10.249654
1124369774741108, 5.5094743, -0.13040884, 8.256434, -0.05307436, -0.14286184, 9.925563
1124369784381317, 5.3982077, -0.11246266, 8.569894, -0.10274911, 0.11752558, 10.127785
1124369794021525, 5.5369916, 0.3589234, 8.318648, 0.41961432, -0.0012831688, 9.990542
1124369803661733, 5.3814583, -0.59342, 8.476574, -0.56331486, -0.04214096, 10.042184
1124369813301942, 5.651847, 0.64247286, 8.478967, 0.68956566, 0.057745457, 10.186767
1124369822942046, 5.4125648, -0.81236327, 8.285149, -0.73195106, -0.22530127, 9.900151
1124369832582254, 5.5920267, 0.6041877, 8.567501, 0.6216266, 0.1543541, 10.2287655
1124369842222462, 5.4293146, -0.6771688, 8.215756, -0.58699214, -0.23992538, 9.850511
1124369851862671, 5.505885, 0.3481557, 8.656036, 0.35948968, 0.19973755, 10.256403
1124369861502879, 5.4676, -0.24047868, 8.279166, -0.1724711, -0.12150431, 9.922327
1124369871143087, 5.3742795, -0.14356937, 8.6141615, -0.14485252, 0.15568352, 10.151948
1124369880783192, 5.5106707, 0.21894327, 8.30788, 0.28171802, -0.027358532, 9.967758
1124369890423400, 5.334798, -0.5563313, 8.504091, -0.5368577, 0.027834892, 10.039928
1124369900063608, 5.581259, 0.6197411, 8.559127, 0.6560792, 0.15300512, 10.214662
1124369909703817, 5.359923, -0.7716853, 8.392825, -0.7283358, -0.09712362, 9.961119
1124369919344025, 5.568098, 0.6867401, 8.548359, 0.7217369, 0.16954803, 10.198046
1124369928984129, 5.4017973, -0.6364908, 8.215756, -0.55350405, -0.1932621, 9.835624
1124369938624337, 5.5226345, 0.4354937, 8.620144, 0.44733536, 0.18061781, 10.235395
1124369948264546, 5.5130634, -0.26919255, 8.237292, -0.18209434, -0.17982006, 9.912307
1124369957904754, 5.471189, -0.032303106, 8.573483, -0.0072339773, 0.08640051, 10.170155
1124369967544962, 5.5920267, 0.25722843, 8.268398, 0.33731782, -0.10738516, 9.978879
1124369977185067, 5.428118, -0.45942193, 8.495717, -0.42072934, -0.023015976, 10.083412
1124369986825275, 5.6063833, 0.6149554, 8.465807, 0.65663064, 0.073325634, 10.151012
1124369996465483, 5.3611193, -0.75613195, 8.377272, -0.71495336, -0.10804796, 9.948325
1124370006105692, 5.569295, 0.6963114, 8.562716, 0.72338116, 0.18539143, 10.210991
1124370015745900, 5.3982077, -0.7178468, 8.255239, -0.63960916, -0.19838858, 9.866938
1124370025386108, 5.511867, 0.42711884, 8.69791, 0.41735804, 0.24067974, 10.294885
1124370035026212, 5.4424753, -0.36251262, 8.273184, -0.28974724, -0.13024235, 9.904373
1124370044666421, 5.4257255, -0.025124637, 8.595019, -0.02031815, 0.13872576, 10.163359
1124370054306629, 5.548956, 0.10049855, 8.256434, 0.1802485, -0.10573864, 9.946158
1124370063946837, 5.3982077, -0.50009996, 8.517252, -0.46778953, -0.00727129, 10.085409
1124370073587046, 5.6063833, 0.55393845, 8.482556, 0.5961845, 0.08864832, 10.16508
1124370083227254, 5.3587265, -0.72263247, 8.402397, -0.6719687, -0.08561134, 9.968928
1124370092867358, 5.5740805, 0.7106683, 8.545966, 0.7306279, 0.1788392, 10.200157
1124370102507567, 5.3922257, -0.71665037, 8.251649, -0.6469339, -0.20228338, 9.860018
1124370112147775, 5.54417, 0.4881358, 8.636893, 0.4956907, 0.19371843, 10.261032
1124370121787983, 5.465207, -0.4019942, 8.255239, -0.31543422, -0.17499685, 9.901966
1124370131428192, 5.436493, 0.0059820567, 8.639286, 0.009683371, 0.16073418, 10.206216
1124370141068400, 5.554938, 0.046660043, 8.250452, 0.13437414, -0.13185358, 9.944548
1124370150708504, 5.4149575, -0.4426722, 8.471788, -0.40029657, -0.033574104, 10.056221
1124370160348712, 5.6171513, 0.55513483, 8.38804, 0.61580026, 0.03274536, 10.091556
1124370169988921, 5.3946185, -0.701097, 8.38804, -0.64690036, -0.13350153, 9.975787
1124370179629129, 5.605187, 0.74536425, 8.52802, 0.78673315, 0.1574645, 10.200837
1124370189269337, 5.3790655, -0.6855437, 8.271988, -0.606283, -0.17858362, 9.870697
1124370198909546, 5.505885, 0.6053841, 8.624929, 0.6101631, 0.26200008, 10.228868
1124370208549754, 5.430511, -0.4103691, 8.246863, -0.32811302, -0.15699959, 9.876098
1124370218189858, 5.4352965, 0.09332009, 8.682357, 0.08547115, 0.20011282, 10.241443
1124370227830067, 5.49751, -0.023928227, 8.35454, 0.039770007, -0.05834341, 10.000828
1124370237470275, 5.3240304, -0.44865423, 8.57468, -0.44086194, 0.08100414, 10.093107
1124370247110483, 5.5405807, 0.42711884, 8.407183, 0.47487593, 0.053403378, 10.0664215
1124370256750692, 5.3647084, -0.73340017, 8.413164, -0.6877209, -0.104320526, 9.980756
1124370266390900, 5.601598, 0.6903293, 8.553144, 0.72848463, 0.16269922, 10.220254
1124370276031108, 5.383851, -0.75254273, 8.286345, -0.685994, -0.1894846, 9.884796
1124370285671212, 5.54417, 0.6053841, 8.642876, 0.6231353, 0.22347307, 10.264763
1124370295311421, 5.477171, -0.46779683, 8.170293, -0.36018187, -0.25434828, 9.837555
1124370304951629, 5.4676, 0.16031912, 8.611769, 0.1743772, 0.15679121, 10.199409
1124370314591837, 5.5046883, -0.049052864, 8.249256, 0.032069445, -0.122000694, 9.916567
1124370324232046, 5.406583, -0.34217364, 8.55793, -0.31916803, 0.03894043, 10.123389
1124370333872254, 5.562116, 0.4235296, 8.413164, 0.4732983, 0.061706543, 10.083156
1124370343512462, 5.3180485, -0.6999006, 8.518449, -0.68097293, -0.018754005, 10.043475
1124370353152671, 5.5944195, 0.6843473, 8.532805, 0.7098347, 0.16789389, 10.200126
1124370362792775, 5.4173503, -0.7704889, 8.267202, -0.68749714, -0.24786234, 9.887056
1124370372432983, 5.5657053, 0.6149554, 8.581859, 0.6291051, 0.18966961, 10.226035
1124370382073192, 5.4376893, -0.53359944, 8.23131, -0.45384502, -0.20111036, 9.86718
1124370391713400, 5.5106707, 0.22851457, 8.618947, 0.24953544, 0.15180826, 10.228424
1124370401353608, 5.5334024, -0.02632105, 8.238488, 0.06112671, -0.13778591, 9.923164
1124370410993817, 5.42094, -0.19142582, 8.544769, -0.16764319, 0.07203674, 10.119438
1124370420634025, 5.6099725, 0.43070808, 8.362915, 0.5033386, -0.019874096, 10.066873
1124370430274233, 5.3742795, -0.6436693, 8.46102, -0.5996915, -0.053114414, 10.026148
1124370439914442, 5.5657053, 0.6771688, 8.555537, 0.7102622, 0.17205906, 10.20288
1124370449554546, 5.343173, -0.782453, 8.365308, -0.725364, -0.11439705, 9.929796
1124370459194754, 5.5310097, 0.6305088, 8.665607, 0.6382096, 0.26271582, 10.27648
1124370468834962, 5.4388857, -0.5706882, 8.269595, -0.49216908, -0.20237017, 9.900009
1124370478475171, 5.4927244, 0.31106696, 8.628518, 0.31825936, 0.18069506, 10.226641
1124370488115379, 5.511867, -0.11485548, 8.226524, -0.027122736, -0.15747881, 9.901719
1124370497755587, 5.4352965, -0.22612174, 8.537591, -0.19978213, 0.03469515, 10.121408
1124370507395796, 5.613562, 0.30269206, 8.305488, 0.38492918, -0.07908535, 10.021497
1124370517036004, 5.343173, -0.66400826, 8.467003, -0.6268625, -0.0511117, 10.014238
1124370526676212, 5.5669017, 0.6305088, 8.517252, 0.65313065, 0.1683197, 10.172345
1124370536316421, 5.3682976, -0.7728817, 8.349754, -0.7015627, -0.16717386, 9.9304695
1124370545956629, 5.5669017, 0.65922266, 8.601001, 0.6845895, 0.20659733, 10.241621
1124370555596733, 5.3826547, -0.6329016, 8.275578, -0.5564194, -0.16102028, 9.875382
1124370565236942, 5.4616175, 0.30029923, 8.699107, 0.29798412, 0.2416501, 10.268726
1124370574877150, 5.495117, -0.22013968, 8.258827, -0.13526976, -0.15525627, 9.920213
1124370584517358, 5.4089756, -0.11246266, 8.572288, -0.09508598, 0.10280037, 10.135786
1124370594157567, 5.5657053, 0.317049, 8.347362, 0.38595593, -0.027061462, 10.0302725
1124370603797775, 5.377869, -0.5766702, 8.523234, -0.5413196, -0.0238266, 10.079979
1124370613437983, 5.601598, 0.6329016, 8.496913, 0.6822413, 0.09958267, 10.173525
1124370623078192, 5.3922257, -0.54317075, 8.413164, -0.48694766, -0.08726835, 9.995386
1124370632718400, 5.517849, 0.10767702, 8.4347, 0.16095054, 0.0044813156, 10.078517
1124370642358608, 5.4795637, -0.078963146, 8.440681, -0.031134248, -0.014883995, 10.063586
1124370651998817, 5.4759746, 0.025124637, 8.439486, 0.06830251, 0.015924454, 10.060165
1124370661639025, 5.485546, -0.020338992, 8.413164, 0.03115213, -0.02050209, 10.043484
1124370671279233, 5.505885, -0.016749758, 8.403593, 0.03956759, -0.046198368, 10.046479
1124370680919442, 5.4867425, -0.02751746, 8.475378, 0.015056729, 0.004245281, 10.09638
1124370690559650, 5.4412785, -0.0526421, 8.480164, -0.019342065, 0.035976887, 10.075803
1124370700199754, 5.453243, -0.05742774, 8.467003, -0.019506216, 0.018358707, 10.071275
1124370709839962, 5.444868, -0.06460621, 8.444271, -0.024964452, 0.0103292465, 10.047674
1124370719480171, 5.444868, -0.061016977, 8.483752, -0.025394201, 0.029637814, 10.080815
1124370729120379, 5.436493, -0.046660043, 8.440681, -0.006129384, 0.0145196915, 10.040044
1124370738760587, 5.471189, -0.06460621, 8.458628, -0.018323183, -0.010016441, 10.074027
1124370748400796, 5.447261, -0.043070808, 8.496913, -0.0061160326, 0.033108234, 10.093113
1124370758041004, 5.454439, -0.08135597, 8.362915, -0.023784995, -0.05326748, 9.984613
1124370767681212, 5.4520464, -0.032303106, 8.453842, 0.0108881, 0.004313946, 10.059481
1124370777321421, 5.4676, -0.04426722, 8.480164, -8.6236E-4, 0.0023384094, 10.090084
1124370786961629, 5.4987063, -0.059820566, 8.446664, -0.0049295425, -0.04838562, 10.078846
1124370796601837, 5.4759746, -0.06699903, 8.471788, -0.021046877, -0.019183636, 10.087675
1124370806242046, 5.4891353, -0.040677983, 8.476574, 0.006583214, -0.019916058, 10.098719
1124370815882254, 5.471189, -0.023928227, 8.435896, 0.023580909, -0.021430016, 10.054739
1124370825522462, 5.4424753, -0.0059820567, 8.437093, 0.033744097, 0.007797718, 10.040114
1124370835162671, 5.4233327, -0.021535404, 8.438289, 0.010903597, 0.021702766, 10.030809
1124370844802879, 5.426922, -0.02871387, 8.455039, 0.002655983, 0.025369644, 10.046858
1124370854443087, 5.430511, -0.031106694, 8.489735, -0.005623102, 0.041312218, 10.077961
1124370864083296, 5.428118, -0.047856454, 8.4682, -0.01908362, 0.027246952, 10.058632
1124370873723504, 5.4795637, -0.04546363, 8.439486, -5.2440166E-4, -0.029763222, 10.062392
1124370883363712, 5.4592247, -0.0071784677, 8.444271, 0.031383276, -0.0023036003, 10.055244
1124370893003921, 5.447261, -0.022731815, 8.476574, 0.0095283985, 0.01982069, 10.075962
1124370902644129, 5.444868, -0.041874398, 8.469396, -0.009752631, 0.012631416, 10.068702
1124370912284337, 5.4436717, -0.043070808, 8.456235, -0.009361982, 0.006398678, 10.056997
1124370921924546, 5.4436717, -0.03589234, 8.476574, -0.0063409805, 0.021868706, 10.074058
1124370931564754, 5.444868, -0.016749758, 8.489735, 0.010228038, 0.034431934, 10.085691
1124370941204962, 5.4592247, -0.041874398, 8.4813595, -0.010801077, 0.012722015, 10.086529
1124370950845171, 5.4293146, -0.03708875, 8.459825, -0.0100957155, 0.026878834, 10.052197
1124370960485379, 5.4376893, -0.033499517, 8.46102, -0.0051133633, 0.021593094, 10.057731
1124370970125587, 5.4819565, -0.02751746, 8.455039, 0.011208653, -0.016504288, 10.076701
1124370979765796, 5.4903316, -0.03708875, 8.432307, 0.0061928034, -0.038226604, 10.062177
1124370989406004, 5.4664035, -0.034695927, 8.4347, 0.0022296906, -0.015808582, 10.051203
1124370999046212, 5.4484572, -0.038285162, 8.457432, -0.007898688, 0.009959221, 10.060573
1124371008686421, 5.4819565, -0.019142581, 8.46461, 0.016848326, -0.00833416, 10.084715
1124371018326629, 5.4640107, -0.0059820567, 8.467003, 0.026072025, 0.01089859, 10.076943
1124371027966837, 5.4460645, -0.02632105, 8.451449, 0.0047227144, 0.012168407, 10.054211
1124371037607046, 5.4556355, -0.02632105, 8.449057, 0.006152272, 0.0032544136, 10.057394
1124371047247254, 5.4592247, -0.031106694, 8.453842, 0.0016531944, 0.0016326904, 10.063375
1124371056887462, 5.4891353, -0.05742774, 8.4682, -0.018518329, -0.022570133, 10.091753
1124371066527671, 5.4723854, -0.09810573, 8.449057, -0.0578835, -0.03076458, 10.066722
1124371076167879, 5.456832, -0.08853444, 8.438289, -0.05022788, -0.018240929, 10.049215
1124371085808087, 5.4795637, -0.031106694, 8.423932, 0.012595415, -0.025937557, 10.049298
1124371095448296, 5.4628143, -0.0059820567, 8.453842, 0.02839899, 0.009892464, 10.065234
1124371105088504, 5.4628143, 0.0023928226, 8.459825, 0.034746528, 0.017852306, 10.070227
1124371114728712, 5.4676, 0.0023928226, 8.469396, 0.03357482, 0.020413876, 10.080861
1124371124368921, 5.4580283, 0.015553347, 8.444271, 0.046827078, 0.019416332, 10.054525
1124371134009129, 5.4699926, -0.0011964113, 8.447861, 0.03159046, 0.007910252, 10.064101
1124371143649337, 5.4640107, -0.041874398, 8.452646, -0.009664178, 0.0047712326, 10.065003
1124371153289546, 5.4687963, -0.062213387, 8.441878, -0.027089477, -0.009963989, 10.058632
1124371162929754, 5.4903316, -0.076570325, 8.459825, -0.03811741, -0.020518303, 10.085453
1124371172569962, 5.495117, -0.046660043, 8.4682, -0.009229422, -0.010369778, 10.094984
1124371182210171, 5.4927244, -0.043070808, 8.445468, -0.0041772127, -0.016983032, 10.074597
1124371191850379, 5.5130634, -0.02751746, 8.446664, 0.014413118, -0.02693367, 10.086617
1124371201490587, 5.495117, -0.020338992, 8.421539, 0.020611167, -0.023312569, 10.05575
1124371211130796, 5.4687963, -0.0035892338, 8.379665, 0.03677869, -0.020104885, 10.006237
1124371220771004, 5.4759746, -0.0059820567, 8.398808, 0.033577442, -0.01689291, 10.026209
1124371230411212, 5.5022955, 0.025124637, 8.43111, 0.064642906, -0.015244484, 10.067528
1124371240051421, 5.471189, 0.0, 8.444271, 0.031463742, 0.009046078, 10.061736
1124371249691629, 5.4484572, -0.0035892338, 8.4502535, 0.022631526, 0.029861927, 10.054405
1124371259331837, 5.4424753, -0.033499517, 8.483752, -0.011142373, 0.043647766, 10.07937
1124371268972046, 5.4221363, -0.07298109, 8.514859, -0.05551684, 0.065374374, 10.094571
1124371278612254, 5.4376893, -0.10289137, 8.49452, -0.07922351, 0.03511572, 10.086052
1124371288252462, 5.4221363, -0.08135597, 8.472985, -0.056396604, 0.038642883, 10.059473
1124371297892671, 5.4317074, -0.06580263, 8.446664, -0.034775853, 0.019497395, 10.042526
1124371307532879, 5.4496536, -0.029910283, 8.459825, 0.002052784, 0.019620895, 10.063194
1124371317173087, 5.515456, 0.0023928226, 8.458628, 0.046280444, -0.028534412, 10.097806
1124371326813400, 5.515456, -0.010767702, 8.433503, 0.034719884, -0.043358803, 10.076768
1124371336453608, 5.5106707, -0.02632105, 8.421539, 0.019366562, -0.047122, 10.064189
1124371346093817, 5.493921, -0.01794617, 8.432307, 0.022761464, -0.023733139, 10.064106
1124371355734025, 5.473582, -0.02632105, 8.428718, 0.010074854, -0.010196209, 10.050069
1124371365374233, 5.453243, -0.038285162, 8.432307, -0.0066759586, 0.004784107, 10.042065
1124371375014442, 5.4125648, -0.015553347, 8.426325, 0.007999659, 0.03818798, 10.014865
1124371384654650, 5.3970113, -0.009571291, 8.443074, 0.007575989, 0.061243534, 10.020456
1124371394294858, 5.4257255, -0.02632105, 8.471788, -0.005361676, 0.045587063, 10.060233
1124371403935067, 5.4687963, -0.05742774, 8.5220375, -0.032138705, 0.026052475, 10.12593
1124371413575275, 5.465207, -0.050249275, 8.525627, -0.026028514, 0.031285286, 10.126978
1124371423215483, 5.436493, -0.046660043, 8.428718, -0.015004396, 0.0028915405, 10.029989
1124371432855692, 5.473582, -0.05623133, 8.400003, -0.011379242, -0.04498291, 10.026025
1124371442495900, 5.5166526, -0.059820566, 8.414361, -0.0072085857, -0.07197237, 10.061476
1124371452136108, 5.5130634, -0.050249275, 8.435896, -0.0018613338, -0.055233955, 10.077583
1124371461776317, 5.495117, -0.023928227, 8.426325, 0.020977378, -0.03503418, 10.05973
1124371471416629, 5.477171, -0.01794617, 8.419147, 0.02301228, -0.021600723, 10.0439415
1124371481056837, 5.4927244, -0.03708875, 8.469396, 8.945465E-4, -0.012832165, 10.094646
1124371490697046, 5.4843497, -0.032303106, 8.469396, 0.003243804, -0.005665779, 10.090082
1124371500337254, 5.4376893, -0.011964113, 8.439486, 0.017084956, 0.021521568, 10.03956
1124371509977462, 5.406583, -0.0023928226, 8.410771, 0.025231361, 0.025863647, 9.998546
1124371519617671, 5.45085, -0.0023928226, 8.475378, 0.026224613, 0.023633957, 10.076833
1124371529257879, 5.473582, -0.016749758, 8.536395, 0.010809779, 0.02481699, 10.140497
1124371538898087, 5.4783673, -0.022731815, 8.492127, 0.0122721195, -0.009262562, 10.105891
1124371548538296, 5.38744, -0.0526421, 8.428718, -0.027314186, 0.024268627, 10.003462
1124371558178504, 5.426922, -0.0849452, 8.438289, -0.049556136, -0.020042896, 10.032973
1124371567818712, 5.4113684, -0.058624156, 8.5220375, -0.03941548, 0.043192387, 10.094951
1124371577458921, 5.4293146, -0.008374879, 8.4502535, 0.024921298, 0.0020256042, 10.044087
1124371587099129, 5.4592247, -0.06460621, 8.403593, -0.014533162, -0.0648818, 10.02114
1124371596739442, 5.432904, -0.020338992, 8.443074, 0.01554358, -0.013202667, 10.040017
