timestamp_acc,device_acc_x,device_acc_y,device_acc_z,earth_acc_x,earth_acc_y,earth_acc_z
1123884745817176, 3.1322048, -0.050249275, 9.285348, -0.15189156, 0.08488464, 9.797994
1123884755456238, 3.3523445, 0.03589234, 9.393025, -0.04546818, -0.07884073, 9.972972
1123884765095301, 3.4253256, 0.14476576, 9.487542, 0.07030466, -0.11767912, 10.087044
1123884774734467, 3.3822548, 0.18664017, 9.549755, 0.10215908, -0.05307579, 10.13208
1123884784373530, 3.3523445, 0.19860429, 9.567701, 0.11062738, -0.017925262, 10.139329
1123884794012592, 3.3152559, 0.17826529, 9.487542, 0.08593181, -0.0049722195, 10.051306
1123884803651655, 3.3020952, 0.15553348, 9.399008, 0.06418109, -0.021899223, 9.96317
1123884813290822, 3.2817562, 0.13280165, 9.366704, 0.041152716, -0.015309334, 9.925762
1123884822929884, 3.2853456, 0.10049855, 9.342776, 0.0085095465, -0.028723001, 9.904048
1123884832568947, 3.2554352, 0.05383851, 9.403793, -0.043482065, 0.014303446, 9.951381
1123884842208009, 3.257828, 0.13399807, 9.519845, 0.031664878, 0.057666063, 10.062532
1123884851847176, 3.2554352, 0.14476576, 9.455238, 0.04560858, 0.038817644, 10.000838
1123884861486238, 3.231507, 0.08135597, 9.504292, -0.02218473, 0.06867409, 10.038706
1123884871125301, 3.2350962, 0.11006984, 9.52822, 0.006189853, 0.07409859, 10.062775
1123884880764363, 3.2805598, 0.17706887, 9.505488, 0.07827079, 0.031175375, 10.05687
1123884890403530, 3.3284163, 0.24047868, 9.444471, 0.14932528, -0.027682304, 10.015546
1123884900042592, 3.2817562, 0.25722843, 9.461221, 0.15989253, 0.025698662, 10.016215
1123884909681655, 3.3128629, 0.18305093, 9.538987, 0.08573681, 0.014114857, 10.099174
1123884919320717, 3.3224342, 0.1902294, 9.45165, 0.094450325, -0.019578457, 10.0199375
1123884928959884, 3.438486, 0.1591227, 9.334401, 0.073616356, -0.16796088, 9.947156
1123884938598947, 3.3008988, 0.076570325, 9.394221, -0.023489892, -0.02115941, 9.95752
1123884948238009, 3.2913275, 0.076570325, 9.349955, -0.02421546, -0.020872831, 9.912585
1123884957877072, 3.394219, 0.06819545, 9.323633, -0.022252977, -0.12641764, 9.921646
1123884967516238, 3.2877383, 0.09451649, 9.44806, -0.0073421, 0.016900063, 10.004182
1123884977155301, 3.2721848, 0.047856454, 9.542577, -0.05647251, 0.060651064, 10.087785
1123884986794363, 3.2817562, 0.04546363, 9.552148, -0.053607523, 0.0517385, 10.0999975
1123884996433426, 3.3032916, 0.0634098, 9.542577, -0.03322822, 0.030381203, 10.098242
1123885006072488, 3.306881, 0.0741775, 9.519845, -0.020430326, 0.01998663, 10.078076
1123885015711655, 3.3320055, 0.09930214, 9.400204, 0.011622548, -0.03781724, 9.973685
1123885025350717, 3.3260236, 0.2548356, 9.242277, 0.17202187, -0.053888083, 9.8241825
1123885034989780, 3.347559, 0.30029923, 9.237492, 0.21933272, -0.071383476, 9.827226
1123885044628842, 3.359523, 0.015553347, 9.367901, -0.07271993, -0.05045843, 9.951702
1123885054268009, 3.379862, -0.37686956, 9.635897, -0.47250757, -0.023624897, 10.2074585
1123885063907072, 3.406183, -0.38644084, 9.582058, -0.4631414, -0.065499544, 10.166045
1123885073546134, 3.3619158, -0.17826529, 9.542577, -0.25382704, 0.0027852058, 10.115858
1123885083185197, 3.278167, -0.096909314, 9.470792, -0.17961067, 0.067975044, 10.020719
1123885092824363, 3.3032916, -0.011964113, 9.335598, -0.08348438, 0.024759293, 9.90241
1123885102463426, 3.3619158, -0.0011964113, 8.219346, -0.008876771, -0.3894832, 8.871773
1123885112102488, 3.7363925, -0.06819545, 8.873783, -0.059201688, -0.5189395, 9.614391
1123885121741551, 3.4253256, 0.18305093, 9.608379, 0.12609693, 0.118801594, 10.20085
1123885131380613, 3.3080773, 0.38883367, 9.503095, 0.32411817, 0.21407962, 10.062431
1123885141019780, 3.4983068, 0.076570325, 9.54138, 0.030155152, 0.022435427, 10.1627035
1123885150658842, 3.5270207, 0.040677983, 9.74477, -0.010922581, 0.061319113, 10.363311
1123885160297905, 3.4528432, 0.20458634, 9.68495, 0.14835936, 0.13158369, 10.2821665
1123885169936967, 3.4253256, 0.33379877, 9.616755, 0.27468386, 0.15886188, 10.209092
1123885179576134, 3.4241292, 0.29312077, 9.595219, 0.23739865, 0.1443007, 10.188307
1123885189215197, 3.493521, 0.21535404, 9.506684, 0.16328216, 0.04613495, 10.129132
1123885198854259, 3.5365918, 0.039481573, 9.285348, -0.003388226, -0.08983493, 9.935726
1123885208493322, 3.574877, -0.10289137, 9.060423, -0.13742396, -0.21348429, 9.73741
1123885218132384, 3.574877, -0.22253251, 9.071191, -0.25574493, -0.20603919, 9.747202
1123885227771551, 3.414558, -0.23090738, 9.29133, -0.28035748, 0.036529303, 9.897547
1123885237410613, 3.3834512, -0.11964113, 9.471989, -0.1769742, 0.141891, 10.0563
1123885247049676, 3.4707892, -0.029910283, 9.41815, -0.07276857, 0.060144424, 10.036927
1123885256688738, 3.5186458, 0.021535404, 9.390633, -0.011302084, 0.016328812, 10.028208
1123885266327905, 3.4121652, 0.016749758, 9.554541, -0.027422667, 0.17782807, 10.143967
1123885275966967, 3.4456646, 0.0741775, 9.698111, 0.03145328, 0.20483398, 10.290215
1123885285606030, 3.5413775, 0.12562318, 9.646665, 0.093538046, 0.10197997, 10.275996
1123885295245092, 3.546163, 0.11006984, 9.4839525, 0.08121893, 0.032744646, 10.125466
1123885304884155, 3.5090744, 0.078963146, 9.416953, 0.047637522, 0.04003644, 10.049625
1123885314523322, 3.5365918, 0.032303106, 9.342776, 0.005636722, -0.015431881, 9.989781
1123885324162384, 3.546163, 0.013160525, 9.297313, -0.012114078, -0.044353485, 9.950546
1123885333801447, 3.583252, 0.0071784677, 9.227921, -0.013040036, -0.10908222, 9.898596
1123885343440509, 3.603591, -0.023928227, 9.2075815, -0.041804403, -0.13779068, 9.8866205
1123885353079572, 3.5653057, -0.016749758, 9.242277, -0.037386835, -0.08915138, 9.905657
1123885362718738, 3.548556, -0.019142581, 9.27817, -0.041909114, -0.056572914, 9.933382
1123885372357801, 3.5473595, 0.0035892338, 9.343972, -0.019561261, -0.024755478, 9.994628
1123885381996863, 3.5377884, 0.07537391, 9.428918, 0.05046919, 0.026206732, 10.070892
1123885391635926, 3.4923246, 0.11485548, 9.515059, 0.084548414, 0.107964754, 10.135438
1123885401275092, 3.51386, 0.13040884, 9.498309, 0.10239318, 0.085318565, 10.127405
1123885410914155, 3.505485, 0.11485548, 9.428918, 0.08716619, 0.06554413, 10.059534
1123885420553217, 3.487539, 0.0741775, 9.387043, 0.044129282, 0.05827117, 10.013972
1123885430192280, 3.4683964, 0.02751746, 9.427721, -0.004985422, 0.08653855, 10.045145
1123885439831342, 3.4372897, 0.021535404, 9.461221, -0.01646465, 0.12040973, 10.065554
1123885449470509, 3.4420755, -0.02751746, 9.480363, -0.066316485, 0.11762452, 10.085024
1123885459109572, 3.426522, -0.02751746, 9.486345, -0.06805223, 0.12745953, 10.085221
1123885468748634, 3.528217, 0.0047856453, 9.427721, -0.02371332, 0.0075244904, 10.066263
1123885478387697, 3.5928233, -0.02751746, 9.220742, -0.041220367, -0.13722777, 9.894982
1123885488026759, 3.6000016, -0.022731815, 9.194421, -0.036251247, -0.15534377, 9.872815
1123885497665926, 3.5676985, -0.022731815, 9.253045, -0.042432547, -0.104379416, 9.916408
1123885507304988, 3.5772698, -0.009571291, 9.229117, -0.028292447, -0.11645508, 9.897436
1123885516944051, 3.566502, 0.011964113, 9.232706, -0.006713897, -0.09788537, 9.897137
1123885526583113, 3.51386, 0.0035892338, 9.32483, -0.021355063, -0.017190695, 9.964886
1123885536222176, 3.507878, 0.009571291, 9.37149, -0.017053306, 0.0075666904, 10.006487
1123885545861342, 3.495914, -0.0071784677, 9.474381, -0.03649886, 0.050911427, 10.098588
1123885555500405, 3.455236, -0.0023928226, 9.522238, -0.037695467, 0.10195851, 10.129158
1123885565139467, 3.434897, -0.0011964113, 9.565309, -0.03916323, 0.13196492, 10.162417
1123885574778530, 3.4229329, 0.038285162, 9.583255, -0.002103448, 0.14835882, 10.1751995
1123885584417592, 3.4277184, 0.0741775, 9.550952, 0.03457403, 0.13157296, 10.14677
1123885594056759, 3.4600215, 0.069391854, 9.454042, 0.035847723, 0.062773466, 10.067287
1123885603695822, 3.458825, 0.05383851, 9.312865, 0.02481094, 0.009613752, 9.934542
1123885613334884, 3.528217, 0.0526421, 9.209974, 0.033794314, -0.09284043, 9.862299
1123885622973947, 3.522235, 0.011964113, 9.171689, -0.00618878, -0.10491943, 9.824209
1123885632613009, 3.5557344, 0.011964113, 9.196814, -0.007045388, -0.12643218, 9.859449
1123885642252176, 3.5437703, -0.014356935, 9.280562, -0.03741902, -0.08367801, 9.933729
1123885651891238, 3.5617166, -0.01794617, 9.379865, -0.041653723, -0.06522918, 10.033049
1123885661530301, 3.5533416, 0.03708875, 9.420543, 0.01075241, -0.038170815, 10.068399
1123885671169363, 3.5042887, 0.07298109, 9.501899, 0.040893495, 0.039595842, 10.127596
1123885680808426, 3.4947174, 0.08973085, 9.505488, 0.057487935, 0.051095963, 10.12766
1123885690447592, 3.5090744, 0.124426775, 9.424132, 0.09576973, 0.009872198, 10.056545
1123885700086655, 3.4719856, 0.07298109, 9.407382, 0.03950119, 0.031552553, 10.027775
1123885709725717, 3.4672, 0.049052864, 9.381062, 0.015887976, 0.025102854, 10.001365
1123885719364780, 3.4396825, 0.039481573, 9.382257, 0.0018540621, 0.044552565, 9.992884
1123885729003947, 3.4301112, 0.0059820567, 9.403793, -0.033233076, 0.057819366, 10.0096245
1123885738643009, 3.4600215, 0.010767702, 9.379865, -0.025384575, 0.012607574, 9.997646
1123885748282072, 3.495914, -0.0023928226, 9.370294, -0.03491369, -0.028936863, 10.00109
1123885757921134, 3.5856447, -0.039481573, 9.286545, -0.060285687, -0.1453855, 9.95357
1123885767560197, 3.4360933, -0.06819545, 9.182457, -0.09824091, -0.046172857, 9.803933
1123885777199259, 3.5808592, -0.02632105, 9.391829, -0.04893461, -0.10127282, 10.050723
1123885786838426, 3.481557, 0.10049855, 9.562916, 0.06227997, 0.07064581, 10.177024
1123885796477488, 3.4193435, 0.08015956, 9.260223, 0.049453795, 0.023777485, 9.871529
1123885806116551, 3.5090744, -0.18185452, 9.32483, -0.20425092, -0.06940079, 9.96256
1123885815755613, 3.5473595, 0.6269195, 9.537791, 0.59342664, 0.061739206, 10.177932
1123885825394676, 3.3008988, -0.48095736, 9.286545, -0.5285815, 0.070525885, 9.85306
1123885835033842, 3.7304106, 0.47138608, 9.643075, 0.4497236, -0.08565879, 10.340092
1123885844672905, 3.2219357, -0.14117654, 9.366704, -0.20480588, 0.20605135, 9.902098
1123885854311967, 3.6023946, -0.015553347, 9.404989, -0.03467533, -0.11725736, 10.07057
1123885863951030, 3.4504502, 0.36610186, 9.534202, 0.32465792, 0.1084702, 10.140191
1123885873590092, 3.4983068, -0.50488555, 9.196814, -0.52144724, -0.15066338, 9.837674
1123885883229259, 3.5401812, 0.50009996, 9.2997055, 0.48059258, -0.044689417, 9.9516115
1123885892868322, 3.3667014, -0.8745767, 9.15494, -0.906873, -0.07517123, 9.751124
1123885902507384, 3.5030923, 0.5479564, 9.54138, 0.5215031, 0.08114576, 10.165201
1123885912146447, 3.2961133, -0.6436693, 9.224331, -0.6713238, 0.04155469, 9.793599
1123885921785509, 3.6753755, 0.48215377, 9.65504, 0.46073744, -0.04944253, 10.331792
1123885931424572, 3.2805598, -0.078963146, 9.391829, -0.11323333, 0.17249656, 9.946466
1123885941063738, 3.6059837, 0.16031912, 9.486345, 0.14744392, -0.072156906, 10.14853
1123885950702801, 3.379862, 0.5288138, 9.457631, 0.49195758, 0.16885662, 10.043871
1123885960341863, 3.463611, -0.28235307, 9.3511505, -0.31163913, -0.032278776, 9.971069
1123885969980926, 3.4504502, 0.81595254, 9.580862, 0.76994896, 0.17655325, 10.185299
1123885979619988, 3.4372897, -0.6233303, 9.273384, -0.6443245, -0.07711625, 9.888278
1123885989259155, 3.6083765, 0.7190432, 9.540184, 0.6934558, 0.0019404888, 10.201552
1123885998898217, 3.347559, -0.7106683, 9.253045, -0.75376296, -0.012188435, 9.836756
1123886008537280, 3.7567315, 0.34097722, 9.445667, 0.3365035, -0.22032571, 10.163076
1123886018176342, 3.3284163, -0.4319045, 9.001799, -0.46079493, -0.04586792, 9.595982
1123886027815405, 3.6370904, -0.09810573, 9.3511505, -0.112407506, -0.18302655, 10.031748
1123886037454572, 3.2877383, 0.276371, 9.413364, 0.23440501, 0.2130549, 9.96979
1123886047093634, 3.4767714, -0.3924229, 9.290133, -0.40637422, -0.07638407, 9.918545
1123886056732697, 3.5306098, 0.70947194, 9.585648, 0.68754846, 0.091358185, 10.216269
1123886066371759, 3.4013975, -0.72023964, 9.3200445, -0.73658156, -0.032764435, 9.9200735
1123886076010822, 3.6167514, 0.7393822, 9.760324, 0.7064637, 0.07935023, 10.410865
1123886085649884, 3.3296127, -0.6041877, 9.342776, -0.6297152, 0.05364108, 9.916624
1123886095289051, 3.739982, 0.552742, 9.527023, 0.55458593, -0.13266635, 10.233866
1123886104928113, 3.333202, -0.19860429, 9.2793665, -0.23312789, 0.07834816, 9.858796
1123886114567176, 3.586841, 0.15433706, 9.4432745, 0.13959903, -0.06927323, 10.101504
1123886124206238, 3.330809, 0.3361916, 9.311669, 0.30006507, 0.14498186, 9.889563
1123886133845301, 3.5330026, -0.33020952, 9.300901, -0.3475988, -0.12719202, 9.947911
1123886143484467, 3.4707892, 0.66161543, 9.437292, 0.62710345, 0.08186269, 10.057169
1123886153123530, 3.426522, -0.75254273, 9.072387, -0.77397716, -0.14906454, 9.695066
1123886162762592, 3.6598222, 0.63170516, 9.375079, 0.6271476, -0.11486459, 10.063745
1123886172401655, 3.2817562, -0.8350951, 9.169296, -0.86988735, 0.02649355, 9.735805
1123886182040717, 3.6335013, 0.48933223, 9.683753, 0.46112332, 0.008715391, 10.344281
1123886191679780, 3.3044882, -0.34217364, 9.372686, -0.3712064, 0.121429205, 9.936371
1123886201318947, 3.6813576, 0.13280165, 9.549755, 0.124038905, -0.11725712, 10.234193
1123886210958009, 3.35713, 0.22492532, 9.476774, 0.19517687, 0.16924262, 10.05303
1123886220597072, 3.5246277, -0.28235307, 9.458828, -0.29486227, -0.03762245, 10.093751
1123886230236134, 3.5066817, 0.71665037, 9.543773, 0.69105613, 0.10232997, 10.168873
1123886239875197, 3.4420755, -0.6257231, 9.226724, -0.634907, -0.07748866, 9.846969
1123886249514259, 3.542574, 0.79920274, 9.582058, 0.76810527, 0.080129385, 10.218024
1123886259153426, 3.2506495, -0.6759724, 9.230313, -0.7047149, 0.076972485, 9.7836485
1123886268792488, 3.5988052, 0.59342, 9.5665045, 0.5664559, 8.676052E-4, 10.222558
1123886278431551, 3.324827, -0.4235296, 9.172886, -0.44447798, 0.0093176365, 9.755924
1123886288070613, 3.6993039, 0.033499517, 9.24826, 0.04396519, -0.26547575, 9.957101
1123886297709676, 3.3128629, 0.009571291, 9.290133, -0.023428738, 0.11595535, 9.862441
1123886307348842, 3.5006995, -0.4331009, 9.394221, -0.4465301, -0.07067227, 10.024445
1123886316987905, 3.4325042, 0.5312066, 9.553345, 0.49893594, 0.15778923, 10.151691
1123886326626967, 3.4301112, -0.6771688, 9.348758, -0.68418163, -0.0504539, 9.957552
1123886336266030, 3.5964124, 0.8063812, 9.632308, 0.7878313, 0.061878204, 10.283058
1123886345905092, 3.3487554, -0.65324056, 9.267402, -0.6619345, 0.009502888, 9.853292
1123886355544155, 3.6693935, 0.69152576, 9.644272, 0.6795169, -0.016180277, 10.319528
1123886365183322, 3.3403804, -0.33738798, 9.260223, -0.35029447, 0.051629543, 9.843697
1123886374822384, 3.6598222, 0.32662028, 9.452846, 0.3278986, -0.11433458, 10.135911
1123886384461447, 3.3583267, 0.16510476, 9.275777, 0.14101312, 0.088332415, 9.864986
1123886394100509, 3.5736806, -0.20817557, 9.304491, -0.21572253, -0.14168453, 9.966015
1123886403739572, 3.4408789, 0.6197411, 9.504292, 0.59648097, 0.11586094, 10.108712
1123886413378738, 3.4289148, -0.59940207, 9.326026, -0.6253594, -0.02768135, 9.934771
1123886423017801, 3.591627, 0.6987042, 9.553345, 0.6853566, -0.0072579384, 10.207086
1123886432656863, 3.3583267, -0.84107715, 9.163314, -0.8550462, -0.05403495, 9.757974
1123886442295926, 3.6646078, 0.4833502, 9.46481, 0.48336592, -0.116984844, 10.148806
1123886451934988, 3.2805598, -0.64606214, 9.177671, -0.66413295, 0.04347396, 9.745057
1123886461574051, 3.6143587, 0.12323037, 9.534202, 0.11042988, -0.072068214, 10.196195
1123886471213217, 3.3176486, -0.05503492, 9.390633, -0.07447086, 0.14264965, 9.958309
1123886480852280, 3.6263227, -0.18783657, 9.399008, -0.18351516, -0.15229464, 10.073232
1123886490491342, 3.4660037, 0.5347959, 9.485149, 0.5224221, 0.08796024, 10.098842
1123886500130405, 3.4480574, -0.54317075, 9.346365, -0.5528051, -0.04361391, 9.961486
1123886509769467, 3.5150564, 0.8542377, 9.676575, 0.83405167, 0.13515544, 10.295996
1123886519408530, 3.3320055, -0.62093747, 9.2590275, -0.6421726, 0.027039051, 9.838918
1123886529047697, 3.6167514, 0.74416786, 9.572487, 0.74160314, -2.2745132E-4, 10.233144
1123886538686759, 3.2913275, -0.47736812, 9.236296, -0.49211183, 0.06616545, 9.804251
1123886548325822, 3.6753755, 0.30508488, 9.487542, 0.30175114, -0.12985396, 10.17384
1123886557964884, 3.3523445, -0.040677983, 9.314062, -0.060084492, 0.070283175, 9.898641
1123886567603947, 3.6191442, -0.21296121, 9.296116, -0.20753245, -0.2033689, 9.97381
1123886577243009, 3.4420755, 0.37806597, 9.305687, 0.36228266, 0.023869991, 9.922439
1123886586882176, 3.4360933, -0.654437, 9.270991, -0.65783346, -0.0972147, 9.886562
1123886596521238, 3.4839497, 0.695115, 9.616755, 0.6662327, 0.1467104, 10.229255
1123886606160301, 3.298506, -0.75254273, 9.211171, -0.7614666, 0.022426844, 9.783241
1123886615799363, 3.609573, 0.6855437, 9.54138, 0.69012785, -0.0036809444, 10.20101
1123886625438426, 3.249453, -0.5455636, 9.293723, -0.5712131, 0.11419082, 9.8433
1123886635077592, 3.6191442, 0.37447673, 9.650253, 0.3768535, -0.01684475, 10.306479
1123886644716655, 3.3092737, -0.076570325, 9.41815, -0.09665747, 0.14912987, 9.9813385
1123886654355717, 3.6011982, -0.1052842, 9.439685, -0.101356536, -0.119176626, 10.102618
1123886663994780, 3.3690944, 0.39720857, 9.487542, 0.3803475, 0.15915799, 10.067374
1123886673633842, 3.463611, -0.5599205, 9.336794, -0.5662294, -0.07326174, 9.957905
1123886683272905, 3.525824, 0.701097, 9.554541, 0.6866908, 0.06952262, 10.18508
1123886692912072, 3.37388, -0.7537391, 9.163314, -0.75228584, -0.066236496, 9.764588
1123886702551134, 3.6430724, 0.715454, 9.518648, 0.71012217, -0.06544232, 10.192152
1123886712190197, 3.2973096, -0.57906306, 9.190832, -0.5852462, 0.031996727, 9.763985
1123886721829259, 3.6717863, 0.39481574, 9.505488, 0.40681022, -0.11217165, 10.188923
1123886731468322, 3.306881, -0.19740787, 9.215957, -0.20929134, 0.06009698, 9.790857
1123886741107488, 3.586841, -0.13160525, 9.425328, -0.12523073, -0.116043806, 10.084166
1123886750746551, 3.3786657, 0.33140594, 9.500702, 0.31240597, 0.15070343, 10.083068
1123886760385613, 3.5102708, -0.51086766, 9.317652, -0.50303864, -0.121819735, 9.956593
1123886770024676, 3.5437703, 0.70947194, 9.578469, 0.6982598, 0.06857419, 10.213543
1123886779663738, 3.3714871, -0.74416786, 9.251849, -0.7531204, -0.048939466, 9.8462105
1123886789302905, 3.6131623, 0.73100734, 9.635897, 0.7214937, 0.047292948, 10.2916
1123886798941967, 3.3032916, -0.6089734, 9.282955, -0.6286274, 0.0189507, 9.851919
1123886808581030, 3.6873398, 0.47258246, 9.578469, 0.48785692, -0.08246589, 10.262654
1123886818220092, 3.3236306, -0.18903299, 9.293723, -0.20049238, 0.07038283, 9.869669
1123886827859155, 3.609573, -0.039481573, 9.394221, -0.02729249, -0.13936329, 10.062892
1123886837498322, 3.3762727, 0.31345975, 9.41456, 0.29396605, 0.12964559, 10.00141
1123886847137384, 3.5114672, -0.47377887, 9.2590275, -0.46749225, -0.15014148, 9.901687
1123886856776447, 3.4899318, 0.68075806, 9.492328, 0.66657543, 0.08699274, 10.1141205
1123886866415509, 3.353541, -0.7513463, 9.170493, -0.74935687, -0.053944826, 9.764438
1123886876054572, 3.5712879, 0.74177504, 9.5353985, 0.74716383, 0.023744583, 10.181814
1123886885693634, 3.2530425, -0.67477596, 9.249456, -0.69464606, 0.08068895, 9.803113
1123886895332801, 3.6275191, 0.45702913, 9.580862, 0.4665824, -0.043341637, 10.244078
1123886904971863, 3.306881, -0.27756742, 9.311669, -0.28415018, 0.09725976, 9.880762
1123886914610926, 3.6011982, 0.047856454, 9.54497, 0.054903895, -0.06652403, 10.2014675
1123886924249988, 3.3810585, 0.2739782, 9.534202, 0.2582437, 0.16203737, 10.115071
1123886933889051, 3.5940197, -0.44506502, 9.359526, -0.43257633, -0.17862535, 10.024807
1123886943528217, 3.5126636, 0.6412765, 9.54138, 0.639187, 0.08545852, 10.167208
1123886953167280, 3.3822548, -0.7286145, 9.23151, -0.722854, -0.06335521, 9.831823
1123886962806342, 3.5892339, 0.7405786, 9.5557375, 0.7466186, 0.032245636, 10.207089
1123886972445405, 3.3320055, -0.7178468, 9.153743, -0.71361065, -0.043605328, 9.741533
1123886982084467, 3.6454654, 0.47018966, 9.509077, 0.47461706, -0.06716156, 10.183482
1123886991723634, 3.2590244, -0.35294133, 9.311669, -0.37069955, 0.10923171, 9.864262
1123887001362697, 3.6167514, 0.034695927, 9.474381, 0.047290742, -0.104494095, 10.140653
1123887011001759, 3.365505, 0.16390835, 9.38465, 0.1517359, 0.11407018, 9.969409
1123887020640822, 3.5174494, -0.42711884, 9.341579, -0.41526842, -0.11775136, 9.981667
1123887030279988, 3.4241292, 0.6113662, 9.567701, 0.59225017, 0.18368936, 10.161439
1123887039919051, 3.3846476, -0.6771688, 9.292527, -0.6696903, -0.0399158, 9.890166
1123887049558113, 3.5772698, 0.7956135, 9.639486, 0.80049634, 0.091724634, 10.281069
1123887059197176, 3.3320055, -0.6269195, 9.251849, -0.6360557, 0.0025537014, 9.832976
1123887068836238, 3.6550367, 0.6412765, 9.595219, 0.6449187, -0.024995565, 10.26753
1123887078475405, 3.2757742, -0.3385844, 9.29133, -0.34676188, 0.10990238, 9.850981
1123887088114467, 3.6335013, 0.14117654, 9.471989, 0.15408075, -0.11105323, 10.144198
1123887097753530, 3.377469, 0.14356937, 9.332008, 0.13188428, 0.0840776, 9.924205
1123887107392592, 3.586841, -0.37447673, 9.300901, -0.3556092, -0.18724775, 9.967494
1123887117031655, 3.4803605, 0.55393845, 9.525827, 0.5450561, 0.11466408, 10.141544
1123887126670822, 3.4408789, -0.74416786, 9.224331, -0.7313858, -0.13104224, 9.8452835
1123887136309884, 3.6311083, 0.7298109, 9.519845, 0.7301954, -0.007321596, 10.188808
1123887145948947, 3.3128629, -0.7848458, 9.206385, -0.7955914, -0.017590761, 9.78342
1123887155588009, 3.6143587, 0.4977071, 9.620343, 0.50706434, 0.022161722, 10.276415
1123887165227176, 3.2973096, -0.47736812, 9.288938, -0.4914328, 0.06774926, 9.855883
1123887174866238, 3.6083765, 0.1591227, 9.522238, 0.16604638, -0.062072515, 10.182695
1123887184505301, 3.324827, 0.061016977, 9.444471, 0.04642275, 0.16488504, 10.011338
1123887194144363, 3.554538, -0.32662028, 9.399008, -0.31387252, -0.11063957, 10.048483
1123887203783530, 3.4420755, 0.5946164, 9.560523, 0.5885093, 0.15625143, 10.160427
1123887213422592, 3.4277184, -0.6161518, 9.29133, -0.61668885, -0.055891275, 9.903247
1123887223061655, 3.5988052, 0.8446664, 9.560523, 0.85296595, 0.03936124, 10.214664
1123887232700717, 3.3547373, -0.61734825, 9.182457, -0.6112319, -0.024450779, 9.776436
1123887242339884, 3.7005002, 0.72741807, 9.534202, 0.7456688, -0.071059704, 10.2255945
1123887251978947, 3.345166, -0.41635114, 9.202796, -0.42842442, 0.0013914108, 9.791394
1123887261618009, 3.6394832, 0.22612174, 9.488738, 0.23865128, -0.09296918, 10.162064
1123887271257072, 3.3116665, -0.014356935, 9.391829, -0.038696975, 0.14852953, 9.957422
1123887280896134, 3.586841, -0.32422748, 9.390633, -0.3150076, -0.144763, 10.051584
1123887290535301, 3.4767714, 0.45104706, 9.495916, 0.439477, 0.083726406, 10.11255
1123887300174363, 3.4037902, -0.7429714, 9.306884, -0.74945426, -0.046471596, 9.90919
1123887309813426, 3.5042887, 0.67118675, 9.609575, 0.65552497, 0.1149497, 10.228956
1123887319452488, 3.298506, -0.78843504, 9.218349, -0.79002726, 0.010956049, 9.790581
1123887329091655, 3.6203406, 0.67477596, 9.626326, 0.6708797, 0.013311863, 10.284847
1123887338730717, 3.257828, -0.46779683, 9.303294, -0.4761781, 0.11751652, 9.856115
1123887348369780, 3.656233, 0.29790643, 9.530613, 0.3124257, -0.099030256, 10.206954
1123887358008947, 3.3200414, 0.0059820567, 9.355937, -0.009249687, 0.12846208, 9.926715
1123887367648009, 3.5593238, -0.18903299, 9.426525, -0.18226385, -0.09382582, 10.075806
1123887377287072, 3.4420755, 0.4989035, 9.488738, 0.48625457, 0.11554909, 10.093718
1123887386926134, 3.4947174, -0.58624154, 9.280562, -0.57395995, -0.13041902, 9.91661
1123887396565301, 3.5808592, 0.7537391, 9.54138, 0.7474199, 0.032450676, 10.19161
1123887406204363, 3.3547373, -0.7704889, 9.225528, -0.7686186, -0.040061235, 9.816614
1123887415843426, 3.6586258, 0.6329016, 9.580862, 0.643662, -0.03902316, 10.254912
1123887425482488, 3.2817562, -0.5766702, 9.213564, -0.5951294, 0.042778492, 9.779377
1123887435121655, 3.6203406, 0.31345975, 9.533006, 0.313523, -0.050153494, 10.197181
1123887444760717, 3.2817562, -0.061016977, 9.385847, -0.085773826, 0.17180824, 9.941375
1123887454399780, 3.574877, -0.16869399, 9.452846, -0.16014221, -0.096153736, 10.105918
1123887464038947, 3.4504502, 0.47736812, 9.500702, 0.4658369, 0.1215148, 10.107674
1123887473678009, 3.495914, -0.5419743, 9.306884, -0.5301895, -0.12159228, 9.941698
1123887483317072, 3.5353954, 0.72263247, 9.598808, 0.7151501, 0.11437678, 10.229067
1123887492956134, 3.3320055, -0.7405786, 9.276974, -0.74515563, -0.007683277, 9.856857
1123887502595301, 3.621537, 0.701097, 9.611969, 0.69161016, 0.04487729, 10.27213
1123887512234363, 3.3116665, -0.61734825, 9.200403, -0.6209532, 0.0020842552, 9.778042
1123887521873426, 3.6729827, 0.33020952, 9.498309, 0.33939952, -0.10123134, 10.1829405
1123887531512592, 3.3080773, -0.16630118, 9.3104725, -0.18269807, 0.099298, 9.879913
1123887541151655, 3.62393, -0.11246266, 9.44806, -0.09923461, -0.13528657, 10.118458
1123887550790717, 3.4408789, 0.41754755, 9.488738, 0.40380308, 0.12239599, 10.093172
1123887560429884, 3.5401812, -0.50488555, 9.314062, -0.48877525, -0.15659928, 9.963739
1123887570068947, 3.5880375, 0.71425754, 9.537791, 0.71676296, 0.039559603, 10.190109
1123887579708009, 3.4049866, -0.7585248, 9.243474, -0.7541077, -0.06891847, 9.850773
1123887589347072, 3.603591, 0.7262217, 9.628718, 0.71464586, 0.050002337, 10.281648
1123887598986238, 3.298506, -0.6161518, 9.226724, -0.63431644, 0.039316654, 9.797364
1123887608625301, 3.6454654, 0.43070808, 9.5557375, 0.43988907, -0.05093789, 10.226973
1123887618264363, 3.2446675, -0.16510476, 9.365508, -0.19057448, 0.19537926, 9.909258
1123887627903530, 3.5569308, -0.05383851, 9.461221, -0.051303744, -0.056601048, 10.107597
1123887637542592, 3.3523445, 0.37208393, 9.450453, 0.35446087, 0.17093587, 10.0266075
1123887647181655, 3.4624143, -0.47018966, 9.381062, -0.47647524, -0.041849375, 9.999245
1123887656820822, 3.4995031, 0.70348984, 9.615558, 0.6846448, 0.13283253, 10.232986
1123887666459884, 3.3966117, -0.74895346, 9.220742, -0.7573217, -0.06695223, 9.825577
1123887676098947, 3.6430724, 0.7513463, 9.564112, 0.7460029, -0.024486542, 10.234824
1123887685738113, 3.3343983, -0.64606214, 9.233903, -0.66117656, 0.007399082, 9.816484
1123887695377176, 3.6777685, 0.4103691, 9.5760765, 0.41137248, -0.07832837, 10.257694
1123887705016238, 3.3355947, -0.3361916, 9.249456, -0.34298098, 0.043582916, 9.832198
1123887714655405, 3.6670008, -0.07537391, 9.413364, -0.059177756, -0.18279481, 10.100847
1123887724294467, 3.4301112, 0.23090738, 9.387043, 0.2233243, 0.06586957, 9.994064
1123887733933530, 3.5605202, -0.4977071, 9.345169, -0.4854237, -0.15157127, 9.9999275
1123887743572697, 3.4923246, 0.6843473, 9.62154, 0.6766031, 0.14032364, 10.235292
1123887753211759, 3.3702908, -0.695115, 9.281759, -0.7056552, -0.0071208477, 9.873961
1123887762850822, 3.5856447, 0.79800636, 9.5964155, 0.80043066, 0.05568099, 10.244074
1123887772489988, 3.2709885, -0.63529444, 9.2075815, -0.65473795, 0.062651634, 9.769847
1123887782129051, 3.6023946, 0.5276174, 9.6275215, 0.5185548, 0.018428087, 10.279862
1123887791768113, 3.251846, -0.30029923, 9.363115, -0.3206676, 0.16362596, 9.909744
1123887801407280, 3.6311083, 0.023928227, 9.504292, 0.028156608, -0.10479617, 10.173756
1123887811046342, 3.3954153, 0.19262223, 9.366704, 0.18310115, 0.07805562, 9.963005
1123887820685405, 3.5270207, -0.47018966, 9.326026, -0.46452338, -0.118820906, 9.970246
1123887830324572, 3.505485, 0.613759, 9.529416, 0.60203135, 0.0762527, 10.154146
1123887839963634, 3.4253256, -0.72741807, 9.250652, -0.73129916, -0.085612774, 9.863795
1123887849602801, 3.6430724, 0.78364944, 9.613165, 0.77851623, -0.0027828217, 10.280706
1123887859241863, 3.3954153, -0.6580262, 9.220742, -0.6520587, -0.06309128, 9.826229
1123887868880926, 3.7124643, 0.56470615, 9.595219, 0.57879925, -0.085906506, 10.287231
1123887878520092, 3.2745779, -0.34097722, 9.336794, -0.3578033, 0.12965393, 9.892927
1123887888159155, 3.6059837, 0.10289137, 9.533006, 0.10151479, -0.057349205, 10.192071
1123887897798322, 3.345166, 0.18065812, 9.413364, 0.16156474, 0.15107274, 9.989258
1123887907437384, 3.5234313, -0.38165522, 9.400204, -0.37843207, -0.08377218, 10.038617
1123887917076447, 3.463611, 0.58504516, 9.5665045, 0.57387245, 0.13168025, 10.173997
1123887926715613, 3.4301112, -0.7573284, 9.268599, -0.7520826, -0.09217024, 9.8829155
1123887936354676, 3.60718, 0.70229346, 9.573684, 0.6947471, 9.5272064E-4, 10.231213
1123887945993738, 3.3343983, -0.76570326, 9.206385, -0.7657502, -0.018532038, 9.7915945
1123887955632905, 3.6693935, 0.55393845, 9.585648, 0.5671274, -0.050290585, 10.263128
1123887965271967, 3.3092737, -0.3696911, 9.269794, -0.3775776, 0.06608081, 9.842262
1123887974911134, 3.635894, 0.19381863, 9.531809, 0.19925734, -0.07465768, 10.201343
1123887984550197, 3.3786657, 0.148355, 9.402596, 0.13465181, 0.11368871, 9.990753
1123887994189259, 3.5844483, -0.3182454, 9.407382, -0.30807048, -0.13272953, 10.066572
1123888003828426, 3.4516466, 0.59700924, 9.572487, 0.58132744, 0.15671802, 10.175476
1123888013467488, 3.455236, -0.61016977, 9.3104725, -0.6162268, -0.07766795, 9.930262
1123888023106655, 3.5772698, 0.802792, 9.598808, 0.80005693, 0.06869817, 10.243712
1123888032745717, 3.3415768, -0.7118647, 9.201599, -0.7272867, -0.013861895, 9.788421
1123888042384884, 3.6478581, 0.5982057, 9.547362, 0.6040969, -0.051766396, 10.220041
1123888052023947, 3.2973096, -0.47018966, 9.237492, -0.4896817, 0.06944704, 9.80714
1123888061663009, 3.6658044, 0.148355, 9.507881, 0.1479514, -0.12654352, 10.189311
1123888071302176, 3.3750763, 0.021535404, 9.329616, 0.011467159, 0.0709579, 9.921098
1123888080941238, 3.5306098, -0.32662028, 9.419347, -0.328028, -0.07136488, 10.0589905
1123888090580405, 3.4325042, 0.52522457, 9.564112, 0.5135282, 0.13957214, 10.161054
1123888100219467, 3.4695928, -0.64247286, 9.318848, -0.64199835, -0.06663108, 9.943601
1123888109858634, 3.6083765, 0.78364944, 9.601201, 0.7731015, -0.0050029755, 10.257672
1123888119497697, 3.3343983, -0.6987042, 9.272188, -0.7043177, 0.042678833, 9.85302
1123888129136863, 3.6526437, 0.68195444, 9.6275215, 0.6838653, -0.02964878, 10.296965
1123888138775926, 3.3020952, -0.4642076, 9.200403, -0.48431462, 0.05587721, 9.773897
1123888148414988, 3.621537, 0.2727818, 9.503095, 0.27226698, -0.08268237, 10.169454
1123888158054155, 3.3128629, 0.032303106, 9.38465, 0.012502849, 0.14818478, 9.951162
1123888167693217, 3.5736806, -0.26081768, 9.436096, -0.26247573, -0.10691309, 10.089539
1123888177332384, 3.4360933, 0.44985065, 9.52822, 0.42959806, 0.12957191, 10.128904
1123888186971447, 3.473182, -0.66999036, 9.316455, -0.66965723, -0.10956502, 9.942222
1123888196610613, 3.5676985, 0.73818576, 9.585648, 0.71873844, 0.07170963, 10.229189
1123888206249676, 3.3320055, -0.74177504, 9.219545, -0.74914575, -0.019905806, 9.802597
1123888215888842, 3.6394832, 0.6939186, 9.631111, 0.6940338, 0.011845589, 10.295817
1123888225527905, 3.31047, -0.48095736, 9.24826, -0.5049536, 0.029408693, 9.821661
1123888235167072, 3.635894, 0.33379877, 9.585648, 0.32676414, -0.049310923, 10.2521515
1123888244806134, 3.318845, -0.032303106, 9.378669, -0.06188014, 0.1288073, 9.947603
1123888254445301, 3.5712879, -0.18783657, 9.437292, -0.18941829, -0.10696769, 10.089825
1123888264084363, 3.4193435, 0.4438686, 9.501899, 0.4177772, 0.14097762, 10.098546
1123888273723530, 3.4372897, -0.6233303, 9.357133, -0.6316707, -0.059005022, 9.967795
1123888283362592, 3.5318062, 0.6903293, 9.5760765, 0.6645709, 0.09466791, 10.207882
1123888293001759, 3.3487554, -0.7896315, 9.211171, -0.80848503, -0.05099535, 9.799343
1123888302640822, 3.641876, 0.6879365, 9.615558, 0.67352927, -0.003211975, 10.283085
1123888312279988, 3.318845, -0.5587241, 9.224331, -0.5702137, 0.013235807, 9.802545
1123888321919051, 3.6873398, 0.3696911, 9.531809, 0.36911243, -0.11138129, 10.2195835
1123888331558217, 3.347559, -0.0634098, 9.355937, -0.084186465, 0.08835769, 9.936238
1123888341197280, 3.6143587, -0.111266255, 9.509077, -0.11533183, -0.10838866, 10.172192
1123888350836447, 3.4719856, 0.45942193, 9.506684, 0.4390842, 0.08220935, 10.121425
1123888360475509, 3.5090744, -0.51086766, 9.315259, -0.5127302, -0.120624304, 9.953452
1123888370114676, 3.5294135, 0.7932207, 9.554541, 0.7789041, 0.07640433, 10.186397
1123888379753738, 3.3559337, -0.6843473, 9.225528, -0.7081422, -0.025168419, 9.815237
1123888389392905, 3.6131623, 0.74416786, 9.582058, 0.7238998, 0.009647131, 10.242091
1123888399031967, 3.2673993, -0.58504516, 9.183653, -0.60555995, 0.04281044, 9.746237
1123888408671134, 3.5976088, 0.39720857, 9.568898, 0.38824028, -0.014393091, 10.223183
1123888418310197, 3.2602208, -0.16510476, 9.4229355, -0.20314026, 0.17954803, 9.968677
1123888427949363, 3.5976088, -0.14356937, 9.506684, -0.14653414, -0.1082921, 10.164019
1123888437588426, 3.4073794, 0.33379877, 9.49472, 0.30253965, 0.12925482, 10.087771
1123888447227592, 3.5150564, -0.552742, 9.402596, -0.5564973, -0.11570549, 10.037275
1123888456866655, 3.5641093, 0.69152576, 9.58804, 0.6787888, 0.057780743, 10.229736
1123888466505822, 3.4109688, -0.73340017, 9.238688, -0.73809487, -0.091171265, 9.84748
1123888476144988, 3.6370904, 0.7645068, 9.547362, 0.7483624, -0.03175783, 10.217827
1123888485784051, 3.298506, -0.55513483, 9.249456, -0.5740982, 0.047231197, 9.818807
1123888495423217, 3.6550367, 0.48095736, 9.600004, 0.4654807, -0.049871206, 10.272854
1123888505062280, 3.3116665, -0.1698904, 9.292527, -0.19348432, 0.09401679, 9.864116
1123888514701447, 3.583252, -0.019142581, 9.426525, -0.027262151, -0.10351968, 10.084045
1123888524340509, 3.37388, 0.29910284, 9.437292, 0.26641178, 0.1313796, 10.022313
1123888533979676, 3.4827533, -0.5419743, 9.369097, -0.55317545, -0.09249258, 9.994434
1123888543618738, 3.473182, 0.64606214, 9.633504, 0.6223089, 0.13675761, 10.241036
1123888553257905, 3.345166, -0.7704889, 9.312865, -0.78764725, 0.0046191216, 9.894081
1123888562897072, 3.6107693, 0.74536425, 9.611969, 0.7387888, 0.0049860477, 10.268269
1123888572536134, 3.2841492, -0.66161543, 9.253045, -0.6791744, 0.04748869, 9.8172655
1123888582175301, 3.611966, 0.47138608, 9.629914, 0.46402586, -0.010386229, 10.285347
1123888591814363, 3.3176486, -0.20937198, 9.284152, -0.2365277, 0.0754776, 9.858218
1123888601453530, 3.65384, 0.038285162, 9.400204, 0.035930693, -0.17371202, 10.083868
1123888611092697, 3.3714871, 0.28713873, 9.445667, 0.25969586, 0.13153267, 10.029219
1123888620731759, 3.522235, -0.42831525, 9.406186, -0.44381782, -0.090358496, 10.042948
1123888630370926, 3.5174494, 0.715454, 9.600004, 0.6860603, 0.102286816, 10.225617
1123888640009988, 3.4229329, -0.68195444, 9.288938, -0.7043731, -0.07309604, 9.8976965
1123888649649155, 3.6179478, 0.7968099, 9.615558, 0.7845427, 0.02650237, 10.274589
1123888659288322, 3.3212378, -0.66400826, 9.202796, -0.693922, -0.008779287, 9.781686
1123888668927384, 3.6574295, 0.5455636, 9.5760765, 0.5279806, -0.056203842, 10.251524
1123888678566551, 3.2745779, -0.25124636, 9.267402, -0.27839002, 0.10755777, 9.827597
1123888688205613, 3.6143587, 0.09092726, 9.474381, 0.079867154, -0.10247183, 10.139966
1123888697844780, 3.359523, 0.18783657, 9.431311, 0.15576908, 0.12751245, 10.011533
1123888707483947, 3.5198421, -0.44626144, 9.452846, -0.4595797, -0.08066821, 10.085981
1123888717123009, 3.51386, 0.59940207, 9.5964155, 0.5705801, 0.086503506, 10.220795
1123888726762176, 3.4289148, -0.73100734, 9.309277, -0.7393798, -0.09428835, 9.919621
1123888736401238, 3.6023946, 0.74536425, 9.622736, 0.733297, 0.043097258, 10.275712
1123888746040405, 3.333202, -0.69272214, 9.257831, -0.7085545, -0.012748957, 9.838462
1123888755679572, 3.67059, 0.57188463, 9.590433, 0.55806994, -0.060091972, 10.269451
1123888765318634, 3.3296127, -0.29072794, 9.267402, -0.32153997, 0.039800644, 9.84635
1123888774957801, 3.6370904, 0.37806597, 9.466006, 0.36812016, -0.09751129, 10.140592
1123888784596967, 3.475575, -0.029910283, 9.397811, -0.052660346, -0.019243479, 10.019791
1123888794236030, 3.481557, 0.051445685, 9.409775, 0.029465795, -0.010831356, 10.033282
1123888803875197, 3.4779677, -0.0011964113, 9.375079, -0.021910757, -0.02553773, 9.999363
1123888813514363, 3.4504502, 0.0059820567, 9.427721, -0.0193986, 0.019209623, 10.039264
1123888823153426, 3.4372897, -0.014356935, 9.450453, -0.0396145, 0.037723303, 10.0560055
1123888832792592, 3.4576287, -0.021535404, 9.46481, -0.044490874, 0.022141933, 10.076498
1123888842431759, 3.4372897, -0.025124637, 9.449257, -0.04929191, 0.035773277, 10.054866
1123888852070822, 3.4480574, 0.009571291, 9.440882, -0.012785494, 0.02631402, 10.0508
1123888861709988, 3.446861, 0.039481573, 9.487542, 0.01588437, 0.044511795, 10.094237
1123888871349155, 3.4695928, 0.049052864, 9.509077, 0.026865155, 0.029529095, 10.122322
1123888880988217, 3.4683964, 0.06580263, 9.462418, 0.044379145, 0.015972614, 10.0781555
1123888890627384, 3.4360933, 0.0634098, 9.438489, 0.040156007, 0.037153006, 10.044542
1123888900266551, 3.4480574, 0.046660043, 9.404989, 0.02384442, 0.012669563, 10.017204
1123888909905613, 3.4504502, 0.03708875, 9.391829, 0.015037656, 0.0049676895, 10.005659
1123888919544780, 3.426522, 0.010767702, 9.440882, -0.015403628, 0.04043889, 10.043385
1123888929183947, 3.458825, -0.0071784677, 9.424132, -0.029774308, 0.0024924278, 10.038771
1123888938823009, 3.4695928, -0.02632105, 9.38824, -0.045655042, -0.022774935, 10.008758
1123888948462176, 3.4779677, -0.0011964113, 9.363115, -0.01907441, -0.036445856, 9.988117
1123888958101342, 3.4217365, 0.02871387, 9.432507, 0.0040016174, 0.044584274, 10.033908
1123888967740405, 3.4600215, 0.014356935, 9.450453, -0.007045567, 0.015488148, 10.063932
1123888977379572, 3.4995031, 0.043070808, 9.474381, 0.02465126, -0.011278868, 10.100077
1123888987018738, 3.4827533, 0.033499517, 9.480363, 0.013039798, 0.0053110123, 10.09989
1123888996657905, 3.495914, 0.023928227, 9.468399, 0.005055666, -0.012041569, 10.093185
1123889006296967, 3.493521, 0.015553347, 9.456435, -0.003357172, -0.014195442, 10.081116
1123889015936134, 3.4923246, 0.021535404, 9.438489, 0.0032666922, -0.01755786, 10.063873
1123889025575301, 3.4743786, 0.03708875, 9.427721, 0.01773581, -0.0020492077, 10.047602
1123889035214363, 3.4612179, 0.040677983, 9.410972, 0.020636857, 0.0038204193, 10.027345
1123889044853530, 3.4707892, 0.02751746, 9.401401, 0.00878191, -0.01096487, 10.021638
1123889054492697, 3.4839497, 0.0047856453, 9.402596, -0.0126238465, -0.025617361, 10.027259
1123889064131863, 3.4779677, -0.021535404, 9.42174, -0.039995253, -0.016159296, 10.043109
1123889073770926, 3.481557, -0.011964113, 9.420543, -0.029886037, -0.019204855, 10.043243
1123889083410092, 3.4899318, 0.014356935, 9.426525, -0.0018145144, -0.020249128, 10.0518055
1123889093049259, 3.4528432, 0.038285162, 9.499506, 0.0155258775, 0.043492794, 10.107526
1123889102688426, 3.4528432, 0.049052864, 9.493524, 0.026545823, 0.04191971, 10.101934
1123889112327488, 3.4887354, 0.06580263, 9.4432745, 0.048491955, -0.0069823265, 10.067206
1123889121966655, 3.4923246, 0.08853444, 9.4229355, 0.07188234, -0.0149588585, 10.049401
1123889131605822, 3.4420755, 0.10767702, 9.437292, 0.085053176, 0.039074183, 10.045556
1123889141244884, 3.434897, 0.076570325, 9.408579, 0.05418113, 0.0339396, 10.016071
1123889150884051, 3.4480574, 0.0526421, 9.432507, 0.030370533, 0.027120113, 10.043028
1123889160523217, 3.4456646, 0.01794617, 9.446864, -0.005412936, 0.027914047, 10.055614
1123889170162384, 3.4983068, -0.022731815, 9.41815, -0.040168613, -0.037109613, 10.046752
1123889179801551, 3.4672, -0.07058827, 9.4229355, -0.09082711, -0.010928631, 10.040408
1123889189440613, 3.5090744, -0.09092726, 9.446864, -0.107397616, -0.04364276, 10.077286
1123889199079780, 3.481557, -0.08015956, 9.431311, -0.09728888, -0.021380901, 10.053226
1123889208718947, 3.4719856, 0.0023928226, 9.428918, -0.014393747, -0.0030825138, 10.047833
1123889218358113, 3.473182, 0.031106694, 9.428918, 0.015935808, 1.6903877E-4, 10.048294
1123889227997176, 3.475575, 0.06460621, 9.426525, 0.050218105, 7.3456764E-4, 10.046923
1123889237636342, 3.4851463, 0.058624156, 9.438489, 0.04451871, -0.004938841, 10.061448
1123889247275509, 3.446861, 0.047856454, 9.428918, 0.029967606, 0.026821613, 10.039224
1123889256914676, 3.4396825, 0.022731815, 9.433703, 0.00410825, 0.03259349, 10.041197
1123889266553738, 3.418147, 0.029910283, 9.466006, 0.00785318, 0.063599825, 10.064084
1123889276192905, 3.3918262, 0.040677983, 9.473185, 0.016666532, 0.091575146, 10.061744
1123889285832072, 3.4564323, 0.020338992, 9.470792, 0.0016911924, 0.026166439, 10.081793
1123889295471238, 3.4480574, 0.0059820567, 9.4636135, -0.013249457, 0.026859999, 10.072152
1123889305110405, 3.4911282, 0.0035892338, 9.413364, -0.008137971, -0.03187704, 10.039838
1123889314749467, 3.473182, 0.013160525, 9.399008, -5.054474E-5, -0.017117977, 10.020191
1123889324388634, 3.5330026, 0.0011964113, 9.366704, -0.0041716993, -0.08533764, 10.010492
1123889334027801, 3.5126636, 0.0023928226, 9.357133, -0.00542292, -0.064566135, 9.994528
1123889343666967, 3.4624143, 0.02871387, 9.44806, 0.011276424, 0.018954515, 10.06253
1123889353306134, 3.4707892, 0.03589234, 9.467203, 0.018379778, 0.017781258, 10.0834
1123889362945197, 3.5150564, 0.033499517, 9.445667, 0.02101013, -0.031563282, 10.078489
1123889372584363, 3.4995031, 0.04546363, 9.454042, 0.03105998, -0.014378309, 10.080989
1123889382223530, 3.4767714, 0.033499517, 9.469596, 0.016507924, 0.01258707, 10.087709
1123889391862697, 3.4719856, 0.038285162, 9.420543, 0.022215009, 2.746582E-4, 10.040034
1123889401501863, 3.4600215, 0.023928227, 9.394221, 0.0075090826, 0.0010631084, 10.011177
1123889411141030, 3.4444683, -0.0059820567, 9.400204, -0.02371949, 0.015100956, 10.011366
1123889420780092, 3.475575, -0.019142581, 9.430114, -0.03454244, -0.005233288, 10.050164
1123889430419259, 3.4719856, -0.0011964113, 9.4636135, -0.018111318, 0.011161566, 10.080388
1123889440058426, 3.481557, 0.014356935, 9.428918, 6.8458915E-4, -0.008793354, 10.05116
1123889449697592, 3.5006995, 0.013160525, 9.42174, 0.0014586151, -0.029258013, 10.051039
1123889459336759, 3.5030923, -0.0011964113, 9.410972, -0.010962695, -0.035996437, 10.041743
1123889468975926, 3.4851463, 0.0023928226, 9.397811, -0.009043694, -0.023237944, 10.023197
1123889478614988, 3.4516466, 0.0035892338, 9.454042, -0.012244284, 0.02827692, 10.064383
1123889488254155, 3.458825, 0.01794617, 9.458828, 0.002594769, 0.025543213, 10.071374
1123889497893322, 3.475575, 0.014356935, 9.487542, -4.5627356E-5, 0.018322706, 10.104107
1123889507532488, 3.4767714, 0.0526421, 9.470792, 0.038889945, 0.014693737, 10.088848
1123889517171655, 3.475575, 0.033499517, 9.412168, 0.021372855, -0.00642848, 10.033402
1123889526810822, 3.4576287, 0.010767702, 9.387043, -0.0028095245, 1.7642975E-5, 10.003595
1123889536449988, 3.4743786, 0.0035892338, 9.385847, -0.008780688, -0.01713419, 10.008251
1123889546089051, 3.4803605, 0.033499517, 9.41456, 0.021457225, -0.011216879, 10.037301
1123889555728217, 3.4911282, 0.0526421, 9.430114, 0.040836453, -0.014478922, 10.055642
1123889565367384, 3.4791641, 0.014356935, 9.41815, 0.002204001, -0.011486769, 10.040228
1123889575006551, 3.4827533, 0.008374879, 9.389436, -0.0028514862, -0.0256176, 10.014515
1123889584645717, 3.4863427, -0.013160525, 9.406186, -0.024260223, -0.02326417, 10.031448
1123889594284884, 3.4624143, -0.02751746, 9.420543, -0.041110784, 0.002469778, 10.036632
1123889603924051, 3.4480574, 0.016749758, 9.425328, 0.0016982853, 0.023073435, 10.036219
1123889613563113, 3.458825, 0.047856454, 9.473185, 0.03218931, 0.033433437, 10.084882
1123889623202280, 3.4695928, 0.05383851, 9.42174, 0.041053116, 0.0056355, 10.04034
1123889632841447, 3.4516466, 0.06460621, 9.486345, 0.047409803, 0.04574251, 10.094773
1123889642480613, 3.4719856, 0.058624156, 9.458828, 0.044356048, 0.016723633, 10.075977
1123889652119780, 3.4827533, 0.05503492, 9.41456, 0.04364893, -0.008807182, 10.038157
1123889661758947, 3.4672, 0.034695927, 9.395418, 0.022478908, -0.0033500195, 10.0147915
1123889671398113, 3.458825, 0.023928227, 9.431311, 0.008972347, 0.015932083, 10.045563
1123889681037280, 3.4707892, -0.0023928226, 9.419347, -0.015508682, -0.002307415, 10.038438
1123889690676447, 3.5126636, -0.022731815, 9.373882, -0.029341817, -0.061107397, 10.010217
1123889700315509, 3.5030923, -0.02871387, 9.415757, -0.037646323, -0.039857388, 10.046192
1123889709954676, 3.4564323, -0.011964113, 9.460024, -0.026131392, 0.023138285, 10.071638
1123889719593842, 3.446861, -0.013160525, 9.462418, -0.027573168, 0.032968998, 10.070578
1123889729233009, 3.4480574, 0.0023928226, 9.434899, -0.010605097, 0.023722887, 10.045185
1123889738872176, 3.4420755, 0.010767702, 9.430114, -0.0023860335, 0.028550863, 10.038637
1123889748511342, 3.458825, 0.029910283, 9.446864, 0.017545253, 0.021056175, 10.060163
