timestamp_acc,device_acc_x,device_acc_y,device_acc_z,earth_acc_x,earth_acc_y,earth_acc_z
786211981867803, 7.003792, -0.014356935, 7.1569324, -3.0851364E-4, 0.016593039, 10.013725
786211991506449, 6.971489, -0.0071784677, 7.1222367, -9.57489E-4, 0.00933668, 9.966337
786212001145095, 6.98106, 0.021535404, 7.1222367, -0.0066137314, -0.020060956, 9.973038
786212010783741, 6.9786673, 0.040677983, 7.1509504, 0.0153923035, -0.038654536, 9.991888
786212020422386, 6.991828, 0.05623133, 7.196414, 0.03846407, -0.05338636, 10.033585
786212030061032, 7.0289164, 0.04426722, 7.216753, 0.022966385, -0.043497264, 10.074063
786212039699782, 7.0504518, 0.033499517, 7.2215385, 0.009522438, -0.03306961, 10.092543
786212049338428, 7.07438, 0.010767702, 7.2358956, 5.750656E-4, -0.0110014975, 10.119537
786212058977074, 7.048059, -0.050249275, 7.155736, -0.041321278, 0.04859051, 10.043811
786212068615720, 7.0348988, -0.050249275, 7.1138616, -0.0569067, 0.050941378, 10.004676
786212078254366, 7.02772, -0.029910283, 7.1078796, -0.05485964, 0.030104578, 9.995388
786212087893011, 7.0025954, 0.014356935, 7.1186476, -0.02301693, -0.011250377, 9.985542
786212097531761, 7.0025954, 0.033499517, 7.119844, -0.018989086, -0.029982984, 9.98641
786212107170407, 7.024131, 0.031106694, 7.1377897, -0.022702217, -0.02764073, 10.0142975
786212116809053, 7.0337024, 0.043070808, 7.1808605, -3.0231476E-4, -0.037704736, 10.051774
786212126447699, 7.0540414, 0.031106694, 7.239485, 0.022392273, -0.023850769, 10.107895
786212136086345, 7.088737, 0.05503492, 7.298109, 0.034531593, -0.04642117, 10.1741
786212145724991, 7.1007013, 0.05383851, 7.27777, 0.010549545, -0.045870245, 10.16792
786212155363741, 7.0815587, 0.040677983, 7.216753, -0.01960802, -0.03552276, 10.110886
786212165002386, 7.0731835, -0.0011964113, 7.1688967, -0.04872179, 0.0069782436, 10.070781
786212174641032, 7.0289164, -0.03589234, 7.097112, -0.065969944, 0.043946505, 9.988476
786212184279678, 6.9786673, -0.061016977, 7.025327, -0.0774374, 0.07080805, 9.902006
786212193918324, 6.9523463, -0.029910283, 7.02772, -0.05410433, 0.040097058, 9.885359
786212203557074, 6.948757, 0.013160525, 7.0492554, -0.03281927, -0.0013182759, 9.898298
786212213195720, 6.9595246, 0.04546363, 7.103094, -0.0035085678, -0.03656286, 9.944328
786212222834366, 6.9559355, 0.014356935, 7.196414, 0.061350346, 3.1977892E-5, 10.00849
786212232473011, 7.018149, 0.016749758, 7.292127, 0.08117914, -0.0037594438, 10.120434
786212242111657, 7.064809, 0.0035892338, 7.3196445, 0.05875683, 0.002286613, 10.172772
786212251750303, 7.0695944, -0.021535404, 7.2909307, 0.031604767, 0.025004208, 10.155575
786212261389053, 7.0672016, -0.033499517, 7.2969127, 0.036798954, 0.0371055, 10.158182
786212271027699, 7.0205417, -0.029910283, 7.2789664, 0.058960915, 0.035211295, 10.112741
786212280666345, 7.015756, -0.02871387, 7.2418776, 0.036801815, 0.03213814, 10.08286
786212290304991, 6.9966135, 0.0, 7.1772714, 0.008565903, 0.003191173, 10.02326
786212299943636, 6.9882383, 0.032303106, 7.135397, -0.010114193, -0.028940171, 9.987465
786212309582386, 6.9678993, 0.05742774, 7.155736, 0.022439957, -0.049595058, 9.987819
786212319221032, 6.9858456, 0.08015956, 7.1569324, 0.012489796, -0.07300469, 10.001234
786212328859678, 7.02772, 0.10049855, 7.194021, 0.008835316, -0.08712295, 10.057098
786212338498324, 7.068398, 0.11006984, 7.225128, 0.0025644302, -0.097209394, 10.107788
786212348136970, 7.0731835, 0.07537391, 7.2418776, 0.0043878555, -0.05776581, 10.123094
786212357775616, 7.0875406, 0.05742774, 7.192825, -0.045351505, -0.03967789, 10.0980015
786212367414366, 7.0803623, 0.046660043, 7.1306114, -0.08765602, -0.029105037, 10.048424
786212377053011, 7.0731835, 0.022731815, 7.1270223, -0.08683777, -0.0024840534, 10.040783
786212386691657, 7.0731835, 0.013160525, 7.1007013, -0.10165453, 0.00655216, 10.021959
786212396330303, 7.062416, -0.014356935, 7.1102724, -0.08319807, 0.034869432, 10.021265
786212405968949, 7.0348988, -0.049052864, 7.1210403, -0.051923275, 0.069295794, 10.009691
786212415607595, 7.0193453, -0.038285162, 7.179664, 0.0054917336, 0.05859554, 10.040756
786212425246345, 7.0097737, -0.02871387, 7.223932, 0.04583645, 0.047576994, 10.065714
786212434884991, 6.99781, -0.02751746, 7.263413, 0.07866192, 0.044912636, 10.085587
786212444523636, 6.9930243, -0.0071784677, 7.304091, 0.10956097, 0.026924789, 10.111353
786212454162282, 7.031309, 0.02632105, 7.30768, 0.08677673, -0.007891774, 10.140739
786212463800928, 7.031309, 0.023928227, 7.192825, 0.001876831, 3.5065413E-4, 10.058659
786212473439574, 7.0229344, 0.0059820567, 7.1222367, -0.042351723, 0.021422029, 10.002282
786212483078324, 7.0265236, 0.0047856453, 7.0779696, -0.07464504, 0.02400428, 9.973143
786212492716970, 7.0396843, 0.039481573, 7.0959153, -0.06712818, -0.00788787, 9.995307
786212502355616, 7.031309, 0.046660043, 7.1078796, -0.052369118, -0.013681412, 9.998026
786212511994261, 7.0025954, 0.043070808, 7.0959153, -0.040069103, -0.007924318, 9.96938
786212521632907, 7.0061846, 0.041874398, 7.085148, -0.05287552, -0.011135429, 9.964175
786212531271657, 7.0193453, 0.07776674, 7.133004, -0.025520325, -0.04937783, 10.007693
786212540910303, 7.0408807, 0.086141616, 7.194021, 0.0048208237, -0.059675664, 10.06637
786212550548949, 7.045666, 0.08015956, 7.2299137, 0.028473377, -0.055532783, 10.095325
786212560187595, 7.0504518, 0.06699903, 7.2155566, 0.0141477585, -0.043331742, 10.088387
786212569826241, 7.0504518, 0.04426722, 7.2059855, 0.008423805, -0.02324301, 10.081491
786212579464886, 7.024131, 0.040677983, 7.2263246, 0.04496765, -0.017502725, 10.077574
786212589103636, 7.0133634, 0.022731815, 7.2299137, 0.05389452, 0.0012038052, 10.072563
786212598742282, 7.012167, -0.009571291, 7.194021, 0.026228428, 0.033527255, 10.046029
786212608380928, 7.0229344, -0.031106694, 7.1712894, -9.7465515E-4, 0.056157917, 10.03727
786212618019574, 7.02772, -0.016749758, 7.186843, 0.0060157776, 0.04551108, 10.051754
786212627658220, 7.0432734, 0.0, 7.143772, -0.035614014, 0.029957056, 10.0319
786212637296866, 7.0576305, 0.025124637, 7.1246295, -0.059904575, 0.0071567, 10.028334
786212646935511, 7.0612197, 0.051445685, 7.125826, -0.06323671, -0.016608015, 10.03178
786212656574261, 7.04447, 0.047856454, 7.204789, 0.0036592484, -0.009904817, 10.076494
786212666212907, 7.045666, 0.051445685, 7.2059855, 0.0031619072, -0.014131695, 10.0781975
786212675851553, 7.0169525, 0.014356935, 7.196414, 0.014609814, 0.021376982, 10.051146
786212685490199, 6.983453, 0.02871387, 7.192825, 0.041110992, 0.0016043484, 10.025191
786212695128845, 6.9966135, 0.016749758, 7.1677003, 0.013568878, 0.012022018, 10.01641
786212704767491, 7.0169525, -0.015553347, 7.1306114, -0.025494576, 0.03794387, 10.004068
786212714406241, 7.0097737, 0.0023928226, 7.1007013, -0.036705494, 0.0149359405, 9.977741
786212724044886, 7.024131, 0.022731815, 7.115058, -0.032189846, -0.009645432, 9.998093
786212733683532, 7.036095, 0.010767702, 7.1306114, -0.027160168, -0.0016211569, 10.017567
786212743322178, 7.0576305, 0.0071784677, 7.1306114, -0.04274416, 8.997619E-4, 10.032647
786212752960824, 7.042077, -0.0011964113, 7.109076, -0.04842043, 0.008681327, 10.006367
786212762599470, 7.0289164, -0.0047856453, 7.1449685, -0.015986443, 0.015013486, 10.022764
786212772238116, 7.0301127, 0.019142581, 7.183254, 0.010015488, -0.0063706636, 10.050962
786212781876866, 7.0205417, 0.038285162, 7.1856465, 0.018300056, -0.024146467, 10.045998
786212791515511, 7.031309, 0.047856454, 7.1748786, 0.0018997192, -0.034067243, 10.04586
786212801154157, 7.0372915, 0.05503492, 7.160522, -0.012553215, -0.04216844, 10.0398035
786212810792803, 7.0672016, 0.08135597, 7.160522, -0.031152248, -0.0710907, 10.060766
786212820431449, 7.0983086, 0.10887343, 7.1916285, -0.028870583, -0.098811895, 10.10479
786212830070095, 7.0983086, 0.12083755, 7.2323065, 0.0021500587, -0.10983214, 10.133844
786212839708741, 7.0935225, 0.0741775, 7.204789, -0.01565504, -0.06436819, 10.110794
786212849347491, 7.0528445, 0.023928227, 7.1808605, -0.006518841, -0.012722224, 10.065174
786212858986136, 7.0085773, -0.0011964113, 7.2550383, 0.07624769, 0.01939091, 10.087099
786212868624782, 7.0289164, 0.0, 7.274181, 0.07519674, 0.018248469, 10.115008
786212878263428, 6.9930243, -0.019142581, 7.2323065, 0.06934166, 0.042931825, 10.059938
786212887902074, 6.995417, -0.014356935, 7.2095747, 0.052087784, 0.036903262, 10.045396
786212897540720, 7.015756, -0.0011964113, 7.1677003, 0.00985384, 0.025227994, 10.029757
786212907179366, 6.9894347, 0.019142581, 7.1425757, 0.012997627, 0.009961218, 9.993432
786212916818011, 7.0265236, 0.032303106, 7.076773, -0.05790901, -0.0037849844, 9.972484
786212926456761, 7.045666, 0.015553347, 7.0205417, -0.11334276, 0.0153928995, 9.945683
786212936095407, 7.056434, 0.0023928226, 7.038488, -0.108971596, 0.030058712, 9.9659815
786212945734053, 7.0731835, 0.022731815, 7.066005, -0.099515915, 0.0096187, 9.997444
786212955372699, 7.0504518, 0.043070808, 7.09113, -0.06351566, -0.009350091, 9.9995365
786212965011345, 7.048059, 0.07058827, 7.099505, -0.053554058, -0.035833955, 10.003946
786212974649991, 7.0528445, 0.1160519, 7.133004, -0.029022217, -0.08331436, 10.031351
786212984288636, 7.0528445, 0.11844472, 7.220342, 0.0318141, -0.080444545, 10.093687
786212993927282, 7.0432734, 0.062213387, 7.2729845, 0.073494434, -0.022087365, 10.124327
786213003566032, 7.031309, 0.013160525, 7.2442703, 0.05907631, 0.026047438, 10.095284
786213013204678, 7.007381, -0.17347965, 7.2095747, 0.040004253, 0.2136845, 10.053068
786213022843324, 7.021738, 0.28713873, 7.23111, 0.08468294, -0.24300909, 10.080177
786213032481970, 7.01097, -0.5072784, 7.1138616, -0.06947088, 0.54854333, 9.985607
786213042120616, 7.0803623, 0.59581286, 7.1365933, 0.009142876, -0.55836105, 10.05513
786213051759261, 6.9391856, -0.6329016, 6.963114, -0.15099573, 0.6591771, 9.827538
786213061397907, 7.071987, 0.57188463, 7.219146, 0.065914154, -0.51553047, 10.108709
786213071036553, 6.875776, -0.43908295, 7.0492554, -0.04017639, 0.47877827, 9.845316
786213080675199, 7.0803623, 0.33140594, 7.281359, 0.08825064, -0.27166224, 10.157658
786213090313949, 6.9212394, 0.010767702, 7.1102724, 0.036066532, 0.03375423, 9.922561
786213099952595, 7.099505, -0.03708875, 7.328019, 0.06028557, 0.086927235, 10.202599
786213109591241, 7.038488, 0.42592242, 7.1976104, 0.08492041, -0.3794384, 10.068571
786213119229886, 7.076773, -0.4642076, 7.1210403, -0.13424969, 0.48293194, 10.037638
786213128868532, 7.131808, 0.64845496, 7.203593, 0.050225735, -0.60624075, 10.139274
786213138507178, 7.0289164, -0.59940207, 7.003792, -0.19808912, 0.6196918, 9.9194145
786213148145824, 7.1772714, 0.66161543, 7.1569324, 0.002808094, -0.63154286, 10.137742
786213157784470, 6.9595246, -0.40797627, 6.829116, -0.23984623, 0.4091476, 9.7474785
786213167423116, 7.1365933, 0.39481574, 7.092326, -0.056362152, -0.35817748, 10.062628
786213177061761, 6.9020967, -0.04426722, 6.937989, -0.06298447, 0.07789332, 9.78604
786213186700511, 7.045666, -0.06460621, 7.159325, -0.013136387, 0.1128934, 10.0443325
786213196339157, 6.9726853, 0.36131623, 7.183254, 0.117589, -0.29982728, 10.012208
786213205977803, 7.0061846, -0.465404, 7.227521, -0.0013513565, 0.5149913, 10.063551
786213215616449, 7.062416, 0.6017949, 7.331609, 0.18756723, -0.53125453, 10.18209
786213225255095, 6.9858456, -0.65682983, 7.1485577, -0.070818424, 0.70094454, 9.991947
786213234893741, 7.155736, 0.59700924, 7.3136625, 0.10342312, -0.5532987, 10.233954
786213244532386, 6.9702926, -0.46660042, 7.055238, -0.09365702, 0.49970657, 9.915674
786213254171032, 7.176075, 0.41874397, 7.2873416, 0.04815197, -0.3827299, 10.22878
786213263809678, 6.9523463, -0.09810573, 7.0229344, -0.046262264, 0.12898815, 9.88168
786213273448324, 7.115058, -0.039481573, 7.2023964, -0.025436401, 0.07046968, 10.123959
786213283086970, 6.9906316, 0.276371, 7.09113, 0.034348488, -0.24061608, 9.958431
786213292725616, 7.031309, -0.46779683, 7.1389866, -0.072514534, 0.49571744, 10.018597
786213302364261, 7.064809, 0.57427746, 7.227521, 0.12625074, -0.5383274, 10.108048
786213312003011, 6.9595246, -0.65922266, 7.048059, -0.116643906, 0.6795118, 9.902998
786213321641657, 7.1270223, 0.68195444, 7.223932, 0.096268654, -0.65724546, 10.149061
786213331280303, 6.984649, -0.43669012, 6.9702926, -0.15326548, 0.44436708, 9.866106
786213340918949, 7.1880393, 0.51445687, 7.213164, 0.025959015, -0.4892245, 10.184414
786213350557595, 6.983453, -0.09810573, 6.9595246, -0.10057306, 0.109009564, 9.858561
786213360196241, 7.1377897, 0.07298109, 7.1342006, -0.06245184, -0.056749284, 10.091732
786213369834886, 6.99781, 0.31345975, 7.085148, 0.03639412, -0.28742558, 9.959066
786213379473532, 7.0528445, -0.37328035, 7.18445, -0.030798912, 0.39697063, 10.066765
786213389112178, 7.0396843, 0.613759, 7.259824, 0.16736746, -0.56535804, 10.1139145
786213398750824, 6.9678993, -0.6029913, 7.129415, -0.047771454, 0.62702256, 9.967363
786213408389470, 7.117451, 0.6580262, 7.298109, 0.15267277, -0.6042645, 10.196324
786213418028116, 6.927222, -0.56350976, 6.9990063, -0.10834026, 0.58100814, 9.845848
786213427666761, 7.152147, 0.40438703, 7.243074, 0.050270557, -0.37022722, 10.180336
786213437305407, 6.936793, -0.23569304, 7.004988, -0.06817675, 0.2632516, 9.857513
786213446944053, 7.146165, 0.0, 7.18445, -0.052331448, 0.028534174, 10.133135
786213456582699, 7.0325055, 0.16749759, 7.0731835, -0.023035526, -0.14281893, 9.974627
786213466221345, 7.075577, -0.4103691, 7.149754, -0.090307236, 0.42906788, 10.05778
786213475859991, 7.0935225, 0.51565325, 7.2263246, 0.098450184, -0.4886241, 10.126957
786213485498636, 6.9990063, -0.6376872, 7.160522, -0.057682514, 0.6536994, 10.011751
786213495137386, 7.1138616, 0.62093747, 7.3435726, 0.18968773, -0.58362216, 10.224679
786213504776032, 6.91765, -0.5886344, 7.058827, -0.07048893, 0.6088579, 9.881889
786213514414678, 7.1042905, 0.47377887, 7.237092, 0.098903656, -0.4389515, 10.142406
786213524053324, 6.8985076, -0.22731815, 6.9320073, -0.08950949, 0.2295984, 9.779217
786213533691970, 7.1066833, 0.11964113, 7.1342006, -0.030512333, -0.10913736, 10.069918
786213543330616, 6.9786673, 0.19740787, 6.987042, -0.028762817, -0.18799454, 9.875391
786213552969261, 7.070791, -0.33020952, 7.0779696, -0.12730742, 0.32988274, 10.003887
786213562607907, 7.0863442, 0.56590253, 7.1569324, 0.08483267, -0.55078876, 10.072123
786213572246553, 7.0576305, -0.56590253, 7.1102724, -0.138937, 0.56558394, 10.017343
786213581885199, 7.160522, 0.7393822, 7.3136625, 0.16248894, -0.7059809, 10.236434
786213591523845, 6.984649, -0.5407779, 7.1581287, -0.049132824, 0.5438133, 10.000921
786213601162491, 7.1712894, 0.5240282, 7.4309106, 0.1928916, -0.48418492, 10.327089
786213610801136, 6.95115, -0.30149564, 7.133004, 0.002055645, 0.3109169, 9.959541
786213620439782, 7.109076, 0.1160519, 7.3268228, 0.092365265, -0.08917689, 10.2087345
786213630078428, 6.9894347, 0.12801601, 7.112665, 0.033548832, -0.11270964, 9.9722
786213639717074, 7.0779696, -0.31465617, 7.1270223, -0.08218908, 0.328093, 10.043739
786213649355720, 7.048059, 0.5084748, 7.1042905, 0.045709133, -0.4877184, 10.00823
786213658994366, 7.012167, -0.56350976, 7.001399, -0.15785646, 0.5774778, 9.907028
786213668633011, 7.1282187, 0.6975078, 7.164111, 0.050946236, -0.6657432, 10.108249
786213678271657, 6.9499536, -0.573081, 6.9583282, -0.15315628, 0.59190893, 9.832334
786213687910303, 7.149754, 0.5587241, 7.2299137, 0.059900284, -0.519301, 10.170032
786213697548949, 6.9320073, -0.32542387, 7.0325055, -0.052767754, 0.34791797, 9.873749
786213707187595, 7.1485577, 0.15314065, 7.29452, 0.046573162, -0.110449016, 10.213764
786213716826241, 7.0061846, 0.11724831, 7.1509504, 0.04262352, -0.07694036, 10.01143
786213726464886, 7.1389866, -0.22851457, 7.237092, -0.049347878, 0.2634663, 10.164694
786213736103532, 7.1246295, 0.5072784, 7.1952176, 0.058294296, -0.4666103, 10.127572
786213745742178, 7.0600233, -0.56590253, 7.1066833, -0.14148426, 0.58732224, 10.015197
786213755380824, 7.1222367, 0.66759753, 7.210771, 0.0990057, -0.6172452, 10.137868
786213765019470, 6.940382, -0.6053841, 6.960721, -0.1641674, 0.6274163, 9.826822
786213774658116, 7.112665, 0.5694918, 7.172486, 0.06274605, -0.51091105, 10.104153
786213784296761, 6.88774, -0.37088752, 6.943971, -0.09482956, 0.40513256, 9.778759
786213793935407, 7.0863442, 0.20937198, 7.2095747, 0.048201084, -0.15630001, 10.109962
786213803574053, 6.9475603, 0.03589234, 7.0133634, -0.019403458, 0.008172214, 9.872017
786213813212699, 7.0636125, -0.26679972, 7.1102724, -0.078345776, 0.3044796, 10.021125
786213822851345, 7.038488, 0.39960137, 7.143772, 0.060538292, -0.34850752, 10.030371
786213832489991, 7.0576305, -0.5922236, 7.07438, -0.15679455, 0.61756194, 9.990082
786213842128636, 7.1138616, 0.6257231, 7.2119675, 0.0966301, -0.58806413, 10.131924
786213851767282, 6.960721, -0.62093747, 7.042077, -0.11444521, 0.6469789, 9.899313
786213861405928, 7.143772, 0.63529444, 7.29452, 0.12152338, -0.5867864, 10.21215
786213871044574, 6.9535427, -0.32183465, 7.064809, -0.043138027, 0.34789547, 9.91181
786213880683220, 7.1306114, 0.30987054, 7.331609, 0.11379814, -0.26595378, 10.227926
786213890321866, 6.9822564, 0.06819545, 7.1449685, 0.05442047, -0.039289296, 9.990128
786213899960511, 7.111469, -0.1363909, 7.227521, -0.0101799965, 0.16065878, 10.139169
786213909599157, 7.0289164, 0.485743, 7.1880393, 0.108417034, -0.45131058, 10.054555
786213919237803, 7.0492554, -0.4761717, 7.123433, -0.082267284, 0.49001694, 10.020737
786213928876449, 7.115058, 0.69272214, 7.190432, 0.078520775, -0.65808976, 10.117658
786213938515095, 6.9702926, -0.58624154, 7.0061846, -0.11921215, 0.6110188, 9.880675
786213948153741, 7.155736, 0.6652047, 7.1820574, 0.04154396, -0.62965447, 10.140554
786213957792386, 6.9499536, -0.36490545, 6.9020967, -0.14656782, 0.3753227, 9.7934475
786213967431032, 7.1748786, 0.35653058, 7.140183, -0.042599678, -0.32711387, 10.123211
786213977069574, 7.001399, 0.014356935, 6.930811, -0.11042118, 0.002840042, 9.851078
786213986708220, 7.1102724, -0.13399807, 7.0731835, -0.109036446, 0.15585864, 10.028343
786213996346866, 7.0265236, 0.37806597, 7.07438, 0.02615881, -0.34064204, 9.972217
786214005985511, 7.045666, -0.5563313, 7.076773, -0.12129259, 0.5841564, 9.983771
786214015624157, 7.066005, 0.58624154, 7.227521, 0.12901974, -0.534036, 10.109764
786214025262803, 6.9583282, -0.6723832, 7.076773, -0.05720663, 0.6989728, 9.922667
786214034901449, 7.123433, 0.5814559, 7.342376, 0.16561079, -0.538964, 10.2310295
786214044540095, 6.9344, -0.4977071, 7.1007013, -0.0074152946, 0.5261286, 9.923542
786214054178741, 7.1413794, 0.30987054, 7.3698936, 0.13536835, -0.26054186, 10.26277
786214063817386, 6.946364, -0.09451649, 7.1688967, 0.08125496, 0.12987685, 9.981508
786214073456032, 7.1222367, -0.13998012, 7.3112698, 0.04750347, 0.17252156, 10.206298
786214083094678, 7.0348988, 0.34456646, 7.239485, 0.11932373, -0.31081748, 10.09494
786214092733324, 7.0695944, -0.4749753, 7.176075, -0.05360174, 0.4999028, 10.072143
786214102371970, 7.1018977, 0.64606214, 7.198807, 0.097123146, -0.6105913, 10.114096
786214112010616, 6.9726853, -0.59342, 7.0002027, -0.12968159, 0.60017747, 9.879082
786214121649261, 7.1425757, 0.6963114, 7.1880393, 0.07134533, -0.6726101, 10.134676
786214131287907, 6.966703, -0.43070808, 6.916454, -0.15057564, 0.43424267, 9.815628
786214140926553, 7.152147, 0.40438703, 7.2011995, 0.03357649, -0.37909436, 10.15033
786214150565199, 6.946364, -0.1052842, 7.015756, -0.019773483, 0.1273328, 9.872552
786214160203845, 7.1413794, -0.01794617, 7.190432, -0.022863865, 0.0453853, 10.134069
786214169842491, 7.024131, 0.33140594, 7.0636125, 0.01814413, -0.3028934, 9.962469
786214179481136, 7.051648, -0.41994038, 7.0863442, -0.09015894, 0.44698638, 9.995522
786214189119782, 7.092326, 0.6580262, 7.1617184, 0.074130535, -0.6179334, 10.081516
786214198758324, 6.98106, -0.6029913, 7.003792, -0.12178421, 0.6202981, 9.886976
786214208396970, 7.1282187, 0.6520442, 7.225128, 0.09752035, -0.60341984, 10.15212
786214218035616, 6.95115, -0.5419743, 6.983453, -0.11275053, 0.5713151, 9.850976
786214227674261, 7.155736, 0.36610186, 7.2789664, 0.08212614, -0.3266768, 10.208256
786214237312907, 6.9786673, -0.18544376, 7.0636125, -0.020344734, 0.21523595, 9.928952
786214246951553, 7.152147, -0.041874398, 7.26102, 0.014910698, 0.08003974, 10.191698
786214256590199, 7.0325055, 0.2536392, 7.2023964, 0.10387373, -0.21337265, 10.06671
786214266228845, 7.103094, -0.43908295, 7.192825, -0.05975151, 0.46261454, 10.107715
786214275867491, 7.105487, 0.5886344, 7.2382884, 0.12599134, -0.54497796, 10.144672
786214285506136, 7.0002027, -0.64845496, 7.0731835, -0.10568714, 0.6624206, 9.95004
786214295144782, 7.1545396, 0.6329016, 7.225128, 0.100581646, -0.5906613, 10.170128
786214304783428, 6.957132, -0.55393845, 6.9020967, -0.17816496, 0.554976, 9.798355
786214314422074, 7.1342006, 0.46181476, 7.173682, 0.052099228, -0.43124914, 10.118454
786214324060720, 6.9248285, -0.1794617, 6.984649, -0.036777496, 0.20312774, 9.835048
786214333699366, 7.117451, 0.076570325, 7.153343, -0.01475668, -0.04660207, 10.091179
786214343338011, 7.0025954, 0.29312077, 7.015756, 0.00966835, -0.26299286, 9.913318
786214352976657, 7.062416, -0.31585258, 7.1413794, -0.0523839, 0.3501631, 10.042481
786214362615303, 7.097112, 0.6448657, 7.2155566, 0.13555002, -0.5985584, 10.1228695
786214372253949, 7.0348988, -0.5706882, 7.066005, -0.13788795, 0.59779793, 9.968327
786214381892595, 7.164111, 0.7118647, 7.2933235, 0.1550827, -0.6626275, 10.2254925
786214391531136, 6.9942207, -0.5371887, 7.0325055, -0.12528181, 0.55520433, 9.916646
786214401169782, 7.1892357, 0.4869394, 7.3112698, 0.1038084, -0.43230557, 10.255692
786214410808428, 6.9942207, -0.22971097, 7.0803623, -0.030769825, 0.2608624, 9.951604
786214420447074, 7.164111, 0.08015956, 7.2957163, 0.04946947, -0.036048353, 10.225196
786214430085720, 7.0193453, 0.19621146, 7.1449685, 0.061024666, -0.15193367, 10.016661
786214439724366, 7.0983086, -0.3493521, 7.2011995, -0.03630829, 0.38570234, 10.110154
786214449363011, 7.0695944, 0.5479564, 7.245467, 0.14375067, -0.48988104, 10.124998
786214459001657, 7.0085773, -0.58983076, 7.092326, -0.080945015, 0.6335421, 9.96801
786214468640303, 7.1246295, 0.6855437, 7.240681, 0.122472286, -0.62441236, 10.161343
786214478278949, 6.940382, -0.5515456, 6.9451675, -0.1343379, 0.57883364, 9.816076
786214487917595, 7.143772, 0.52283174, 7.1820574, 0.044891357, -0.46622044, 10.132591
786214497556241, 6.926025, -0.25962126, 6.9451675, -0.08318615, 0.30413234, 9.806792
786214507194886, 7.1246295, 0.13758731, 7.160522, -0.009222984, -0.0888226, 10.101702
786214516833532, 6.983453, 0.1471586, 6.9930243, -0.02441883, -0.10218012, 9.883401
786214526472178, 7.085148, -0.3062813, 7.0779696, -0.10302639, 0.34664133, 10.012993
786214536110824, 7.071987, 0.5455636, 7.149754, 0.083927155, -0.4907471, 10.058914
786214545749366, 7.0229344, -0.56470615, 7.0803623, -0.084913254, 0.6154708, 9.9692545
786214555388011, 7.125826, 0.6999006, 7.2442703, 0.1306138, -0.6299992, 10.165273
786214565026657, 6.9762745, -0.57427746, 7.018149, -0.10031986, 0.625331, 9.891993
786214574665303, 7.1617184, 0.5886344, 7.300502, 0.13680172, -0.5122918, 10.229999
786214584303949, 6.946364, -0.2620141, 7.031309, -0.038877964, 0.3185819, 9.882153
786214593942595, 7.1449685, 0.23569304, 7.227521, 0.036152363, -0.17172718, 10.16427
786214603581241, 7.0205417, 0.18185452, 7.0731835, 0.0073394775, -0.1252749, 9.966706
786214613219886, 7.111469, -0.23330021, 7.2023964, -0.029685497, 0.29222146, 10.120062
786214622858532, 7.070791, 0.47018966, 7.2011995, 0.103702545, -0.39925086, 10.094765
786214632497178, 7.0839515, -0.5838487, 7.125826, -0.11151028, 0.62777925, 10.044605
786214642135824, 7.1677003, 0.6843473, 7.3052874, 0.1474762, -0.61888164, 10.237516
786214651774470, 6.984649, -0.6053841, 7.04447, -0.08891153, 0.64778155, 9.917098
786214661413116, 7.1306114, 0.5395815, 7.24786, 0.10565281, -0.46856105, 10.1704235
786214671051761, 6.916454, -0.34097722, 7.0061846, -0.03185463, 0.3959472, 9.842888
786214680690407, 7.131808, 0.22612174, 7.233503, 0.054954052, -0.16815299, 10.159039
786214690329053, 6.9583282, 0.09332009, 7.045666, 0.025618076, -0.039642632, 9.902839
786214699967699, 7.0899334, -0.1698904, 7.170093, -0.019179344, 0.22317421, 10.082462
786214709606345, 7.0863442, 0.5383851, 7.1545396, 0.0840888, -0.47552818, 10.072756
786214719244886, 7.068398, -0.46181476, 7.0863442, -0.10584211, 0.50351167, 10.006351
786214728883532, 7.155736, 0.7692925, 7.213164, 0.09866953, -0.69939387, 10.164999
786214738522178, 7.01097, -0.5288138, 6.9930243, -0.139431, 0.5685511, 9.899143
786214748160824, 7.1712894, 0.65324056, 7.2155566, 0.066512585, -0.5801334, 10.177298
786214757799470, 6.9535427, -0.35294133, 7.0061846, -0.0637784, 0.40699586, 9.868801
786214767438116, 7.166504, 0.29312077, 7.1892357, 0.005350113, -0.23005337, 10.152678
786214777076761, 6.987042, 0.07537391, 6.940382, -0.06827688, -0.02040857, 9.848261
786214786715407, 7.1222367, -0.16031912, 7.0779696, -0.09506321, 0.21471992, 10.039646
786214796354053, 7.0695944, 0.42831525, 7.109076, 0.044654846, -0.36048818, 10.028442
786214805992699, 7.062416, -0.55393845, 7.0528445, -0.13316822, 0.6047192, 9.977163
786214815631345, 7.1210403, 0.65084773, 7.2095747, 0.10678816, -0.576759, 10.137394
786214825269991, 6.971489, -0.6376872, 7.0600233, -0.073988914, 0.6867162, 9.918426
786214834908636, 7.160522, 0.6053841, 7.298109, 0.12854195, -0.5410398, 10.227058
786214844547282, 6.930811, -0.40677986, 7.0289164, -0.032901287, 0.45680708, 9.86902
786214854185928, 7.1282187, 0.31106696, 7.2897344, 0.10274267, -0.23840922, 10.197112
786214863824574, 6.9499536, -0.020338992, 7.0935225, 0.045298576, 0.079559624, 9.930355
786214873463220, 7.133004, -0.15553348, 7.210771, -0.023052692, 0.20682764, 10.141787
786214883101866, 7.058827, 0.41156548, 7.1449685, 0.06492758, -0.36111963, 10.045515
786214892740511, 7.09113, -0.4534399, 7.152147, -0.08020401, 0.49552506, 10.069307
786214902379157, 7.159325, 0.70947194, 7.2705917, 0.12720108, -0.66104376, 10.206255
786214912017699, 7.036095, -0.5706882, 7.02772, -0.15303326, 0.5894059, 9.942352
786214921656345, 7.200003, 0.68195444, 7.2442703, 0.08616829, -0.630775, 10.216618
786214931294991, 6.9702926, -0.3900301, 7.003792, -0.088359356, 0.42053553, 9.879553
786214940933636, 7.1485577, 0.38285163, 7.2849483, 0.100072384, -0.331461, 10.207794
786214950572282, 6.9678993, -0.02632105, 7.0935225, 0.038619995, 0.06450808, 9.943074
786214960210928, 7.1509504, -0.07178468, 7.200003, -0.02247715, 0.108140945, 10.147369
786214969849574, 7.058827, 0.3792624, 7.149754, 0.072039604, -0.33278084, 10.048578
786214979488220, 7.105487, -0.46899325, 7.1246295, -0.095808506, 0.50966424, 10.059788
786214989126866, 7.1270223, 0.6520442, 7.23111, 0.114299774, -0.59266454, 10.155996
786214998765511, 7.0205417, -0.6089734, 7.02772, -0.12096977, 0.6536765, 9.930044
786215008404157, 7.172486, 0.66041905, 7.237092, 0.08268976, -0.59844685, 10.192705
786215018042803, 6.942775, -0.4761717, 6.960721, -0.09316778, 0.5140195, 9.828917
786215027681449, 7.123433, 0.3924229, 7.204789, 0.06739664, -0.32768327, 10.133822
786215037320095, 6.9475603, -0.09332009, 6.9942207, -0.024957657, 0.14479166, 9.85773
786215046958741, 7.1246295, -0.08015956, 7.123433, -0.06006813, 0.12704259, 10.07424
786215056597386, 7.0002027, 0.27756742, 7.04447, 0.030303478, -0.22426724, 9.932434
786215066236032, 7.068398, -0.47377887, 7.1018977, -0.09981203, 0.5121758, 10.017553
786215075874678, 7.0959153, 0.6197411, 7.179664, 0.11667967, -0.5658732, 10.097021
786215085513324, 7.0002027, -0.6233303, 6.9966135, -0.13463736, 0.65224373, 9.8944645
786215095151970, 7.1569324, 0.6831509, 7.1976104, 0.082817554, -0.62528265, 10.153626
786215104790616, 6.960721, -0.45822555, 6.9906316, -0.086112976, 0.4998647, 9.8627205
786215114429261, 7.1629148, 0.48454657, 7.328019, 0.1355424, -0.41896892, 10.249297
786215124067907, 6.9583282, -0.09930214, 7.1222367, 0.053215504, 0.14772117, 9.956394
786215133706553, 7.143772, 0.023928227, 7.314859, 0.070082664, 0.027685165, 10.224262
786215143345199, 7.0540414, 0.3278167, 7.2323065, 0.1144433, -0.27538133, 10.103676
786215152983845, 7.143772, -0.34337005, 7.2849483, 0.003083706, 0.38753438, 10.201553
786215162622386, 7.153343, 0.6891329, 7.3459654, 0.18238354, -0.6293393, 10.255686
786215172261136, 7.068398, -0.56590253, 7.152147, -0.06321907, 0.61653024, 10.052443
786215181899782, 7.1880393, 0.69152576, 7.2693954, 0.09883213, -0.6294959, 10.226642
786215191538324, 6.9930243, -0.5383851, 6.9619174, -0.14733839, 0.58421147, 9.863951
786215201176970, 7.1617184, 0.4534399, 7.1569324, 0.01667595, -0.39229167, 10.127356
786215210815616, 6.9391856, -0.15792629, 6.9044895, -0.09113121, 0.20243627, 9.7877445
786215220454261, 7.1007013, 0.050249275, 7.0839515, -0.05073166, 0.009812355, 10.030065
786215230092907, 6.9798636, 0.26799613, 6.930811, -0.040981293, -0.20986164, 9.83772
786215239731553, 7.0396843, -0.37088752, 7.082755, -0.07751322, 0.43634593, 9.983173
786215249370199, 7.064809, 0.6472585, 7.219146, 0.15666199, -0.55688983, 10.10504
786215259008845, 7.0145597, -0.55752766, 7.1078796, -0.07755804, 0.6169062, 9.982497
786215268647491, 7.173682, 0.6987042, 7.2849483, 0.12788582, -0.61209655, 10.228851
786215278286136, 7.004988, -0.5407779, 7.0600233, -0.09738302, 0.6023655, 9.9415245
786215287924782, 7.203593, 0.50488555, 7.30768, 0.101656914, -0.4345379, 10.263999
786215297563428, 7.0193453, -0.20817557, 7.0337024, -0.06881857, 0.25862324, 9.935587
786215307202074, 7.1784678, 0.11365908, 7.196414, -0.013639927, -0.05559361, 10.165058
786215316840720, 7.036095, 0.23449662, 7.0492554, 0.0018963814, -0.17663074, 9.961044
786215326479366, 7.1102724, -0.30388847, 7.0935225, -0.09757185, 0.35438314, 10.041477
786215336118011, 7.0815587, 0.58624154, 7.143772, 0.08114672, -0.5171992, 10.062384
786215345756657, 7.025327, -0.53359944, 7.04447, -0.100646496, 0.58751655, 9.945311
786215355395303, 7.1042905, 0.79441714, 7.257431, 0.15594578, -0.7044606, 10.161287
786215365033949, 6.9332037, -0.46779683, 7.0085773, -0.06443739, 0.5315403, 9.85503
786215374672595, 7.1545396, 0.5694918, 7.2059855, 0.053599358, -0.4810766, 10.15892
786215384311241, 6.9355965, -0.26081768, 6.9678993, -0.071722984, 0.33064297, 9.82892
786215393949886, 7.1473613, 0.1363909, 7.2263246, 0.01764965, -0.046151698, 10.1646805
786215403588532, 7.0169525, 0.16390835, 7.066005, 0.0043740273, -0.0844776, 9.959206
786215413227178, 7.1138616, -0.30149564, 7.1509504, -0.075716496, 0.375156, 10.084024
786215422865824, 7.1018977, 0.5778667, 7.198807, 0.1045661, -0.49600995, 10.116163
786215432504470, 7.0695944, -0.5168497, 7.103094, -0.13432503, 0.5788037, 10.017344
786215442143116, 7.179664, 0.782453, 7.3064837, 0.16496515, -0.6986081, 10.248378
786215451781761, 7.021738, -0.50129634, 7.097112, -0.10218763, 0.5658684, 9.979702
786215461420407, 7.190432, 0.6269195, 7.4249287, 0.20570517, -0.53372926, 10.339137
786215471059053, 6.9535427, -0.23449662, 7.1246295, 0.016264915, 0.30519307, 9.953577
786215480697699, 7.1389866, 0.1698904, 7.2466636, 0.03852415, -0.08975446, 10.173425
786215490336345, 6.942775, 0.09930214, 7.056434, 0.035068512, -0.019548595, 9.899677
786215499974991, 7.0731835, -0.30508488, 7.1270223, -0.084750175, 0.37040138, 10.038578
786215509613636, 7.0348988, 0.50488555, 7.0959153, 0.076105595, -0.42520177, 9.995506
786215519252282, 7.018149, -0.54675996, 7.0145597, -0.16338158, 0.599493, 9.918232
786215528890928, 7.1222367, 0.74177504, 7.1569324, 0.10198498, -0.65194607, 10.102612
786215538529574, 6.971489, -0.51445687, 6.948757, -0.17173004, 0.56271285, 9.838974
786215548168220, 7.152147, 0.66400826, 7.280163, 0.14728785, -0.562834, 10.210604
786215557806866, 6.9786673, -0.24646074, 7.140183, 0.0015463829, 0.3237064, 9.981983
786215567445616, 7.176075, 0.3062813, 7.3567333, 0.11252785, -0.20623231, 10.278921
786215577084261, 7.0145597, 0.14476576, 7.1138616, 0.025469303, -0.064973176, 9.991354
786215586722907, 7.133004, -0.19740787, 7.183254, -0.07542801, 0.26977873, 10.121235
786215596361553, 7.070791, 0.4953143, 7.133004, 0.0633831, -0.40654582, 10.047482
786215606000199, 7.07438, -0.5563313, 7.0169525, -0.2001319, 0.6106242, 9.958969
786215615638845, 7.1473613, 0.6879365, 7.140183, 0.049345016, -0.60110354, 10.108237
786215625277491, 6.9930243, -0.58624154, 6.942775, -0.1873765, 0.6474314, 9.848549
786215634916136, 7.166504, 0.6376872, 7.192825, 0.06479311, -0.562859, 10.157812
786215644554782, 6.9523463, -0.2883351, 6.987042, -0.078262806, 0.35031986, 9.854347
786215654193428, 7.1246295, 0.36370903, 7.320841, 0.12966108, -0.26765114, 10.217577
786215663832074, 6.969096, 0.14476576, 7.196414, 0.11814213, -0.05734223, 10.018003
786215673470720, 7.094719, -0.11246266, 7.2861447, 0.04515934, 0.19618696, 10.168337
786215683109366, 7.058827, 0.45702913, 7.203593, 0.098208904, -0.37687916, 10.0884075
786215692748011, 7.0695944, -0.5180461, 7.1677003, -0.07465935, 0.58979636, 10.063301
786215702386657, 7.1653075, 0.6735796, 7.2825556, 0.128304, -0.5939321, 10.220652
786215712025303, 7.0540414, -0.57906306, 7.0396843, -0.16534567, 0.6255504, 9.961592
786215721663949, 7.213164, 0.67118675, 7.271788, 0.08965111, -0.59787893, 10.24664
786215731302595, 7.0085773, -0.3361916, 7.025327, -0.10157919, 0.40062243, 9.920563
786215740941241, 7.170093, 0.37328035, 7.2658057, 0.06248808, -0.289474, 10.210476
786215750579886, 6.957132, 0.015553347, 7.0731835, 0.023742199, 0.059993327, 9.921073
786215760218532, 7.0935225, -0.08853444, 7.219146, 0.011106014, 0.17236477, 10.119888
786215769857178, 6.9906316, 0.4881358, 7.186843, 0.14230347, -0.39255053, 10.029138
786215779495824, 7.0301127, -0.4127619, 7.1712894, -0.024869442, 0.49306265, 10.038752
786215789134470, 7.1102724, 0.7262217, 7.268199, 0.13172722, -0.62517023, 10.173589
786215798773220, 6.9858456, -0.5922236, 7.04447, -0.1048789, 0.6779352, 9.914974
786215808411866, 7.1629148, 0.6257231, 7.2215385, 0.06102276, -0.5261374, 10.176883
786215818050511, 6.9894347, -0.47736812, 6.927222, -0.16197729, 0.552528, 9.835393
786215827689157, 7.1653075, 0.31465617, 7.172486, -0.008351326, -0.22259313, 10.140788
786215837327803, 6.9822564, -0.046660043, 6.9499536, -0.07690477, 0.1221776, 9.850637
786215846966449, 7.1078796, -0.09930214, 7.0600233, -0.095867634, 0.17412132, 10.016798
786215856605095, 7.0325055, 0.36610186, 7.004988, -0.016863823, -0.29478598, 9.928387
786215866243741, 7.058827, -0.47138608, 7.0636125, -0.118577, 0.53649193, 9.982084
786215875882386, 7.1078796, 0.6867401, 7.2622166, 0.15620232, -0.6002359, 10.166054
786215885521032, 7.0061846, -0.5407779, 7.1066833, -0.06271744, 0.61730504, 9.974918
786215895159678, 7.183254, 0.7322037, 7.2550383, 0.106612206, -0.6537856, 10.214307
786215904798324, 6.99781, -0.36729828, 6.995417, -0.10705423, 0.42366457, 9.891873
786215914436970, 7.1880393, 0.45583272, 7.2789664, 0.07723999, -0.36880118, 10.233135
786215924075616, 6.9906316, -0.05623133, 7.0372915, -0.02295208, 0.12510228, 9.918638
786215933714366, 7.1784678, -0.016749758, 7.166504, -0.061600685, 0.07605511, 10.142971
786215943353011, 7.0468626, 0.357727, 7.0899334, 0.030493736, -0.29005712, 9.998416
786215952991657, 7.0672016, -0.45822555, 7.1342006, -0.06929302, 0.51508677, 10.039024
786215962630303, 7.1078796, 0.6149554, 7.2059855, 0.08986807, -0.54615945, 10.125216
786215972268949, 6.9966135, -0.6161518, 7.04447, -0.10207033, 0.66141135, 9.925166
786215981907595, 7.1449685, 0.6987042, 7.283752, 0.13651752, -0.6467518, 10.20563
786215991546241, 6.966703, -0.4426722, 7.0337024, -0.07037926, 0.48452663, 9.897684
786216001184886, 7.1270223, 0.465404, 7.2825556, 0.1329112, -0.4101308, 10.191212
786216010823532, 7.0576305, 0.015553347, 7.1688967, 0.030300617, 0.03602153, 10.059885
786216020462178, 7.09113, 0.12203395, 7.1449685, 0.005423069, -0.07560462, 10.066969
786216030100824, 7.088737, 0.05503492, 7.117451, -0.02438593, -0.008246303, 10.04543
786216039739470, 7.099505, 0.10049855, 7.1892357, 0.021866798, -0.046168208, 10.104236
786216049378220, 7.092326, 0.061016977, 7.1916285, 0.023986816, -0.0062245727, 10.100679
786216059016866, 7.0935225, 0.09092726, 7.1581287, -0.004231453, -0.0352906, 10.07789
786216068655511, 7.0863442, 0.13280165, 7.1688967, 0.010202408, -0.07402879, 10.080745
786216078294157, 7.094719, 0.13399807, 7.1677003, 7.9488754E-4, -0.07357243, 10.085808
786216087932803, 7.0779696, 0.10049855, 7.172486, 0.013768673, -0.039360195, 10.077232
786216097571449, 7.062416, 0.061016977, 7.160522, 0.015141487, 0.0023499131, 10.0575485
786216107210095, 7.071987, 0.013160525, 7.1892357, 0.02660942, 0.05264628, 10.084385
786216116848741, 7.0576305, -0.022731815, 7.1569324, 0.013104439, 0.08835697, 10.051087
786216126487386, 7.0337024, -0.014356935, 7.1342006, 0.014273167, 0.08028999, 10.018149
786216136126136, 7.062416, -0.008374879, 7.1162543, -0.018794537, 0.07139036, 10.025638
786216145764782, 7.0600233, 0.015553347, 7.119844, -0.014029026, 0.048983008, 10.026651
786216155403428, 7.048059, 0.0526421, 7.119844, -0.0019888878, 0.012860537, 10.018478
786216165042074, 7.0492554, 0.062213387, 7.1042905, -0.014394283, 0.0029116273, 10.008327
786216174680720, 7.055238, 0.07058827, 7.112665, -0.013735771, -0.0043073297, 10.018541
786216184319366, 7.071987, 0.09810573, 7.159325, 0.00816679, -0.029046655, 10.063681
786216193958011, 7.0815587, 0.11246266, 7.1617184, 0.0041766167, -0.043702364, 10.07221
786216203596657, 7.0839515, 0.08135597, 7.176075, 0.009337902, -0.011954814, 10.083889
786216213235303, 7.0731835, 0.06819545, 7.173682, 0.014294624, 5.068183E-4, 10.074528
786216222874053, 7.062416, 0.0741775, 7.198807, 0.039919853, -0.0040358007, 10.084862
786216232512699, 7.0504518, 0.0849452, 7.183254, 0.038688183, -0.01669082, 10.065458
786216242151345, 7.0408807, 0.09930214, 7.192825, 0.054722786, -0.033787847, 10.065607
786216251789991, 7.0636125, 0.12083755, 7.166504, 0.023200512, -0.05826062, 10.063005
786216261428636, 7.092326, 0.08733802, 7.1365933, -0.020292759, -0.027626693, 10.061735
786216271067282, 7.117451, 0.041874398, 7.1377897, -0.03843689, 0.015936434, 10.0799885
786216280705928, 7.123433, -0.013160525, 7.1485577, -0.035853386, 0.06924415, 10.091545
786216290344574, 7.1066833, -0.021535404, 7.160522, -0.016216278, 0.079098135, 10.08821
786216299983324, 7.1078796, 0.02871387, 7.179664, -8.5926056E-4, 0.030136943, 10.102943
786216309621970, 7.0731835, 0.07776674, 7.155736, 0.011325836, -0.018261462, 10.061811
786216319260616, 7.0372915, 0.10049855, 7.117451, 0.007876396, -0.036335647, 10.009512
786216328899261, 7.0301127, 0.106480606, 7.115058, 0.012000084, -0.04198259, 10.002798
786216338537907, 7.0145597, 0.11006984, 7.135397, 0.03537178, -0.041400284, 10.006352
786216348176553, 7.025327, 0.12083755, 7.1653075, 0.04907322, -0.050584406, 10.035261
786216357815199, 7.0468626, 0.11724831, 7.196414, 0.05477667, -0.046823442, 10.072496
786216367453949, 7.0576305, 0.11246266, 7.1688967, 0.032711983, -0.04594502, 10.0604515
786216377092595, 7.1042905, 0.0849452, 7.159325, -0.006114483, -0.022203594, 10.086308
786216386731241, 7.1485577, 0.069391854, 7.1413794, -0.051377296, -0.008417934, 10.104618
786216396369886, 7.140183, 0.06460621, 7.1569324, -0.03196907, -0.0038287342, 10.109751
786216406008532, 7.1425757, 0.059820566, 7.1342006, -0.048346996, 0.0016068518, 10.095268
786216415647178, 7.1102724, 0.046660043, 7.119844, -0.036153316, 0.015223056, 10.062246
786216425285928, 7.070791, 0.038285162, 7.0863442, -0.032042027, 0.025330454, 10.010603
786216434924574, 7.0301127, 0.02751746, 7.071987, -0.012971401, 0.04009986, 9.9716835
786216444563220, 7.038488, -0.0047856453, 7.0695944, -0.02166462, 0.07217847, 9.975662
786216454201866, 7.007381, 0.033499517, 7.07438, 0.0060887337, 0.03536944, 9.957415
786216463840511, 7.0301127, 0.034695927, 7.0899334, 8.8977814E-4, 0.033483565, 9.984474
786216473479157, 7.042077, 0.034695927, 7.1042905, 0.0028452873, 0.033028305, 10.003096
786216483117803, 7.0492554, 0.02751746, 7.1270223, 0.013005257, 0.039484322, 10.024244
786216492756553, 7.0600233, 0.0526421, 7.1413794, 0.015795708, 0.009771138, 10.042193
786216502395199, 7.071987, 0.0526421, 7.1162543, -0.011074543, 0.005351901, 10.032782
786216512033845, 7.071987, 0.05742774, 7.1007013, -0.02177, 3.7014484E-5, 10.021767
786216521672491, 7.112665, 0.040677983, 7.123433, -0.03524971, 0.0128110945, 10.066457
786216531311136, 7.09113, 0.051445685, 7.123433, -0.018303871, -4.0072203E-4, 10.051355
786216540949782, 7.0983086, 0.07058827, 7.1688967, 0.013988972, -0.023002416, 10.088772
786216550588532, 7.1282187, 0.13040884, 7.203593, 0.020256042, -0.082366645, 10.134745
786216560227178, 7.09113, 0.14476576, 7.1629148, 0.0195055, -0.09686977, 10.079815
786216569865824, 7.09113, 0.086141616, 7.1425757, 0.0012602806, -0.036694705, 10.065118
786216579504470, 7.0695944, 0.039481573, 7.190432, 0.04722166, 0.015412912, 10.083677
786216589143116, 7.079166, 0.07178468, 7.1952176, 0.042422295, -0.013897002, 10.094004
786216598781866, 7.1018977, 0.08135597, 7.155736, -0.0034604073, -0.025993109, 10.082036
786216608420511, 7.082755, 0.05623133, 7.112665, -0.022317886, -0.0037277043, 10.037832
786216618059157, 7.0863442, 0.03589234, 7.1222367, -0.019209862, 0.016664028, 10.047047
786216627697803, 7.082755, 0.01794617, 7.1677003, 0.016053677, 0.032040417, 10.076725
786216637336449, 7.0695944, -0.013160525, 7.190432, 0.04354, 0.057778627, 10.083473
786216646975095, 7.092326, 0.0059820567, 7.153343, 0.0068264008, 0.028644383, 10.073261
786216656613845, 7.076773, 0.01794617, 7.213164, 0.06572199, 0.012849897, 10.104765
786216666252491, 7.1066833, -0.019142581, 7.259824, 0.08760929, 0.043016493, 10.158781
786216675891136, 7.105487, -0.07537391, 7.1581287, 0.013072014, 0.09341496, 10.08581
786216685529782, 7.1078796, -0.0526421, 7.062416, -0.047760963, 0.06474015, 10.019779
786216695168428, 7.1007013, 0.0059820567, 7.048059, -0.048371315, 0.005769998, 10.004637
786216704807178, 7.0863442, 0.07537391, 7.024131, -0.048432827, -0.058184832, 9.977707
786216714445824, 7.1007013, 0.1160519, 6.971489, -0.09154606, -0.10333291, 9.950681
786216724084470, 7.1007013, 0.1268196, 6.9930243, -0.079208374, -0.10735485, 9.965973
786216733723116, 7.115058, 0.14237295, 7.055238, -0.048199654, -0.11363414, 10.020252
786216743361761, 7.125826, 0.1698904, 7.1162543, -0.018440723, -0.12575561, 10.071305
786216753000511, 7.149754, 0.15672988, 7.1748786, 0.0017743111, -0.10357708, 10.129742
786216762639157, 7.164111, 0.1698904, 7.2442703, 0.042697906, -0.11295706, 10.189123
786216772277803, 7.159325, 0.13758731, 7.2550383, 0.046890736, -0.07309911, 10.193277
786216781916449, 7.1473613, 0.09332009, 7.2418776, 0.038577557, -0.021638751, 10.17528
786216791555095, 7.1186476, 0.03708875, 7.2502527, 0.056734085, 0.048250496, 10.160568
786216801193845, 7.064809, -0.0071784677, 7.2323065, 0.078896046, 0.0939146, 10.109539
786216810832491, 7.0205417, -0.015553347, 7.1772714, 0.07114458, 0.10434809, 10.0392
786216820471136, 6.9762745, -0.038285162, 7.0983086, 0.044766903, 0.12959911, 9.951736
786216830109782, 6.960721, -0.043070808, 7.0061846, -0.010919571, 0.13002539, 9.875378
786216839748428, 6.930811, -0.049052864, 6.9942207, 0.0018949509, 0.13741985, 9.845749
786216849387178, 6.9332037, -0.046660043, 7.0301127, 0.0265522, 0.13636181, 9.872927
786216859025824, 6.9882383, -0.039481573, 6.9942207, -0.039051056, 0.11752263, 9.886395
786216868664470, 7.007381, -0.02632105, 6.984649, -0.058117867, 0.09781703, 9.893253
786216878303116, 7.088737, -0.01794617, 7.0002027, -0.10456514, 0.08525655, 9.961684
786216887941761, 7.117451, 0.043070808, 7.001399, -0.1157918, 0.0087014735, 9.983289
786216897580511, 7.1342006, 0.07058827, 7.0229344, -0.10981512, -0.018908322, 10.010542
786216907219157, 7.159325, 0.09451649, 7.1138616, -0.05763626, -0.04589522, 10.092892
786216916857803, 7.152147, 0.096909314, 7.166504, -0.012060642, -0.05225861, 10.125141
786216926496449, 7.123433, 0.09332009, 7.204789, 0.03778696, -0.061273962, 10.13192
786216936135095, 7.1138616, 0.106480606, 7.2382884, 0.069615364, -0.07978052, 10.1488905
786216945773845, 7.1042905, 0.12801601, 7.3052874, 0.12636471, -0.102514744, 10.189606
786216955412491, 7.0863442, 0.13519448, 7.3567333, 0.17465115, -0.111341864, 10.213384
786216965051136, 7.111469, 0.11365908, 7.3064837, 0.12005663, -0.093394965, 10.195464
786216974689782, 7.1413794, 0.09810573, 7.239485, 0.05017519, -0.08264616, 10.169058
