timestamp_acc,device_acc_x,device_acc_y,device_acc_z,earth_acc_x,earth_acc_y,earth_acc_z
1125725672744436, 5.5022955, -0.043070808, 8.402397, -0.0010740757, 0.027086735, 10.043737
1125725682384645, 5.4891353, -0.07058827, 8.374879, -0.029845238, 0.032669544, 10.013603
1125725692024957, 5.4927244, -0.06460621, 8.396415, -0.022032857, 0.03597212, 10.033554
1125725701665166, 5.535795, -0.06460621, 8.41795, -0.030825615, 0.013404846, 10.075215
1125725711305478, 5.5310097, -0.0741775, 8.422736, -0.03762555, 0.024188042, 10.07661
1125725720945686, 5.5429735, -0.051445685, 8.443074, -0.016216636, 0.01872778, 10.100103
1125725730585999, 5.5573306, -0.041874398, 8.414361, -0.017207623, -0.010730267, 10.083984
1125725740226207, 5.5573306, -0.02632105, 8.435896, 0.0011751652, -0.0037055016, 10.101929
1125725749866520, 5.558527, -0.016749758, 8.425129, 0.007893205, -0.012133598, 10.093565
1125725759506728, 5.5633125, -0.021535404, 8.368897, -0.0093768835, -0.040460587, 10.049259
1125725769147041, 5.5262237, -0.016749758, 8.318648, -0.003456235, -0.036233902, 9.986893
1125725778787249, 5.528617, 0.05503492, 8.342576, 0.06837857, -0.048139095, 10.008007
1125725788427561, 5.568098, 0.06819545, 8.366505, 0.07397413, -0.07103348, 10.049688
1125725798067770, 5.56092, 0.09571291, 8.4012, 0.106051564, -0.04996729, 10.074692
1125725807708082, 5.5250273, 0.09571291, 8.423932, 0.121304035, -0.010093212, 10.073873
1125725817348291, 5.5597234, 0.040677983, 8.407183, 0.05374825, -0.025259018, 10.079155
1125725826988603, 5.5573306, 0.03708875, 8.40479, 0.048421502, -0.024993896, 10.075852
1125725836628811, 5.501099, -0.0023928226, 8.40479, 0.028772712, 0.03127289, 10.044938
1125725846269124, 5.5477595, -0.008374879, 8.432307, 0.015268326, 0.008386135, 10.093621
1125725855909332, 5.5453663, -0.014356935, 8.432307, 0.010877252, 0.011360168, 10.092317
1125725865549645, 5.5190454, -0.05503492, 8.413164, -0.022336721, 0.037490368, 10.061923
1125725875189853, 5.495117, -0.083748795, 8.410771, -0.04184997, 0.06412697, 10.046818
1125725884830166, 5.521438, -0.0849452, 8.425129, -0.047579646, 0.049913406, 10.073307
1125725894470374, 5.5429735, -0.096909314, 8.410771, -0.06295371, 0.031874657, 10.073235
1125725904110686, 5.5310097, -0.10049855, 8.408379, -0.063250184, 0.041066647, 10.064656
1125725913750895, 5.5369916, -0.09451649, 8.4012, -0.057085752, 0.03326559, 10.061957
1125725923391207, 5.541777, -0.076570325, 8.356933, -0.043827653, 0.0074133873, 10.027637
1125725933031416, 5.56092, -0.069391854, 8.330612, -0.04609704, -0.020280361, 10.016248
1125725942671728, 5.5453663, -0.029910283, 8.333005, -0.004099369, -0.021566391, 10.00952
1125725952311936, 5.5776696, -0.015553347, 8.340183, 0.0021618605, -0.04566717, 10.033304
1125725961952249, 5.601598, 0.0, 8.330612, 0.0032480955, -0.07402611, 10.038501
1125725971592457, 5.5657053, 0.0071784677, 8.352147, 0.023432136, -0.037447453, 10.036609
1125725981232770, 5.569295, 0.008374879, 8.384451, 0.027528286, -0.023840427, 10.065527
1125725990872978, 5.5704913, 0.015553347, 8.422736, 0.041921496, -0.007995129, 10.0980835
1125726000513291, 5.5669017, 0.03708875, 8.452646, 0.06639862, -4.105568E-4, 10.120997
1125726010153499, 5.548956, 0.011964113, 8.447861, 0.04778135, 0.020754337, 10.107161
1125726019793811, 5.5369916, 0.0047856453, 8.403593, 0.034085274, 0.0033607483, 10.063673
1125726029434020, 5.541777, -0.015553347, 8.396415, 0.012254715, 0.0036997795, 10.060377
1125726039074332, 5.5334024, -0.041874398, 8.374879, -0.012061954, 0.007609844, 10.037863
1125726048714541, 5.5166526, -0.06580263, 8.377272, -0.027012229, 0.03115511, 10.030691
1125726058354853, 5.5310097, -0.06580263, 8.40479, -0.025523782, 0.034233093, 10.0615635
1125726067995061, 5.5537415, -0.08853444, 8.395218, -0.055002928, 0.018906116, 10.066191
1125726077635374, 5.528617, -0.08973085, 8.329415, -0.06231594, 0.0019416809, 9.997446
1125726087275582, 5.5262237, -0.05383851, 8.306684, -0.033577204, -0.025057793, 9.977038
1125726096915895, 5.556134, -0.038285162, 8.325827, -0.02460146, -0.044139385, 10.009443
1125726106556103, 5.5573306, -0.0011964113, 8.380861, 0.02076292, -0.025294304, 10.055929
1125726116196416, 5.5657053, 0.020338992, 8.41795, 0.04584372, -0.021093369, 10.091424
1125726125836624, 5.6123657, 0.021535404, 8.398808, 0.024696827, -0.06426144, 10.101204
1125726135476936, 5.6171513, -0.014356935, 8.367701, -0.016478777, -0.069863796, 10.07799
1125726145117145, 5.5573306, -0.06460621, 8.362915, -0.045859933, -0.006647587, 10.04113
1125726154757457, 5.541777, -0.049052864, 8.384451, -0.019011617, 0.009000778, 10.050487
1125726164397666, 5.558527, -0.046660043, 8.385647, -0.021849036, -0.0042705536, 10.060716
1125726174037978, 5.5405807, -0.0526421, 8.383254, -0.018097997, 0.011339188, 10.048847
1125726183678186, 5.5130634, -0.058624156, 8.377272, -0.01638782, 0.03182745, 10.028695
1125726193318499, 5.5166526, -0.04426722, 8.405986, 0.004108548, 0.043405533, 10.054557
1125726202958707, 5.5166526, 0.014356935, 8.414361, 0.06022942, 0.026564598, 10.061352
1125726212599020, 5.51426, -0.0011964113, 8.373683, 0.035595298, 0.016698837, 10.026171
1125726222239228, 5.5190454, 0.049052864, 8.392825, 0.0829978, 0.0050144196, 10.044643
1125726231879541, 5.528617, 0.06460621, 8.408379, 0.097750425, -0.0018072128, 10.062856
1125726241519749, 5.588437, 0.0634098, 8.415557, 0.07682538, -0.04388857, 10.101902
1125726251160061, 5.595616, 0.033499517, 8.390432, 0.03932953, -0.051245213, 10.085
1125726260800270, 5.5800624, -0.013160525, 8.35454, -0.0067640543, -0.038673878, 10.046595
1125726270440582, 5.5453663, -0.05383851, 8.365308, -0.03117621, 0.00924778, 10.036498
1125726280080791, 5.56092, -0.039481573, 8.361719, -0.01913333, -0.012057781, 10.042073
1125726289721103, 5.584848, -0.06580263, 8.352147, -0.05211842, -0.02729845, 10.047376
1125726299361311, 5.575277, -0.08015956, 8.370093, -0.058516383, -0.0049090385, 10.057095
1125726309001624, 5.535795, -0.083748795, 8.386844, -0.045502663, 0.03291273, 10.049281
1125726318641832, 5.5501523, -0.08853444, 8.366505, -0.061341643, 0.007926464, 10.04025
1125726328282145, 5.5334024, -0.08973085, 8.352147, -0.06096506, 0.014044285, 10.019035
1125726337922353, 5.535795, -0.06460621, 8.37129, -0.034474134, 0.012057781, 10.036253
1125726347562666, 5.5453663, -0.008374879, 8.411968, 0.02329719, 0.0048503876, 10.075306
1125726357202874, 5.5405807, 0.013160525, 8.426325, 0.04823804, 0.009377956, 10.08458
1125726366843186, 5.54417, 0.011964113, 8.425129, 0.045473576, 0.008117199, 10.085565
1125726376483395, 5.5202417, 0.014356935, 8.397611, 0.049024582, 0.012245655, 10.049408
1125726386123707, 5.5573306, -0.043070808, 8.382058, -0.019049764, -0.0036907196, 10.057053
1125726395763916, 5.581259, -0.02751746, 8.373683, -0.0132853985, -0.034489155, 10.06322
1125726405404228, 5.5513487, -0.03708875, 8.359326, -0.014566898, -0.015699387, 10.034777
1125726415044436, 5.541777, -0.059820566, 8.327023, -0.037626505, -0.014510155, 10.002627
1125726424684749, 5.535795, -0.034695927, 8.338987, -0.009946227, -0.013103485, 10.00923
1125726434324957, 5.5310097, -0.023928227, 8.346166, 0.003511548, -0.011094093, 10.012541
1125726443965270, 5.5597234, -0.019142581, 8.3581295, 9.704828E-4, -0.029841423, 10.038343
1125726453605478, 5.5477595, -0.025124637, 8.328219, -0.0073764324, -0.03241253, 10.006818
1125726463245791, 5.541777, -0.016749758, 8.370093, 0.011760235, -0.0056004524, 10.03842
1125726472885999, 5.564509, -0.029910283, 8.413164, 0.0028934479, 0.008118629, 10.086919
1125726482526311, 5.5908303, -0.013160525, 8.433503, 0.016047, -0.005001068, 10.118362
1125726492166520, 5.578866, -0.010767702, 8.411968, 0.017994761, -0.00758934, 10.093795
1125726501806728, 5.572884, -0.0071784677, 8.395218, 0.019493222, -0.015321255, 10.076515
1125726511447041, 5.528617, -0.011964113, 8.35454, 0.019220948, -0.0033740997, 10.018168
1125726521087249, 5.5070815, -0.013160525, 8.330612, 0.019757986, 0.0015120506, 9.986331
1125726530727561, 5.48076, -0.0023928226, 8.330612, 0.03688991, 0.015885353, 9.971771
1125726540367770, 5.5130634, -0.025124637, 8.380861, 0.015903354, 0.02579832, 10.03157
1125726550008082, 5.5465627, -0.02751746, 8.414361, 0.010298848, 0.017877102, 10.078004
1125726559648291, 5.581259, 0.0, 8.429914, 0.028467536, -0.011123657, 10.1100445
1125726569288603, 5.581259, -0.01794617, 8.38804, 0.0029515028, -0.026425362, 10.07518
1125726578928811, 5.5405807, -0.046660043, 8.37129, -0.014844179, 0.0070614815, 10.038847
1125726588569124, 5.5393844, -0.021535404, 8.385647, 0.013266802, 0.007536888, 10.050078
1125726598209332, 5.576473, -0.015553347, 8.379665, 0.00944376, -0.023678303, 10.0655575
1125726607849645, 5.568098, -0.049052864, 8.35454, -0.021124125, -0.013540745, 10.040111
1125726617489853, 5.584848, -0.058624156, 8.35454, -0.028820753, -0.016252995, 10.049437
1125726627130166, 5.584848, -0.049052864, 8.329415, -0.025110126, -0.03263712, 10.02848
1125726636770374, 5.601598, -0.076570325, 8.348558, -0.049215198, -0.024753094, 10.053813
1125726646410686, 5.582455, -0.07298109, 8.34138, -0.04151666, -0.014998436, 10.037222
1125726656050895, 5.576473, -0.059820566, 8.338987, -0.026661873, -0.017930508, 10.031864
1125726665691103, 5.5836515, -0.032303106, 8.352147, -6.0880184E-4, -0.026713848, 10.046684
1125726675331416, 5.552545, -0.041874398, 8.367701, 0.0038319826, 0.008925438, 10.042451
1125726684971624, 5.5202417, -0.013160525, 8.366505, 0.04145527, 0.026911736, 10.023433
1125726694611936, 5.5250273, -0.031106694, 8.368897, 0.023731232, 0.03106308, 10.028151
1125726704252145, 5.5704913, -0.0011964113, 8.376076, 0.04060495, -0.0063738823, 10.059193
1125726713892457, 5.6243296, 0.05503492, 8.411968, 0.083453655, -0.050144672, 10.118688
1125726723532666, 5.5477595, -0.0634098, 8.413164, -0.005821228, 0.05112934, 10.077715
1125726733172978, 5.625526, 0.21296121, 8.318648, 0.20551395, -0.16579723, 10.041019
1125726742813186, 5.436493, -0.5168497, 8.323434, -0.41306567, 0.25411987, 9.943185
1125726752453499, 5.676972, 0.59581286, 8.316256, 0.5360774, -0.3551116, 10.066263
1125726762093707, 5.4317074, -0.8003992, 8.366505, -0.6643822, 0.3775189, 9.977903
1125726771734020, 5.6530433, 0.6903293, 8.411968, 0.6616336, -0.32765102, 10.131612
1125726781374228, 5.4412785, -0.7716853, 8.315059, -0.6521766, 0.32736802, 9.940357
1125726791014436, 5.5944195, 0.45702913, 8.426325, 0.4552884, -0.1813345, 10.112824
1125726800654749, 5.554938, -0.34097722, 8.355737, -0.28482282, 0.10645723, 10.034912
1125726810294957, 5.538188, 0.023928227, 8.432307, 0.08160567, 0.03057909, 10.088028
1125726819935270, 5.6099725, 0.18185452, 8.340183, 0.18935561, -0.1301527, 10.050409
1125726829575478, 5.4664035, -0.45822555, 8.37129, -0.36241984, 0.22144318, 9.999483
1125726839215791, 5.6937213, 0.6053841, 8.347362, 0.5608026, -0.33837795, 10.101209
1125726848855999, 5.444868, -0.76331043, 8.368897, -0.6420865, 0.33495378, 9.987151
1125726858496311, 5.692525, 0.72502524, 8.390432, 0.677792, -0.35604048, 10.136257
1125726868136520, 5.474778, -0.7680961, 8.297112, -0.6705378, 0.2713399, 9.943943
1125726877776728, 5.636294, 0.51445687, 8.3784685, 0.5073657, -0.243855, 10.095263
1125726887417041, 5.5633125, -0.3924229, 8.310273, -0.33633018, 0.09142017, 10.00218
1125726897057249, 5.5573306, 0.076570325, 8.415557, 0.11834872, -0.009553432, 10.084507
1125726906697561, 5.6279187, 0.124426775, 8.298309, 0.123539805, -0.14393997, 10.025712
1125726916337770, 5.474778, -0.43070808, 8.342576, -0.3415172, 0.1958518, 9.980094
1125726925978082, 5.6949177, 0.5240282, 8.338987, 0.4864887, -0.31911325, 10.094894
1125726935618291, 5.45085, -0.7932207, 8.374879, -0.6719388, 0.36858797, 9.994608
1125726945258499, 5.716453, 0.6963114, 8.403593, 0.637117, -0.37200642, 10.160647
1125726954898811, 5.4580283, -0.77766734, 8.330612, -0.655228, 0.332412, 9.962635
1125726964539020, 5.6303115, 0.56829536, 8.394022, 0.5502491, -0.24993992, 10.105331
1125726974179332, 5.515456, -0.44147578, 8.295917, -0.36534607, 0.14770603, 9.964039
1125726983819541, 5.5190454, 0.17347965, 8.397611, 0.21941483, -0.02011919, 10.047949
1125726993459853, 5.5968122, 0.08135597, 8.34138, 0.10375881, -0.080792904, 10.044515
1125727003100061, 5.491528, -0.3481557, 8.382058, -0.25916696, 0.17912531, 10.021862
1125727012740270, 5.6913285, 0.55513483, 8.367701, 0.5144602, -0.31322193, 10.117066
1125727022380582, 5.4317074, -0.73340017, 8.391629, -0.6112902, 0.36374736, 9.997739
1125727032020791, 5.682954, 0.715454, 8.423932, 0.67285514, -0.3355751, 10.158993
1125727041661103, 5.4376893, -0.8039884, 8.343773, -0.6852697, 0.36191344, 9.961569
1125727051301311, 5.6303115, 0.5886344, 8.38804, 0.576226, -0.2756734, 10.09941
1125727060941520, 5.4819565, -0.5312066, 8.322237, -0.448825, 0.2085185, 9.967384
1125727070581832, 5.5130634, 0.17826529, 8.433503, 0.22899091, -0.0054268837, 10.07458
1125727080222041, 5.5716877, -0.04426722, 8.335398, -0.010960698, -0.027115345, 10.026148
1125727089862353, 5.4436717, -0.3481557, 8.391629, -0.24857295, 0.20768833, 10.003465
1125727099502561, 5.636294, 0.46660042, 8.352147, 0.4522189, -0.24629831, 10.073666
1125727109142874, 5.426922, -0.7286145, 8.391629, -0.59653807, 0.34908462, 9.996202
1125727118783082, 5.690132, 0.69272214, 8.395218, 0.65742606, -0.35833836, 10.1378765
1125727128423291, 5.4089756, -0.8315059, 8.370093, -0.6973777, 0.375767, 9.968919
1125727138063603, 5.642276, 0.5838487, 8.385647, 0.5528585, -0.28748846, 10.104797
1125727147703811, 5.5094743, -0.567099, 8.289934, -0.5019314, 0.1683979, 9.955833
1125727157344124, 5.5405807, 0.25842485, 8.38804, 0.27926898, -0.10098219, 10.051659
1125727166984332, 5.581259, -0.058624156, 8.298309, -0.03557539, -0.055393696, 10.000575
1125727176624541, 5.4987063, -0.26799613, 8.379665, -0.18772984, 0.13278341, 10.023646
1125727186264853, 5.6877394, 0.38404804, 8.346166, 0.3606267, -0.26204777, 10.097406
1125727195905061, 5.4628143, -0.701097, 8.367701, -0.57532763, 0.31503224, 9.996103
1125727205545374, 5.686543, 0.65682983, 8.376076, 0.6194836, -0.34200048, 10.120579
1125727215185582, 5.4556355, -0.83748794, 8.343773, -0.69947195, 0.35762691, 9.973301
1125727224825791, 5.6913285, 0.6376872, 8.382058, 0.6088704, -0.3519945, 10.127296
1125727234466103, 5.515456, -0.58265233, 8.29113, -0.50611067, 0.18423367, 9.960547
1125727244106311, 5.541777, 0.31585258, 8.411968, 0.35474515, -0.10337067, 10.071531
1125727253746624, 5.523831, -0.10887343, 8.350951, -0.0546211, 0.033795834, 10.012932
1125727263386832, 5.483153, -0.15672988, 8.372486, -0.083222985, 0.09342575, 10.0086155
1125727273027041, 5.639883, 0.41515473, 8.350951, 0.4013517, -0.24369812, 10.074649
1125727282667353, 5.4412785, -0.63170516, 8.400003, -0.51168895, 0.31375837, 10.010311
1125727292307561, 5.71765, 0.66759753, 8.402397, 0.62165487, -0.36284447, 10.159693
1125727301947770, 5.432904, -0.863809, 8.335398, -0.7383275, 0.37173986, 9.952796
1125727311588082, 5.6733823, 0.6125626, 8.35454, 0.5915313, -0.3303094, 10.094643
1125727321228291, 5.5094743, -0.715454, 8.29113, -0.61541903, 0.23475456, 9.958673
1125727330868603, 5.6099725, 0.35533416, 8.407183, 0.37190342, -0.15597153, 10.105253
1125727340508811, 5.605187, -0.18305093, 8.287541, -0.1428771, -0.024925709, 10.005695
1125727350149020, 5.5573306, -0.12203395, 8.368897, -0.06155765, 0.035799503, 10.046501
1125727359789332, 5.672186, 0.33738798, 8.319844, 0.32384098, -0.24276972, 10.066952
1125727369429541, 5.4628143, -0.58983076, 8.37129, -0.47009695, 0.27783442, 9.998529
1125727379069749, 5.7343993, 0.71425754, 8.386844, 0.6652607, -0.38351297, 10.155935
1125727388710061, 5.4687963, -0.7465607, 8.390432, -0.6153449, 0.33734798, 10.018581
1125727398350270, 5.6853466, 0.74177504, 8.395218, 0.7020184, -0.35165453, 10.135906
1125727407990582, 5.4628143, -0.67118675, 8.288737, -0.5719328, 0.26684713, 9.929637
1125727417630791, 5.554938, 0.4103691, 8.3581295, 0.42590034, -0.15339613, 10.033901
1125727427270999, 5.491528, -0.28713873, 8.283952, -0.21152413, 0.10357618, 9.9402075
1125727436911311, 5.4580283, -0.13399807, 8.411968, -0.035337567, 0.14069033, 10.027372
1125727446551520, 5.582455, 0.20578274, 8.361719, 0.25125992, -0.100862026, 10.0524235
1125727456191728, 5.3922257, -0.64845496, 8.435896, -0.48553932, 0.38017535, 10.014023
1125727465832041, 5.649454, 0.5479564, 8.440681, 0.5748526, -0.23682165, 10.152594
1125727475472249, 5.3982077, -0.9128618, 8.423932, -0.737865, 0.4378152, 10.010019
1125727485112457, 5.692525, 0.6257231, 8.4502535, 0.62661386, -0.28990412, 10.184618
1125727494752770, 5.493921, -0.78843504, 8.3174515, -0.6671245, 0.26068163, 9.973555
1125727504392978, 5.6303115, 0.3912265, 8.361719, 0.4121921, -0.21184587, 10.077551
1125727514033291, 5.584848, -0.37447673, 8.263613, -0.32565427, 0.03239107, 9.975518
1125727523673499, 5.599205, -0.014356935, 8.356933, 0.0314734, -0.054273605, 10.05911
1125727533313707, 5.7320065, 0.20697916, 8.218149, 0.17506361, -0.30602074, 10.015609
1125727542954020, 5.5669017, -0.53240305, 8.252846, -0.46740425, 0.10840368, 9.957565
1125727552594228, 5.753542, 0.62931234, 8.301898, 0.5876707, -0.4116292, 10.094849
1125727562234436, 5.474778, -0.72382885, 8.373683, -0.5965713, 0.32325506, 10.007762
1125727571874749, 5.7140603, 0.8350951, 8.385647, 0.814416, -0.39355612, 10.1414385
1125727581514957, 5.447261, -0.6041877, 8.298309, -0.47875786, 0.26465607, 9.929772
1125727591155166, 5.535795, 0.6029913, 8.366505, 0.6279831, -0.18573093, 10.028867
1125727600795478, 5.473582, -0.27517462, 8.336594, -0.17350602, 0.15130329, 9.974047
1125727610435686, 5.511867, 0.10289137, 8.467003, 0.18618691, 0.05912876, 10.101646
1125727620075895, 5.595616, 0.12083755, 8.361719, 0.16232014, -0.07347298, 10.060423
1125727629716207, 5.395815, -0.52283174, 8.43111, -0.37690747, 0.33069944, 10.011013
1125727639356416, 5.6063833, 0.50368917, 8.421539, 0.5254487, -0.19119358, 10.114094
1125727648996624, 5.3742795, -0.88414794, 8.445468, -0.6967534, 0.47231507, 10.014091
1125727658636936, 5.6374903, 0.6053841, 8.445468, 0.61526155, -0.25339508, 10.150418
1125727668277145, 5.436493, -0.9212367, 8.353344, -0.76753175, 0.3678136, 9.972868
1125727677917353, 5.6530433, 0.3804588, 8.398808, 0.40722358, -0.22234535, 10.120591
1125727687557666, 5.6207404, -0.5982057, 8.321041, -0.5214958, 0.112873554, 10.045179
1125727697197874, 5.663811, -0.050249275, 8.380861, -0.0085709095, -0.07996607, 10.115022
1125727706838082, 5.7188463, -0.008374879, 8.22772, -0.002611637, -0.20160341, 10.017984
1125727716478395, 5.5226345, -0.4331009, 8.232507, -0.3435011, 0.10315132, 9.91628
1125727726118603, 5.723632, 0.57906306, 8.19781, 0.54834664, -0.4133792, 9.991385
1125727735758811, 5.4592247, -0.634098, 8.305488, -0.50038826, 0.28164053, 9.942667
1125727745399124, 5.6781683, 0.8961121, 8.384451, 0.8873083, -0.38058758, 10.119855
1125727755039332, 5.416154, -0.64845496, 8.360522, -0.48217058, 0.3438382, 9.965082
1125727764679541, 5.6075797, 0.66041905, 8.451449, 0.6905657, -0.24400139, 10.137638
1125727774319853, 5.453243, -0.46779683, 8.413164, -0.33384073, 0.26352358, 10.027818
1125727783960061, 5.5298133, 0.11246266, 8.504091, 0.20156813, 0.038313866, 10.142433
1125727793600270, 5.5860443, -0.09810573, 8.398808, -0.02957058, 0.0028567314, 10.08725
1125727803240582, 5.4352965, -0.48933223, 8.440681, -0.34175408, 0.28194475, 10.04145
1125727812880791, 5.6410794, 0.33738798, 8.384451, 0.3681965, -0.20762825, 10.102275
1125727822520999, 5.4412785, -0.80997044, 8.416754, -0.6399863, 0.38619757, 10.027292
1125727832161311, 5.7116675, 0.6436693, 8.419147, 0.6372416, -0.34523392, 10.168295
1125727841801520, 5.4963136, -0.84107715, 8.32463, -0.7110615, 0.29733706, 9.981097
1125727851441728, 5.6853466, 0.5694918, 8.274381, 0.54833984, -0.36392927, 10.03393
1125727861082041, 5.56092, -0.526421, 8.210971, -0.44586623, 0.07910347, 9.92048
1125727870722249, 5.6327047, 0.2739782, 8.330612, 0.29689217, -0.18781662, 10.0537615
1125727880362457, 5.6578293, 0.03708875, 8.276773, 0.050543904, -0.16166878, 10.024405
1125727890002770, 5.4795637, -0.17347965, 8.385647, -0.071777344, 0.10845375, 10.017878
1125727899642978, 5.6279187, 0.5491528, 8.383254, 0.54974484, -0.28997993, 10.092951
1125727909283186, 5.3718867, -0.63888365, 8.46461, -0.47723675, 0.37293863, 10.0273695
1125727918923499, 5.611169, 0.73459655, 8.487342, 0.7345865, -0.30214596, 10.170001
1125727928563707, 5.3240304, -0.8997013, 8.419147, -0.7114186, 0.45971107, 9.96591
1125727938203916, 5.4963136, 0.5706882, 8.52802, 0.61615634, -0.15438366, 10.141932
1125727947844228, 5.3623157, -0.715454, 8.395218, -0.5561842, 0.33701873, 9.966096
1125727957484436, 5.447261, 0.124426775, 8.489735, 0.2093358, 0.0123410225, 10.085623
1125727967124645, 5.4676, -0.17706887, 8.421539, -0.07678115, 0.07236862, 10.041773
1125727976764957, 5.4113684, -0.38524446, 8.360522, -0.26032078, 0.16752243, 9.961618
1125727986405166, 5.5944195, 0.2440679, 8.289934, 0.2558912, -0.24019384, 9.997848
1125727996045374, 5.332405, -0.7728817, 8.323434, -0.5946671, 0.35742092, 9.890909
1125728005685686, 5.7140603, 0.5563313, 8.457432, 0.56247485, -0.33464003, 10.20097
1125728015325895, 5.483153, -0.92602235, 8.386844, -0.7586074, 0.35223174, 10.028065
1125728024966103, 5.6530433, 0.573081, 8.390432, 0.59095454, -0.3171339, 10.111126
1125728034606311, 5.51426, -0.6867401, 8.293523, -0.55263627, 0.18574858, 9.966007
1125728044246624, 5.5896335, 0.30388847, 8.382058, 0.35845244, -0.17353773, 10.071575
1125728053886832, 5.581259, -0.16151553, 8.325827, -0.08103311, -0.03947401, 10.024361
1125728063527041, 5.483153, -0.124426775, 8.396415, -0.015411615, 0.06251049, 10.028761
1125728073167353, 5.629115, 0.39960137, 8.305488, 0.41366756, -0.28196526, 10.028815
1125728082807561, 5.3970113, -0.56111693, 8.370093, -0.40513945, 0.27149487, 9.963092
1125728092447770, 5.631508, 0.7190432, 8.432307, 0.73372525, -0.3284688, 10.133532
1125728102088082, 5.369494, -0.7692925, 8.445468, -0.59406626, 0.41082358, 10.01137
1125728111728291, 5.6733823, 0.7477571, 8.409575, 0.7422784, -0.38599062, 10.137425
1125728121368499, 5.501099, -0.6329016, 8.329415, -0.513659, 0.19977713, 9.986895
1125728131008811, 5.642276, 0.37567315, 8.452646, 0.40145874, -0.2028904, 10.15979
1125728140649020, 5.5836515, -0.2847459, 8.365308, -0.20253599, 0.03305483, 10.059547
1125728150289228, 5.5190454, -0.17587246, 8.437093, -0.070332766, 0.08902073, 10.082781
1125728159929541, 5.645865, 0.1471586, 8.299505, 0.17446816, -0.19896364, 10.035397
1125728169569749, 5.4412785, -0.7477571, 8.3377905, -0.6023363, 0.283525, 9.962038
1125728179209957, 5.6817575, 0.5072784, 8.359326, 0.5119647, -0.3181038, 10.102215
1125728188850270, 5.4257255, -0.94636136, 8.383254, -0.7798338, 0.38834095, 9.9927025
1125728198490478, 5.6374903, 0.58983076, 8.384451, 0.6183224, -0.3024087, 10.097249
1125728208130686, 5.3994045, -0.79800636, 8.310273, -0.6486491, 0.32125974, 9.916
1125728217770999, 5.562116, 0.4127619, 8.405986, 0.46409154, -0.16818142, 10.075933
1125728227411207, 5.588437, -0.3062813, 8.459825, -0.19589281, 0.08850002, 10.141345
1125728237051416, 5.548956, -0.06580263, 8.444271, 0.031213522, 0.035171032, 10.104393
1125728246691728, 5.6039906, 0.18903299, 8.286345, 0.22562885, -0.17874575, 10.001054
1125728256331936, 5.436493, -0.5168497, 8.370093, -0.37546992, 0.24311066, 9.984037
1125728265972145, 5.7248282, 0.6364908, 8.394022, 0.636261, -0.37291336, 10.153547
1125728275612457, 5.4723854, -0.80877405, 8.386844, -0.6612934, 0.32782078, 10.019756
1125728285252666, 5.7152567, 0.6987042, 8.396415, 0.6840427, -0.38205624, 10.150776
1125728294892874, 5.471189, -0.7286145, 8.319844, -0.5887263, 0.2611599, 9.963424
1125728304533082, 5.6446686, 0.47377887, 8.391629, 0.50636506, -0.24553394, 10.108882
1125728314173395, 5.5776696, -0.35174492, 8.3174515, -0.26360774, 0.054457664, 10.017069
1125728323813603, 5.5776696, -0.0023928226, 8.372486, 0.07226062, -0.034222603, 10.059948
1125728333453916, 5.6183476, 0.13280165, 8.293523, 0.17054534, -0.1548214, 10.015635
1125728343094124, 5.432904, -0.5312066, 8.3581295, -0.38026798, 0.26299238, 9.972119
1125728352734332, 5.6877394, 0.51206404, 8.362915, 0.5106746, -0.31493282, 10.108954
1125728362374541, 5.4352965, -0.8673982, 8.421539, -0.6935924, 0.40380907, 10.028609
1125728372014853, 5.663811, 0.61854464, 8.467003, 0.64441323, -0.29590845, 10.1807995
1125728381655061, 5.4233327, -0.8650054, 8.411968, -0.6773248, 0.40217447, 10.015062
1125728391295374, 5.569295, 0.44147578, 8.43111, 0.49867654, -0.18047714, 10.100214
1125728400935582, 5.474778, -0.47736812, 8.365308, -0.3453158, 0.1875186, 10.001253
1125728410575791, 5.4592247, 0.038285162, 8.472985, 0.15963972, 0.071433544, 10.0779705
1125728420215999, 5.5369916, 0.07537391, 8.3581295, 0.14877081, -0.061489582, 10.024788
1125728429856311, 5.4149575, -0.45104706, 8.400003, -0.303622, 0.23858643, 9.996807
1125728439496520, 5.636294, 0.51565325, 8.353344, 0.528124, -0.29254675, 10.072119
1125728449136728, 5.3814583, -0.7908279, 8.394022, -0.6179184, 0.38731074, 9.975636
1125728458777041, 5.6793647, 0.72263247, 8.4012, 0.71255577, -0.37676144, 10.13449
1125728468417249, 5.460421, -0.78843504, 8.362915, -0.63603747, 0.30276918, 9.993998
1125728478057457, 5.6410794, 0.56590253, 8.409575, 0.5888039, -0.277081, 10.121241
1125728487697770, 5.5501523, -0.4354937, 8.3784685, -0.34008193, 0.13315201, 10.05282
1125728497337978, 5.6147585, 0.18305093, 8.46461, 0.24231231, -0.09229851, 10.155857
1125728506978186, 5.6578293, 0.034695927, 8.303095, 0.05910182, -0.15707922, 10.046165
1125728516618499, 5.4987063, -0.40079778, 8.301898, -0.30777287, 0.1259799, 9.960288
1125728526258707, 5.6937213, 0.45224348, 8.274381, 0.43289113, -0.34755516, 10.038933
1125728535898916, 5.440082, -0.79800636, 8.390432, -0.64130354, 0.34913564, 10.004874
1125728545539228, 5.7379885, 0.7082755, 8.429914, 0.68122494, -0.39200115, 10.191757
1125728555179436, 5.4556355, -0.8243274, 8.330612, -0.6741488, 0.32179046, 9.964164
1125728564819645, 5.593223, 0.56111693, 8.370093, 0.56859803, -0.26942205, 10.062881
1125728574459957, 5.436493, -0.5599205, 8.397611, -0.41892982, 0.2551689, 10.007408
1125728584100166, 5.4592247, 0.16031912, 8.492127, 0.26447606, 0.027910233, 10.093282
1125728593740478, 5.483153, -0.10767702, 8.40479, -0.011012673, 0.060965538, 10.035597
1125728603380686, 5.38744, -0.3804588, 8.444271, -0.23294711, 0.2530055, 10.017818
1125728613020895, 5.601598, 0.3912265, 8.419147, 0.43168867, -0.19590998, 10.10882
1125728622661207, 5.389833, -0.7812566, 8.5112705, -0.5869274, 0.42822504, 10.078419
1125728632301416, 5.6386867, 0.6329016, 8.477771, 0.66889316, -0.26452637, 10.175981
1125728641941624, 5.3814583, -0.8805587, 8.415557, -0.6959065, 0.44138646, 9.9938965
1125728651581936, 5.6410794, 0.58265233, 8.402397, 0.6040734, -0.29612303, 10.114789
1125728661222145, 5.523831, -0.6149554, 8.312666, -0.4979775, 0.17838955, 9.985565
1125728670862353, 5.595616, 0.20578274, 8.359326, 0.24768794, -0.14085817, 10.057358
1125728680502666, 5.6267223, -0.11006984, 8.243274, -0.071490884, -0.106993675, 9.980337
1125728690142874, 5.5633125, -0.27876383, 8.281559, -0.20164514, 0.033498287, 9.978506
1125728699783082, 5.7320065, 0.40677986, 8.238488, 0.376575, -0.36704445, 10.030828
1125728709423395, 5.5106707, -0.6879365, 8.325827, -0.5522876, 0.27376938, 9.989003
1125728719063603, 5.761917, 0.7178468, 8.373683, 0.6812024, -0.42733908, 10.158096
1125728728703811, 5.471189, -0.7860422, 8.380861, -0.63023746, 0.36521578, 10.012993
1125728738344124, 5.676972, 0.65922266, 8.409575, 0.6622753, -0.32131624, 10.14109
1125728747984332, 5.528617, -0.62093747, 8.349754, -0.4993912, 0.2262044, 10.018433
1125728757624541, 5.595616, 0.30867413, 8.439486, 0.35022318, -0.11272097, 10.124019
1125728767264853, 5.5872407, -0.11485548, 8.382058, -0.049381614, 0.011170864, 10.074066
1125728776905061, 5.5369916, -0.19740787, 8.438289, -0.10431564, 0.11456776, 10.093462
1125728786545374, 5.6961145, 0.3696911, 8.370093, 0.36620426, -0.24534607, 10.121588
1125728796185582, 5.4556355, -0.65084773, 8.408379, -0.5050361, 0.32501268, 10.026351
1125728805825791, 5.6853466, 0.63888365, 8.394022, 0.631083, -0.30688524, 10.134027
1125728815466103, 5.4029937, -0.89491564, 8.346166, -0.7248055, 0.4323578, 9.94683
1125728825106311, 5.621937, 0.64008003, 8.376076, 0.65233207, -0.267251, 10.0835285
1125728834746520, 5.4676, -0.7070791, 8.3174515, -0.5620663, 0.2869916, 9.958731
1125728844386832, 5.56092, 0.28713873, 8.383254, 0.34251833, -0.10229826, 10.057706
1125728854027041, 5.554938, -0.31944183, 8.311469, -0.23849249, 0.072237015, 9.998889
1125728863667249, 5.4388857, -0.21296121, 8.429914, -0.081858754, 0.18316603, 10.032448
1125728873307561, 5.595616, 0.24885355, 8.353344, 0.28904736, -0.14944506, 10.052131
1125728882947770, 5.454439, -0.6448657, 8.43111, -0.48661315, 0.32295656, 10.045362
1125728892588082, 5.706882, 0.6580262, 8.465807, 0.65206087, -0.32758284, 10.204847
1125728902228291, 5.454439, -0.8255238, 8.467003, -0.6409899, 0.41286564, 10.076766
1125728911868499, 5.7152567, 0.6759724, 8.413164, 0.66700435, -0.36470175, 10.1648655
1125728921508811, 5.5310097, -0.71306115, 8.305488, -0.5908239, 0.23529625, 9.983847
1125728931149020, 5.6997037, 0.37447673, 8.361719, 0.37642753, -0.2512579, 10.116343
1125728940789228, 5.6614184, -0.2955136, 8.321041, -0.23678195, 0.007863998, 10.065912
1125728950429541, 5.6039906, -0.076570325, 8.338987, -0.006318927, -0.014421463, 10.04734
1125728960069749, 5.716453, 0.21296121, 8.239685, 0.210837, -0.2566576, 10.025232
1125728969710061, 5.495117, -0.56470615, 8.321041, -0.43249643, 0.23554039, 9.97559
1125728979350270, 5.7140603, 0.64247286, 8.315059, 0.6275976, -0.36277008, 10.08355
1125728988990478, 5.4687963, -0.77766734, 8.368897, -0.61220527, 0.35206604, 10.002609
1125728998630791, 5.7140603, 0.7286145, 8.392825, 0.72682786, -0.35971785, 10.147079
1125729008270999, 5.4616175, -0.73459655, 8.362915, -0.5886152, 0.3429165, 9.992157
1125729017911207, 5.6350975, 0.47377887, 8.440681, 0.5106796, -0.19623709, 10.145175
1125729027551520, 5.621937, -0.33379877, 8.385647, -0.25939393, 0.07692623, 10.097696
1125729037191728, 5.601598, -0.06819545, 8.416754, 0.004430771, 0.010950565, 10.110597
1125729046832041, 5.6530433, 0.10767702, 8.292327, 0.12781298, -0.15656614, 10.034458
1125729056472249, 5.4556355, -0.5347959, 8.374879, -0.392267, 0.27502966, 9.997952
1125729066112457, 5.6733823, 0.57547385, 8.372486, 0.57656324, -0.29268074, 10.109345
1125729075752770, 5.40419, -0.81236327, 8.414361, -0.62019217, 0.43477273, 10.004649
1125729085392978, 5.636294, 0.69152576, 8.3784685, 0.69882464, -0.30086374, 10.092861
1125729095033291, 5.3910294, -0.77647096, 8.297112, -0.605232, 0.3639648, 9.899971
1125729104673499, 5.5704913, 0.46061835, 8.360522, 0.49593723, -0.18685436, 10.042908
1125729114313707, 5.5130634, -0.43908295, 8.370093, -0.32692313, 0.17921925, 10.025275
1125729123954020, 5.5226345, 0.0, 8.475378, 0.10308862, 0.059686184, 10.115205
1125729133594228, 5.6327047, 0.078963146, 8.383254, 0.12066066, -0.102647305, 10.098884
1125729143234541, 5.474778, -0.50009996, 8.403593, -0.36776102, 0.24043179, 10.032477
1125729152874749, 5.723632, 0.5024927, 8.394022, 0.4856162, -0.32169437, 10.15543
1125729162514957, 5.49751, -0.8470592, 8.435896, -0.68279445, 0.37184954, 10.074719
1125729172155270, 5.721239, 0.6448657, 8.385647, 0.6413202, -0.35491753, 10.145454
1125729181795478, 5.4987063, -0.80997044, 8.311469, -0.67519987, 0.31011057, 9.970971
1125729191435791, 5.697311, 0.53359944, 8.362915, 0.54840255, -0.29235554, 10.114159
1125729201075999, 5.593223, -0.44147578, 8.30788, -0.3463204, 0.09938955, 10.018488
1125729210716207, 5.621937, 0.13399807, 8.380861, 0.19749165, -0.075677395, 10.090503
1125729220356520, 5.6685967, 0.078963146, 8.258827, 0.107896686, -0.15601969, 10.015562
1125729229996728, 5.5070815, -0.3684947, 8.313862, -0.26366997, 0.15325403, 9.974519
1125729239637041, 5.7080784, 0.55393845, 8.292327, 0.5394589, -0.33562756, 10.062208
1125729249277249, 5.4664035, -0.70348984, 8.367701, -0.55136895, 0.32699442, 9.999197
1125729258917561, 5.7343993, 0.77766734, 8.389236, 0.7489259, -0.39005995, 10.156493
1125729268557770, 5.474778, -0.7537391, 8.409575, -0.5962312, 0.35815525, 10.038851
1125729278197978, 5.6446686, 0.62811595, 8.452646, 0.64476705, -0.22888851, 10.160507
1125729287838291, 5.534599, -0.4977071, 8.376076, -0.38987398, 0.21133423, 10.041985
1125729297478499, 5.568098, 0.17826529, 8.462217, 0.25698268, -0.012416363, 10.128101
1125729307118811, 5.625526, -0.05383851, 8.356933, 0.0013825893, -0.032356262, 10.07406
1125729316759020, 5.5130634, -0.40558344, 8.421539, -0.2837124, 0.21096516, 10.067556
1125729326399332, 5.6961145, 0.39481574, 8.361719, 0.41427946, -0.24177504, 10.113845
1125729336039541, 5.444868, -0.87936234, 8.366505, -0.7160454, 0.39831257, 9.987336
1125729345679749, 5.6733823, 0.57547385, 8.35454, 0.5799215, -0.29369116, 10.094267
1125729355320061, 5.4233327, -0.9272188, 8.3174515, -0.7472217, 0.4060979, 9.936249
1125729364960270, 5.692525, 0.5288138, 8.34138, 0.5370368, -0.29273844, 10.094009
1125729374600582, 5.575277, -0.62931234, 8.30788, -0.51051617, 0.1768508, 10.010429
1125729384240791, 5.6327047, 0.19381863, 8.396415, 0.25775957, -0.10977888, 10.108719
1125729393881103, 5.651847, -0.09212367, 8.3174515, -0.03759837, -0.06503868, 10.056152
1125729403521311, 5.5250273, -0.31226337, 8.3581295, -0.19968033, 0.13101435, 10.021214
1125729413161520, 5.729614, 0.43429732, 8.311469, 0.42938006, -0.31458426, 10.090306
1125729422801832, 5.5070815, -0.6759724, 8.420342, -0.5236361, 0.29871655, 10.065964
1125729432442041, 5.7355957, 0.72263247, 8.426325, 0.726699, -0.35701466, 10.186592
1125729442082353, 5.4628143, -0.8147561, 8.38804, -0.65825856, 0.3732946, 10.014626
1125729451722561, 5.663811, 0.66400826, 8.397611, 0.6727013, -0.29299402, 10.124287
1125729461362874, 5.5226345, -0.5515456, 8.348558, -0.42353463, 0.20970201, 10.013927
1125729471003082, 5.5836515, 0.2847459, 8.395218, 0.35179436, -0.10291195, 10.079859
1125729480643395, 5.54417, -0.16510476, 8.325827, -0.07292354, 0.047926903, 10.003842
1125729490283603, 5.4556355, -0.27038896, 8.349754, -0.14553452, 0.167871, 9.975275
1125729499923916, 5.6530433, 0.32542387, 8.299505, 0.3482287, -0.22046566, 10.038662
1125729509564124, 5.432904, -0.6939186, 8.409575, -0.52768445, 0.36339617, 10.015409
1125729519204332, 5.7188463, 0.66041905, 8.413164, 0.6743877, -0.32734108, 10.166649
1125729528844645, 5.4556355, -0.8709874, 8.429914, -0.68419635, 0.41777205, 10.047058
1125729538484853, 5.709275, 0.62811595, 8.428718, 0.64180934, -0.28627872, 10.175449
1125729548125166, 5.5334024, -0.6891329, 8.348558, -0.551829, 0.25148344, 10.021183
1125729557765374, 5.6063833, 0.31226337, 8.400003, 0.36819685, -0.116942406, 10.096528
1125729567405686, 5.581259, -0.22612174, 8.319844, -0.13642895, 0.04413271, 10.020021
1125729577045895, 5.5669017, -0.23330021, 8.349754, -0.1359806, 0.07694435, 10.036872
1125729586686207, 5.7391853, 0.25603202, 8.276773, 0.2594862, -0.26532125, 10.068319
1125729596326416, 5.5190454, -0.613759, 8.365308, -0.4720099, 0.25580597, 10.0263
1125729605966728, 5.800202, 0.67477596, 8.361719, 0.665622, -0.39860535, 10.169271
1125729615606936, 5.5657053, -0.81595254, 8.361719, -0.6767434, 0.3120389, 10.050166
1125729625247249, 5.7607207, 0.6759724, 8.318648, 0.652979, -0.3906045, 10.112557
1125729634887457, 5.6004014, -0.7070791, 8.258827, -0.5966586, 0.18299198, 9.984146
1125729644527770, 5.7260246, 0.39720857, 8.373683, 0.4124689, -0.23738813, 10.140869
1125729654167978, 5.672186, -0.27996024, 8.304291, -0.21795154, 0.0020518303, 10.058123
1125729663808291, 5.5800624, -0.1268196, 8.377272, -0.03166604, 0.05139351, 10.066192
1125729673448499, 5.7140603, 0.21774685, 8.282756, 0.23266983, -0.22863817, 10.059601
1125729683088811, 5.4987063, -0.6029913, 8.372486, -0.45751667, 0.28210163, 10.02043
1125729692729020, 5.6554365, 0.36251262, 8.348558, 0.39778006, -0.20748234, 10.080305
1125729702369332, 5.4520464, -0.2440679, 8.379665, -0.10928917, 0.18649578, 9.997823
1125729712009541, 5.477171, -0.029910283, 8.343773, 0.07969105, 0.069767475, 9.980364
1125729721649853, 5.4867425, -0.058624156, 8.411968, 0.064496875, 0.1076231, 10.042573
1125729731290061, 5.5250273, -0.041874398, 8.446664, 0.078727245, 0.08885956, 10.092557
1125729740930374, 5.5250273, -0.039481573, 8.4347, 0.07862949, 0.079630375, 10.082615
1125729750570582, 5.554938, -0.101694964, 8.402397, 0.004853606, 0.063138485, 10.072931
1125729760210895, 5.5573306, -0.12562318, 8.392825, -0.02105093, 0.06308508, 10.066519
1125729769851103, 5.5896335, -0.12801601, 8.419147, -0.029586554, 0.049253464, 10.10639
1125729779491416, 5.619544, -0.10767702, 8.391629, -0.02876246, 6.661415E-4, 10.099976
1125729789131624, 5.6733823, -0.09092726, 8.405986, -0.027034998, -0.03975582, 10.141687
1125729798771936, 5.6913285, -0.101694964, 8.390432, -0.04758954, -0.055509567, 10.138815
1125729808412145, 5.686543, -0.062213387, 8.333005, -0.022857904, -0.09293556, 10.088135
1125729818052457, 5.6578293, -0.034695927, 8.293523, 0.0045312643, -0.094367504, 10.039214
1125729827692666, 5.6674004, -0.02751746, 8.269595, 0.0032488108, -0.11670399, 10.024608
1125729837332978, 5.663811, -0.04426722, 8.26122, -0.009764552, -0.10323763, 10.015873
1125729846973186, 5.65424, -0.016749758, 8.271988, 0.023348212, -0.09534359, 10.019324
1125729856613499, 5.663811, -0.0011964113, 8.260024, 0.031924248, -0.11482668, 10.014616
1125729866253707, 5.636294, -0.09810573, 8.415557, -0.008729339, 0.032931805, 10.129063
1125729875894020, 5.5776696, -0.08015956, 8.402397, 0.022984028, 0.06453562, 10.0852585
1125729885534228, 5.5597234, -0.0741775, 8.37129, 0.0310328, 0.059473515, 10.049379
1125729895174541, 5.5369916, -0.1268196, 8.366505, -0.009507179, 0.09112978, 10.033163
1125729904814749, 5.508278, -0.10887343, 8.395218, 0.023901701, 0.1177268, 10.040829
1125729914455061, 5.5046883, -0.12801601, 8.455039, 0.020883083, 0.15413761, 10.088681
1125729924095270, 5.535795, -0.12323037, 8.46102, 0.015705943, 0.12551785, 10.111038
1125729933735582, 5.556134, -0.13040884, 8.414361, -0.014729619, 0.0750947, 10.083812
1125729943375791, 5.5334024, -0.17467605, 8.3581295, -0.06347549, 0.07816696, 10.024831
1125729953016103, 5.5537415, -0.16271193, 8.343773, -0.06205356, 0.05153036, 10.024099
1125729962656311, 5.6171513, -0.12203395, 8.334201, -0.04657471, -0.017757893, 10.051055
1125729972296624, 5.651847, -0.083748795, 8.344969, -0.014411807, -0.041485786, 10.079036
1125729981936936, 5.669793, -0.019142581, 8.367701, 0.044591308, -0.068491936, 10.107357
1125729991577145, 5.6913285, 0.02632105, 8.352147, 0.08019316, -0.09873438, 10.106141
1125730001217457, 5.7200427, 0.02751746, 8.342576, 0.06869984, -0.124369144, 10.114249
1125730010857666, 5.7140603, 0.0059820567, 8.330612, 0.04827535, -0.11753559, 10.101163
1125730020497978, 5.706882, -0.014356935, 8.313862, 0.023391604, -0.114426136, 10.08342
1125730030138186, 5.7080784, -0.02632105, 8.304291, 0.007634163, -0.11800051, 10.076214
1125730039778499, 5.6709895, -0.0071784677, 8.3174515, 0.03787601, -0.09320879, 10.066282
1125730049418707, 5.6470613, -0.011964113, 8.327023, 0.043206096, -0.068080425, 10.060928
1125730059059020, 5.642276, -0.031106694, 8.328219, 0.023329377, -0.06497908, 10.05936
1125730068699228, 5.6147585, -0.051445685, 8.330612, 0.014060497, -0.034690857, 10.046186
1125730078339541, 5.5836515, -0.086141616, 8.350951, -0.00483644, 0.009375095, 10.046037
1125730087979853, 5.5657053, -0.12562318, 8.374879, -0.030342817, 0.044700623, 10.056269
1125730097620061, 5.5920267, -0.13519448, 8.384451, -0.04532063, 0.032939434, 10.078934
1125730107260374, 5.558527, -0.17347965, 8.362915, -0.07294428, 0.06002474, 10.0427475
1125730116900582, 5.528617, -0.18185452, 8.367701, -0.064035654, 0.08987856, 10.030198
1125730126540895, 5.5310097, -0.2009971, 8.362915, -0.083927035, 0.092285156, 10.027724
1125730136181103, 5.5716877, -0.19381863, 8.360522, -0.08531141, 0.06000042, 10.048319
1125730145821416, 5.5298133, -0.16031912, 8.390432, -0.030522704, 0.09972048, 10.049529
1125730155461728, 5.515456, -0.12562318, 8.41795, 0.016115665, 0.11720133, 10.0639925
1125730165101936, 5.5310097, -0.1160519, 8.380861, 0.0155694485, 0.085114956, 10.041757
1125730174742249, 5.5597234, -0.08853444, 8.403593, 0.037908077, 0.06438637, 10.076366
1125730184382457, 5.552545, -0.05503492, 8.413164, 0.07315767, 0.06202364, 10.079977
1125730194022770, 5.6004014, -0.059820566, 8.374879, 0.0425359, 0.00858736, 10.074959
1125730203662978, 5.593223, -0.05742774, 8.338987, 0.037422657, -0.0034360886, 10.041153
1125730213303291, 5.608776, -0.0526421, 8.370093, 0.043866754, -0.0010943413, 10.075599
1125730222943603, 5.686543, -0.041874398, 8.395218, 0.030823708, -0.051716328, 10.139752
1125730232583811, 5.7463636, -0.041874398, 8.402397, 0.01356554, -0.0939703, 10.179082
1125730242224124, 5.6997037, -0.078963146, 8.306684, -0.034241796, -0.09802008, 10.073879
1125730251864332, 5.6470613, -0.08853444, 8.275578, -0.033069015, -0.069872856, 10.0188
1125730261504645, 5.6530433, -0.10049855, 8.288737, -0.04099548, -0.062913895, 10.033172
1125730271144957, 5.6650076, -0.06819545, 8.331808, -0.0019080639, -0.058526993, 10.075345
1125730280785166, 5.649454, -0.05623133, 8.346166, 0.017023444, -0.043725967, 10.07848
1125730290425478, 5.6482577, -0.050249275, 8.335398, 0.023147464, -0.046669483, 10.068838
1125730300065686, 5.6183476, -0.05623133, 8.368897, 0.035527587, -0.0019893646, 10.079988
1125730309705999, 5.6183476, -0.043070808, 8.425129, 0.058106184, 0.018687248, 10.126537
1125730319346207, 5.645865, -0.078963146, 8.396415, 0.010048509, -0.003607273, 10.118384
1125730328986520, 5.6171513, -0.08733802, 8.374879, 0.0030076504, 0.0046043396, 10.084572
1125730338626832, 5.582455, -0.08135597, 8.362915, 0.014322996, 0.016577244, 10.055263
1125730348267041, 5.584848, -0.10049855, 8.34138, -0.010429144, 0.0056180954, 10.03888
1125730357907353, 5.593223, -0.10887343, 8.350951, -0.018169403, 0.0019512177, 10.051569
1125730367547561, 5.5573306, -0.11724831, 8.34138, -0.015505314, 0.027704716, 10.023736
1125730377187874, 5.556134, -0.096909314, 8.349754, 0.0054816008, 0.0250206, 10.029844
1125730386828186, 5.5716877, -0.06819545, 8.398808, 0.038820148, 0.026823044, 10.078994
1125730396468395, 5.5836515, -0.029910283, 8.445468, 0.08023429, 0.026334763, 10.124073
1125730406108707, 5.5669017, -0.05623133, 8.409575, 0.04738474, 0.029893875, 10.085206
1125730415748916, 5.5669017, -0.061016977, 8.425129, 0.04643476, 0.03964567, 10.098178
1125730425389228, 5.5633125, -0.0741775, 8.426325, 0.0341177, 0.046115875, 10.097306
1125730435029541, 5.5944195, -0.12323037, 8.3784685, -0.03173697, 0.016327381, 10.075226
1125730444669749, 5.5872407, -0.14955142, 8.347362, -0.0584296, 0.013370514, 10.045619
1125730454310061, 5.5669017, -0.18424734, 8.275578, -0.08850312, 0.0065112114, 9.975052
1125730463950270, 5.5369916, -0.18544376, 8.280363, -0.07154083, 0.038357735, 9.962454
1125730473590582, 5.568098, -0.18544376, 8.30788, -0.07536459, 0.028018475, 10.002626
1125730483230895, 5.588437, -0.15672988, 8.350951, -0.03419423, 0.035778522, 10.049435
1125730492871103, 5.576473, -0.16749759, 8.353344, -0.038795114, 0.051423073, 10.044866
1125730502511416, 5.5669017, -0.15553348, 8.336594, -0.029680967, 0.04300928, 10.0255
1125730512151728, 5.5836515, -0.13280165, 8.32463, -0.01876378, 0.012726307, 10.024657
1125730521791936, 5.6004014, -0.0741775, 8.344969, 0.034552693, -0.012489319, 10.050232
1125730531432249, 5.6303115, -0.09212367, 8.346166, 0.0058294535, -0.02827549, 10.068095
1125730541072457, 5.6207404, -0.061016977, 8.383254, 0.04264319, -0.011218071, 10.093238
1125730550712770, 5.623133, -0.033499517, 8.391629, 0.06580663, -0.011587143, 10.1012745
1125730560353082, 5.666204, -0.03708875, 8.413164, 0.052957892, -0.03078413, 10.143215
1125730569993291, 5.6781683, -0.013160525, 8.386844, 0.065669894, -0.06254578, 10.127818
1125730579633603, 5.6985073, -0.031106694, 8.321041, 0.028339028, -0.105153084, 10.084732
1125730589273811, 5.6793647, -0.03589234, 8.30788, 0.026706576, -0.09495592, 10.063183
1125730598914124, 5.6410794, -0.051445685, 8.30788, 0.027525544, -0.053531647, 10.041998
1125730608554436, 5.621937, -0.051445685, 8.335398, 0.040168047, -0.02270937, 10.054131
1125730618194645, 5.584848, -0.061016977, 8.321041, 0.038655758, 0.0014262199, 10.021601
1125730627834957, 5.602794, -0.06580263, 8.333005, 0.029892564, -0.008467674, 10.041596
1125730637475270, 5.6350975, -0.08853444, 8.348558, -3.4344196E-4, -0.024242878, 10.072735
1125730647115478, 5.615955, -0.101694964, 8.35454, -0.0060987473, -0.0016570091, 10.067153
1125730656755791, 5.6303115, -0.11246266, 8.346166, -0.02532494, -0.020345688, 10.06829
1125730666396103, 5.5836515, -0.15672988, 8.322237, -0.062078476, 0.01286459, 10.022841
