timestamp_acc,device_acc_x,device_acc_y,device_acc_z,earth_acc_x,earth_acc_y,earth_acc_z
1125745724516936, 5.568098, 0.039481573, 8.348558, 0.016394377, 0.026935577, 10.035074
1125745734157249, 5.578866, 0.034695927, 8.352147, 0.013057351, 0.027968407, 10.044022
1125745743797561, 5.575277, 0.050249275, 8.353344, 0.028616428, 0.02504778, 10.043064
1125745753437874, 5.613562, 0.101694964, 8.304291, 0.0544852, -0.040807724, 10.023923
1125745763078186, 5.6243296, 0.0849452, 8.322237, 0.036441803, -0.030210495, 10.044783
1125745772718499, 5.6267223, 0.09930214, 8.333005, 0.05131781, -0.032051563, 10.055107
1125745782358811, 5.625526, 0.106480606, 8.301898, 0.04586816, -0.049657345, 10.0287
1125745791999124, 5.6039906, 0.11964113, 8.305488, 0.052271366, -0.03973198, 10.019773
1125745801639436, 5.631508, 0.13878371, 8.405986, 0.076634765, -0.018350601, 10.118673
1125745811279749, 5.6530433, 0.12562318, 8.425129, 0.06163025, -0.019291878, 10.146493
1125745820920061, 5.631508, 0.09571291, 8.435896, 0.038045406, 0.011563778, 10.143263
1125745830560374, 5.615955, 0.033499517, 8.462217, -0.011629343, 0.0576396, 10.156069
1125745840200686, 5.5980086, -0.038285162, 8.396415, -0.08509481, 0.060708523, 10.090987
1125745849840999, 5.564509, -0.06580263, 8.392825, -0.10008371, 0.09514618, 10.069188
1125745859481311, 5.5274205, -0.12801601, 8.368897, -0.13799298, 0.14275932, 10.028349
1125745869121624, 5.528617, -0.16151553, 8.353344, -0.16507912, 0.15223026, 10.015968
1125745878761936, 5.5633125, -0.14356937, 8.318648, -0.16816688, 0.09971142, 10.006638
1125745888402249, 5.569295, -0.15074782, 8.273184, -0.17597067, 0.08299351, 9.972336
1125745898042666, 5.6004014, -0.10887343, 8.2348995, -0.15342617, 0.026853561, 9.958196
1125745907682978, 5.6913285, 0.029910283, 8.2014, -0.06257796, -0.109454155, 9.981942
1125745917323291, 5.7152567, -0.04426722, 8.336594, -0.10962582, -0.028352737, 10.107033
1125745926963603, 5.7320065, 0.051445685, 8.2145605, -0.05722046, -0.1356988, 10.015781
1125745936603916, 5.7762737, 0.0849452, 8.185846, -0.05182302, -0.19113255, 10.0170555
1125745946244228, 5.861219, 0.0849452, 8.244471, -0.06913638, -0.21703053, 10.113383
1125745955884541, 5.814559, 0.06460621, 8.263613, -0.07123661, -0.14992619, 10.103119
1125745965524853, 5.802595, 0.09571291, 8.216953, -0.050216198, -0.17712021, 10.058017
1125745975165166, 5.7631135, 0.09930214, 8.222935, -0.0326612, -0.14515448, 10.04081
1125745984805478, 5.690132, 0.16749759, 8.252846, 0.062152028, -0.10300636, 10.025002
1125745994445791, 5.6781683, 0.22851457, 8.306684, 0.13440073, -0.092273235, 10.063212
1125746004086103, 5.636294, 0.21894327, 8.309076, 0.1385144, -0.05644846, 10.04162
1125746013726416, 5.548956, 0.14955142, 8.29472, 0.097685695, 0.03084755, 9.980238
1125746023366728, 5.5477595, 0.14117654, 8.372486, 0.10383117, 0.075330734, 10.043885
1125746033007041, 5.6063833, 0.18544376, 8.410771, 0.12975883, 0.032247543, 10.108864
1125746042647353, 5.651847, 0.2117648, 8.465807, 0.14784384, 0.014531136, 10.18018
1125746052287666, 5.6578293, 0.17467605, 8.455039, 0.10269463, 0.018126488, 10.1743965
1125746061927978, 5.615955, 0.09930214, 8.372486, 0.027991176, 0.035983562, 10.081926
1125746071568291, 5.576473, 0.047856454, 8.362915, -0.0077922344, 0.08165312, 10.051416
1125746081208603, 5.5800624, 0.08973085, 8.348558, 0.027925253, 0.05296421, 10.041912
1125746090848916, 5.6099725, 0.1160519, 8.306684, 0.04046583, -5.9604645E-5, 10.0242
1125746100489228, 5.619544, 0.09451649, 8.319844, 0.020387411, 0.00825119, 10.040297
1125746110129541, 5.5860443, 0.11724831, 8.328219, 0.061463952, 0.03653145, 10.028547
1125746119769853, 5.643472, 0.11365908, 8.311469, 0.035224795, -0.014127731, 10.046928
1125746129410166, 5.692525, 0.0741775, 8.323434, -0.009051681, -0.023617268, 10.08411
1125746139050478, 5.692525, 0.059820566, 8.255239, -0.03746116, -0.052954674, 10.027622
1125746148690791, 5.7224355, 0.021535404, 8.202596, -0.09107864, -0.084554195, 10.000694
1125746158331103, 5.7523456, -0.010767702, 8.230113, -0.12053597, -0.07885027, 10.0401
1125746167971416, 5.77747, -0.01794617, 8.16431, -0.14583576, -0.12862635, 9.999882
1125746177611728, 5.7966127, -0.011964113, 8.158329, -0.14110827, -0.15192366, 10.005808
1125746187252041, 5.834898, 0.010767702, 8.210971, -0.12007725, -0.16445065, 10.070984
1125746196892353, 5.8013983, 0.008374879, 8.188239, -0.11705959, -0.14918804, 10.033325
1125746206532666, 5.672186, 0.013160525, 8.23131, -0.060780525, -0.036724567, 9.996164
1125746216172978, 5.729614, -0.029910283, 8.270791, -0.110732436, -0.041946888, 10.060882
1125746225813291, 5.710471, 0.049052864, 8.362915, -0.012537956, -0.016910553, 10.126689
1125746235453603, 5.6470613, 0.0741775, 8.46461, 0.056052804, 0.06907225, 10.175288
1125746245093916, 5.602794, 0.061016977, 8.421539, 0.050496697, 0.08002949, 10.114761
1125746254734228, 5.5262237, 0.061016977, 8.370093, 0.06506872, 0.104282856, 10.02927
1125746264374541, 5.5202417, 0.06699903, 8.420342, 0.08606911, 0.121313095, 10.06765
1125746274014853, 5.4783673, 0.06699903, 8.437093, 0.10403252, 0.16155529, 10.058061
1125746283655166, 5.4783673, 0.07058827, 8.423932, 0.10548258, 0.13494396, 10.047427
1125746293295478, 5.453243, 0.033499517, 8.384451, 0.0692271, 0.13691092, 10.000725
1125746302935791, 5.4520464, 0.05503492, 8.344969, 0.08076334, 0.10904026, 9.967344
1125746312576103, 5.453243, 0.09571291, 8.360522, 0.11836374, 0.08764124, 9.981165
1125746322216416, 5.471189, 0.148355, 8.487342, 0.18798292, 0.1186409, 10.096607
1125746331856728, 5.5477595, 0.17108682, 8.5016985, 0.18068528, 0.05725193, 10.151346
1125746341497041, 5.5250273, 0.22013968, 8.410771, 0.21066117, 0.011115551, 10.063347
1125746351137353, 5.5669017, 0.21655045, 8.402397, 0.19135904, -0.023473263, 10.079702
1125746360777666, 5.6482577, 0.14356937, 8.415557, 0.103838205, -0.038225174, 10.135719
1125746370417978, 5.645865, 0.06819545, 8.355737, 0.027481794, -0.031876087, 10.084495
1125746380058291, 5.666204, 0.020338992, 8.268398, -0.042732477, -0.07251549, 10.023254
1125746389698603, 5.7224355, -0.05503492, 8.243274, -0.12987196, -0.09458256, 10.033697
1125746399338916, 5.73081, -0.09092726, 8.175078, -0.16863692, -0.117789745, 9.981987
1125746408979228, 5.706882, -0.14237295, 8.160722, -0.20597267, -0.08386946, 9.956741
1125746418619541, 5.716453, -0.07298109, 8.169097, -0.1395098, -0.113221645, 9.969205
1125746428259853, 5.7260246, 0.0047856453, 8.222935, -0.06065333, -0.12376642, 10.019235
1125746437900166, 5.7020965, 0.050249275, 8.271988, -1.6570091E-4, -0.0973053, 10.046529
1125746447540478, 5.706882, 0.1160519, 8.313862, 0.06715751, -0.107494354, 10.083958
1125746457180791, 5.712864, 0.09571291, 8.311469, 0.037528396, -0.11023188, 10.085283
1125746466821103, 5.6709895, 0.0526421, 8.347362, 0.021757722, -0.04238701, 10.091535
1125746476461416, 5.6554365, 0.025124637, 8.352147, 7.4219704E-4, -0.01961565, 10.086752
1125746486101728, 5.6554365, -0.041874398, 8.343773, -0.060881495, -0.0015420914, 10.079709
1125746495742041, 5.613562, -0.10289137, 8.330612, -0.09992421, 0.045883656, 10.045381
1125746505382353, 5.5202417, -0.22253251, 8.305488, -0.17527628, 0.15041494, 9.97248
1125746515022666, 5.4317074, -0.30508488, 8.267202, -0.2209754, 0.2280674, 9.891527
1125746524662978, 5.4113684, -0.29192436, 8.276773, -0.19358695, 0.2383411, 9.888319
1125746534303291, 5.471189, -0.18305093, 8.309076, -0.109788656, 0.1628046, 9.948347
1125746543943603, 5.6004014, -0.0526421, 8.360522, -0.018369913, 0.0368762, 10.062997
1125746553583916, 5.6985073, 0.02871387, 8.348558, 0.018383384, -0.07579231, 10.107728
1125746563224228, 5.7523456, 0.06819545, 8.283952, 0.001467824, -0.16343641, 10.08421
1125746572864541, 5.771488, 0.008374879, 8.228917, -0.08210969, -0.18200111, 10.049147
1125746582504853, 5.7966127, 0.040677983, 8.19781, -0.07183051, -0.2292285, 10.037369
1125746592145166, 5.814559, 0.058624156, 8.196614, -0.05920422, -0.24713421, 10.0465145
1125746601785478, 5.7690954, 0.10049855, 8.271988, 0.010626793, -0.1902256, 10.083753
1125746611425791, 5.7056856, 0.1268196, 8.3174515, 0.07334089, -0.12164068, 10.086168
1125746621066103, 5.613562, 0.12562318, 8.372486, 0.11630356, -0.02376461, 10.080293
1125746630706416, 5.505885, 0.09810573, 8.419147, 0.14344168, 0.09205294, 10.058697
1125746640346728, 5.3946185, 0.11964113, 8.428718, 0.20446193, 0.16804934, 10.004471
1125746649987041, 5.35753, 0.15314065, 8.46461, 0.2525394, 0.1949234, 10.013713
1125746659627353, 5.4376893, 0.11844472, 8.504091, 0.195853, 0.16274309, 10.091443
1125746669267666, 5.485546, 0.016749758, 8.486146, 0.07309151, 0.15587044, 10.103292
1125746678907978, 5.465207, -0.050249275, 8.429914, -0.0038398504, 0.1702466, 10.045172
1125746688548291, 5.5537415, -0.047856454, 8.396415, -0.048571825, 0.086591244, 10.06659
1125746698188603, 5.6303115, -0.021535404, 8.40479, -0.053267837, 0.022721767, 10.116225
1125746707828916, 5.611169, -0.0071784677, 8.364112, -0.04245627, 0.013618946, 10.071824
1125746717469228, 5.582455, 0.019142581, 8.319844, -0.013055563, 0.011580467, 10.019165
1125746727109541, 5.611169, 0.058624156, 8.29472, 0.00974977, -0.034318447, 10.014478
1125746736749853, 5.599205, 0.11006984, 8.338987, 0.07112849, -0.019491196, 10.044724
1125746746390166, 5.5537415, 0.15314065, 8.362915, 0.12800765, 0.011779308, 10.039389
1125746756030478, 5.5740805, 0.124426775, 8.370093, 0.089521885, 0.011208057, 10.056648
1125746765670791, 5.6243296, 0.3074777, 8.392825, 0.24445248, -0.089459896, 10.104424
1125746775311103, 5.6207404, -0.12203395, 8.349754, -0.16323006, 0.06463146, 10.064551
1125746784951311, 5.5310097, -0.031106694, 8.396415, -0.045307398, 0.1181941, 10.053697
1125746794591624, 5.6853466, 0.26919255, 8.297112, 0.15743744, -0.16890717, 10.059046
1125746804231936, 5.5226345, -0.485743, 8.3581295, -0.46500278, 0.28853178, 10.014705
1125746813872249, 5.7451673, 0.61734825, 8.353344, 0.49424386, -0.308033, 10.140379
1125746823512561, 5.4687963, -0.7896315, 8.331808, -0.7237122, 0.44406605, 9.961391
1125746833152874, 5.7403817, 0.73459655, 8.29113, 0.5833981, -0.37710142, 10.087214
1125746842793186, 5.5106707, -0.67477596, 8.285149, -0.625201, 0.3418734, 9.947802
1125746852433499, 5.690132, 0.55513483, 8.35454, 0.4520067, -0.23532629, 10.11061
1125746862073811, 5.6410794, -0.25124636, 8.269595, -0.28131163, 0.074792385, 10.009315
1125746871714124, 5.599205, 0.13758731, 8.347362, 0.09540117, -0.00447464, 10.051834
1125746881354436, 5.7200427, 0.357727, 8.306684, 0.2483263, -0.20547533, 10.086821
1125746890994749, 5.5657053, -0.3385844, 8.30788, -0.3429736, 0.18355322, 9.998063
1125746900635061, 5.7834525, 0.78723866, 8.301898, 0.6156757, -0.4210701, 10.120931
1125746910275374, 5.51426, -0.59581286, 8.330612, -0.5587894, 0.33376265, 9.986867
1125746919915686, 5.7726846, 0.89371926, 8.325827, 0.73272055, -0.41329002, 10.135795
1125746929555999, 5.5800624, -0.58624154, 8.3174515, -0.573194, 0.27226877, 10.012897
1125746939196311, 5.7140603, 0.64247286, 8.292327, 0.5111158, -0.2915821, 10.073712
1125746948836624, 5.6039906, -0.2847459, 8.239685, -0.31537807, 0.10523701, 9.963316
1125746958476936, 5.6147585, 0.13519448, 8.29472, 0.08191621, -0.031026363, 10.016909
1125746968117249, 5.716453, 0.16390835, 8.257631, 0.07002163, -0.13779783, 10.043371
1125746977757457, 5.535795, -0.44865423, 8.34138, -0.41880965, 0.2826786, 10.008478
1125746987397770, 5.7523456, 0.5982057, 8.279166, 0.4653945, -0.31669235, 10.0834055
1125746997038082, 5.5022955, -0.7680961, 8.365308, -0.6872115, 0.45282793, 10.00831
1125747006678395, 5.770292, 0.70588267, 8.3581295, 0.59475255, -0.33926105, 10.157954
1125747016318707, 5.5262237, -0.7848458, 8.282756, -0.72583425, 0.39017963, 9.953899
1125747025959020, 5.676972, 0.59700924, 8.276773, 0.5103954, -0.26959085, 10.037739
1125747035599332, 5.623133, -0.38524446, 8.305488, -0.37306905, 0.16444921, 10.029105
1125747045239645, 5.662615, 0.18903299, 8.359326, 0.14535367, -0.05706787, 10.097272
1125747054879957, 5.6997037, 0.16031912, 8.243274, 0.08596945, -0.1383686, 10.021844
1125747064520270, 5.556134, -0.29192436, 8.27797, -0.2832123, 0.15977144, 9.968697
1125747074160582, 5.828916, 0.5922236, 8.220542, 0.43364704, -0.41403437, 10.076944
1125747083800895, 5.5657053, -0.6939186, 8.287541, -0.6586704, 0.31521845, 9.980417
1125747093441207, 5.8013983, 0.77647096, 8.273184, 0.6422006, -0.426898, 10.104951
1125747103081520, 5.5190454, -0.7537391, 8.239685, -0.7057315, 0.35065007, 9.914603
1125747112721832, 5.7009, 0.6759724, 8.305488, 0.59200215, -0.29235697, 10.07484
1125747122362041, 5.6063833, -0.37447673, 8.343773, -0.35515857, 0.19471884, 10.051182
1125747132002353, 5.5944195, 0.29790643, 8.395218, 0.28160357, -0.02436924, 10.088908
1125747141642666, 5.619544, 0.09451649, 8.279166, 0.06444895, -0.033018112, 10.006376
1125747151282978, 5.4580283, -0.25722843, 8.311469, -0.21136177, 0.23786163, 9.941606
1125747160923291, 5.682954, 0.5491528, 8.325827, 0.4692818, -0.2353878, 10.08173
1125747170563603, 5.48076, -0.61734825, 8.421539, -0.5264299, 0.42622733, 10.044071
1125747180203916, 5.7894344, 0.8147561, 8.386844, 0.6835331, -0.38677168, 10.193316
1125747189844228, 5.5405807, -0.7322037, 8.323434, -0.67568326, 0.37194896, 9.995939
1125747199484541, 5.7559347, 0.6759724, 8.27797, 0.54079735, -0.36549854, 10.08397
1125747209124853, 5.639883, -0.51206404, 8.2145605, -0.526546, 0.1503973, 9.962411
1125747218765166, 5.676972, 0.25124636, 8.251649, 0.16937494, -0.16058302, 10.016305
1125747228405374, 5.710471, -0.047856454, 8.184649, -0.12246847, -0.10009003, 9.97874
1125747238045686, 5.619544, -0.25962126, 8.29472, -0.26191437, 0.11161995, 10.018384
1125747247685999, 5.8061843, 0.42831525, 8.252846, 0.3011042, -0.32176828, 10.0901165
1125747257326311, 5.5250273, -0.66759753, 8.342576, -0.59312856, 0.3635249, 10.004311
1125747266966624, 5.7786665, 0.76689965, 8.3174515, 0.6317165, -0.40082645, 10.129234
1125747276606936, 5.521438, -0.80159557, 8.311469, -0.71486783, 0.40539074, 9.976671
1125747286247249, 5.7224355, 0.66400826, 8.30788, 0.5638586, -0.3326769, 10.08858
1125747295887561, 5.5896335, -0.55034924, 8.276773, -0.5271957, 0.23331118, 9.985964
1125747305527874, 5.656633, 0.3696911, 8.338987, 0.31135464, -0.145226, 10.077444
1125747315168082, 5.615955, -0.008374879, 8.29472, -0.031418085, 0.010869503, 10.017002
1125747324808395, 5.5310097, -0.07776674, 8.367701, -0.053221703, 0.14020777, 10.029659
1125747334448707, 5.7188463, 0.51445687, 8.322237, 0.42494333, -0.25818157, 10.098627
1125747344089020, 5.4640107, -0.5383851, 8.372486, -0.45869017, 0.36270618, 9.9950905
1125747353729332, 5.7080784, 0.77647096, 8.365308, 0.6728344, -0.322721, 10.129492
1125747363369645, 5.4293146, -0.7262217, 8.389236, -0.6319835, 0.46371436, 9.98848
1125747373009957, 5.663811, 0.75493556, 8.386844, 0.66777015, -0.27310562, 10.122614
1125747382650270, 5.4927244, -0.5419743, 8.325827, -0.49413872, 0.30514574, 9.972255
1125747392290582, 5.5250273, 0.47258246, 8.414361, 0.45451045, -0.05760479, 10.066818
1125747401930791, 5.572884, -0.0741775, 8.372486, -0.06633413, 0.08842611, 10.057279
1125747411571103, 5.5369916, -0.083748795, 8.414361, -0.06257725, 0.14285421, 10.071864
1125747421211416, 5.6961145, 0.3912265, 8.285149, 0.30193734, -0.22529602, 10.054877
1125747430851728, 5.495117, -0.5419743, 8.329415, -0.4874766, 0.3031268, 9.976957
1125747440492041, 5.7858453, 0.6963114, 8.269595, 0.54812205, -0.41682577, 10.09321
1125747450132353, 5.5334024, -0.7692925, 8.295917, -0.7112156, 0.34498572, 9.970342
1125747459772666, 5.782256, 0.7704889, 8.26122, 0.6310388, -0.44242382, 10.083747
1125747469412978, 5.5669017, -0.6364908, 8.254042, -0.60095096, 0.26021624, 9.954691
1125747479053186, 5.6709895, 0.46779683, 8.362915, 0.40766025, -0.1837287, 10.105312
1125747488693499, 5.633901, -0.148355, 8.3174515, -0.16572559, 0.060535908, 10.045484
1125747498333811, 5.556134, 0.033499517, 8.344969, 0.0328691, 0.06177473, 10.025237
1125747507974124, 5.682954, 0.38763726, 8.260024, 0.29876482, -0.22156954, 10.026757
1125747517614436, 5.4592247, -0.47138608, 8.382058, -0.39245248, 0.34761572, 10.000469
1125747527254749, 5.710471, 0.7429714, 8.383254, 0.6337657, -0.31863403, 10.145801
1125747536895061, 5.4293146, -0.6855437, 8.409575, -0.5828203, 0.47661138, 10.005077
1125747546535270, 5.6793647, 0.81595254, 8.374879, 0.71612656, -0.33118248, 10.1211195
1125747556175582, 5.4699926, -0.61734825, 8.342576, -0.5418825, 0.3716526, 9.973403
1125747565815895, 5.6410794, 0.5168497, 8.361719, 0.4483961, -0.18891335, 10.088137
1125747575456207, 5.6004014, -0.25722843, 8.32463, -0.26486468, 0.13210869, 10.032074
1125747585096520, 5.5669017, 0.016749758, 8.361719, 0.006827116, 0.07057619, 10.045098
1125747594736832, 5.727221, 0.26799613, 8.260024, 0.17150414, -0.19887161, 10.051465
1125747604377145, 5.521438, -0.45942193, 8.315059, -0.4195267, 0.2782669, 9.979183
1125747614017353, 5.749953, 0.6831509, 8.27797, 0.5591451, -0.3634801, 10.080112
1125747623657666, 5.505885, -0.6843473, 8.347362, -0.6076944, 0.3890028, 9.9970455
1125747633297978, 5.7726846, 0.87936234, 8.376076, 0.7365056, -0.41117477, 10.1756735
1125747642938291, 5.5405807, -0.59940207, 8.328219, -0.54829216, 0.3160398, 10.000803
1125747652578603, 5.666204, 0.6556334, 8.342576, 0.5599494, -0.2660427, 10.08712
1125747662218916, 5.6207404, -0.21655045, 8.333005, -0.22914004, 0.10660267, 10.050609
1125747671859228, 5.601598, 0.1698904, 8.385647, 0.13384187, 8.0633163E-4, 10.085034
1125747681499436, 5.723632, 0.25603202, 8.299505, 0.15972984, -0.16880369, 10.082326
1125747691139749, 5.5094743, -0.41754755, 8.3174515, -0.39076972, 0.26229668, 9.974323
1125747700780061, 5.7260246, 0.60658056, 8.2660055, 0.48405576, -0.3234458, 10.056998
1125747710420374, 5.4640107, -0.7812566, 8.323434, -0.716385, 0.430959, 9.952205
1125747720060686, 5.7427745, 0.72502524, 8.321041, 0.59148467, -0.35024548, 10.112977
1125747729700999, 5.5166526, -0.78364944, 8.282756, -0.7291341, 0.36553836, 9.949188
1125747739341207, 5.706882, 0.53359944, 8.30788, 0.44010055, -0.26079416, 10.080297
1125747748981520, 5.6446686, -0.4127619, 8.273184, -0.4235705, 0.12579155, 10.014139
1125747758621832, 5.6614184, 0.09930214, 8.327023, 0.056521177, -0.04590273, 10.069534
1125747768262145, 5.7463636, 0.07058827, 8.199007, -0.024689198, -0.16442013, 10.01108
1125747777902457, 5.6063833, -0.40558344, 8.224132, -0.4160502, 0.1408124, 9.951857
1125747787542770, 5.8157554, 0.5886344, 8.208578, 0.43665612, -0.4005828, 10.059777
1125747797182978, 5.558527, -0.67477596, 8.32463, -0.6207644, 0.3345647, 10.007734
1125747806823291, 5.802595, 0.84825563, 8.292327, 0.7167331, -0.4240713, 10.122192
1125747816463603, 5.534599, -0.6687939, 8.27797, -0.6174892, 0.32749987, 9.9556675
1125747826103916, 5.7188463, 0.73459655, 8.330612, 0.6318097, -0.29108572, 10.107424
1125747835744228, 5.639883, -0.29312077, 8.30788, -0.29217482, 0.13430738, 10.040503
1125747845384541, 5.645865, 0.32303107, 8.338987, 0.2734189, -0.07823944, 10.071643
1125747855024749, 5.6745787, 0.15314065, 8.251649, 0.09133303, -0.09038019, 10.014865
1125747864665061, 5.5190454, -0.23808585, 8.30788, -0.21751976, 0.20236635, 9.972421
1125747874305374, 5.790631, 0.6089734, 8.310273, 0.4842869, -0.31795788, 10.130512
1125747883945686, 5.515456, -0.6472585, 8.397611, -0.57142365, 0.40552545, 10.04331
1125747893585999, 5.74756, 0.8219346, 8.3581295, 0.7110375, -0.35088873, 10.145918
1125747903226311, 5.5274205, -0.715454, 8.348558, -0.6426406, 0.3985548, 10.009538
1125747912866520, 5.736792, 0.70947194, 8.34138, 0.59609556, -0.3025937, 10.126493
1125747922506832, 5.5776696, -0.46061835, 8.293523, -0.4335755, 0.23433828, 9.993107
1125747932147145, 5.5980086, 0.26679972, 8.35454, 0.23574626, -0.022765636, 10.057391
1125747941787457, 5.656633, 0.039481573, 8.282756, -0.0026522875, -0.014662743, 10.030099
1125747951427770, 5.558527, -0.21655045, 8.325827, -0.19729495, 0.18340206, 10.009543
1125747961068082, 5.767899, 0.53240305, 8.286345, 0.42288482, -0.28757763, 10.097232
1125747970708291, 5.5250273, -0.65324056, 8.335398, -0.5849507, 0.3929124, 9.996749
1125747980348603, 5.8097734, 0.7465607, 8.29113, 0.6015004, -0.39323473, 10.126066
1125747989988916, 5.5310097, -0.80159557, 8.275578, -0.74017274, 0.40995908, 9.95007
1125747999629228, 5.7391853, 0.6628119, 8.2348995, 0.52969897, -0.34429884, 10.039523
1125748009269541, 5.6183476, -0.5383851, 8.218149, -0.529853, 0.19698572, 9.953599
1125748018909749, 5.68415, 0.36490545, 8.328219, 0.29731643, -0.13662386, 10.08439
1125748028550061, 5.697311, -0.01794617, 8.26481, -0.06602681, -0.035672665, 10.037984
1125748038190374, 5.5716877, -0.09212367, 8.347362, -0.08225131, 0.1364646, 10.0352
1125748047830686, 5.749953, 0.5623133, 8.301898, 0.45585465, -0.27006435, 10.100442
1125748057470999, 5.501099, -0.5599205, 8.38804, -0.47745228, 0.3983097, 10.027372
1125748067111311, 5.7726846, 0.77647096, 8.368897, 0.64947546, -0.3376789, 10.170025
1125748076751520, 5.505885, -0.7393822, 8.329415, -0.6609136, 0.42731857, 9.981043
1125748086391832, 5.74756, 0.74895346, 8.325827, 0.6222621, -0.32946825, 10.120228
1125748096032145, 5.5896335, -0.55393845, 8.298309, -0.53017664, 0.2793107, 10.002684
1125748105672457, 5.662615, 0.41754755, 8.350951, 0.36179852, -0.13265133, 10.091059
1125748115312770, 5.651847, -0.07298109, 8.254042, -0.10781014, 0.01485014, 10.003304
1125748124952978, 5.548956, -0.12323037, 8.267202, -0.12318456, 0.12089205, 9.956051
1125748134593291, 5.7391853, 0.3924229, 8.232507, 0.28580356, -0.24144268, 10.036256
1125748144233603, 5.5274205, -0.5515456, 8.346166, -0.49340916, 0.33669472, 10.007911
1125748153873916, 5.8217373, 0.7322037, 8.373683, 0.60943866, -0.36338377, 10.20019
1125748163514228, 5.588437, -0.7932207, 8.408379, -0.7135968, 0.42452955, 10.093127
1125748173154541, 5.7726846, 0.69272214, 8.281559, 0.5628431, -0.3702221, 10.096242
1125748182794749, 5.4556355, -0.58624154, 8.255239, -0.5184612, 0.37434912, 9.891798
1125748192435061, 5.6997037, 0.46779683, 8.3377905, 0.38523054, -0.18863535, 10.101496
1125748202075374, 5.7152567, -0.0849452, 8.338987, -0.12229371, 0.018578053, 10.109144
1125748211715686, 5.619544, 0.041874398, 8.361719, 0.030669928, 0.05331421, 10.074502
1125748221355999, 5.77747, 0.4319045, 8.226524, 0.3075441, -0.29684114, 10.052797
1125748230996207, 5.562116, -0.4223332, 8.304291, -0.38929844, 0.24446678, 9.99327
1125748240636520, 5.8229337, 0.78364944, 8.325827, 0.6322932, -0.4153986, 10.162072
1125748250276832, 5.554938, -0.72502524, 8.313862, -0.6644466, 0.36494946, 9.99643
1125748259917145, 5.7690954, 0.7704889, 8.251649, 0.6405101, -0.4033389, 10.069405
1125748269557457, 5.5716877, -0.6448657, 8.2456665, -0.60149515, 0.2944045, 9.94998
1125748279197770, 5.692525, 0.4833502, 8.3174515, 0.40646648, -0.19413996, 10.080455
1125748288837978, 5.6709895, -0.25962126, 8.256434, -0.27481246, 0.07798767, 10.015719
1125748298478291, 5.6123657, -0.034695927, 8.323434, -0.03469801, 0.068440914, 10.038601
1125748308118603, 5.7188463, 0.24646074, 8.26122, 0.18193245, -0.15690327, 10.047686
1125748317758916, 5.541777, -0.52283174, 8.299505, -0.46444845, 0.29560232, 9.978144
1125748327399228, 5.771488, 0.61734825, 8.3377905, 0.5244565, -0.29578972, 10.141372
1125748337039541, 5.5070815, -0.8219346, 8.389236, -0.70982873, 0.4852667, 10.032123
1125748346679749, 5.7631135, 0.72382885, 8.336594, 0.63642836, -0.33870173, 10.1349125
1125748356320061, 5.5429735, -0.72502524, 8.283952, -0.64320326, 0.3573351, 9.966578
1125748365960374, 5.682954, 0.5288138, 8.333005, 0.46647787, -0.20602036, 10.087345
1125748375600686, 5.625526, -0.25962126, 8.282756, -0.2406478, 0.115281105, 10.012332
1125748385240999, 5.572884, 0.11724831, 8.364112, 0.1325357, 0.053874016, 10.050308
1125748394881207, 5.712864, 0.25124636, 8.270791, 0.19396794, -0.15692234, 10.052049
1125748404521520, 5.534599, -0.4127619, 8.325827, -0.34840512, 0.26599073, 9.9964695
1125748414161832, 5.7655063, 0.65682983, 8.321041, 0.5565479, -0.32896948, 10.123943
1125748423802145, 5.515456, -0.7405786, 8.379665, -0.6248144, 0.4395578, 10.030151
1125748433442457, 5.7750773, 0.762114, 8.331808, 0.65867615, -0.37994814, 10.13771
1125748443082770, 5.511867, -0.6867401, 8.306684, -0.59250844, 0.3785045, 9.967896
1125748452722978, 5.6757755, 0.63170516, 8.374879, 0.5844623, -0.21698523, 10.117479
1125748462363291, 5.639883, -0.26919255, 8.360522, -0.23654544, 0.15311098, 10.084626
1125748472003603, 5.623133, 0.21774685, 8.390432, 0.21323514, -0.0041880608, 10.10054
1125748481643916, 5.6961145, 0.2416751, 8.26481, 0.18120182, -0.13952637, 10.037873
1125748491284228, 5.523831, -0.35294133, 8.300702, -0.30133975, 0.24396944, 9.969383
1125748500924436, 5.8037915, 0.6472585, 8.286345, 0.5213275, -0.366055, 10.117345
1125748510564749, 5.5501523, -0.70588267, 8.328219, -0.6290486, 0.36908555, 10.006488
1125748520205061, 5.7990055, 0.7680961, 8.323434, 0.6374376, -0.39272738, 10.145808
1125748529845374, 5.558527, -0.79800636, 8.268398, -0.72888255, 0.3623507, 9.961821
1125748539485686, 5.704489, 0.5694918, 8.305488, 0.48385584, -0.25207663, 10.077152
1125748549125999, 5.6327047, -0.41994038, 8.311469, -0.39372492, 0.1940651, 10.039499
1125748558766207, 5.6446686, 0.18305093, 8.361719, 0.17822671, -0.019684315, 10.088705
1125748568406520, 5.6781683, 0.09332009, 8.255239, 0.06083083, -0.061861515, 10.0195675
1125748578046832, 5.538188, -0.34337005, 8.309076, -0.28988755, 0.24102497, 9.984391
1125748587687145, 5.8061843, 0.5706882, 8.301898, 0.47211146, -0.31112576, 10.131105
1125748597327457, 5.568098, -0.6556334, 8.372486, -0.58404434, 0.3627448, 10.052832
1125748606967770, 5.8277197, 0.77407813, 8.322237, 0.6473136, -0.4028778, 10.1607
1125748616607978, 5.5968122, -0.7609176, 8.220542, -0.71571326, 0.28747654, 9.944132
1125748626248291, 5.7750773, 0.66161543, 8.257631, 0.5435469, -0.35683584, 10.077448
1125748635888603, 5.6709895, -0.49292147, 8.209774, -0.48727036, 0.13363838, 9.977385
1125748645528916, 5.6733823, 0.22372891, 8.279166, 0.18320489, -0.09674978, 10.036881
1125748655169228, 5.6913285, 0.038285162, 8.218149, 0.0025960207, -0.07074642, 9.996283
1125748664809541, 5.582455, -0.25004998, 8.289934, -0.21299565, 0.16143465, 9.993895
1125748674449749, 5.825327, 0.5072784, 8.281559, 0.40492284, -0.32136822, 10.1246605
1125748684090061, 5.5537415, -0.72502524, 8.335398, -0.6454233, 0.38034797, 10.014357
1125748693730374, 5.779863, 0.71665037, 8.355737, 0.62216234, -0.35326815, 10.160063
1125748703370686, 5.5405807, -0.81834537, 8.347362, -0.7262018, 0.42815208, 10.01676
1125748713010999, 5.773881, 0.62452674, 8.361719, 0.5321654, -0.30121565, 10.162292
1125748722651311, 5.599205, -0.5180461, 8.333005, -0.46363425, 0.26136875, 10.038685
1125748732291520, 5.6171513, 0.37088752, 8.405986, 0.36718822, -0.055641174, 10.110026
1125748741931832, 5.6470613, 0.050249275, 8.330612, 0.055798054, 0.0047039986, 10.064184
1125748751572145, 5.541777, -0.16151553, 8.353344, -0.10377824, 0.1835494, 10.023537
1125748761212457, 5.7487564, 0.51086766, 8.243274, 0.42316926, -0.3019724, 10.049402
1125748770852770, 5.5334024, -0.57188463, 8.306684, -0.49424553, 0.32736087, 9.979738
1125748780493082, 5.8277197, 0.78723866, 8.325827, 0.6705221, -0.42831373, 10.162106
1125748790133395, 5.541777, -0.7393822, 8.298309, -0.6458918, 0.37555432, 9.978061
1125748799773603, 5.773881, 0.73818576, 8.275578, 0.61924636, -0.388103, 10.0912695
1125748809413916, 5.6147585, -0.5192425, 8.30788, -0.47493756, 0.24501419, 10.026486
1125748819054228, 5.703293, 0.39601216, 8.403593, 0.36561596, -0.14133072, 10.156334
1125748828694541, 5.710471, -0.078963146, 8.269595, -0.10419321, -0.030048847, 10.049387
1125748838334853, 5.6075797, -0.1794617, 8.283952, -0.16204011, 0.09155178, 10.003319
1125748847975166, 5.771488, 0.3278167, 8.193025, 0.237638, -0.28043556, 10.020385
1125748857615374, 5.541777, -0.7118647, 8.29113, -0.6244018, 0.35812902, 9.972099
1125748867255686, 5.8061843, 0.6376872, 8.295917, 0.5439011, -0.3772893, 10.1243515
1125748876895999, 5.5633125, -0.8602197, 8.309076, -0.7584779, 0.4123397, 9.999291
1125748886536311, 5.770292, 0.6664011, 8.304291, 0.5773947, -0.3468895, 10.111769
1125748896176624, 5.5836515, -0.66759753, 8.29113, -0.5896355, 0.31248498, 9.996018
1125748905816936, 5.6482577, 0.36610186, 8.370093, 0.36575365, -0.10587931, 10.097046
1125748915457249, 5.6410794, -0.12801601, 8.338987, -0.09539223, 0.07224798, 10.067897
1125748925097457, 5.5716877, -0.014356935, 8.392825, 0.03553033, 0.10864639, 10.07325
1125748934737770, 5.7200427, 0.4211368, 8.306684, 0.3737166, -0.21392679, 10.085227
1125748944378082, 5.4987063, -0.4977071, 8.397611, -0.38911045, 0.34889174, 10.036444
1125748954018395, 5.7451673, 0.78843504, 8.41795, 0.72112465, -0.31273842, 10.1917925
1125748963658707, 5.4759746, -0.6939186, 8.429914, -0.5487709, 0.46460104, 10.050585
1125748973299020, 5.7284174, 0.80997044, 8.370093, 0.7445226, -0.34195137, 10.141894
1125748982939332, 5.5429735, -0.60658056, 8.321041, -0.5151969, 0.3178985, 9.998286
1125748992579645, 5.65424, 0.47377887, 8.347362, 0.44086635, -0.16599512, 10.082234
1125749002219853, 5.6554365, -0.23688944, 8.293523, -0.21621215, 0.0762949, 10.038429
1125749011860166, 5.608776, -0.076570325, 8.310273, -0.052663445, 0.06112528, 10.025886
1125749021500478, 5.7690954, 0.19262223, 8.190632, 0.11698747, -0.22812748, 10.017002
1125749031140791, 5.581259, -0.59342, 8.246863, -0.53165793, 0.25242758, 9.9582615
1125749040781103, 5.844469, 0.5922236, 8.2660055, 0.48353076, -0.38761044, 10.121825
1125749050421416, 5.569295, -0.83389866, 8.338987, -0.72483015, 0.4014473, 10.028192
1125749060061728, 5.8193445, 0.7609176, 8.325827, 0.67062855, -0.40078926, 10.156416
1125749069702041, 5.599205, -0.62931234, 8.305488, -0.5496837, 0.28680086, 10.017179
1125749079342249, 5.7284174, 0.58983076, 8.370093, 0.5398737, -0.23521137, 10.142698
1125749088982561, 5.645865, -0.2105684, 8.323434, -0.18437207, 0.1079998, 10.057537
1125749098622874, 5.621937, 0.11365908, 8.306684, 0.11951232, -0.0058135986, 10.030243
1125749108263186, 5.757131, 0.29790643, 8.232507, 0.23350847, -0.22043657, 10.045115
1125749117903499, 5.584848, -0.45583272, 8.312666, -0.39838922, 0.24204779, 10.014062
1125749127543811, 5.8073807, 0.64606214, 8.309076, 0.5457244, -0.35546494, 10.137043
1125749137184124, 5.501099, -0.7537391, 8.325827, -0.63298106, 0.42829347, 9.978252
1125749146824436, 5.788238, 0.7585248, 8.334201, 0.6614554, -0.36875725, 10.14714
1125749156464645, 5.5836515, -0.73340017, 8.305488, -0.65037, 0.35058594, 10.007512
1125749166104957, 5.7248282, 0.5347959, 8.313862, 0.48267007, -0.25811434, 10.09358
1125749175745270, 5.621937, -0.37806597, 8.268398, -0.33304107, 0.15581608, 9.999015
1125749185385582, 5.599205, 0.04426722, 8.333005, 0.0698818, 0.047590733, 10.039167
1125749195025895, 5.73081, 0.148355, 8.275578, 0.11784601, -0.12497091, 10.065779
1125749204666207, 5.5537415, -0.42711884, 8.346166, -0.34461498, 0.2717185, 10.024588
1125749214306520, 5.7990055, 0.57188463, 8.331808, 0.5050602, -0.30721378, 10.150126
1125749223946832, 5.5298133, -0.78843504, 8.365308, -0.66092885, 0.43419504, 10.027637
1125749233587145, 5.8073807, 0.74177504, 8.3174515, 0.66240656, -0.3809309, 10.142584
1125749243227353, 5.593223, -0.76331043, 8.26481, -0.69119763, 0.32070255, 9.979643
1125749252867666, 5.757131, 0.57427746, 8.273184, 0.50414085, -0.29303217, 10.078686
1125749262507978, 5.662615, -0.39481574, 8.248059, -0.3664044, 0.13210201, 10.004992
1125749272148291, 5.690132, 0.1698904, 8.318648, 0.16602552, -0.07336092, 10.078365
1125749281788603, 5.782256, 0.14237295, 8.226524, 0.09229708, -0.18019915, 10.054325
1125749291428916, 5.582455, -0.3924229, 8.273184, -0.33525145, 0.2064414, 9.980398
1125749301069228, 5.845666, 0.5180461, 8.232507, 0.42202997, -0.3628707, 10.094779
1125749310709541, 5.556134, -0.74177504, 8.347362, -0.6312281, 0.40894103, 10.026647
1125749320349853, 5.818148, 0.7537391, 8.355737, 0.6754949, -0.37482882, 10.180399
1125749329990166, 5.558527, -0.7609176, 8.295917, -0.6446055, 0.38997006, 9.986534
1125749339630478, 5.7547383, 0.64247286, 8.297112, 0.5788429, -0.31549358, 10.096399
1125749349270686, 5.6303115, -0.41754755, 8.398808, -0.329996, 0.25328302, 10.111463
1125749358910999, 5.6410794, 0.25722843, 8.3784685, 0.27487016, -0.035867214, 10.099991
1125749368551311, 5.6685967, 0.08135597, 8.238488, 0.072942615, -0.05821705, 10.000179
1125749378191624, 5.554938, -0.27038896, 8.335398, -0.19551837, 0.21772957, 10.0161705
1125749387831936, 5.791827, 0.526421, 8.303095, 0.45177603, -0.29754114, 10.122803
1125749397472249, 5.541777, -0.654437, 8.376076, -0.53097284, 0.40216208, 10.042637
1125749407112561, 5.7858453, 0.7573284, 8.34138, 0.6674863, -0.35646534, 10.1516285
1125749416752874, 5.5274205, -0.75972116, 8.325827, -0.6512737, 0.4236889, 9.992261
1125749426393186, 5.7248282, 0.6903293, 8.346166, 0.62594545, -0.27866316, 10.121225
1125749436033499, 5.599205, -0.48454657, 8.329415, -0.42005563, 0.26095152, 10.035961
1125749445673811, 5.636294, 0.32063824, 8.396415, 0.32541883, -0.040520668, 10.112511
1125749455314124, 5.6709895, 0.051445685, 8.3174515, 0.054434896, -0.012400627, 10.06676
1125749464954436, 5.5740805, -0.2009971, 8.3377905, -0.15341532, 0.16431475, 10.028908
1125749474594645, 5.790631, 0.4941179, 8.282756, 0.41106534, -0.29935598, 10.1054945
1125749484234957, 5.532206, -0.68195444, 8.310273, -0.5888041, 0.36147237, 9.982668
1125749493875270, 5.7810597, 0.7393822, 8.310273, 0.64139736, -0.3868847, 10.122595
1125749503515582, 5.569295, -0.7704889, 8.321041, -0.6759099, 0.37325883, 10.012705
1125749513155895, 5.784649, 0.6735796, 8.310273, 0.57881427, -0.3653698, 10.124624
1125749522796207, 5.595616, -0.56470615, 8.306684, -0.49798715, 0.26572847, 10.015599
1125749532436520, 5.669793, 0.36729828, 8.380861, 0.33866394, -0.12004709, 10.1188545
1125749542076832, 5.7020965, -0.050249275, 8.300702, -0.06643689, -0.017664433, 10.07042
1125749551717145, 5.5968122, -0.20817557, 8.295917, -0.17464209, 0.12441015, 10.007193
1125749561357457, 5.7762737, 0.35294133, 8.221739, 0.2657808, -0.2783656, 10.046829
1125749570997770, 5.5669017, -0.66759753, 8.267202, -0.588146, 0.31477237, 9.966831
1125749580638082, 5.828916, 0.6975078, 8.293523, 0.578264, -0.40908623, 10.136249
1125749590278395, 5.5740805, -0.8111669, 8.343773, -0.7123016, 0.41462612, 10.033327
1125749599918707, 5.784649, 0.6975078, 8.328219, 0.59994304, -0.3517046, 10.140232
1125749609559020, 5.5872407, -0.5910272, 8.276773, -0.51710296, 0.27817678, 9.986329
1125749619199332, 5.6745787, 0.4223332, 8.386844, 0.3978374, -0.12881899, 10.126374
1125749628839645, 5.71765, -0.11246266, 8.319844, -0.11471903, 0.0057878494, 10.095086
1125749638479957, 5.629115, -0.096909314, 8.349754, -0.07137585, 0.08353615, 10.069889
1125749648120166, 5.7260246, 0.36490545, 8.2660055, 0.31037223, -0.21101952, 10.055174
1125749657760478, 5.505885, -0.6221339, 8.335398, -0.51738083, 0.38033867, 9.988411
1125749667400791, 5.8013983, 0.715454, 8.321041, 0.6167152, -0.37288475, 10.143394
1125749677041103, 5.535795, -0.75254273, 8.343773, -0.63011503, 0.41261148, 10.013123
1125749686681416, 5.7607207, 0.7645068, 8.293523, 0.6720984, -0.37219667, 10.097654
1125749696321728, 5.575277, -0.6448657, 8.26481, -0.571411, 0.30893278, 9.969188
1125749705962041, 5.7248282, 0.45224348, 8.315059, 0.39771593, -0.21398592, 10.095267
1125749715602353, 5.7152567, -0.19262223, 8.288737, -0.19841337, 0.031513214, 10.067972
1125749725242666, 5.6614184, -0.03708875, 8.319844, -0.03141594, 0.02631998, 10.063357
1125749734882978, 5.812166, 0.31585258, 8.220542, 0.22420609, -0.2807784, 10.066243
1125749744523291, 5.6590257, -0.22253251, 8.299505, -0.20264816, 0.08546829, 10.045273
1125749754163603, 5.6985073, 0.051445685, 8.330612, 0.043204784, -0.035658836, 10.093146
1125749763803916, 5.676972, -0.0035892338, 8.355737, 0.005067706, 0.015171051, 10.101788
1125749773444228, 5.6386867, 0.05742774, 8.346166, 0.067231536, 0.007479191, 10.072338
1125749783084541, 5.5860443, 0.046660043, 8.389236, 0.08077705, 0.067483425, 10.078405
1125749792724853, 5.595616, 0.07298109, 8.370093, 0.09729016, 0.03984976, 10.067951
1125749802365166, 5.595616, 0.040677983, 8.3784685, 0.06604898, 0.051516056, 10.074935
1125749812005478, 5.581259, -0.0059820567, 8.372486, 0.02512467, 0.07480955, 10.061946
1125749821645791, 5.5776696, -0.02751746, 8.353344, 0.002195716, 0.07445717, 10.044102
1125749831286103, 5.5716877, -0.0071784677, 8.3581295, 0.024504423, 0.07310438, 10.044707
1125749840926416, 5.599205, 0.039481573, 8.353344, 0.05902195, 0.031172276, 10.056171
1125749850566728, 5.629115, 0.06580263, 8.313862, 0.06583011, -0.021784306, 10.040258
1125749860207041, 5.6949177, 0.062213387, 8.305488, 0.039068103, -0.07216358, 10.070271
1125749869847353, 5.7320065, 0.04426722, 8.292327, 0.007085681, -0.095314026, 10.080248
1125749879487666, 5.741578, -0.04546363, 8.246863, -0.08871412, -0.07940149, 10.048103
1125749889127978, 5.7990055, -0.08853444, 8.188239, -0.16081119, -0.13534832, 10.031919
1125749898768291, 5.820541, -0.10049855, 8.157132, -0.1825422, -0.15644789, 10.018474
1125749908408603, 5.800202, -0.13878371, 8.151151, -0.21173024, -0.12818623, 10.00208
1125749918048916, 5.788238, -0.1363909, 8.149954, -0.20189846, -0.121985435, 9.994419
1125749927689228, 5.7690954, -0.15672988, 8.128419, -0.21693397, -0.11075306, 9.965887
1125749937329541, 5.7762737, -0.20219351, 8.184649, -0.2468561, -0.066578865, 10.016453
1125749946969853, 5.7990055, -0.2117648, 8.238488, -0.25056708, -0.052447796, 10.073752
1125749956610166, 5.8229337, -0.14476576, 8.238488, -0.1978215, -0.09755278, 10.087198
1125749966250478, 5.8037915, -0.008374879, 8.254042, -0.063267946, -0.13180971, 10.089197
1125749975890791, 5.7930236, 0.08135597, 8.325827, 0.0396626, -0.12446022, 10.142389
1125749985531103, 5.757131, 0.13519448, 8.344969, 0.10448778, -0.10938978, 10.137972
1125749995171416, 5.7523456, 0.16271193, 8.347362, 0.12893403, -0.120462894, 10.13722
1125750004811728, 5.6949177, 0.19381863, 8.338987, 0.17465878, -0.097561836, 10.097937
1125750014452041, 5.613562, 0.20458634, 8.396415, 0.22438681, -0.014737606, 10.099661
1125750024092353, 5.5537415, 0.23928227, 8.480164, 0.29250348, 0.05338335, 10.135387
1125750033732666, 5.447261, 0.23449662, 8.5220375, 0.3283242, 0.1505003, 10.110505
1125750043372978, 5.332405, 0.24646074, 8.592627, 0.38868976, 0.25784016, 10.104998
1125750053013291, 5.2259245, 0.19621146, 8.6345005, 0.38872945, 0.37990046, 10.080077
1125750062653603, 5.1960144, 0.18424734, 8.68475, 0.3844236, 0.41116858, 10.106462
1125750072293916, 5.1385865, 0.15433706, 8.721839, 0.38024426, 0.47311544, 10.105986
1125750081934228, 5.1457653, 0.10049855, 8.743374, 0.3274945, 0.4890654, 10.12863
1125750091574541, 5.17089, 0.05383851, 8.729017, 0.274598, 0.48033714, 10.130676
1125750101214853, 5.221139, -0.025124637, 8.702696, 0.1755147, 0.4341216, 10.137978
1125750110855166, 5.278567, -0.096909314, 8.687142, 0.08631706, 0.40035033, 10.157331
1125750120495478, 5.3479586, -0.1794617, 8.58784, -0.033990383, 0.33069706, 10.113029
1125750130135791, 5.4484572, -0.22253251, 8.475378, -0.13093996, 0.20806837, 10.07506
1125750139776103, 5.572884, -0.276371, 8.400003, -0.22464383, 0.10400581, 10.081279
1125750149416416, 5.6674004, -0.31585258, 8.338987, -0.30622303, 0.020837307, 10.082841
1125750159056728, 5.74756, -0.35174492, 8.263613, -0.3580507, -0.040300846, 10.065568
1125750168697041, 5.8061843, -0.357727, 8.132008, -0.41411412, -0.1490159, 9.988774
1125750178337457, 5.8731833, -0.30029923, 8.015956, -0.3978523, -0.2739439, 9.930089
1125750187977770, 5.912665, -0.32063824, 7.940582, -0.43569756, -0.32566595, 9.8903675
1125750197618082, 5.9090757, -0.29671, 7.9011, -0.4103421, -0.33304548, 9.856639
1125750207258395, 5.9437714, -0.25722843, 7.8891363, -0.39099145, -0.37913942, 9.865924
1125750216898707, 5.973682, -0.20817557, 7.8927255, -0.3550837, -0.4111023, 9.885759
1125750226539020, 5.9676995, -0.17467605, 7.952546, -0.30760932, -0.3829689, 9.932052
1125750236179332, 5.9497533, -0.11485548, 8.068598, -0.22532785, -0.3232422, 10.017971
1125750245819645, 5.9353967, -0.010767702, 8.127222, -0.11466706, -0.31779337, 10.058163
1125750255459957, 5.9042897, 0.086141616, 8.237292, 0.0046964884, -0.27213764, 10.131484
1125750265100270, 5.877969, 0.16151553, 8.327023, 0.09859502, -0.23341036, 10.190766
1125750274740582, 5.8265233, 0.20817557, 8.301898, 0.13824856, -0.2255559, 10.141166
1125750284380895, 5.7523456, 0.22851457, 8.3377905, 0.19245803, -0.15924788, 10.12907
1125750294021207, 5.6709895, 0.22731815, 8.366505, 0.21702778, -0.078825474, 10.107269
1125750303661520, 5.6004014, 0.19740787, 8.383254, 0.21684968, -6.3467026E-4, 10.081437
1125750313301832, 5.5262237, 0.1794617, 8.4012, 0.23054707, 0.07500124, 10.054488
1125750322942145, 5.474778, 0.124426775, 8.441878, 0.20844567, 0.15659428, 10.059126
1125750332582457, 5.4173503, 0.11724831, 8.477771, 0.22879624, 0.21551466, 10.056602
1125750342222770, 5.416154, 0.09092726, 8.493324, 0.20898306, 0.2353921, 10.068787
1125750351863082, 5.4388857, 0.031106694, 8.486146, 0.14294934, 0.2282548, 10.075941
1125750361503499, 5.35753, -0.0011964113, 8.508878, 0.13343048, 0.29452324, 10.049856
1125750371143811, 5.3587265, 0.011964113, 8.550752, 0.14757407, 0.30100918, 10.085587
1125750380784124, 5.407779, 0.019142581, 8.575876, 0.14442515, 0.27297115, 10.13384
1125750390424436, 5.426922, 0.11485548, 8.62134, 0.22794843, 0.23381186, 10.18261
1125750400064749, 5.395815, 0.10049855, 8.577073, 0.20817888, 0.23799849, 10.128728
1125750409705061, 5.4616175, 0.058624156, 8.518449, 0.12622952, 0.1758833, 10.116807
1125750419345374, 5.5094743, 0.02632105, 8.429914, 0.056491613, 0.10927725, 10.0699215
1125750428985686, 5.56092, -0.016749758, 8.349754, -0.012588263, 0.058885098, 10.031893
1125750438625999, 5.6123657, -0.038285162, 8.304291, -0.054234743, 0.013705254, 10.022884
1125750448266311, 5.6949177, -0.03589234, 8.27797, -0.08587897, -0.06331062, 10.047228
1125750457906624, 5.7810597, -0.03708875, 8.26122, -0.113878846, -0.1293559, 10.08167
1125750467546936, 5.825327, -0.05383851, 8.1942215, -0.15534651, -0.18566275, 10.051069
1125750477187249, 5.81097, -0.049052864, 8.149954, -0.15717363, -0.1951046, 10.006436
1125750486827666, 5.825327, -0.0047856453, 8.143971, -0.12805879, -0.21923876, 10.009708
1125750496467978, 5.8624153, 0.02632105, 8.184649, -0.104329586, -0.23810625, 10.064268
1125750506108291, 5.831309, -0.0047856453, 8.182257, -0.12461591, -0.19051743, 10.044983
1125750515748603, 5.8193445, -0.015553347, 8.224132, -0.118920445, -0.14782524, 10.073002
1125750525388916, 5.7894344, -0.043070808, 8.246863, -0.12581897, -0.09674549, 10.074967
1125750535029228, 5.6709895, -0.0741775, 8.281559, -0.10730696, 0.02288723, 10.036823
1125750544669541, 5.697311, -0.10767702, 8.276773, -0.1442802, 0.0154595375, 10.04763
1125750554309853, 5.6482577, -0.0634098, 8.279166, -0.08322537, 0.026769161, 10.022164
1125750563950166, 5.5190454, 0.04546363, 8.313862, 0.066631675, 0.099873066, 9.978367
1125750573590478, 5.6243296, -0.013160525, 8.327023, -0.02855134, 0.039893627, 10.048391
1125750583230791, 5.576473, 0.033499517, 8.402397, 0.03795755, 0.09299278, 10.084065
1125750592871103, 5.5369916, 0.12921242, 8.421539, 0.14305866, 0.09504032, 10.078085
1125750602511520, 5.6099725, 0.16510476, 8.379665, 0.13108468, -0.0030155182, 10.084673
1125750612151832, 5.6279187, 0.1363909, 8.3784685, 0.08476889, -0.012728691, 10.093733
1125750621792145, 5.629115, 0.15074782, 8.353344, 0.07942891, -0.039818764, 10.073734
1125750631432457, 5.6374903, 0.1160519, 8.293523, 0.01527822, -0.07831812, 10.028506
1125750641072770, 5.599205, 0.08973085, 8.276773, -0.0014995337, -0.05202532, 9.99307
1125750650713082, 5.5800624, 0.06699903, 8.285149, -0.0133064985, -0.023827076, 9.989221
1125750660353395, 5.6123657, 0.1363909, 8.380861, 0.060073733, -0.03029728, 10.087196
1125750669993707, 5.6075797, 0.15314065, 8.392825, 0.08109939, -0.025866508, 10.094586
1125750679634020, 5.4903316, 0.22492532, 8.482556, 0.20675349, 0.08011198, 10.104402
1125750689274332, 5.605187, 0.15792629, 8.443074, 0.08908129, -0.0040626526, 10.1351185
1125750698914645, 5.608776, 0.08733802, 8.452646, 0.025716066, 0.027503967, 10.144545
1125750708555061, 5.5836515, -0.0071784677, 8.370093, -0.078436375, 0.046836376, 10.06118
1125750718195374, 5.6482577, -0.104087785, 8.323434, -0.19951117, 0.014649868, 10.057493
