timestamp_acc,device_acc_x,device_acc_y,device_acc_z,earth_acc_x,earth_acc_y,earth_acc_z
787482179493185, 0.12323037, 6.5347986, 7.5673018, -0.10559499, -0.070705414, 9.998335
787482189131935, 0.1591227, 6.5455666, 7.580462, -0.07148504, -0.07772064, 10.0160885
787482198770685, 0.20338993, 6.579066, 7.5517483, -0.018520951, -0.042912483, 10.017594
787482208409435, 0.28953153, 6.558727, 7.463214, 0.07336581, -0.020148754, 9.939543
787482218048290, 0.33260235, 6.5515485, 7.3627152, 0.13004994, 0.0299654, 9.860283
787482227687040, 0.30508488, 6.5455666, 7.355537, 0.095579624, 0.034802914, 9.850435
787482237325790, 0.30508488, 6.519245, 7.3926253, 0.08635914, -0.008665085, 9.860883
787482246964644, 0.2656033, 6.533602, 7.428518, 0.038608193, -0.012009144, 9.89645
787482256603394, 0.24646074, 6.600601, 7.503892, 0.017754316, -0.007065296, 9.996835
787482266242144, 0.22372891, 6.5682983, 7.503892, -0.010682225, -0.02557993, 9.974979
787482275880894, 0.23688944, 6.6041903, 7.4512496, 0.014222264, 0.031564236, 9.959486
787482285519748, 0.22971097, 6.6077795, 7.3986077, 0.013946295, 0.066137314, 9.922213
787482295158498, 0.25962126, 6.6041903, 7.338787, 0.050826788, 0.09243393, 9.875698
787482304797248, 0.36011982, 6.6592255, 7.3052874, 0.16083395, 0.12984419, 9.889362
787482314436102, 0.38165522, 6.6568327, 7.301698, 0.1831119, 0.12431669, 9.88559
787482324074852, 0.39840496, 6.6484575, 7.3292155, 0.190148, 0.09502125, 9.901157
787482333713602, 0.37088752, 6.6161547, 7.355537, 0.15155232, 0.058439255, 9.89892
787482343352352, 0.2548356, 6.5778694, 7.396215, 0.024045467, 0.029479504, 9.901308
787482352991206, 0.18424734, 6.559923, 7.457232, -0.057032824, -0.0074210167, 9.933456
787482362629956, 0.17706887, 6.521638, 7.426125, -0.06176901, -0.012411594, 9.884659
787482372268706, 0.13040884, 6.5347986, 7.503892, -0.11293411, -0.041431427, 9.950604
787482381907560, 0.13280165, 6.506085, 7.584051, -0.120903015, -0.11379194, 9.991849
787482391546310, 0.18783657, 6.570691, 7.5254273, -0.04648441, -0.03671503, 9.991888
787482401185060, 0.2321038, 6.5635123, 7.450053, 0.009376526, 3.7240982E-4, 9.931606
787482410823810, 0.2835495, 6.5276203, 7.2957163, 0.077819586, 0.06355381, 9.793243
787482420462665, 0.32183465, 6.5228343, 7.2263246, 0.12361729, 0.09481621, 9.738913
787482430101415, 0.25842485, 6.5659056, 7.2346992, 0.06498444, 0.13384914, 9.772238
787482439740165, 0.19860429, 6.5479593, 7.353144, -0.012370586, 0.057570457, 9.847866
787482449379019, 0.13519448, 6.5551376, 7.513463, -0.09667164, -0.028082848, 9.971464
787482459017769, 0.076570325, 6.5084777, 7.587641, -0.16946709, -0.09370232, 9.995046
787482468656519, 0.10049855, 6.4797635, 7.57448, -0.14470196, -0.106580734, 9.966841
787482478295269, 0.14356937, 6.512067, 7.4476604, -0.073042154, -0.0023450851, 9.893934
787482487934123, 0.20578274, 6.5001025, 7.4189467, -0.0094925165, -0.0051174164, 9.865816
787482497572873, 0.26799613, 6.5084777, 7.38784, 0.057788372, 0.010653973, 9.849306
787482507211623, 0.29790643, 6.521638, 7.411768, 0.08489978, 0.0015416145, 9.876619
787482516850477, 0.2847459, 6.550352, 7.515856, 0.059046984, -0.03879261, 9.973528
787482526489227, 0.22971097, 6.5347986, 7.645068, -0.017439008, -0.11878061, 10.059277
787482536127977, 0.15074782, 6.532406, 7.6390862, -0.0942744, -0.097863674, 10.051478
787482545766831, 0.07178468, 6.503692, 7.554141, -0.1631192, -0.04463291, 9.966927
787482555405581, 0.043070808, 6.524031, 7.4249287, -0.1673221, 0.06088686, 9.882444
787482565044331, 0.106480606, 6.526424, 7.350751, -0.091409445, 0.09689808, 9.829617
787482574683081, 0.19980069, 6.562316, 7.2993054, 0.014006853, 0.1357894, 9.816576
787482584321935, 0.24526432, 6.539584, 7.332805, 0.048563242, 0.08587694, 9.827848
787482593960685, 0.28953153, 6.550352, 7.4213395, 0.08101213, 0.027570724, 9.902521
787482603599435, 0.3493521, 6.5754766, 7.4715886, 0.13299859, 0.0032072067, 9.958206
787482613238290, 0.39361933, 6.5682983, 7.5026956, 0.17089248, -0.029633522, 9.977867
787482622877040, 0.3493521, 6.509674, 7.5266237, 0.11405039, -0.07473612, 9.956373
787482632515790, 0.30508488, 6.535995, 7.578069, 0.065927625, -0.07830095, 10.011442
787482642154540, 0.24047868, 6.5144596, 7.5673018, 0.0010019541, -0.07596636, 9.987709
787482651793394, 0.1794617, 6.5108705, 7.5266237, -0.05392766, -0.04103279, 9.953346
787482661432144, 0.15074782, 6.4666033, 7.405786, -0.07090765, 0.009021282, 9.832613
787482671070894, 0.10887343, 6.472585, 7.3663044, -0.10501635, 0.045586586, 9.805892
787482680709748, 0.12921242, 6.4737816, 7.268199, -0.07037324, 0.10454512, 9.7333145
787482690348498, 0.14117654, 6.539584, 7.240681, -0.04523897, 0.16932678, 9.756169
787482699987248, 0.16271193, 6.5072813, 7.251449, -0.02735281, 0.13617992, 9.743479
787482709625998, 0.19501504, 6.550352, 7.3746796, -0.008467197, 0.0853734, 9.865277
787482719264852, 0.22372891, 6.5659056, 7.4979095, 0.0035653114, 0.016319752, 9.968929
787482728903602, 0.22851457, 6.5455666, 7.629515, -0.01586771, -0.08371925, 10.054796
787482738542352, 0.28953153, 6.5479593, 7.690532, 0.03404069, -0.12941313, 10.103762
787482748181206, 0.34576288, 6.5252275, 7.580462, 0.10426247, -0.08277559, 10.007188
787482757819956, 0.4139583, 6.535995, 7.503892, 0.18347692, -0.036866188, 9.958111
787482767458706, 0.46181476, 6.5635123, 7.4356966, 0.24296331, 0.019815922, 9.925882
787482777097560, 0.43788654, 6.5539412, 7.4739814, 0.20986986, -0.0034503937, 9.947975
787482786736310, 0.31345975, 6.495317, 7.5493555, 0.06405699, -0.06920862, 9.963497
787482796375060, 0.27158538, 6.5407805, 7.550552, 0.029221892, -0.027677536, 9.993237
787482806013810, 0.148355, 6.526424, 7.611569, -0.10183525, -0.051012516, 10.026924
787482815652665, 0.019142581, 6.4462643, 7.587641, -0.23036933, -0.07112694, 9.953335
787482825291415, -0.015553347, 6.4845495, 7.509874, -0.24843913, 0.012383461, 9.918969
787482834930165, -0.031106694, 6.4558353, 7.4333034, -0.25198716, 0.041850567, 9.842129
787482844568915, 0.05383851, 6.4618177, 7.361519, -0.15335393, 0.07433033, 9.793923
787482854207769, 0.13160525, 6.478567, 7.393822, -0.07637417, 0.04795885, 9.831057
787482863846519, 0.20578274, 6.4666033, 7.373483, -4.105568E-4, 0.036758423, 9.809496
787482873485269, 0.29910284, 6.491728, 7.348358, 0.09767926, 0.053766727, 9.809074
787482883124123, 0.36251262, 6.483353, 7.3770723, 0.15390515, 0.01774168, 9.826622
787482892762873, 0.36370903, 6.5084777, 7.442875, 0.14327103, -0.0032138824, 9.892846
787482902401623, 0.35294133, 6.533602, 7.5290165, 0.12176454, -0.03473234, 9.974097
787482912040373, 0.28953153, 6.5682983, 7.536195, 0.060447812, -1.4638901E-4, 10.000847
787482921679227, 0.2428715, 6.59103, 7.5517483, 0.015139043, 0.0152926445, 10.026421
787482931317977, 0.20338993, 6.5694947, 7.515856, -0.022081137, 0.031061172, 9.9843025
787482940956727, 0.2213361, 6.552745, 7.463214, 8.288622E-4, 0.04890585, 9.934013
787482950595581, 0.23569304, 6.541977, 7.381858, 0.025097728, 0.09044695, 9.865903
787482960234331, 0.2548356, 6.4965134, 7.4045897, 0.035200596, 0.03727436, 9.853676
787482969873081, 0.26679972, 6.4737816, 7.440482, 0.039034605, -0.006120205, 9.8661175
787482979511831, 0.1902294, 6.430711, 7.5110703, -0.05012548, -0.06702471, 9.889358
787482989150685, 0.18065812, 6.4414787, 7.578069, -0.06752032, -0.10020304, 9.946751
787482998789435, 0.12921242, 6.428318, 7.600801, -0.12110114, -0.11244202, 9.954136
787483008428185, 0.09451649, 6.4474607, 7.6163545, -0.152466, -0.10005236, 9.977691
787483018067040, 0.12562318, 6.503692, 7.5589266, -0.10338956, -0.024432182, 9.971953
787483027705790, 0.18305093, 6.518049, 7.493124, -0.03600228, 0.017203331, 9.932964
787483037344540, 0.25004998, 6.5228343, 7.3866434, 0.04375577, 0.074795246, 9.857225
787483046983290, 0.30388847, 6.5443697, 7.320841, 0.10826671, 0.12334871, 9.822876
787483056622144, 0.3278167, 6.5491557, 7.361519, 0.12503046, 0.09355402, 9.8573065
787483066260894, 0.33738798, 6.513263, 7.4679995, 0.113226295, -0.0049529076, 9.914363
787483075899644, 0.33020952, 6.535995, 7.548159, 0.09475982, -0.038928986, 9.989618
787483085538394, 0.25962126, 6.4941206, 7.605587, 0.011744499, -0.093028545, 10.003858
787483095177248, 0.2009971, 6.4773707, 7.5924263, -0.046737432, -0.08601713, 9.981587
787483104815998, 0.1794617, 6.485746, 7.496713, -0.052859783, -0.012973309, 9.914376
787483114454748, 0.19142582, 6.489335, 7.373483, -0.0213207, 0.065339565, 9.824034
787483124093498, 0.22971097, 6.5347986, 7.300502, 0.034623742, 0.13358498, 9.7997265
787483133732352, 0.27996024, 6.5288167, 7.2897344, 0.08581674, 0.12507105, 9.788822
787483143371102, 0.23330021, 6.5228343, 7.3950186, 0.021461248, 0.059453964, 9.86327
787483153009852, 0.21296121, 6.4965134, 7.4213395, -0.0062025785, 0.027750969, 9.86537
787483162648602, 0.21655045, 6.4881387, 7.489535, -0.015483499, -0.022412777, 9.911369
787483172287456, 0.19860429, 6.474978, 7.560123, -0.04589677, -0.07212448, 9.955547
787483181926206, 0.19740787, 6.502496, 7.6223364, -0.051004767, -0.08679342, 10.020544
787483191564956, 0.19381863, 6.4941206, 7.6019974, -0.05041349, -0.07841015, 9.999641
787483201203706, 0.20338993, 6.489335, 7.5086775, -0.027314067, -0.024494171, 9.926315
787483210842560, 0.21774685, 6.541977, 7.426125, 0.008211374, 0.062262535, 9.898903
787483220481310, 0.12562318, 6.1040907, 7.314859, -0.12416136, -0.17437077, 9.525599
787483230120060, 0.43429732, 7.216753, 7.483553, 0.2986554, 0.48339415, 10.38994
787483239758915, 0.029910283, 5.7403817, 7.2909307, -0.25866807, -0.41270113, 9.266787
787483249397665, 0.38644084, 7.2179494, 7.5529447, 0.24406636, 0.4388733, 10.442362
787483259036415, 0.05742774, 5.9030933, 7.4344997, -0.23924702, -0.3860259, 9.482371
787483268675165, 0.20578274, 6.8255267, 7.539784, 0.02245009, 0.19874334, 10.170472
787483278314019, 0.2440679, 6.4163537, 7.507481, 0.0039229393, -0.091701984, 9.878412
787483287952769, 0.09212367, 6.3194447, 7.3926253, -0.14061964, -0.060821533, 9.724778
787483297591519, 0.41754755, 6.991828, 7.5254273, 0.2556287, 0.28426218, 10.273555
787483307230269, -0.0023928226, 5.851648, 7.280163, -0.28893238, -0.30616236, 9.330881
787483316869019, 0.47138608, 7.338787, 7.5613194, 0.36867774, 0.49791145, 10.52947
787483326507873, 0.009571291, 5.7020965, 7.3064837, -0.3141626, -0.4419508, 9.25228
787483336146623, 0.4211368, 7.2909307, 7.539784, 0.30503893, 0.493155, 10.480798
787483345785373, 0.106480606, 5.8875403, 7.432107, -0.20220876, -0.40366507, 9.47137
787483355424123, 0.2536392, 6.8985076, 7.5673018, 0.07783604, 0.22021198, 10.240276
787483365062977, 0.26081768, 6.4008007, 7.507481, 0.016135812, -0.110275745, 9.868542
787483374701727, 0.08255238, 6.3421764, 7.4141607, -0.15309703, -0.05835104, 9.755663
787483384340477, 0.42592242, 6.9415784, 7.5254273, 0.2551322, 0.24081898, 10.240893
787483393979227, 0.02632105, 5.892326, 7.2969127, -0.25809854, -0.30731773, 9.370382
787483403618081, 0.52283174, 7.342376, 7.452446, 0.42058194, 0.5628662, 10.451271
787483413256831, 0.032303106, 5.7020965, 7.27777, -0.26410747, -0.43885946, 9.231388
787483422895581, 0.45583272, 7.350751, 7.450053, 0.35725152, 0.5820837, 10.45362
787483432534331, 0.05503492, 5.8672013, 7.361519, -0.23955011, -0.37202978, 9.403364
787483442173081, 0.19740787, 6.9619174, 7.6019974, 0.01920116, 0.25492287, 10.306905
787483451811935, 0.19501504, 6.3541408, 7.628319, -0.072402716, -0.2116313, 9.927454
787483461450685, 0.061016977, 6.3996043, 7.576873, -0.18908906, -0.11667395, 9.915557
787483471089435, 0.36370903, 6.873383, 7.617551, 0.1696881, 0.14290762, 10.264186
787483480728185, 0.021535404, 5.8767724, 7.3100734, -0.25506455, -0.3294096, 9.3701935
787483490366935, 0.5371887, 7.263413, 7.4979095, 0.41824317, 0.4620204, 10.434366
787483500005790, 0.051445685, 5.6590257, 7.2502527, -0.25286376, -0.45543718, 9.182703
787483509644540, 0.5072784, 7.347162, 7.5050883, 0.39890695, 0.51968193, 10.494535
787483519283290, 0.08733802, 5.8337016, 7.3160553, -0.20852053, -0.37474632, 9.347752
787483528922040, 0.25603202, 7.015756, 7.489535, 0.104958534, 0.3400545, 10.259282
787483538560894, 0.16031912, 6.3421764, 7.476374, -0.086981654, -0.12552547, 9.804171
787483548199644, 0.06699903, 6.4737816, 7.4129643, -0.15013951, 0.031678677, 9.840876
787483557838394, 0.30508488, 6.8374906, 7.5385876, 0.12324667, 0.17209864, 10.179876
787483567477144, -0.03708875, 5.933004, 7.3292155, -0.31643564, -0.2843809, 9.420102
787483577115894, 0.47976094, 7.245467, 7.628319, 0.33623958, 0.3866577, 10.519299
787483586754748, 0.046660043, 5.663811, 7.3603225, -0.2787059, -0.528275, 9.2681465
787483596393498, 0.4989035, 7.2897344, 7.5996046, 0.3704251, 0.43158102, 10.527091
787483606032248, 0.104087785, 5.7894344, 7.385447, -0.2053191, -0.4548006, 9.371457
787483615670998, 0.32422748, 7.055238, 7.500303, 0.1774621, 0.3505211, 10.294741
787483625309748, 0.18664017, 6.262017, 7.4584284, -0.076918006, -0.1654973, 9.738714
787483634948602, 0.10887343, 6.535995, 7.4177504, -0.09274638, 0.080197334, 9.886309
787483644587352, 0.3696911, 6.8518476, 7.489535, 0.20867658, 0.18795776, 10.153755
787483654226102, -0.0035892338, 6.026324, 7.2861447, -0.27515137, -0.18249083, 9.449631
787483663864852, 0.46061835, 7.222735, 7.520642, 0.36870098, 0.40248156, 10.423159
787483673503602, 0.031106694, 5.68415, 7.3256264, -0.31387806, -0.47149277, 9.2549715
787483683142352, 0.48215377, 7.3100734, 7.6366935, 0.36085296, 0.40270138, 10.568649
787483692781206, 0.07776674, 5.7750773, 7.452446, -0.26348567, -0.49415874, 9.411851
787483702419956, 0.36370903, 7.055238, 7.6019974, 0.19854355, 0.27608824, 10.372243
787483712058706, 0.12562318, 6.142376, 7.4775705, -0.14542496, -0.26568842, 9.672998
787483721697456, 0.08015956, 6.576673, 7.459625, -0.12876892, 0.07552576, 9.943981
787483731336206, 0.28235307, 6.782456, 7.5266237, 0.093443155, 0.14623451, 10.134169
787483740975060, -0.015553347, 6.0981083, 7.353144, -0.2646125, -0.1928773, 9.547181
787483750613810, 0.44745782, 7.1952176, 7.436893, 0.32551146, 0.47458887, 10.341544
787483760252560, -0.0011964113, 5.7391853, 7.115058, -0.26931697, -0.30486107, 9.132187
787483769891310, 0.51565325, 7.3543406, 7.3698936, 0.41582227, 0.61458397, 10.397929
787483779530060, 0.09451649, 5.7427745, 7.308877, -0.20207548, -0.45123148, 9.282437
787483789168810, 0.38404804, 7.115058, 7.5864444, 0.22238994, 0.3207922, 10.40064
787483798807665, 0.17826529, 6.094519, 7.5732837, -0.11821759, -0.3776021, 9.714579
787483808446415, 0.13878371, 6.6017976, 7.6127653, -0.08996868, -0.02164507, 10.077135
787483818085165, 0.28953153, 6.6963143, 7.6737823, 0.0652287, -0.011506557, 10.188572
787483827723915, 0.0023928226, 6.1040907, 7.4105716, -0.25858718, -0.22500324, 9.59474
787483837362665, 0.4438686, 7.2023964, 7.507481, 0.3141216, 0.43824005, 10.399185
787483847001415, -0.014356935, 5.7391853, 7.196414, -0.2904482, -0.35427427, 9.19331
787483856640269, 0.48095736, 7.3782687, 7.422536, 0.39038253, 0.61017466, 10.451771
787483866279019, 0.04426722, 5.741578, 7.292127, -0.24888605, -0.42750263, 9.268123
787483875917769, 0.34217364, 7.1389866, 7.550552, 0.20445907, 0.3763299, 10.387955
787483885556519, 0.12921242, 6.068198, 7.5254273, -0.16383529, -0.3572359, 9.6600895
787483895195269, 0.13280165, 6.661618, 7.5314093, -0.07072353, 0.07571602, 10.055159
787483904834019, 0.2943172, 6.6041903, 7.5517483, 0.07852876, -0.009882927, 10.036163
787483914472873, 0.023928227, 6.1160545, 7.351948, -0.22622573, -0.18720436, 9.558849
787483924111623, 0.42711884, 7.1162543, 7.5673018, 0.27827632, 0.33035803, 10.387539
787483933750373, 0.0047856453, 5.7607207, 7.3052874, -0.2863121, -0.41370153, 9.28978
787483943389123, 0.47258246, 7.3782687, 7.5469627, 0.36025834, 0.5252743, 10.545763
787483953027873, 0.02871387, 5.7224355, 7.274181, -0.26626217, -0.43670034, 9.24117
787483962666623, 0.3493521, 7.1748786, 7.4440713, 0.23726451, 0.4673767, 10.331525
787483972305373, 0.13758731, 6.06102, 7.367501, -0.1268202, -0.26681137, 9.536649
787483981944227, 0.19860429, 6.739385, 7.5254273, 0.011497378, 0.12706995, 10.103194
787483991582977, 0.29072794, 6.579066, 7.611569, 0.061815977, -0.06620598, 10.064612
787484001221727, 0.0035892338, 6.161518, 7.3866434, -0.24621505, -0.16886711, 9.614452
787484010860477, 0.4331009, 7.1018977, 7.550552, 0.28959143, 0.33361816, 10.365336
787484020499227, -0.023928227, 5.7990055, 7.328019, -0.31951416, -0.3935218, 9.331236
787484030137977, 0.48095736, 7.3435726, 7.5493555, 0.37394476, 0.49207926, 10.524742
787484039776727, 0.016749758, 5.697311, 7.2586274, -0.27588075, -0.43040848, 9.213357
787484049415581, 0.39481574, 7.2179494, 7.513463, 0.27852046, 0.4364481, 10.413393
787484059054331, 0.11724831, 5.9712887, 7.4584284, -0.18063664, -0.38083267, 9.545708
787484068693081, 0.22731815, 6.7740808, 7.570891, 0.039139986, 0.12029362, 10.160819
787484078331831, 0.28235307, 6.5144596, 7.587641, 0.0489161, -0.094183445, 10.003947
787484087970581, 0.078963146, 6.229714, 7.4069824, -0.16454065, -0.14530802, 9.6763
787484097609331, 0.39601216, 7.0528445, 7.479964, 0.26160753, 0.3437562, 10.279237
787484107248081, -0.040677983, 5.825327, 7.225128, -0.31560463, -0.30411816, 9.270732
787484116886935, 0.4749753, 7.348358, 7.459625, 0.39526343, 0.5559225, 10.459669
787484126525685, -0.02871387, 5.663811, 7.292127, -0.32949919, -0.4671483, 9.215635
787484136164435, 0.37567315, 7.23111, 7.5720873, 0.24679124, 0.41766405, 10.465717
787484145803185, 0.10049855, 5.9066825, 7.515856, -0.20727468, -0.46109533, 9.546284
787484155441935, 0.2428715, 6.808777, 7.664211, 0.042986274, 0.07933712, 10.254289
787484165080685, 0.28594232, 6.439086, 7.63789, 0.033246636, -0.17951202, 9.992378
787484174719435, 0.1160519, 6.290731, 7.483553, -0.12766218, -0.15401506, 9.774984
787484184358185, 0.4546363, 7.003792, 7.57448, 0.2945925, 0.24231768, 10.319256
787484193997040, 0.019142581, 5.879165, 7.2622166, -0.2567531, -0.2967415, 9.335457
787484203635790, 0.485743, 7.3543406, 7.450053, 0.3927511, 0.5687275, 10.456953
787484213274540, 0.010767702, 5.7451673, 7.1712894, -0.27211344, -0.34205675, 9.178422
787484222913290, 0.3804588, 7.2933235, 7.48116, 0.2738403, 0.5201678, 10.43837
787484232552040, 0.0741775, 5.9342003, 7.411768, -0.22308803, -0.36950445, 9.485159
787484242190790, 0.20937198, 6.853044, 7.5182486, 0.036871076, 0.20728827, 10.172895
787484251829540, 0.2117648, 6.350551, 7.52782, -0.039676666, -0.16193867, 9.849601
787484261468290, 0.078963146, 6.320641, 7.4919276, -0.1659522, -0.13385248, 9.8000145
787484271107144, 0.3804588, 6.890133, 7.611569, 0.19968498, 0.1440196, 10.27103
787484280745894, -0.011964113, 5.8827543, 7.3627152, -0.29792762, -0.34774017, 9.41312
787484290384644, 0.49052864, 7.3172517, 7.5792656, 0.38446653, 0.45063162, 10.529823
787484300023394, -0.02751746, 5.716453, 7.3052874, -0.32894892, -0.42636013, 9.260443
787484309662144, 0.3792624, 7.331609, 7.5493555, 0.26675773, 0.51361275, 10.514471
787484319300894, 0.06699903, 5.861219, 7.4237323, -0.23040557, -0.41830587, 9.446806
787484328939644, 0.2943172, 6.9595246, 7.568498, 0.12973714, 0.25076914, 10.282218
787484338578394, 0.21774685, 6.3182483, 7.539784, -0.036340237, -0.19483328, 9.837517
787484348217248, 0.09092726, 6.352944, 7.4512496, -0.13889551, -0.08410454, 9.790962
787484357855998, 0.40797627, 6.8458657, 7.5110703, 0.23534405, 0.17442226, 10.166744
787484367494748, -0.014356935, 5.885147, 7.263413, -0.2742359, -0.29263067, 9.339779
787484377133498, 0.44626144, 7.3196445, 7.4620175, 0.33422065, 0.55201864, 10.4423
787484386772248, -0.03589234, 5.7379885, 7.2693954, -0.32727987, -0.4010749, 9.246727
787484396410998, 0.3696911, 7.338787, 7.5110703, 0.27077103, 0.5388613, 10.490327
787484406049748, 0.019142581, 5.8432727, 7.3830543, -0.26709795, -0.40117598, 9.403265
787484415688498, 0.27756742, 6.9858456, 7.584051, 0.116726756, 0.26585627, 10.310801
787484425327248, 0.22253251, 6.263213, 7.598408, -0.04411006, -0.26985168, 9.84573
787484434966102, 0.15433706, 6.413961, 7.5589266, -0.08473003, -0.11788845, 9.913578
787484444604852, 0.4127619, 6.799206, 7.594819, 0.22111607, 0.09259701, 10.199186
787484454243602, 0.0526421, 5.928218, 7.3842506, -0.23405862, -0.33396482, 9.4608345
787484463882352, 0.50009996, 7.2502527, 7.5469627, 0.38372695, 0.4293623, 10.461421
787484473521102, -0.049052864, 5.706882, 7.300502, -0.34949523, -0.42340755, 9.250233
787484483159852, 0.39361933, 7.381858, 7.479964, 0.31277657, 0.588758, 10.49534
787484492798602, 0.0023928226, 5.832505, 7.3112698, -0.28612167, -0.3460455, 9.341905
787484502437352, 0.25004998, 7.0779696, 7.493124, 0.12305641, 0.38806725, 10.302492
787484512076102, 0.15194423, 6.259624, 7.513463, -0.10531449, -0.20429611, 9.777795
787484521714956, 0.16749759, 6.5347986, 7.489535, -0.042420745, 0.014254093, 9.940966
787484531353706, 0.39960137, 6.7537417, 7.5673018, 0.20437348, 0.07282162, 10.148385
787484540992456, 0.09451649, 5.9700923, 7.3399835, -0.18239939, -0.29234123, 9.455557
787484550631206, 0.52163535, 7.222735, 7.5457664, 0.39934075, 0.4087534, 10.442799
787484560269956, -0.047856454, 5.6578293, 7.283752, -0.36505973, -0.45346117, 9.204754
787484569908706, 0.41156548, 7.367501, 7.542177, 0.3217293, 0.5432906, 10.532578
787484579547456, -0.02871387, 5.784649, 7.385447, -0.3393485, -0.42871046, 9.365301
787484589186206, 0.28115666, 7.0875406, 7.597212, 0.14717269, 0.3319564, 10.387398
787484598824956, 0.17228323, 6.155536, 7.5625157, -0.109318495, -0.30496836, 9.747152
787484608463810, 0.17228323, 6.5455666, 7.519445, -0.039306164, 0.010105133, 9.970684
787484618102560, 0.40797627, 6.7094746, 7.5182486, 0.21661222, 0.07638359, 10.082399
787484627741310, 0.10049855, 6.0346985, 7.331609, -0.16795552, -0.2295599, 9.492064
787484637380060, 0.51445687, 7.1784678, 7.5493555, 0.38637877, 0.3761816, 10.416192
787484647018810, -0.014356935, 5.6889358, 7.32443, -0.33107173, -0.45759058, 9.257023
787484656657560, 0.424726, 7.32443, 7.6031938, 0.3093257, 0.47047186, 10.550791
787484666296310, -0.059820566, 5.7690954, 7.396215, -0.36249995, -0.4394169, 9.362988
787484675935060, 0.23569304, 7.1210403, 7.5792656, 0.09854269, 0.38168716, 10.394936
787484685573810, 0.09092726, 6.099305, 7.487142, -0.17903912, -0.2737956, 9.651947
787484695212665, 0.15433706, 6.619744, 7.483553, -0.040288687, 0.09236097, 9.991911
787484704851415, 0.36011982, 6.690332, 7.5493555, 0.16373515, 0.062497616, 10.09219
787484714490165, 0.096909314, 6.0729837, 7.389036, -0.15467799, -0.23985577, 9.560698
787484724128915, 0.50488555, 7.143772, 7.584051, 0.36568487, 0.3411665, 10.419025
787484733767665, 0.0, 5.7116675, 7.3256264, -0.30536115, -0.44525194, 9.273428
787484743406415, 0.48095736, 7.359126, 7.5314093, 0.37379014, 0.54052067, 10.520376
787484753045165, -0.013160525, 5.709275, 7.405786, -0.3282045, -0.48689985, 9.332571
787484762683915, 0.28713873, 7.1425757, 7.5924263, 0.16130364, 0.3867607, 10.419605
787484772322769, 0.061016977, 6.056234, 7.5050883, -0.22545183, -0.30973625, 9.636457
787484781961519, 0.18065812, 6.6771717, 7.515856, -0.006524086, 0.11090374, 10.054502
787484791600269, 0.31345975, 6.5886374, 7.521838, 0.11149132, 0.015287399, 10.003689
787484801239019, 0.0741775, 6.114858, 7.3292155, -0.16917706, -0.15471363, 9.542631
787484810877769, 0.506082, 7.103094, 7.489535, 0.3895309, 0.36365128, 10.320816
787484820516519, 0.0, 5.73081, 7.2897344, -0.3073833, -0.38624573, 9.259521
787484830155269, 0.42951167, 7.3340015, 7.62114, 0.33452678, 0.4749651, 10.569595
787484839794019, -0.0023928226, 5.7080784, 7.472785, -0.33543003, -0.53045845, 9.382473
787484849432769, 0.29790643, 7.207182, 7.7012997, 0.16275322, 0.3731084, 10.544027
787484859071623, 0.05503492, 6.003592, 7.5469627, -0.23614329, -0.3718891, 9.633729
787484868710373, 0.17108682, 6.73101, 7.5517483, -0.013251066, 0.13740683, 10.1166
787484878349123, 0.28115666, 6.539584, 7.5385876, 0.07138991, -0.018113613, 9.983491
787484887987873, 0.111266255, 6.172286, 7.3399835, -0.11912882, -0.12829971, 9.589274
787484897626623, 0.48933223, 7.070791, 7.5314093, 0.35082352, 0.33913612, 10.330517
787484907265373, 0.02632105, 5.751149, 7.322037, -0.26161063, -0.41755438, 9.297627
787484916904123, 0.526421, 7.3459654, 7.578069, 0.41716146, 0.49677658, 10.547354
787484926542873, -0.02632105, 5.651847, 7.372287, -0.33929604, -0.5100069, 9.269273
787484936181727, 0.31944183, 7.1952176, 7.5828547, 0.18827415, 0.4271183, 10.447726
787484945820477, 0.02632105, 5.9724855, 7.432107, -0.24843097, -0.3097582, 9.52627
787484955459227, 0.16390835, 6.808777, 7.5409803, -0.00396049, 0.20150232, 10.159335
787484965097977, 0.24526432, 6.485746, 7.5924263, 0.023097515, -0.081653595, 9.988132
787484974736727, 0.11006984, 6.1914287, 7.4177504, -0.12628484, -0.16382074, 9.660545
787484984375477, 0.48454657, 7.0468626, 7.587641, 0.3360932, 0.28633547, 10.357144
787484994014227, 0.05623133, 5.76431, 7.3567333, -0.23634434, -0.4244032, 9.333593
787485003652977, 0.5192425, 7.30768, 7.628319, 0.3997804, 0.4402218, 10.559802
787485013291831, -0.010767702, 5.666204, 7.4309106, -0.3277024, -0.5290966, 9.324005
787485022930581, 0.36011982, 7.263413, 7.645068, 0.24741864, 0.43439484, 10.539639
787485032569331, 0.0023928226, 5.948557, 7.5266237, -0.28535587, -0.38421488, 9.581564
787485042208081, 0.12921242, 6.826723, 7.5254273, -0.023471713, 0.23793745, 10.158529
787485051846831, 0.18305093, 6.428318, 7.495517, -0.033553362, -0.05528164, 9.876
787485061485581, 0.038285162, 6.3134627, 7.436893, -0.1835146, -0.068493366, 9.753475
787485071124331, 0.44626144, 6.9762745, 7.501499, 0.3060491, 0.28898716, 10.24514
787485080763185, 0.051445685, 5.8169518, 7.2622166, -0.21336174, -0.33241367, 9.296415
787485090401935, 0.5407779, 7.2897344, 7.517052, 0.43808615, 0.48490047, 10.464785
787485100040685, 0.05742774, 5.6482577, 7.312466, -0.23535103, -0.4940405, 9.22382
787485109679435, 0.41754755, 7.2753773, 7.617551, 0.29642737, 0.43533182, 10.528778
787485119318185, 0.025124637, 5.8624153, 7.5122666, -0.2655356, -0.4639411, 9.514039
787485128956935, 0.18185452, 6.8865438, 7.598408, 0.013433099, 0.22203684, 10.25397
787485138595685, 0.14356937, 6.4031935, 7.4979095, -0.07439417, -0.06966829, 9.860516
787485148234435, 0.0047856453, 6.3314085, 7.4105716, -0.20829672, -0.037271023, 9.744669
787485157873290, 0.3924229, 6.9212394, 7.554141, 0.23942947, 0.22446442, 10.247679
787485167512040, 0.04546363, 5.8731833, 7.308877, -0.21948367, -0.32296038, 9.368221
787485177150790, 0.5491528, 7.2933235, 7.57448, 0.44694066, 0.45414162, 10.510038
787485186789540, 0.07058827, 5.6446686, 7.331609, -0.23544538, -0.51335335, 9.235843
787485196428290, 0.48454657, 7.2873416, 7.6199436, 0.37027025, 0.4263854, 10.539676
787485206067040, 0.062213387, 5.844469, 7.5433736, -0.2504726, -0.4851427, 9.5271225
787485215705894, 0.21894327, 6.9786673, 7.6546397, 0.052086234, 0.24210787, 10.357698
787485225344644, 0.13160525, 6.309873, 7.5266237, -0.10692239, -0.14392948, 9.820883
787485234983394, 0.0, 6.3864436, 7.446464, -0.2100293, -0.012318611, 9.807764
787485244622144, 0.2943172, 6.9056864, 7.560123, 0.13283992, 0.23964882, 10.239899
787485254260894, -0.07178468, 5.8683977, 7.338787, -0.33506215, -0.316319, 9.385559
787485263899644, 0.485743, 7.243074, 7.496713, 0.38160408, 0.48760176, 10.417074
787485273538394, 0.011964113, 5.6674004, 7.281359, -0.26699775, -0.45075464, 9.212128
787485283177248, 0.50368917, 7.322037, 7.4883385, 0.39638293, 0.55637264, 10.463006
787485292815998, 0.106480606, 5.7894344, 7.409375, -0.1874131, -0.46734762, 9.390113
787485302454748, 0.276371, 6.9822564, 7.5900335, 0.10954273, 0.27098846, 10.312684
787485312093498, 0.16749759, 6.2751775, 7.6163545, -0.084961414, -0.24790525, 9.866413
787485321732248, 0.07537391, 6.463014, 7.578069, -0.14746928, -0.066206455, 9.958778
787485331370998, 0.3397808, 6.818348, 7.5732837, 0.1607492, 0.15651083, 10.193607
787485341009852, 0.0059820567, 5.9377894, 7.34118, -0.24193132, -0.29113483, 9.434355
787485350648602, 0.4977071, 7.2502527, 7.5457664, 0.3740729, 0.46260405, 10.459376
787485360287352, 0.04426722, 5.686543, 7.3698936, -0.24524033, -0.49824905, 9.292236
787485369926102, 0.4989035, 7.335198, 7.597212, 0.37548244, 0.49073076, 10.55414
787485379564852, 0.07058827, 5.7894344, 7.391429, -0.21560621, -0.43711185, 9.376471
787485389203602, 0.2943172, 7.0468626, 7.588837, 0.1481235, 0.32458115, 10.354132
787485398842456, 0.11006984, 6.1842504, 7.5409803, -0.14842916, -0.2527318, 9.748722
787485408481206, 0.061016977, 6.4881387, 7.499106, -0.14698136, 0.009438515, 9.915371
787485418119956, 0.28953153, 6.768099, 7.5326056, 0.11565423, 0.1521244, 10.1289015
787485427758706, -0.0526421, 5.9521465, 7.3663044, -0.30981946, -0.27560186, 9.461571
787485437397456, 0.42592242, 7.1856465, 7.5924263, 0.30031002, 0.39192963, 10.450649
787485447036206, 0.029910283, 5.7056856, 7.331609, -0.26409632, -0.45638514, 9.275247
787485456675060, 0.5084748, 7.332805, 7.533802, 0.410105, 0.5193167, 10.504708
787485466313810, 0.07298109, 5.7463636, 7.318448, -0.20875782, -0.4203372, 9.293302
787485475952560, 0.34337005, 7.094719, 7.5433736, 0.20673716, 0.3733592, 10.352453
787485485591310, 0.17826529, 6.186643, 7.5433736, -0.07533693, -0.25887442, 9.753775
787485495230060, 0.101694964, 6.5718875, 7.597212, -0.10867262, 0.006330967, 10.045189
787485504868915, 0.24047868, 6.7238317, 7.6773715, 0.039880753, 0.04297495, 10.20815
787485514507665, -0.032303106, 6.020342, 7.4153576, -0.28921586, -0.25532055, 9.543807
787485524146415, 0.41994038, 7.1270223, 7.5756764, 0.29845715, 0.3604064, 10.399168
787485533785165, -0.011964113, 5.6674004, 7.2789664, -0.3038683, -0.4364195, 9.209785
787485543423915, 0.50009996, 7.3567333, 7.5050883, 0.41653454, 0.5575638, 10.498268
787485553062665, 0.07776674, 5.71765, 7.368697, -0.21016324, -0.47287226, 9.31276
787485562701519, 0.33738798, 7.1186476, 7.597212, 0.20747161, 0.3562584, 10.408489
787485572340269, 0.15433706, 6.111269, 7.5816584, -0.1144464, -0.32978868, 9.732992
787485581979019, 0.1268196, 6.5946193, 7.5625157, -0.07212615, 0.04833603, 10.034401
787485591617769, 0.22372891, 6.6221366, 7.5924263, 0.022946358, 0.029359818, 10.077019
787485601256623, -0.032303106, 6.0693946, 7.4045897, -0.27640712, -0.21078157, 9.567953
787485610895373, 0.35294133, 7.1306114, 7.570891, 0.22857308, 0.3956523, 10.396143
787485620534123, -0.05742774, 5.7140603, 7.2909307, -0.33296198, -0.39318562, 9.249108
787485630172873, 0.48215377, 7.3543406, 7.513463, 0.40626097, 0.56438017, 10.501778
787485639811623, 0.05383851, 5.6961145, 7.3435726, -0.23168802, -0.4644847, 9.2794
787485649450373, 0.42711884, 7.1629148, 7.576873, 0.3057419, 0.38604403, 10.423832
787485659089227, 0.17587246, 6.050252, 7.570891, -0.10872793, -0.3729291, 9.6852455
787485668727977, 0.20338993, 6.6352973, 7.6139617, -7.605553E-5, 0.026892662, 10.101496
787485678366727, 0.28953153, 6.552745, 7.6366935, 0.07019663, -0.060531616, 10.066418
787485688005477, 0.03589234, 6.1387863, 7.5349984, -0.2268858, -0.24513817, 9.713424
787485697644331, 0.41994038, 7.131808, 7.6666036, 0.28362083, 0.32318497, 10.470481
787485707283081, -0.019142581, 5.7427745, 7.298109, -0.30142468, -0.38314438, 9.273865
787485716921831, 0.47736812, 7.375876, 7.442875, 0.41060448, 0.632751, 10.462258
787485726560581, 0.029910283, 5.716453, 7.2346992, -0.24267519, -0.3684659, 9.210047
787485736199331, 0.39481574, 7.1784678, 7.507481, 0.28393996, 0.45253563, 10.380903
787485745838185, 0.14955142, 6.0323057, 7.5254273, -0.12200725, -0.34843588, 9.638819
787485755476935, 0.17228323, 6.719046, 7.6678, -0.027809262, 0.060319424, 10.196373
787485765115685, 0.21894327, 6.495317, 7.743174, -0.02302289, -0.15583849, 10.10787
787485774754435, -0.008374879, 6.0837517, 7.5469627, -0.27104884, -0.29200745, 9.685556
787485784393185, 0.36011982, 7.0061846, 7.600801, 0.21063161, 0.28710556, 10.337393
787485794032040, -0.11365908, 5.751149, 7.348358, -0.39205277, -0.39108562, 9.315598
787485803670790, 0.42592242, 7.335198, 7.5146594, 0.33504426, 0.56899786, 10.489073
787485813309540, 0.01794617, 5.729614, 7.2753773, -0.24905038, -0.3832016, 9.249382
787485822948290, 0.4127619, 7.2705917, 7.496713, 0.3216642, 0.5377474, 10.432638
787485832587144, 0.14596218, 5.977271, 7.4416785, -0.119071126, -0.33161783, 9.539574
787485842225894, 0.2416751, 6.79442, 7.5529447, 0.076728225, 0.1825571, 10.160233
787485851864644, 0.32183465, 6.4666033, 7.5936227, 0.09789622, -0.105680466, 9.97812
787485861503394, 0.032303106, 6.192625, 7.5062847, -0.21524096, -0.1867733, 9.726908
787485871142248, 0.3684947, 6.942775, 7.6797643, 0.20382488, 0.18336105, 10.355748
787485880780998, -0.023928227, 5.7858453, 7.4644103, -0.3230077, -0.445189, 9.428227
787485890419748, 0.44865423, 7.2909307, 7.672586, 0.34004307, 0.42313004, 10.579833
787485900058498, -0.015553347, 5.660222, 7.368697, -0.32137305, -0.47546196, 9.273982
787485909697352, 0.40558344, 7.240681, 7.4979095, 0.31035376, 0.5086317, 10.414202
787485919336102, 0.11844472, 5.9342003, 7.2825556, -0.13280642, -0.26174593, 9.3903265
787485928974852, 0.18903299, 6.835098, 7.4069824, 0.050383687, 0.3115015, 10.075621
787485938613602, 0.24526432, 6.4402823, 7.5050883, 0.0354048, -0.052093506, 9.892409
787485948252456, 0.07178468, 6.320641, 7.5314093, -0.15424305, -0.124648094, 9.830486
787485957891206, 0.37567315, 7.001399, 7.733603, 0.20629883, 0.19642639, 10.434952
787485967529956, -0.04546363, 5.8504515, 7.570891, -0.3352828, -0.47225475, 9.550539
787485977168706, 0.42951167, 7.301698, 7.7216387, 0.30290985, 0.4234538, 10.6231785
787485986807560, -0.06460621, 5.686543, 7.3639116, -0.34743458, -0.4547267, 9.286585
787485996446310, 0.3361916, 7.2442703, 7.500303, 0.23453355, 0.5333991, 10.416693
787486006085060, 0.041874398, 5.8504515, 7.3232336, -0.20853114, -0.3373499, 9.364934
787486015723810, 0.2644069, 6.8602223, 7.469196, 0.12373781, 0.27187157, 10.140624
787486025362665, 0.23688944, 6.323034, 7.4823565, 0.015351176, -0.12983799, 9.798237
787486035001415, 0.111266255, 6.303891, 7.446464, -0.10754907, -0.097434044, 9.756034
787486044640165, 0.43669012, 6.942775, 7.605587, 0.28213012, 0.20963001, 10.301177
787486054279019, -0.0011964113, 5.899504, 7.476374, -0.28279924, -0.38679123, 9.511612
787486063917769, 0.41994038, 7.3196445, 7.668997, 0.31309843, 0.44436312, 10.595827
787486073556519, -0.061016977, 5.703293, 7.32443, -0.34214407, -0.423522, 9.26726
787486083195269, 0.37328035, 7.3435726, 7.5026956, 0.30111122, 0.5727415, 10.485188
787486092834123, 0.0849452, 5.85763, 7.3100734, -0.17889583, -0.3307557, 9.36028
787486102472873, 0.22372891, 6.920043, 7.4787674, 0.09167588, 0.3056321, 10.186619
787486112111623, 0.17467605, 6.2931237, 7.536195, -0.06069076, -0.18202305, 9.81791
787486121750477, 0.11006984, 6.3684974, 7.5661054, -0.120410204, -0.12880659, 9.888616
787486131389227, 0.34097722, 6.873383, 7.7347994, 0.16274095, 0.087567806, 10.351456
787486141027977, -0.038285162, 5.918647, 7.533802, -0.3266554, -0.40193176, 9.5667
787486150666727, 0.4319045, 7.27777, 7.6869426, 0.32023525, 0.39491224, 10.582204
787486160305581, -0.02871387, 5.6985073, 7.3340015, -0.31023473, -0.4434209, 9.271921
787486169944331, 0.4869394, 7.3639116, 7.4380894, 0.4186859, 0.60491705, 10.452189
787486179583081, 0.19262223, 5.864808, 7.200003, -0.04497993, -0.28697014, 9.283791
787486189221935, 0.36490545, 6.9990063, 7.4380894, 0.24152684, 0.35555172, 10.210762
787486198860685, 0.17467605, 6.1292152, 7.411768, -0.061322868, -0.23386908, 9.61632
787486208499435, 0.2117648, 6.6041903, 7.588837, 0.014710188, 0.003850937, 10.062326
787486218138290, 0.14237295, 6.442675, 7.600801, -0.07701337, -0.10923815, 9.964068
787486227777040, 0.16749759, 6.5001025, 7.536195, -0.03222704, -0.029736519, 9.953478
787486237415790, 0.17108682, 6.4761744, 7.4775705, -0.022268653, -0.011580467, 9.893612
787486247054644, 0.17108682, 6.515656, 7.457232, -0.0122977495, 0.029670715, 9.904157
787486256693394, 0.17467605, 6.4797635, 7.4452677, -0.011189699, 0.00902462, 9.871658
787486266332144, 0.1794617, 6.4737816, 7.4249287, -0.0032476187, 0.016393185, 9.85248
787486275970894, 0.17228323, 6.4498534, 7.463214, -0.020425797, -0.02381134, 9.8655405
787486285609748, 0.18185452, 6.430711, 7.476374, -0.015513182, -0.047878742, 9.8631
787486295248498, 0.14596218, 6.4235325, 7.524231, -0.058632493, -0.07337904, 9.893851
787486304887248, 0.12083755, 6.445068, 7.550552, -0.082378745, -0.06668806, 9.927393
787486314526102, 0.16630118, 6.4869423, 7.5553374, -0.03000331, -0.043158054, 9.959339
787486324164852, 0.08015956, 6.4331036, 7.5086775, -0.114699006, -0.034637928, 9.887219
787486333803602, 0.13040884, 6.5072813, 7.495517, -0.051817775, 0.020383835, 9.926802
787486343442456, 0.16869399, 6.4965134, 7.4177504, -0.004824519, 0.056277752, 9.861692
787486353081206, 0.19621146, 6.5407805, 7.469196, 0.019306421, 0.051385403, 9.930063
787486362719956, 0.18065812, 6.519245, 7.4787674, -0.002632022, 0.033715248, 9.922905
787486372358810, 0.2428715, 6.5455666, 7.440482, 0.0672524, 0.06500769, 9.91239
787486381997560, 0.2321038, 6.519245, 7.476374, 0.0457232, 0.027626514, 9.922085
787486391636310, 0.17826529, 6.503692, 7.469196, -0.008200049, 0.031905174, 9.905434
787486401275165, 0.1902294, 6.5431733, 7.5433736, -0.0027147532, 0.01404047, 9.987572
787486410913915, 0.24885355, 6.532406, 7.5062847, 0.059098005, 0.023082256, 9.953621
787486420552665, 0.15672988, 6.4642105, 7.5457664, -0.045965552, -0.035111904, 9.937093
787486430191519, 0.20817557, 6.491728, 7.5756764, 0.0036950111, -0.041406155, 9.978728
787486439830269, 0.19860429, 6.4821568, 7.554141, -0.003382206, -0.030332088, 9.955998
787486449469019, 0.22731815, 6.489335, 7.5146594, 0.03057301, -0.0020828247, 9.931379
787486459107873, 0.26081768, 6.506085, 7.503892, 0.06619358, 0.012037277, 9.934839
787486468746623, 0.2428715, 6.5048885, 7.495517, 0.0496341, 0.019798756, 9.92736
787486478385477, 0.2428715, 6.5204415, 7.5230346, 0.046895742, 0.014687061, 9.958353
787486488024227, 0.22851457, 6.532406, 7.578069, 0.026390076, -0.0065841675, 10.007545
787486497662977, 0.2213361, 6.5228343, 7.5696945, 0.020182967, -0.005561352, 9.994809
787486507301831, 0.19980069, 6.4941206, 7.570891, -0.0052341223, -0.023085117, 9.97654
787486516940581, 0.22253251, 6.4965134, 7.550552, 0.022895575, -0.012926102, 9.96315
787486526579331, 0.22013968, 6.478567, 7.6259255, 0.0077239275, -0.074062824, 10.0084715
787486536218185, 0.21774685, 6.4618177, 7.6510506, -0.0010524988, -0.10196447, 10.0165205
787486545856935, 0.21894327, 6.471389, 7.63789, 0.0053362846, -0.0866375, 10.012824
787486555495685, 0.22372891, 6.4558353, 7.584051, 0.017332673, -0.06527758, 9.961985
787486565134540, 0.16510476, 6.4570317, 7.5122666, -0.027651072, -0.007847786, 9.907263
787486574773290, 0.1591227, 6.4773707, 7.428518, -0.01814735, 0.05979681, 9.85701
787486584412144, 0.15553348, 6.4845495, 7.409375, -0.015412807, 0.07353163, 9.847172
787486594050894, 0.10289137, 6.472585, 7.457232, -0.075122714, 0.045078278, 9.874593
787486603689644, 0.12562318, 6.4845495, 7.48116, -0.05360329, 0.03215885, 9.900961
787486613328498, 0.14955142, 6.478567, 7.507481, -0.03180659, 0.003973961, 9.917432
787486622967248, 0.11964113, 6.4366927, 7.564909, -0.07490003, -0.058180332, 9.932983
787486632605998, 0.1471586, 6.4498534, 7.5720873, -0.045826912, -0.058835506, 9.947523
787486642244852, 0.1698904, 6.4677997, 7.5625157, -0.020006776, -0.043827057, 9.952418
787486651883602, 0.18903299, 6.4941206, 7.635497, -0.007065177, -0.075808525, 10.025187
787486661522456, 0.18305093, 6.4606214, 7.59123, -0.010496616, -0.07234621, 9.969683
787486671161206, 0.17587246, 6.4941206, 7.536195, -0.0043752193, -0.010952473, 9.949804
787486680799956, 0.22731815, 6.526424, 7.4584284, 0.062922716, 0.0501585, 9.913
787486690438810, 0.16869399, 6.5048885, 7.405786, 0.010246277, 0.076985836, 9.858076
787486700077560, 0.20338993, 6.5108705, 7.381858, 0.048460126, 0.08602238, 9.844536
787486709716415, 0.21655045, 6.518049, 7.38784, 0.061287284, 0.07857704, 9.854039
787486719355165, 0.25004998, 6.539584, 7.3950186, 0.09568584, 0.083658695, 9.874149
787486728993915, 0.25842485, 6.541977, 7.4787674, 0.09193289, 0.028682709, 9.939161
787486738632769, 0.27756742, 6.5455666, 7.515856, 0.104487896, 0.0025997162, 9.969887
787486748271519, 0.22013968, 6.489335, 7.548159, 0.035520554, -0.048899174, 9.956454
787486757910373, 0.1698904, 6.4881387, 7.5613194, -0.014634609, -0.04806614, 9.964729
787486767549123, 0.096909314, 6.492924, 7.600801, -0.09107357, -0.055899143, 9.99641
787486777187873, 0.0741775, 6.509674, 7.617551, -0.11170769, -0.049643993, 10.019657
787486786826727, 0.025124637, 6.463014, 7.5182486, -0.14650762, -0.012926102, 9.913305
787486796465477, 0.05742774, 6.4761744, 7.463214, -0.10522014, 0.025675297, 9.880889
787486806104331, 0.11246266, 6.4977098, 7.416554, -0.038365245, 0.057913303, 9.860696
787486815743081, 0.16151553, 6.4761744, 7.389036, 0.0120188, 0.0460968, 9.826622
787486825381831, 0.19980069, 6.4941206, 7.4033933, 0.050918937, 0.039763927, 9.849852
787486835020685, 0.22372891, 6.519245, 7.426125, 0.07411671, 0.03682995, 9.883881
787486844659435, 0.20817557, 6.532406, 7.4356966, 0.05905974, 0.044030666, 9.899487
787486854298290, 0.18783657, 6.541977, 7.5062847, 0.030009031, 0.009960651, 9.958719
787486863937040, 0.12921242, 6.5371914, 7.570891, -0.036447644, -0.022788525, 10.003405
787486873575894, 0.0849452, 6.521638, 7.578069, -0.08287901, -0.030565739, 9.997914
787486883214644, 0.09451649, 6.521638, 7.584051, -0.07261175, -0.0360384, 10.002599
787486892853394, 0.1363909, 6.513263, 7.554141, -0.02605462, -0.032185555, 9.975195
787486902492248, 0.16510476, 6.489335, 7.5062847, 0.0073263645, -0.02627325, 9.923823
787486912130998, 0.19740787, 6.4905314, 7.416554, 0.052794456, 0.021560669, 9.857382
787486921769852, 0.21774685, 6.5001025, 7.350751, 0.084269285, 0.06555033, 9.8143215
787486931408602, 0.20338993, 6.506085, 7.3698936, 0.06793332, 0.05788517, 9.832489
787486941047456, 0.14955142, 6.5108705, 7.4476604, 0.005114317, 0.023064137, 9.8934765
787486950686206, 0.101694964, 6.5312095, 7.5529447, -0.054283977, -0.019311428, 9.985523
787486960324956, 0.058624156, 6.4761744, 7.472785, -0.09097177, 3.7288666E-4, 9.888302
787486969963810, 0.06699903, 6.538388, 7.564909, -0.08035648, -0.012772083, 9.998812
787486979602560, 0.058624156, 6.506085, 7.598408, -0.09504336, -0.056899548, 10.002806
787486989241415, 0.13998012, 6.518049, 7.594819, -0.013573289, -0.061754227, 10.009087
787486998880165, 0.20578274, 6.5276203, 7.4440713, 0.07611656, 0.027561188, 9.902515
787487008519019, 0.25244278, 6.541977, 7.3770723, 0.13227189, 0.068231106, 9.862059
787487018157769, 0.3062813, 6.519245, 7.3950186, 0.1790148, 0.030953884, 9.861422
787487027796519, 0.26799613, 6.518049, 7.4309106, 0.13286173, 0.010514259, 9.887238
787487037435373, 0.16390835, 6.501299, 7.4548388, 0.02451384, 0.0027632713, 9.892813
787487047074123, 0.17347965, 6.515656, 7.440482, 0.039595008, 0.021309853, 9.891542
787487056712977, 0.05383851, 6.472585, 7.5230346, -0.09513903, -0.04023266, 9.923841
787487066351727, 0.058624156, 6.478567, 7.4739814, -0.07878572, -0.004518032, 9.890875
787487075990581, 0.09451649, 6.4977098, 7.442875, -0.03685862, 0.022323608, 9.880469
787487085629331, 0.13758731, 6.4941206, 7.4392858, 0.008266687, 0.01374054, 9.875994
787487095268185, 0.14356937, 6.483353, 7.4548388, 0.010938823, -0.005261421, 9.880737
787487104906935, 0.13160525, 6.4618177, 7.4907312, -0.008831382, -0.041987896, 9.893515
787487114545685, 0.09092726, 6.4677997, 7.5110703, -0.05042076, -0.03999567, 9.912252
787487124184540, 0.06460621, 6.492924, 7.495517, -0.07028401, -0.0065665245, 9.916655
787487133823290, 0.033499517, 6.5048885, 7.517052, -0.10124248, -0.0034117699, 9.940348
787487143462144, 0.034695927, 6.5048885, 7.457232, -0.089998186, 0.03522873, 9.895237
787487153100894, 0.023928227, 6.483353, 7.4847493, -0.10698187, 0.00436306, 9.901739
787487162739748, 0.08015956, 6.5084777, 7.457232, -0.04320717, 0.0315876, 9.89819
787487172378498, 0.15553348, 6.509674, 7.4273214, 0.033880353, 0.037242413, 9.87738
