timestamp_acc,device_acc_x,device_acc_y,device_acc_z,earth_acc_x,earth_acc_y,earth_acc_z
788014625077950, 6.8985076, 0.15314065, 7.3100734, -0.019507747, 0.0229702, 10.05232
788014634717012, 6.853044, 0.14596218, 7.2693954, -0.012682844, 0.016889572, 9.991456
788014644356179, 6.8721867, 0.15792629, 7.26102, -0.024297569, 0.036714554, 9.998619
788014653995242, 6.8817577, 0.14237295, 7.2933235, -0.00871888, 0.020354271, 10.028507
788014663634304, 6.8709903, 0.11844472, 7.318448, 0.015232198, -0.004723072, 10.039121
788014673273367, 6.920043, 0.11964113, 7.34118, 0.014625385, 0.017693996, 10.089287
788014682912429, 6.930811, 0.13160525, 7.3639116, 0.0028993413, 0.010081768, 10.113385
788014692551492, 6.8745794, 0.13519448, 7.3543406, -0.0013299435, -0.022994041, 10.067965
788014702190554, 6.867401, 0.14596218, 7.359126, -0.011246726, -0.031057835, 10.066685
788014711829617, 6.8578296, 0.17706887, 7.3435726, -0.041721642, -0.027074814, 10.049218
788014721468679, 6.8721867, 0.18783657, 7.3579297, -0.050799638, -0.025113106, 10.069666
788014731107742, 6.859026, 0.16510476, 7.3292155, -0.02857285, -0.014847755, 10.039415
788014740746804, 6.8781686, 0.096909314, 7.3292155, 0.040759817, -0.0034542084, 10.051582
788014750385867, 6.8578296, 0.11365908, 7.3435726, 0.023862503, -0.028464317, 10.048353
788014760024929, 6.896115, 0.12801601, 7.312466, 0.007882901, 0.01897192, 10.052092
788014769663992, 6.8721867, 0.08733802, 7.3136625, 0.048190795, -4.36306E-4, 10.036029
788014779303054, 6.9092755, 0.07537391, 7.2909307, 0.060853455, 0.04167652, 10.044701
788014788942117, 6.946364, 0.124426775, 7.3064837, 0.012087114, 0.058949947, 10.08209
788014798581179, 6.930811, 0.18065812, 7.283752, -0.044320464, 0.06471443, 10.055628
788014808220242, 6.882954, 0.1902294, 7.2622166, -0.055329647, 0.04395914, 10.007299
788014817859304, 6.849455, 0.18424734, 7.2861447, -0.048709482, 0.0019350052, 10.001726
788014827498471, 6.8602223, 0.15074782, 7.351948, -0.013439612, -0.036131382, 10.056592
788014837137533, 6.8518476, 0.15194423, 7.368697, -0.013895612, -0.052453995, 10.063084
788014846776596, 6.8339014, 0.10289137, 7.37109, 0.035213627, -0.061694145, 10.051901
788014856415658, 6.8518476, 0.07298109, 7.37109, 0.06576669, -0.04857731, 10.063769
788014866054721, 6.875776, 0.09212367, 7.361519, 0.04527664, -0.021389484, 10.073441
788014875693783, 6.8985076, 0.13040884, 7.3842506, 0.0074401684, -0.020161152, 10.106092
788014885332846, 6.873383, 0.13758731, 7.3603225, -0.0010813819, -0.02144146, 10.071555
788014894971908, 6.8614187, 0.15194423, 7.298109, -0.015069202, 0.013408184, 10.01819
788014904610971, 6.8925257, 0.18903299, 7.2861447, -0.04993611, 0.043972015, 10.031258
788014914250033, 6.9056864, 0.19501504, 7.3028946, -0.055926897, 0.041893005, 10.052559
788014923889096, 6.896115, 0.148355, 7.288538, -0.008451426, 0.042699337, 10.034904
788014933528158, 6.8374906, 0.07178468, 7.2849483, 0.06882457, 3.1232834E-4, 9.991104
788014943167221, 6.869794, 0.08973085, 7.2909307, 0.050525416, 0.019643307, 10.017827
788014952806283, 6.928418, 0.11006984, 7.3399835, 0.031338945, 0.029224396, 10.093989
788014962445346, 6.9009004, 0.16031912, 7.3375907, -0.020283455, 0.010311604, 10.074118
788014972084408, 6.876972, 0.14356937, 7.2957163, -0.004315324, 0.020646095, 10.026983
788014981723471, 6.8578296, 0.16151553, 7.3160553, -0.021992486, -0.0063667297, 10.028961
788014991362533, 6.882954, 0.17347965, 7.368697, -0.033298235, -0.023970127, 10.0847
788015001001596, 6.8721867, 0.16031912, 7.3663044, -0.019507948, -0.025959015, 10.075418
788015010640762, 6.8482585, 0.148355, 7.318448, -0.00773412, -0.009533405, 10.023981
788015020279825, 6.882954, 0.15194423, 7.359126, -0.010361068, -0.013011456, 10.077433
788015029918887, 6.873383, 0.13040884, 7.3172517, 0.01092305, 0.0079956055, 10.040039
788015039557950, 6.8542404, 0.10289137, 7.292127, 0.03785462, 0.010799885, 10.008234
788015049197012, 6.890133, 0.12203395, 7.280163, 0.01903012, 0.045179844, 10.024331
788015058836075, 6.9044895, 0.13160525, 7.2993054, 0.009121459, 0.04133272, 10.048252
788015068475137, 6.9056864, 0.15074782, 7.2933235, -0.0098895, 0.04657793, 10.044975
788015078114200, 6.882954, 0.16271193, 7.292127, -0.022458963, 0.0310359, 10.028717
788015087753262, 6.8889365, 0.16271193, 7.314859, -0.02153392, 0.020292282, 10.049389
788015097392325, 6.8781686, 0.18065812, 7.3639116, -0.03952936, -0.021121025, 10.078047
788015107031387, 6.806384, 0.16271193, 7.3603225, -0.020937048, -0.06929588, 10.026089
788015116670450, 6.832705, 0.11964113, 7.3435726, 0.022327175, -0.038979053, 10.031261
788015126309512, 6.8339014, 0.12083755, 7.351948, 0.020539746, -0.040581226, 10.03822
788015135948575, 6.8805614, 0.10887343, 7.342376, 0.03228174, 1.859665E-5, 10.062973
788015145587637, 6.890133, 0.13160525, 7.3268228, 0.009363279, 0.017764091, 10.058489
788015155226700, 6.9092755, 0.18783657, 7.3256264, -0.047746807, 0.031218529, 10.071491
788015164865762, 6.936793, 0.17108682, 7.3136625, -0.031050622, 0.05974579, 10.081345
788015174504825, 6.8709903, 0.14356937, 7.2993054, -0.002256222, 0.022005558, 10.025492
788015184143887, 6.873383, 0.15194423, 7.3268228, -0.009077311, 0.0047569275, 10.047323
788015193782950, 6.8662047, 0.1698904, 7.347162, -0.025277823, -0.0128650665, 10.057515
788015203422012, 6.8662047, 0.16151553, 7.347162, -0.017030343, -0.01267004, 10.057394
788015213061075, 6.8111696, 0.16151553, 7.3399835, -0.016354557, -0.04734373, 10.014538
788015222700242, 6.823134, 0.12083755, 7.3172517, 0.024198148, -0.023905754, 10.005537
788015232339304, 6.836294, 0.12801601, 7.3112698, 0.017589383, -0.011719227, 10.010271
788015241978367, 6.9056864, 0.148355, 7.308877, -0.002288226, 0.035503864, 10.056288
788015251617429, 6.8889365, 0.14237295, 7.3052874, 0.0030086525, 0.025623798, 10.042124
788015261256492, 6.8985076, 0.11844472, 7.301698, 0.027416438, 0.03187704, 10.045718
788015270894594, 6.8853474, 0.09451649, 7.2789664, 0.050487805, 0.037101746, 10.019798
788015280533657, 6.876972, 0.12083755, 7.288538, 0.023520626, 0.025418758, 10.021424
788015290172719, 6.9044895, 0.15672988, 7.3160553, -0.013220843, 0.02810669, 10.060826
788015299811782, 6.8721867, 0.17228323, 7.3136625, -0.029077083, 0.0079603195, 10.037201
788015309450844, 6.853044, 0.16390835, 7.3292155, -0.020663083, -0.016619205, 10.035327
788015319089907, 6.876972, 0.16749759, 7.3459654, -0.023739345, -0.010316372, 10.063962
788015328728969, 6.8889365, 0.19740787, 7.353144, -0.05346304, -0.0067415237, 10.07781
788015338368032, 6.8721867, 0.16630118, 7.3363943, -0.021665715, -0.010343552, 10.053692
788015348007094, 6.869794, 0.13040884, 7.331609, 0.014390163, -0.009937763, 10.048048
788015357646157, 6.8889365, 0.124426775, 7.351948, 0.02077417, -0.00991106, 10.07589
788015367285219, 6.8578296, 0.14955142, 7.3292155, -0.0054105446, -0.017111778, 10.03839
788015376924282, 6.859026, 0.1268196, 7.24786, 0.01683491, 0.039610386, 9.979576
788015386563344, 6.8303123, 0.12203395, 7.2765737, 0.021501197, -0.0010533333, 9.980787
788015396202407, 6.8745794, 0.12801601, 7.3196445, 0.015930243, -0.0012717247, 10.042568
788015405841469, 6.920043, 0.16749759, 7.3136625, -0.022744944, 0.03774929, 10.069894
788015415480532, 6.8913293, 0.1794617, 7.2993054, -0.035369966, 0.02691412, 10.039946
788015425119594, 6.890133, 0.15553348, 7.3256264, -0.011520529, 0.0073285103, 10.057969
788015434758657, 6.8721867, 0.1363909, 7.348358, 0.007485412, -0.023171902, 10.0619755
788015444397719, 6.8853474, 0.13878371, 7.312466, 0.005743023, 0.01023674, 10.044865
788015454036782, 6.882954, 0.13998012, 7.3064837, 0.0044528395, 0.013063908, 10.038883
788015463675844, 6.882954, 0.14596218, 7.328019, -0.0019030347, -0.0016403198, 10.054662
788015473314907, 6.906883, 0.13040884, 7.2957163, 0.015050098, 0.037141323, 10.047283
788015482953969, 6.8853474, 0.12323037, 7.3196445, 0.021307595, 0.0044994354, 10.049871
788015492593032, 6.8506513, 0.1363909, 7.2897344, 0.007217936, -0.001572609, 10.004509
788015502232094, 6.8745794, 0.17108682, 7.253842, -0.026671812, 0.040542126, 9.995249
788015511871157, 6.862615, 0.16869399, 7.292127, -0.02555599, 0.0041565895, 10.014908
788015521510219, 6.8865438, 0.18305093, 7.3232336, -0.039349504, -0.0010557175, 10.054163
788015531149282, 6.8925257, 0.15792629, 7.318448, -0.013512526, 0.007297039, 10.054417
788015540788344, 6.8602223, 0.1698904, 7.3543406, -0.026647408, -0.041115284, 10.0586
788015550427407, 6.91765, 0.13998012, 7.3639116, 0.0053134784, -0.0068659782, 10.104485
788015560066469, 6.920043, 0.11365908, 7.3256264, 0.03216041, 0.019152641, 10.077863
788015569705532, 6.853044, 0.10767702, 7.292127, 0.036566965, -0.006787777, 10.007474
788015579344594, 6.8614187, 0.106480606, 7.2490563, 0.038128052, 0.026705742, 9.981836
788015588983657, 6.8985076, 0.11844472, 7.280163, 0.026485316, 0.032031536, 10.030079
788015598622719, 6.9152575, 0.16031912, 7.3100734, -0.017374694, 0.023927212, 10.063934
788015608261782, 6.899704, 0.18664017, 7.331609, -0.044029765, -0.0028805733, 10.0693245
788015617900844, 6.8889365, 0.16031912, 7.2873416, -0.01808891, 0.0189538, 10.029347
788015627539907, 6.8721867, 0.15553348, 7.2765737, -0.012096398, 0.010840893, 10.009966
788015637178969, 6.906883, 0.15433706, 7.283752, -0.010543339, 0.031151772, 10.038964
788015646818032, 6.8817577, 0.15194423, 7.3292155, -0.00769984, -0.018337727, 10.054784
788015656457094, 6.873383, 0.15194423, 7.308877, -0.0071242154, -0.008660793, 10.034244
788015666096157, 6.74776, -0.11006984, 7.3435726, 0.25397944, -0.12396574, 9.969582
788015675735219, 6.9475603, 0.46061835, 7.38784, -0.31372595, -0.009356976, 10.147039
788015685374282, 6.7262244, -0.35533416, 7.3866434, 0.4937899, -0.17304707, 9.98284
788015695013344, 6.95115, 0.695115, 7.4237323, -0.5551971, -0.02970314, 10.178623
788015704652407, 6.7872415, -0.39601216, 7.292127, 0.5416022, -0.07008505, 9.954915
788015714291469, 7.0002027, 0.65084773, 7.391429, -0.5011045, 0.024959087, 10.188617
788015723930532, 6.948757, -0.14476576, 7.1282187, 0.29196876, 0.1565032, 9.9502735
788015733569594, 6.9212394, 0.31226337, 7.2155566, -0.16616553, 0.0789938, 10.001574
788015743208657, 6.954739, 0.1698904, 7.0337024, -0.028241698, 0.22308683, 9.890383
788015752847719, 6.8602223, -0.07537391, 7.2083783, 0.21933429, 0.026844501, 9.948879
788015762486782, 7.055238, 0.5192425, 7.23111, -0.37269902, 0.1529746, 10.1080475
788015772125844, 6.8398833, -0.3397808, 7.3399835, 0.48608452, -0.08254099, 10.026552
788015781764907, 7.0205417, 0.65922266, 7.3770723, -0.50927854, 0.034920692, 10.192312
788015791403969, 6.8039913, -0.4354937, 7.30768, 0.58051574, -0.090649605, 9.977019
788015801043032, 6.943971, 0.6448657, 7.4189467, -0.5055862, -0.048324585, 10.169435
788015810682094, 6.8410797, -0.21535404, 7.207182, 0.36034673, 0.0061125755, 9.932791
788015820321157, 6.8745794, 0.3505485, 7.3495545, -0.20489918, -0.054498672, 10.06746
788015829960219, 6.963114, 0.12323037, 7.160522, 0.018420637, 0.13426495, 9.987735
788015839599282, 6.829116, -0.061016977, 7.2933235, 0.20348546, -0.059455395, 9.989403
788015849238344, 6.9882383, 0.4354937, 7.225128, -0.29242328, 0.11636686, 10.056269
788015858877407, 6.7669024, -0.37328035, 7.304091, 0.5105571, -0.113547325, 9.950199
788015868516469, 7.021738, 0.6975078, 7.3603225, -0.54925513, 0.05444908, 10.181406
788015878155532, 6.8111696, -0.39840496, 7.245467, 0.53086656, -0.054258823, 9.937947
788015887794594, 6.991828, 0.6867401, 7.3435726, -0.548133, 0.056653976, 10.147989
788015897433552, 6.875776, -0.22851457, 7.1892357, 0.3724008, 0.043892384, 9.943491
788015907072615, 6.879365, 0.41156548, 7.367501, -0.26928616, -0.056232452, 10.084615
788015916711677, 6.9415784, 0.124426775, 7.203593, 0.017372966, 0.08991146, 10.004217
788015926350740, 6.849455, 0.022731815, 7.3495545, 0.118020736, -0.078575134, 10.045465
788015935989802, 6.975078, 0.46061835, 7.251449, -0.31663397, 0.09606552, 10.066674
788015945628865, 6.800402, -0.32542387, 7.2873416, 0.4694955, -0.07651329, 9.961449
788015955267927, 7.01097, 0.66041905, 7.288538, -0.5099008, 0.100721836, 10.121389
788015964906990, 6.775277, -0.4331009, 7.2490563, 0.5693242, -0.062814236, 9.915277
788015974546052, 6.95115, 0.6963114, 7.3375907, -0.5480457, 0.020050049, 10.116463
788015984185115, 6.814759, -0.23808585, 7.1808605, 0.3815565, 0.018437386, 9.895274
788015993824177, 6.908079, 0.4534399, 7.402197, -0.3065724, -0.0650239, 10.130226
788016003463240, 6.971489, 0.078963146, 7.2562346, 0.060115594, 0.081088066, 10.06234
788016013102302, 6.853044, 0.02751746, 7.373483, 0.11651264, -0.08603525, 10.065398
788016022741365, 6.948757, 0.35653058, 7.24786, -0.21528468, 0.07013559, 10.044528
788016032380427, 6.7369924, -0.3385844, 7.348358, 0.48567456, -0.14709377, 9.962055
788016042019386, 7.012167, 0.6412765, 7.3579297, -0.5028225, 0.030738354, 10.171877
788016051658448, 6.814759, -0.4127619, 7.2897344, 0.5587624, -0.050331593, 9.9718
788016061297511, 6.9798636, 0.70588267, 7.342376, -0.5583366, 0.024203777, 10.1397705
788016070936573, 6.8578296, -0.2644069, 7.1892357, 0.4090844, 0.04725504, 9.930521
788016080575636, 6.969096, 0.5096712, 7.368697, -0.3677125, -0.008013248, 10.148422
788016090214698, 6.943971, 0.069391854, 7.1748786, 0.0774157, 0.110054016, 9.984204
788016099853761, 6.8518476, 0.08733802, 7.312466, 0.058060315, -0.053560257, 10.021046
788016109492823, 6.9786673, 0.32303107, 7.213164, -0.17645933, 0.107990265, 10.039576
788016119131886, 6.8039913, -0.31226337, 7.3160553, 0.45413607, -0.10140085, 9.984987
788016128770948, 7.042077, 0.6269195, 7.288538, -0.48201662, 0.11271906, 10.142073
788016138410011, 6.8171515, -0.45583272, 7.23111, 0.5945211, -0.032538414, 9.930548
788016148049073, 7.018149, 0.6735796, 7.328019, -0.5213632, 0.066394806, 10.155382
788016157688032, 6.859026, -0.30029923, 7.213164, 0.44642362, 0.004014492, 9.948208
788016167327094, 6.9344, 0.5204389, 7.3698936, -0.37233284, -0.03421545, 10.125822
788016176966157, 6.9224358, -0.029910283, 7.2119675, 0.16952033, 0.06294155, 9.995039
788016186605219, 6.806384, 0.07298109, 7.389036, 0.069609635, -0.14169407, 10.045154
788016196244282, 6.948757, 0.33499518, 7.2263246, -0.19352555, 0.07679415, 10.028652
788016205883344, 6.8015985, -0.21535404, 7.314859, 0.3605692, -0.0890336, 9.983854
788016215522407, 7.01097, 0.67118675, 7.2909307, -0.5232908, 0.085271835, 10.123279
788016225161469, 6.802795, -0.39960137, 7.2287173, 0.5364093, -0.042793274, 9.919803
788016234800532, 7.0061846, 0.762114, 7.280163, -0.6109509, 0.09353161, 10.113665
788016244439490, 6.835098, -0.28953153, 7.2011995, 0.42739832, -0.003232956, 9.923557
788016254078552, 6.9320073, 0.54436713, 7.4033933, -0.402727, -0.042747974, 10.148659
788016263717615, 6.903293, -0.07058827, 7.223932, 0.21815383, 0.045430183, 9.989792
788016273356677, 6.855437, 0.14596218, 7.393822, -0.003925614, -0.10218477, 10.083475
788016282995740, 6.9475603, 0.30029923, 7.253842, -0.15542915, 0.06574011, 10.047314
788016292634802, 6.798009, -0.23330021, 7.3268228, 0.3739025, -0.104157925, 9.989948
788016302273865, 7.003792, 0.6029913, 7.280163, -0.4620373, 0.08679676, 10.109226
788016311912927, 6.8578296, -0.41156548, 7.263413, 0.55027264, -0.01655531, 9.98265
788016321551990, 7.031309, 0.6867401, 7.301698, -0.54568124, 0.09259939, 10.144918
788016331190948, 6.829116, -0.38883367, 7.166504, 0.5349166, 0.025044918, 9.892424
788016340830011, 6.914061, 0.5132605, 7.372287, -0.37422332, -0.038289547, 10.113198
788016350469073, 6.862615, -0.10767702, 7.2562346, 0.24598703, -0.014400005, 9.984954
788016360108136, 6.8482585, 0.19381863, 7.3974113, -0.05084259, -0.11124325, 10.081812
788016369747198, 6.9559355, 0.27756742, 7.2753773, -0.13554227, 0.05295229, 10.068368
788016379386261, 6.823134, -0.17467605, 7.3782687, 0.31474495, -0.12750244, 10.045357
788016389025323, 6.9595246, 0.5802595, 7.2993054, -0.44105932, 0.041821003, 10.092337
788016398664282, 6.786045, -0.40558344, 7.257431, 0.54122275, -0.06872082, 9.929127
788016408303344, 7.021738, 0.72502524, 7.335198, -0.5772169, 0.06143284, 10.163595
788016417942407, 6.8398833, -0.3684947, 7.172486, 0.51232654, 0.02850914, 9.904598
788016427581469, 6.9523463, 0.5922236, 7.2993054, -0.45404693, 0.03363657, 10.087539
788016437220532, 6.873383, -0.08853444, 7.1629148, 0.23102462, 0.06324768, 9.924778
788016446859594, 6.9188466, 0.30029923, 7.3340015, -0.15597469, -0.019037247, 10.085807
788016456498657, 6.9966135, 0.276371, 7.2011995, -0.13302338, 0.1302495, 10.042488
788016466137719, 6.7812595, -0.14356937, 7.3902326, 0.28366026, -0.16162968, 10.025721
788016475776677, 7.018149, 0.5300102, 7.328019, -0.38030028, 0.070403576, 10.153108
788016485415740, 6.8051877, -0.44027936, 7.3304124, 0.57797205, -0.11176109, 9.994639
788016495054802, 7.0193453, 0.6939186, 7.3663044, -0.5420887, 0.052810192, 10.184229
788016504693865, 6.8195443, -0.42711884, 7.1545396, 0.57283914, 0.016784668, 9.876619
788016514332927, 6.8925257, 0.55752766, 7.3136625, -0.4105682, -0.009292603, 10.056775
788016523971990, 6.8662047, -0.16390835, 7.2119675, 0.3017783, 0.008600235, 9.954545
788016533610948, 6.8913293, 0.33140594, 7.4440713, -0.19354355, -0.112458706, 10.147135
788016543250011, 6.9332037, 0.23330021, 7.257431, -0.092232905, 0.04389286, 10.039104
788016552889073, 6.786045, -0.12323037, 7.3495545, 0.26128286, -0.13283396, 9.999783
788016562528136, 7.0097737, 0.5276174, 7.2586274, -0.3790871, 0.11097956, 10.096878
788016572167198, 6.8051877, -0.35653058, 7.2346992, 0.4937488, -0.04226017, 9.926378
788016581806261, 7.0899334, 0.7178468, 7.257431, -0.56510484, 0.1733346, 10.153984
788016591445219, 6.903293, -0.38165522, 7.186843, 0.5283895, 0.056517124, 9.9583845
788016601084282, 6.975078, 0.6017949, 7.38784, -0.45365623, -0.009635448, 10.167995
788016610723344, 6.873383, -0.21535404, 7.2526455, 0.3599118, -0.006597042, 9.988046
788016620362407, 6.8614187, 0.27876383, 7.4033933, -0.13406901, -0.10802841, 10.096404
788016630001469, 6.8781686, 0.09930214, 7.207182, 0.039808203, 0.037663937, 9.962908
788016639640532, 6.835098, -0.0849452, 7.2969127, 0.22529, -0.052792072, 9.995857
788016649279490, 7.0205417, 0.552742, 7.213164, -0.4162838, 0.13764429, 10.071297
788016658918552, 6.8398833, -0.29790643, 7.2358956, 0.43290132, -0.0038614273, 9.95206
788016668557615, 7.015756, 0.72382885, 7.298109, -0.5797764, 0.06523037, 10.132461
788016678196677, 6.818348, -0.41754755, 7.2466636, 0.56295, -0.0275383, 9.94287
788016687835740, 6.9523463, 0.65084773, 7.409375, -0.51131344, -0.051448345, 10.168259
788016697474802, 6.8243303, -0.23449662, 7.2765737, 0.37103754, -0.04758215, 9.971714
788016707113761, 6.8339014, 0.37447673, 7.4333034, -0.22867268, -0.14617348, 10.100634
788016716752823, 6.8745794, 0.16151553, 7.2466636, -0.022176541, 0.011918545, 9.989967
788016726391886, 6.8015985, -0.02751746, 7.355537, 0.1674741, -0.1189208, 10.016199
788016736030948, 7.007381, 0.424726, 7.2861447, -0.28232023, 0.090204716, 10.113548
788016745670011, 6.7836523, -0.37686956, 7.308877, 0.51741105, -0.10813761, 9.964951
788016755308969, 7.038488, 0.6795616, 7.3112698, -0.54050756, 0.10712433, 10.156435
788016764948032, 6.8805614, -0.4103691, 7.2287173, 0.55326855, 0.018020153, 9.972885
788016774587094, 6.9858456, 0.6448657, 7.312466, -0.50907475, 0.055648804, 10.120662
788016784226157, 6.8817577, -0.28953153, 7.159325, 0.4305482, 0.078662395, 9.92506
788016793865219, 6.9332037, 0.38883367, 7.3782687, -0.25246042, -0.032264233, 10.128898
788016803504282, 6.9678993, 0.08015956, 7.2095747, 0.057905316, 0.10932732, 10.026001
788016813143240, 6.8219376, 0.0011964113, 7.3770723, 0.13481379, -0.11533213, 10.046322
788016822782302, 6.948757, 0.4319045, 7.300502, -0.29438815, 0.037608624, 10.0837
788016832421365, 6.7202425, -0.3385844, 7.359126, 0.46967566, -0.18521786, 9.958821
788016842060427, 6.991828, 0.68075806, 7.3866434, -0.53657866, 0.011004448, 10.179565
788016851699490, 6.8015985, -0.4223332, 7.3136625, 0.56326425, -0.09795332, 9.980125
788016861338448, 6.991828, 0.6723832, 7.3567333, -0.535106, 0.038850784, 10.157335
788016870977511, 6.843473, -0.2955136, 7.1509504, 0.42984167, 0.050052643, 9.892891
788016880616573, 6.8913293, 0.4426722, 7.328019, -0.29967254, -0.019741535, 10.064592
788016890255636, 6.9116683, 0.069391854, 7.186843, 0.07124342, 0.08357334, 9.970688
788016899894698, 6.863812, 0.07178468, 7.367501, 0.066929184, -0.07335949, 10.069126
788016909533657, 7.0301127, 0.4223332, 7.283752, -0.28056407, 0.115576744, 10.127281
788016919172719, 6.79442, -0.30508488, 7.372287, 0.44491088, -0.13790178, 10.019525
788016928811782, 7.018149, 0.63888365, 7.3136625, -0.49161395, 0.08897734, 10.144094
788016938450844, 6.765706, -0.45583272, 7.233503, 0.5882898, -0.072108746, 9.897213
788016948089907, 6.954739, 0.65682983, 7.318448, -0.5087364, 0.047314167, 10.104378
788016957728865, 6.8339014, -0.33020952, 7.2023964, 0.47408086, 0.0057115555, 9.922751
788016967367927, 6.9128647, 0.46181476, 7.3986077, -0.31701684, -0.04742813, 10.131023
788016977006990, 6.9248285, 0.020338992, 7.2526455, 0.118595056, 0.04994011, 10.026862
788016986646052, 6.836294, 0.09092726, 7.3950186, 0.047402717, -0.10769558, 10.070534
788016996285115, 6.948757, 0.36370903, 7.2490563, -0.22055459, 0.0822978, 10.045443
788017005924177, 6.7465634, -0.25842485, 7.318448, 0.39697528, -0.124938965, 9.948337
788017015563136, 7.0193453, 0.6735796, 7.344769, -0.5347694, 0.08337355, 10.167478
788017025202198, 6.8219376, -0.38404804, 7.292127, 0.5162476, -0.05947256, 9.979548
788017034841261, 7.024131, 0.6987042, 7.342376, -0.56010354, 0.08477783, 10.1693735
788017044480323, 6.818348, -0.38404804, 7.2299137, 0.5170179, -0.022716999, 9.931828
788017054119282, 6.8614187, 0.43669012, 7.3926253, -0.29487675, -0.07153511, 10.091015
788017063758344, 6.920043, -0.0634098, 7.220342, 0.20294501, 0.06781149, 9.99893
788017073397407, 6.8709903, 0.15314065, 7.3866434, -0.01642973, -0.06914282, 10.089173
788017083036469, 7.0085773, 0.33140594, 7.251449, -0.18552992, 0.13440609, 10.087666
788017092675532, 6.832705, -0.2105684, 7.3232336, 0.34650087, -0.06511164, 10.011775
788017102314490, 7.001399, 0.6376872, 7.32443, -0.4927204, 0.07605791, 10.140264
788017111953552, 6.7645097, -0.4354937, 7.2729845, 0.56914127, -0.077857494, 9.925451
788017121592615, 6.9595246, 0.67477596, 7.3268228, -0.5387871, 0.040831566, 10.113392
788017131231677, 6.77767, -0.3493521, 7.2155566, 0.48206645, -0.02103424, 9.893951
788017140870740, 6.927222, 0.5706882, 7.436893, -0.42613855, -0.06504917, 10.170233
788017150509698, 6.882954, -0.04426722, 7.2993054, 0.1847553, 0.0017428398, 10.031088
788017160148761, 6.7848487, 0.1794617, 7.440482, -0.03814161, -0.16727829, 10.069643
788017169787823, 6.930811, 0.26799613, 7.2789664, -0.1299745, 0.048442364, 10.053461
788017179426886, 6.789634, -0.22253251, 7.3782687, 0.36119968, -0.11875248, 10.022123
788017189065948, 7.0265236, 0.5766702, 7.3052874, -0.43822548, 0.10812569, 10.142389
788017198704907, 6.8135624, -0.4319045, 7.2526455, 0.56657654, -0.013872623, 9.944387
788017208343969, 7.04447, 0.7046863, 7.3136625, -0.5598822, 0.1044507, 10.162993
788017217983032, 6.8410797, -0.40797627, 7.207182, 0.54991233, 0.030666351, 9.930101
788017227622094, 6.942775, 0.5383851, 7.37109, -0.40273416, -0.0074305534, 10.132261
788017237261157, 6.856633, -0.104087785, 7.220342, 0.23722713, 0.0341568, 9.954907
788017246900115, 6.826723, 0.20578274, 7.3926253, -0.06477069, -0.10715532, 10.063882
788017256539177, 6.9188466, 0.26799613, 7.2765737, -0.13025337, 0.044143677, 10.043499
788017266178240, 6.7812595, -0.17228323, 7.375876, 0.31014395, -0.12734365, 10.015304
788017275817302, 6.9798636, 0.57547385, 7.3363943, -0.44007882, 0.055244923, 10.132898
788017285456365, 6.786045, -0.36490545, 7.30768, 0.49505392, -0.08683014, 9.9666
788017295095323, 7.0085773, 0.72741807, 7.365108, -0.5827544, 0.06500578, 10.175965
788017304734386, 6.808777, -0.41515473, 7.220342, 0.55671763, -0.015110493, 9.917408
788017314373448, 6.903293, 0.56470615, 7.367501, -0.43003625, -0.013913155, 10.102936
788017324012511, 6.890133, -0.12921242, 7.2323065, 0.2649129, 0.043155193, 9.986234
788017333651573, 6.8865438, 0.24646074, 7.408179, -0.105513275, -0.06769419, 10.116849
788017343290532, 6.9212394, 0.17347965, 7.2526455, -0.033936746, 0.06268597, 10.026438
788017352929594, 6.7836523, -0.17347965, 7.361519, 0.30785337, -0.12182951, 10.006517
788017362568657, 6.95115, 0.54436713, 7.322037, -0.40327957, 0.045781612, 10.102589
788017372207719, 6.7465634, -0.3912265, 7.3136625, 0.52704996, -0.114228725, 9.943239
788017381846782, 7.0229344, 0.7190432, 7.3603225, -0.5850948, 0.08664513, 10.181511
788017391485740, 6.8195443, -0.38883367, 7.239485, 0.5173741, -0.009939194, 9.939806
788017401124802, 7.0002027, 0.63529444, 7.3782687, -0.50068605, 0.05560112, 10.177992
788017410763865, 6.9188466, -0.13519448, 7.233503, 0.27668136, 0.070745945, 10.006533
788017420402927, 6.8721867, 0.3397808, 7.359126, -0.20062399, -0.035927773, 10.072616
788017430041990, 6.9523463, 0.22013968, 7.1916285, -0.079566665, 0.13261557, 10.00396
788017439680948, 6.7633133, -0.07178468, 7.365108, 0.20828931, -0.1300478, 9.996603
788017449320011, 6.91765, 0.53599226, 7.338787, -0.39692634, 0.016753674, 10.091638
788017458959073, 6.7334027, -0.38524446, 7.393822, 0.5264416, -0.17365742, 9.992418
788017468598136, 6.9798636, 0.6556334, 7.4129643, -0.5081738, 0.013305187, 10.190288
788017478237198, 6.7740808, -0.46899325, 7.2670026, 0.6099962, -0.06186819, 9.926809
788017487876157, 6.8865438, 0.58504516, 7.3986077, -0.45173767, -0.036478996, 10.114385
788017497515219, 6.863812, -0.2632105, 7.223932, 0.39708996, 0.042450428, 9.960266
788017507154282, 6.9020967, 0.3385844, 7.428518, -0.20392069, -0.059890747, 10.143535
788017516793344, 6.977471, 0.14955142, 7.2705917, -0.010253813, 0.10097599, 10.077632
788017526432407, 6.8422766, -0.051445685, 7.373483, 0.1888031, -0.074039936, 10.057163
788017536071365, 6.960721, 0.5288138, 7.3112698, -0.38896984, 0.06381607, 10.101019
788017545710427, 6.7704916, -0.34217364, 7.298109, 0.48191664, -0.079833984, 9.948891
788017555349490, 6.937989, 0.6975078, 7.3232336, -0.5540863, 0.043035507, 10.096687
788017564988552, 6.7645097, -0.45942193, 7.237092, 0.59135616, -0.038981915, 9.899188
788017574627615, 6.960721, 0.6364908, 7.4045897, -0.49164298, 0.0012836456, 10.170692
788017584266573, 6.855437, -0.26679972, 7.2646093, 0.40697348, 0.0056853294, 9.983843
788017593905636, 6.8422766, 0.36610186, 7.457232, -0.22771227, -0.119764805, 10.123978
788017603544698, 6.8805614, 0.05503492, 7.2969127, 0.07942665, 0.008898258, 10.029142
788017613183761, 6.77767, -0.078963146, 7.4273214, 0.20969781, -0.1599431, 10.051796
788017622822823, 7.001399, 0.4438686, 7.3435726, -0.30651903, 0.08475256, 10.151035
788017632461782, 6.8039913, -0.27996024, 7.3340015, 0.41533196, -0.08080292, 9.999061
788017642100844, 6.991828, 0.71665037, 7.3136625, -0.5725829, 0.110897064, 10.1266365
788017651739907, 6.8039913, -0.38524446, 7.222735, 0.524831, -0.019662857, 9.916389
788017661378969, 6.98106, 0.70348984, 7.314859, -0.5651823, 0.09598684, 10.119715
788017671018032, 6.859026, -0.2321038, 7.1545396, 0.366669, 0.07699251, 9.906925
788017680657094, 6.897311, 0.4331009, 7.350751, -0.29643494, -0.009938717, 10.084942
788017690296052, 6.927222, 0.07058827, 7.2059855, 0.0716179, 0.10228109, 9.9951
788017699935115, 6.8315086, 0.03708875, 7.372287, 0.10157143, -0.082452774, 10.050094
788017709574177, 6.971489, 0.4211368, 7.3052874, -0.278479, 0.0744586, 10.102631
788017719213240, 6.789634, -0.31944183, 7.3974113, 0.45271674, -0.14106894, 10.03484
788017728852302, 6.9858456, 0.67118675, 7.396215, -0.5343314, 0.032473564, 10.181847
788017738491261, 6.7669024, -0.48095736, 7.331609, 0.6135048, -0.10099316, 9.969362
788017748130323, 6.9188466, 0.6963114, 7.5266237, -0.5514224, -0.11180639, 10.231752
788017757769386, 6.798009, -0.39840496, 7.301698, 0.5300139, -0.054799557, 9.970081
788017767408448, 6.8685975, 0.39361933, 7.3495545, -0.25159118, -0.02455473, 10.064026
788017777047511, 6.896115, 0.011964113, 7.131808, 0.12106214, 0.13895893, 9.918934
788017786686469, 6.853044, 0.106480606, 7.281359, 0.030454297, 0.0023403168, 9.999641
788017796325532, 7.0061846, 0.42711884, 7.2095747, -0.28898165, 0.16452265, 10.05666
788017805964594, 6.7848487, -0.25004998, 7.3232336, 0.38134372, -0.087227345, 9.978647
788017815603657, 7.021738, 0.6664011, 7.385447, -0.52325183, 0.0658927, 10.198804
788017825242719, 6.826723, -0.40797627, 7.372287, 0.5460398, -0.09446287, 10.040625
788017834881782, 6.95115, 0.7369894, 7.4129643, -0.6032866, 0.012459278, 10.171017
788017844520740, 6.771688, -0.3278167, 7.259824, 0.45664978, -0.053194523, 9.922546
788017854159802, 6.843473, 0.46779683, 7.4105716, -0.33580568, -0.06888628, 10.092125
788017863798865, 6.862615, -0.0035892338, 7.274181, 0.14361909, 0.020896435, 9.999407
788017873437927, 6.823134, 0.14237295, 7.475178, -0.0056838244, -0.14140797, 10.120953
788017883076990, 6.9583282, 0.36610186, 7.342376, -0.22584362, 0.05371332, 10.11973
788017892715948, 6.7202425, -0.2548356, 7.3782687, 0.393444, -0.15665007, 9.974274
788017902355011, 6.9583282, 0.6041877, 7.379465, -0.4603552, 0.021796227, 10.150246
788017911994073, 6.762117, -0.44985065, 7.332805, 0.5835147, -0.09249163, 9.967426
788017921633136, 6.9726853, 0.6687939, 7.3543406, -0.52382296, 0.052408695, 10.142722
788017931272198, 6.8015985, -0.3900301, 7.225128, 0.522074, 0.012573242, 9.916836
788017940911261, 6.9475603, 0.52163535, 7.4129643, -0.3776797, -0.0066542625, 10.166122
788017950550323, 6.91765, -0.022731815, 7.2562346, 0.16377288, 0.0732708, 10.023729
788017960189282, 6.814759, 0.14955142, 7.396215, -0.01189219, -0.09596491, 10.05773
788017969828344, 6.9355965, 0.2955136, 7.2729845, -0.15623301, 0.07790995, 10.052643
788017979467407, 6.759724, -0.22253251, 7.38784, 0.36032468, -0.14344263, 10.008655
788017989106469, 6.971489, 0.6329016, 7.37109, -0.48865968, 0.04046011, 10.153561
788017998745532, 6.7537417, -0.43429732, 7.3304124, 0.5767867, -0.103966236, 9.959573
788018008384594, 7.0061846, 0.65682983, 7.361519, -0.50926334, 0.07246208, 10.170811
788018018023552, 6.8949184, -0.38524446, 7.194021, 0.5285605, 0.096152306, 9.957592
788018027662615, 7.0492554, 0.5706882, 7.318448, -0.42541626, 0.12667131, 10.167613
788018037301677, 6.977471, -0.101694964, 7.109076, 0.2356855, 0.21532536, 9.95653
788018046940740, 6.8745794, 0.18065812, 7.3196445, -0.039107107, -0.0065760612, 10.043311
788018056579802, 6.9619174, 0.29671, 7.2287173, -0.1571575, 0.120369434, 10.038502
788018066218865, 6.7728844, -0.1698904, 7.367501, 0.3059847, -0.11830187, 10.003664
788018075857823, 6.9451675, 0.5778667, 7.3639116, -0.44138938, 0.025838375, 10.129215
788018085496886, 6.7178497, -0.44147578, 7.379465, 0.5708321, -0.1736989, 9.971204
788018095135948, 6.920043, 0.66999036, 7.4392858, -0.52698416, -0.03887272, 10.168562
788018104775011, 6.748956, -0.38524446, 7.34118, 0.51237655, -0.1220994, 9.965557
788018114414073, 6.896115, 0.587438, 7.4739814, -0.44816765, -0.07105875, 10.176246
788018124053136, 6.849455, -0.096909314, 7.2825556, 0.23527147, 0.0013599396, 9.995234
788018133692198, 6.847062, 0.26919255, 7.385447, -0.13570532, -0.053851128, 10.073641
788018143331157, 6.9499536, 0.27996024, 7.2442703, -0.13794433, 0.11886072, 10.041241
788018152970219, 6.798009, -0.111266255, 7.3663044, 0.24411923, -0.09226656, 10.020961
788018162609282, 6.98106, 0.5886344, 7.3459654, -0.4451169, 0.07903433, 10.141031
788018172248344, 6.7812595, -0.3900301, 7.3663044, 0.5213742, -0.110330105, 10.0058
788018181887407, 6.963114, 0.66161543, 7.4010005, -0.5249019, 0.036584854, 10.169595
788018191526469, 6.7633133, -0.465404, 7.2789664, 0.6046381, -0.066123486, 9.928364
788018201165532, 6.8853474, 0.567099, 7.37109, -0.43391538, -0.014770031, 10.093268
788018210804490, 6.855437, -0.16869399, 7.2299137, 0.3018599, 0.046017647, 9.960115
788018220443552, 6.884151, 0.24646074, 7.416554, -0.10687093, -0.051043987, 10.121439
788018230082615, 6.971489, 0.18903299, 7.2705917, -0.05227498, 0.11152458, 10.073912
788018239721677, 6.8398833, -0.101694964, 7.3950186, 0.23645473, -0.072502136, 10.0707245
788018249360740, 6.9786673, 0.55513483, 7.3340015, -0.41630426, 0.075595856, 10.13008
788018258999802, 6.7226353, -0.39720857, 7.3363943, 0.528283, -0.11919069, 9.9438925
788018268638865, 6.9296145, 0.72263247, 7.37109, -0.58064675, 0.014830112, 10.126074
788018278277927, 6.800402, -0.3912265, 7.304091, 0.52162814, -0.04241991, 9.973684
788018287916886, 6.940382, 0.6376872, 7.436893, -0.49478364, -0.01739788, 10.180265
788018297555948, 6.853044, -0.2213361, 7.237092, 0.3612414, 0.050272465, 9.962715
788018307195011, 6.8662047, 0.29192436, 7.4249287, -0.15585685, -0.06774759, 10.115862
788018316834073, 6.920043, 0.1591227, 7.2693954, -0.023372155, 0.07782364, 10.03742
788018326473136, 6.771688, -0.09332009, 7.3950186, 0.22852609, -0.12106705, 10.024165
788018336112198, 6.9858456, 0.47856453, 7.331609, -0.34272593, 0.09106779, 10.132017
788018345751261, 6.786045, -0.36729828, 7.3663044, 0.49730736, -0.10026026, 10.009516
788018355390323, 7.0097737, 0.6939186, 7.393822, -0.5575542, 0.08590412, 10.19651
788018365029282, 6.7968125, -0.43788654, 7.2502527, 0.56749344, -0.017474651, 9.931374
788018374668344, 6.943971, 0.64965135, 7.3375907, -0.5151853, 0.069877625, 10.109932
788018384307407, 6.838687, -0.2009971, 7.225128, 0.3328979, 0.03168297, 9.944782
788018393946469, 6.884151, 0.39601216, 7.402197, -0.25784546, -0.025772095, 10.113049
788018403585532, 6.9056864, 0.11844472, 7.216753, 0.023097381, 0.10387707, 9.98863
788018413224594, 6.7561345, -0.03589234, 7.4033933, 0.16602428, -0.14086056, 10.0204525
788018422863657, 6.9762745, 0.49172506, 7.3782687, -0.35044923, 0.058926105, 10.159861
788018432502719, 6.79442, -0.3469593, 7.4380894, 0.4792223, -0.13185167, 10.067902
788018442141782, 6.9595246, 0.6520442, 7.4189467, -0.5178685, 0.022836685, 10.17999
788018451780740, 6.7429743, -0.49052864, 7.308877, 0.6199475, -0.08170843, 9.936649
788018461419802, 6.957132, 0.6735796, 7.426125, -0.54184055, 0.009292126, 10.183764
788018471058865, 6.875776, -0.23449662, 7.2346992, 0.36344627, 0.07161331, 9.97672
788018480697927, 6.8985076, 0.40079778, 7.3567333, -0.26196674, 0.004495144, 10.089744
788018490336990, 6.899704, 0.09930214, 7.183254, 0.035055153, 0.12270355, 9.95985
788018499976052, 6.792027, 0.043070808, 7.375876, 0.09360236, -0.08716822, 10.026001
788018509615115, 6.943971, 0.45702913, 7.30768, -0.32026023, 0.0685091, 10.085758
788018519254177, 6.7405815, -0.3361916, 7.381858, 0.47451612, -0.1272459, 9.989942
788018528893240, 6.991828, 0.66400826, 7.3950186, -0.5304249, 0.055998325, 10.184713
788018538532302, 6.759724, -0.46779683, 7.328019, 0.6066854, -0.07315397, 9.961885
788018548171261, 6.9559355, 0.6305088, 7.4356966, -0.4988371, 0.006246567, 10.189373
788018557810323, 6.863812, -0.3062813, 7.259824, 0.43600962, 0.04699087, 9.985914
788018567449386, 6.884151, 0.42711884, 7.442875, -0.28901178, -0.0548501, 10.143166
788018577088448, 6.896115, 0.07298109, 7.283752, 0.06180288, 0.05965805, 10.030325
788018586727511, 6.8015985, 0.06460621, 7.428518, 0.06777948, -0.108707905, 10.071365
788018596366573, 6.940382, 0.41515473, 7.328019, -0.2802049, 0.071401596, 10.097401
788018606005636, 6.728617, -0.29671, 7.4033933, 0.42862388, -0.14196014, 9.998434
788018615644698, 6.9822564, 0.6520442, 7.3770723, -0.5185726, 0.0748229, 10.164828
788018625283761, 6.7202425, -0.47736812, 7.288538, 0.6139133, -0.07560587, 9.906046
788018634922823, 6.9619174, 0.66041905, 7.3268228, -0.5301174, 0.085041046, 10.114273
788018644561886, 6.8279195, -0.27038896, 7.2287173, 0.39809793, 0.047685623, 9.939175
788018654200948, 6.928418, 0.2955136, 7.3399835, -0.163915, 0.04587412, 10.096373
788018663839907, 6.88774, 0.08255238, 7.350751, 0.051521696, 0.008615494, 10.073658
788018673478969, 6.9009004, 0.13160525, 7.372287, 0.0023021512, 0.004925251, 10.099026
788018683118032, 6.859026, 0.13280165, 7.3974113, 1.1283904E-5, -0.042813778, 10.088793
788018692757094, 6.8614187, 0.16390835, 7.389036, -0.030360464, -0.03385067, 10.084726
788018702396157, 6.829116, 0.12921242, 7.3639116, 0.0036270283, -0.039130688, 10.043863
788018712035219, 6.826723, 0.15433706, 7.3495545, -0.02088137, -0.029342651, 10.032082
788018721674282, 6.873383, 0.17826529, 7.3304124, -0.04306867, 0.019071102, 10.05027
788018731313344, 6.855437, 0.16749759, 7.3052874, -0.032565437, 0.022499084, 10.019516
788018740952407, 6.873383, 0.12801601, 7.331609, 0.00768248, 0.01500845, 10.050471
788018750591469, 6.8913293, 0.12562318, 7.365108, 0.010064818, 0.004219532, 10.087166
788018760230532, 6.890133, 0.15792629, 7.38784, -0.024416234, -0.010401249, 10.103383
788018769869594, 6.8925257, 0.13998012, 7.391429, -0.006404843, -0.0115766525, 10.107401
788018779508657, 6.8518476, 0.12323037, 7.3770723, 0.0093823895, -0.031414032, 10.068918
788018789147719, 6.8075805, 0.11006984, 7.3698936, 0.021804139, -0.059574604, 10.033274
788018798786782, 6.7968125, 0.09212367, 7.342376, 0.0399036, -0.049030304, 10.005581
788018808425740, 6.8422766, 0.12562318, 7.3435726, 0.007301409, -0.014152527, 10.037945
788018818064802, 6.879365, 0.13519448, 7.373483, -0.0017514043, -0.0060505867, 10.085245
788018827703865, 6.9224358, 0.15553348, 7.3459654, -0.020174844, 0.044787407, 10.094805
788018837342927, 6.9415784, 0.17228323, 7.32443, -0.036159433, 0.072817326, 10.092367
788018846981990, 6.914061, 0.1698904, 7.3112698, -0.03443782, 0.061616898, 10.063936
788018856621052, 6.8925257, 0.15433706, 7.3363943, -0.017955117, 0.022073746, 10.067404
788018866260115, 6.8458657, 0.10767702, 7.3543406, 0.028128557, -0.024545193, 10.048004
788018875899177, 6.853044, 0.078963146, 7.393822, 0.05736672, -0.046374798, 10.08135
788018885538240, 6.8303123, 0.09451649, 7.420143, 0.04191495, -0.080916405, 10.085253
788018895177302, 6.815955, 0.13758731, 7.391429, -0.0038772747, -0.06658745, 10.055098
788018904816365, 6.8279195, 0.15672988, 7.372287, -0.02283746, -0.044857502, 10.049534
788018914455427, 6.836294, 0.16869399, 7.3435726, -0.03482438, -0.018881798, 10.034435
788018924094490, 6.859026, 0.1591227, 7.27777, -0.02560702, 0.042594433, 10.001752
788018933733552, 6.897311, 0.1698904, 7.288538, -0.034530476, 0.059619904, 10.035927
788018943372615, 6.943971, 0.15672988, 7.3052874, -0.020141527, 0.08227348, 10.079849
788018953011677, 6.936793, 0.15672988, 7.3256264, -0.019475736, 0.061042786, 10.089815
788018962650740, 6.91765, 0.17347965, 7.3399835, -0.036119413, 0.037271976, 10.08745
788018972289802, 6.873383, 0.16390835, 7.393822, -0.027449967, -0.030938148, 10.096394
788018981928865, 6.8398833, 0.11485548, 7.3986077, 0.022676442, -0.05680561, 10.076351
788018991567927, 6.826723, 0.096909314, 7.4153576, 0.040943254, -0.07612085, 10.079365
788019001206990, 6.8255267, 0.059820566, 7.4033933, 0.07775084, -0.067401886, 10.069311
788019010846052, 6.8339014, 0.04426722, 7.3579297, 0.093508884, -0.029520988, 10.041598
788019020485115, 6.8542404, 0.096909314, 7.332805, 0.03960824, 0.0029444695, 10.037851
788019030124177, 6.8865438, 0.13040884, 7.3160553, 0.004459858, 0.037944317, 10.0481205
788019039763136, 6.9009004, 0.14596218, 7.3028946, -0.012470603, 0.05830717, 10.048504
788019049402198, 6.8255267, 0.1471586, 7.332805, -0.012536719, -0.016507149, 10.018936
788019059041365, 6.7908306, 0.16510476, 7.355537, -0.02990137, -0.05767107, 10.012112
788019068680323, 6.8339014, 0.14955142, 7.3866434, -0.013734579, -0.044805527, 10.064039
788019078319386, 6.859026, 0.15194423, 7.440482, -0.015025377, -0.06003809, 10.120585
788019087958448, 6.8303123, 0.1471586, 7.4141607, -0.0105647, -0.06321573, 10.081692
788019097597511, 6.8662047, 0.16151553, 7.365108, -0.025509916, -0.0034723282, 10.070501
788019107236573, 6.847062, 0.14955142, 7.3435726, -0.0130871385, -0.004315853, 10.041538
788019116875636, 6.8662047, 0.14237295, 7.3375907, -0.0057635233, 0.013832092, 10.050127
788019126514698, 6.9020967, 0.13519448, 7.3639116, 0.002371125, 0.022017479, 10.093757
788019136153761, 6.899704, 0.16271193, 7.355537, -0.02468247, 0.025575161, 10.08638
788019145792823, 6.9152575, 0.17347965, 7.331609, -0.034458153, 0.052681446, 10.079654
788019155431886, 6.843473, 0.1363909, 7.298109, 0.0013148449, 0.022724152, 10.005678
788019165070948, 6.8422766, 0.11365908, 7.251449, 0.02511409, 0.052627087, 9.970446
788019174710011, 6.8745794, 0.13399807, 7.2861447, 0.0053792857, 0.05290222, 10.018129
788019184349073, 6.8853474, 0.15194423, 7.3495545, -0.012837619, 0.017154694, 10.07207
788019193988136, 6.8889365, 0.18305093, 7.3806615, -0.043850854, 0.0013222694, 10.097683
788019203627198, 6.8410797, 0.148355, 7.4189467, -0.0096454285, -0.05967474, 10.092546
788019213266261, 6.820741, 0.14955142, 7.402197, -0.010557752, -0.057849884, 10.066477
788019222905323, 6.873383, 0.14237295, 7.3627152, -0.0024501272, 0.00745821, 10.073389
788019232544386, 6.843473, 0.13040884, 7.37109, 0.009183018, -0.019136906, 10.058958
788019242183448, 6.8602223, 0.14356937, 7.379465, -0.0044747237, -0.012908459, 10.076685
788019251822511, 6.8721867, 0.16390835, 7.353144, -0.024708891, 0.015259266, 10.065868
788019261461573, 6.8374906, 0.14476576, 7.3567333, -0.0061824303, -0.012962341, 10.044579
788019271100636, 6.8913293, 0.14237295, 7.3926253, -0.0028765248, 0.0019454956, 10.107502
788019280739698, 6.876972, 0.15314065, 7.402197, -0.014013577, -0.015288353, 10.104864
788019290378761, 6.823134, 0.1471586, 7.3495545, -0.00822188, -0.019508839, 10.029573
788019300017823, 6.786045, 0.12801601, 7.32443, 0.0103067905, -0.02952385, 9.985645
788019309656886, 6.8303123, 0.13519448, 7.344769, 0.0047512464, -0.010286331, 10.0308
788019319295948, 6.8422766, 0.11844472, 7.3603225, 0.02174095, -0.012286663, 10.050099
788019328935011, 6.867401, 0.12323037, 7.4010005, 0.017271265, -0.017732143, 10.097057
788019338574073, 6.869794, 0.12203395, 7.4213395, 0.018660907, -0.029831886, 10.113555
788019348213136, 6.832705, 0.12203395, 7.3782687, 0.017146342, -0.027044296, 10.056767
788019357852198, 6.8410797, 0.1052842, 7.338787, 0.03390463, 0.0063586235, 10.033347
788019367491261, 6.855437, 0.10049855, 7.322037, 0.039156113, 0.028165817, 10.030803
788019377130323, 6.9128647, 0.12083755, 7.3268228, 0.01962407, 0.067705154, 10.073711
788019386769386, 6.91765, 0.148355, 7.3567333, -0.009665791, 0.050107002, 10.099249
788019396408448, 6.8853474, 0.15433706, 7.3579297, -0.016662467, 0.02576971, 10.078196
788019406047511, 6.8195443, 0.14476576, 7.3663044, -0.008305386, -0.029828072, 10.039354
788019415686573, 6.806384, 0.19142582, 7.3639116, -0.055070803, -0.036759377, 10.029273
788019425325740, 6.786045, 0.16630118, 7.3663044, -0.029922903, -0.05423546, 10.016819
788019434964802, 6.826723, 0.148355, 7.3746796, -0.009654008, -0.03061676, 10.050425
788019444603865, 6.855437, 0.15194423, 7.399804, -0.012725361, -0.026620388, 10.088425
788019454242927, 6.926025, 0.12921242, 7.368697, 0.011846194, 0.04518509, 10.113459
788019463881990, 6.8925257, 0.106480606, 7.342376, 0.03397967, 0.035731316, 10.071064
788019473521052, 6.8506513, 0.12323037, 7.3064837, 0.016071832, 0.028445244, 10.016499
788019483160115, 6.8685975, 0.13040884, 7.288538, 0.008723542, 0.0539999, 10.015709
788019492799177, 6.893722, 0.148355, 7.3340015, -0.009277545, 0.041619778, 10.066338
788019502438240, 6.8949184, 0.15553348, 7.355537, -0.016704112, 0.02950859, 10.082999
788019512077302, 6.899704, 0.14476576, 7.367501, -0.005022198, 0.024569035, 10.094868
788019521716365, 6.8315086, 0.13399807, 7.359126, 0.005247839, -0.019555569, 10.042103
788019531355427, 6.786045, 0.13758731, 7.3292155, 0.0011432096, -0.03464365, 9.989271
788019540994490, 6.7872415, 0.12323037, 7.3232336, 0.015326805, -0.030013084, 9.985512
788019550633552, 6.812366, 0.1268196, 7.381858, 0.01141724, -0.05137825, 10.045569
788019560272615, 6.856633, 0.12203395, 7.4177504, 0.015790397, -0.042185307, 10.101946
788019569911677, 6.8781686, 0.17108682, 7.3986077, -0.03296861, -0.012908936, 10.103296
788019579550740, 6.8781686, 0.16510476, 7.3926253, -0.026948277, -0.00882864, 10.098842
788019589189802, 6.8602223, 0.14955142, 7.3543406, -0.01086504, 0.0034294128, 10.058391
788019598828865, 6.832705, 0.14476576, 7.347162, -0.006600173, -0.011927605, 10.034311
788019608467927, 6.832705, 0.15792629, 7.3627152, -0.018368276, -0.02182579, 10.045874
788019618106990, 6.843473, 0.16151553, 7.3340015, -0.02175732, 0.0060362816, 10.032261
