timestamp_acc,device_acc_x,device_acc_y,device_acc_z,earth_acc_x,earth_acc_y,earth_acc_z
774502357180166, -0.64845496, 4.401597, 8.991031, 0.036575556, 0.06391096, 10.031339
774502366820375, -0.6628119, 4.382455, 8.9826565, 0.054121494, 0.054724813, 10.016357
774502376460635, -0.65324056, 4.371687, 8.946764, 0.046079874, 0.059090853, 9.978846
774502386100896, -0.6795616, 4.3645086, 8.907282, 0.048606634, 0.029390931, 9.942192
774502395741104, -0.66400826, 4.365705, 8.867801, 0.02666068, 0.035951972, 9.906371
774502405381312, -0.6472585, 4.3704906, 8.865408, 0.01706171, 0.04991007, 9.90519
774502415021573, -0.61734825, 4.4171505, 8.872586, -0.029729605, 0.06536853, 9.930255
774502424661833, -0.62093747, 4.401597, 8.897711, -0.004935026, 0.06284547, 9.946101
774502434302041, -0.62452674, 4.4315076, 8.886943, -0.03332734, 0.04484284, 9.950022
774502443942302, -0.65324056, 4.432704, 8.82114, -0.051206827, 0.0042061806, 9.893708
774502453582562, -0.6891329, 4.4518466, 8.788837, -0.066126585, -0.04690373, 9.875775
774502463222771, -0.7465607, 4.473382, 8.752945, -0.07813597, -0.1150223, 9.8571415
774502472862979, -0.7968099, 4.4578285, 8.782856, -0.035756588, -0.15032816, 9.880375
774502482503239, -0.7728817, 4.4339004, 8.785249, -0.021160603, -0.118083835, 9.870312
774502492143500, -0.7262217, 4.4350967, 8.851051, -0.0104904175, -0.057732224, 9.926486
774502501783708, -0.6975078, 4.4195433, 8.912068, 0.017766237, -0.014280677, 9.972126
774502511423968, -0.69272214, 4.4111686, 8.941978, 0.036038637, 0.0021266937, 9.994797
774502521064229, -0.67836523, 4.386044, 8.928818, 0.048629522, 0.02264154, 9.970882
774502530704437, -0.65324056, 4.421936, 9.014959, 0.04565096, 0.05740583, 10.062026
774502540344646, -0.6448657, 4.408776, 8.976674, 0.03886366, 0.061035275, 10.021408
774502549984906, -0.6735796, 4.412365, 8.991031, 0.050809383, 0.033985734, 10.037807
774502559625166, -0.6903293, 4.45065, 9.0029955, 0.028009653, 0.010822892, 10.06667
774502569265375, -0.695115, 4.442275, 8.952746, 0.018198967, -0.0036665201, 10.018399
774502578905635, -0.6628119, 4.4554358, 8.9108715, -0.018330097, 0.015406013, 9.9846525
774502588545896, -0.66759753, 4.4518466, 8.868998, -0.028356314, 0.003207326, 9.946001
774502598186104, -0.66161543, 4.4339004, 8.827123, -0.028932571, 0.0054274797, 9.900225
774502607826364, -0.6448657, 4.4398823, 8.770891, -0.059075356, 0.009935856, 9.851563
774502617466625, -0.6556334, 4.4350967, 8.740981, -0.060565233, -0.0038957596, 9.823494
774502627106833, -0.66759753, 4.4243293, 8.717052, -0.05461788, -0.017555714, 9.798168
774502636747041, -0.7178468, 4.4315076, 8.718249, -0.04410124, -0.066625714, 9.80587
774502646387302, -0.7369894, 4.4231324, 8.775677, -0.0063881874, -0.06993508, 9.854687
774502656027562, -0.7190432, 4.442275, 8.815159, -0.011339426, -0.046571136, 9.897249
774502665667771, -0.6759724, 4.449454, 8.859426, -0.01324296, 0.003454566, 9.936993
774502675308031, -0.6664011, 4.4434714, 8.85823, -0.01176548, 0.0138424635, 9.932594
774502684948291, -0.6879365, 4.4638104, 8.892925, -0.0072271824, -0.0025622845, 9.974113
774502694588500, -0.7070791, 4.4542394, 8.921639, 0.020070553, -0.0084632635, 9.996771
774502704228760, -0.6795616, 4.4518466, 8.952746, 0.025892258, 0.025073647, 10.021532
774502713869021, -0.6687939, 4.442275, 8.927621, 0.020346165, 0.032964945, 9.994101
774502723509229, -0.6759724, 4.4171505, 8.902496, 0.03379464, 0.027819157, 9.960959
774502733149437, -0.6987042, 4.418347, 8.900104, 0.039686203, 0.004925728, 9.960935
774502742789698, -0.67477596, 4.4434714, 8.847462, -0.009610176, 0.009858608, 9.923566
774502752429958, -0.6771688, 4.449454, 8.816355, -0.026494265, -3.4701824E-4, 9.898667
774502762070166, -0.6735796, 4.4638104, 8.813962, -0.037260056, 0.0011261702, 9.902718
774502771710427, -0.6687939, 4.45065, 8.7780695, -0.040292025, 0.0028537512, 9.864505
774502781350687, -0.66759753, 4.465007, 8.799605, -0.044262886, 0.0046925545, 9.890049
774502790990896, -0.65682983, 4.4350967, 8.790034, -0.024602175, 0.020972133, 9.867378
774502800631156, -0.66759753, 4.412365, 8.860622, 0.026884079, 0.031153202, 9.920866
774502810271416, -0.66759753, 4.4350967, 8.908479, 0.026354551, 0.033266664, 9.973713
774502819911625, -0.6867401, 4.4446683, 8.937193, 0.03426814, 0.017580986, 10.0049305
774502829551833, -0.70588267, 4.4482574, 8.913264, 0.027213335, -0.007090211, 9.986527
774502839192093, -0.7477571, 4.479364, 8.95155, 0.029631376, -0.046984315, 10.037479
774502848832354, -0.782453, 4.476971, 8.925228, 0.031374693, -0.08246446, 10.01536
774502858472562, -0.7704889, 4.4949174, 8.882157, -0.0046260357, -0.08245981, 9.9841795
774502868112823, -0.73340017, 4.4913282, 8.85823, -0.022550344, -0.051351666, 9.958663
774502877753083, -0.74177504, 4.4949174, 8.8187475, -0.037579536, -0.0672977, 9.925669
774502887393291, -0.7286145, 4.4841495, 8.780462, -0.0470953, -0.05948448, 9.885809
774502897033500, -0.6867401, 4.4685965, 8.779266, -0.046082973, -0.013492823, 9.874877
774502906673760, -0.6520442, 4.473382, 8.743374, -0.07419634, 0.01241827, 9.842622
774502916314021, -0.6412765, 4.4446683, 8.723035, -0.06121421, 0.025925756, 9.810872
774502925954229, -0.6329016, 4.453043, 8.758927, -0.054559708, 0.039972067, 9.846035
774502935594489, -0.6520442, 4.436293, 8.788837, -0.020895481, 0.032192588, 9.866511
774502945234750, -0.6305088, 4.3944187, 8.836694, 0.02761221, 0.072787404, 9.88886
774502954874958, -0.61734825, 4.412365, 8.886943, 0.02804184, 0.08988309, 9.940772
774502964515166, -0.6257231, 4.4339004, 8.9013, 0.014647961, 0.07662153, 9.963839
774502974155427, -0.6843473, 4.430311, 8.894122, 0.0328784, 0.02007103, 9.959916
774502983795687, -0.70229346, 4.4482574, 8.900104, 0.025211096, 3.2651424E-4, 9.97454
774502993435896, -0.7082755, 4.4614177, 8.85823, -7.953644E-4, -0.017690778, 9.943533
774503003076156, -0.70947194, 4.4781675, 8.879765, -0.006371975, -0.018744469, 9.970316
774503012716416, -0.74416786, 4.4949174, 8.897711, -0.002015829, -0.05265212, 9.996228
774503022356625, -0.7788638, 4.479364, 8.9013, 0.022027016, -0.08250904, 9.994859
774503031996885, -0.7585248, 4.469793, 8.916854, 0.02977109, -0.05759859, 10.003025
774503041637146, -0.7322037, 4.4434714, 8.895318, 0.034540176, -0.030725598, 9.970212
774503051277354, -0.64606214, 4.3968115, 8.88814, 0.044664383, 0.060585022, 9.936936
774503060917562, -0.66999036, 4.4638104, 8.817552, -0.033551693, 0.0078082085, 9.905681
774503070557823, -0.7393822, 4.485346, 8.756535, -0.053375006, -0.07318926, 9.865784
774503080198083, -0.715454, 4.456632, 8.774481, -0.028881311, -0.039773583, 9.867249
774503089838291, -0.67118675, 4.5044885, 8.8187475, -0.063797474, 8.4519386E-5, 9.9250765
774503099478552, -0.6879365, 4.4913282, 8.866604, -0.0274086, -0.0037931204, 9.962991
774503109118812, -0.6975078, 4.449454, 8.878569, 0.01632905, 7.8475475E-4, 9.955545
774503118759021, -0.6963114, 4.465007, 8.866604, -0.0015730858, -0.0048322678, 9.951774
774503128399229, -0.6652047, 4.4674, 8.82832, -0.029286623, 0.015648365, 9.916567
774503138039489, -0.65922266, 4.4554358, 8.809176, -0.027544975, 0.021727681, 9.893729
774503147679750, -0.66999036, 4.4350967, 8.813962, -0.0025815964, 0.019264102, 9.889616
774503157319958, -0.6520442, 4.436293, 8.781659, -0.021485329, 0.02791071, 9.860131
774503166960166, -0.6652047, 4.436293, 8.806784, -0.0071792603, 0.018603802, 9.883432
774503176600427, -0.6939186, 4.453043, 8.894122, 0.023283482, 0.0048906803, 9.970755
774503186240687, -0.68195444, 4.459025, 8.863015, -0.001698494, 0.0038118362, 9.944899
774503195880896, -0.6735796, 4.4685965, 8.904889, 0.0047695637, 0.017611861, 9.98593
774503205521156, -0.6975078, 4.4841495, 8.864211, -0.018886805, -0.01784563, 9.958298
774503215161416, -0.72263247, 4.4721856, 8.829515, -0.014129162, -0.044517875, 9.923749
774503224801625, -0.72263247, 4.4542394, 8.79482, -0.011485815, -0.045693874, 9.884792
774503234441833, -0.7082755, 4.462614, 8.79482, -0.022652388, -0.034169674, 9.887557
774503244082093, -0.6831509, 4.45065, 8.803194, -0.015918493, -0.005014062, 9.887918
774503253722354, -0.68195444, 4.4614177, 8.857033, -0.0037035942, 0.0041986704, 9.940639
774503263362562, -0.65922266, 4.4674, 8.860622, -0.014585018, 0.024602652, 9.94495
774503273002771, -0.6795616, 4.4638104, 8.872586, -3.4093857E-5, 0.008267403, 9.955407
774503282643031, -0.7118647, 4.473382, 8.900104, 0.013807535, -0.018723845, 9.986452
774503292283291, -0.70348984, 4.4913282, 8.891729, -0.0072746277, -0.016662717, 9.986462
774503301923500, -0.70229346, 4.453043, 8.841479, 0.0057988167, -0.015006304, 9.924431
774503311563760, -0.6879365, 4.4171505, 8.806784, 0.018599749, 0.0013141632, 9.876415
774503321204021, -0.66400826, 4.432704, 8.758927, -0.021546125, 0.009814739, 9.839107
774503330844229, -0.68075806, 4.4231324, 8.762517, -0.0065586567, -0.0028511286, 9.839166
774503340484437, -0.64247286, 4.4243293, 8.7984085, -0.004790783, 0.039656997, 9.869035
774503350124698, -0.6376872, 4.453043, 8.851051, -0.010912418, 0.04600942, 9.928501
774503359764958, -0.6376872, 4.4518466, 8.8701935, -0.0021743774, 0.04923153, 9.945022
774503369405166, -0.64965135, 4.4554358, 8.868998, -0.0013868809, 0.035482526, 9.946398
774503379045375, -0.6580262, 4.470989, 8.866604, -0.014398336, 0.022165895, 9.95182
774503388685635, -0.68195444, 4.4685965, 8.906086, 0.010167599, 0.0063248873, 9.987576
774503398325896, -0.721436, 4.5008993, 8.993423, 0.029946566, -0.022114396, 10.082602
774503407966104, -0.5946164, 4.408776, 8.882157, 0.024696589, 0.09839618, 9.933445
774503417606312, -0.78843504, 4.7042894, 9.038888, -0.106217146, -0.12694502, 10.218908
774503427246573, -0.6771688, 4.0534415, 8.694321, 0.27756238, 0.07283807, 9.612378
774503436886833, -0.78843504, 5.0512486, 8.979067, -0.42079353, -0.23789418, 10.321178
774503446527041, -0.7812566, 3.8033917, 8.635697, 0.49846005, 0.05221951, 9.455171
774503456167250, -0.6879365, 5.174479, 8.865408, -0.59062886, -0.21994925, 10.268726
774503465807510, -0.80757767, 3.8261235, 8.689535, 0.50746775, 0.042083144, 9.515257
774503475447771, -0.56350976, 4.9674997, 8.725428, -0.5170853, -0.084267616, 10.0425205
774503485087979, -0.75972116, 4.1874394, 8.809176, 0.23299503, 0.010258198, 9.780543
774503494728187, -0.50488555, 4.526024, 8.664411, -0.19866467, 0.09451616, 9.785879
774503504368448, -0.7501499, 4.6552362, 8.872586, -0.13200879, -0.11936784, 10.046145
774503514008708, -0.5694918, 4.071388, 8.583055, 0.17582774, 0.16387916, 9.513758
774503523648916, -0.6687939, 5.038088, 9.010174, -0.42904449, -0.124233484, 10.3350525
774503533289125, -0.6664011, 3.7734814, 8.799605, 0.54911876, 0.20110917, 9.579891
774503542929385, -0.59700924, 5.119444, 9.089137, -0.5040405, -0.063509464, 10.436449
774503552569646, -0.72382885, 3.7328033, 8.9013, 0.6463468, 0.18355167, 9.656057
774503562209854, -0.5371887, 4.948357, 8.959925, -0.42343163, 0.021695852, 10.240863
774503571850062, -0.80518484, 4.0869412, 9.012567, 0.4107511, 0.01581645, 9.920122
774503581490271, -0.6017949, 4.564309, 8.810373, -0.13766241, 0.03458166, 9.939698
774503591130531, -0.8602197, 4.6037908, 9.049655, 0.0104420185, -0.17059338, 10.188323
774503600770791, -0.68075806, 4.130012, 8.7469635, 0.22788978, 0.0694046, 9.69397
774503610411000, -0.80997044, 5.0309095, 9.085547, -0.35685182, -0.2389201, 10.408115
774503620051208, -0.75254273, 3.8009987, 8.743374, 0.5275531, 0.09556496, 9.548458
774503629691468, -0.6723832, 5.224728, 8.9348, -0.6208074, -0.1962446, 10.35165
774503639331729, -0.75254273, 3.778267, 8.5938225, 0.5004084, 0.08707309, 9.4041195
774503648971937, -0.5563313, 5.0368915, 8.683554, -0.59514046, -0.08921552, 10.036023
774503658612146, -0.7860422, 4.0845485, 8.760123, 0.3143456, 1.8143654E-4, 9.692386
774503668252406, -0.50488555, 4.62413, 8.683554, -0.27015066, 0.078968406, 9.846948
774503677892666, -0.7501499, 4.496114, 8.932407, 0.031770468, -0.054298162, 10.028047
774503687532875, -0.56829536, 4.0977087, 8.642876, 0.1818664, 0.17210662, 9.578664
774503697173083, -0.762114, 4.935197, 9.038888, -0.2888856, -0.17947769, 10.320989
774503706813291, -0.72023964, 3.7818563, 8.715857, 0.5274124, 0.15172386, 9.512422
774503716453552, -0.6628119, 5.113462, 8.993423, -0.49443674, -0.1468513, 10.353861
774503726093812, -0.7286145, 3.7064822, 8.756535, 0.6126826, 0.18364048, 9.515077
774503735734021, -0.50488555, 5.069195, 8.857033, -0.5831969, -0.022675276, 10.200886
774503745374229, -0.72382885, 4.0570307, 8.914461, 0.38025618, 0.098728895, 9.813087
774503755014489, -0.50129634, 4.770092, 8.85464, -0.32492042, 0.078698516, 10.064689
774503764654750, -0.7932207, 4.5942197, 9.056833, 0.0014519691, -0.097179055, 10.185915
774503774294958, -0.59940207, 4.28076, 8.7469635, 0.078700066, 0.106137514, 9.755824
774503783935166, -0.7704889, 4.9674997, 9.083155, -0.30637407, -0.18008435, 10.375313
774503793575375, -0.7106683, 3.8141594, 8.708678, 0.4944682, 0.13732266, 9.520009
774503803215635, -0.72502524, 5.1326046, 9.001799, -0.49450016, -0.2095269, 10.37368
774503812855896, -0.79441714, 3.696911, 8.719446, 0.62922573, 0.08928621, 9.482779
774503822496104, -0.61734825, 5.0536413, 8.793623, -0.53961873, -0.12768388, 10.145972
774503832136312, -0.8111669, 3.938586, 8.781659, 0.4564817, 0.02712369, 9.647738
774503841776521, -0.52522457, 4.735396, 8.712267, -0.34354877, 0.03784859, 9.92391
774503851416781, -0.7692925, 4.4458647, 8.9312105, 0.08155036, -0.05344534, 10.005725
774503861057041, -0.5599205, 4.304688, 8.687142, 0.030955315, 0.12916589, 9.710441
774503870697250, -0.75254273, 4.9902315, 9.06162, -0.33850217, -0.1577872, 10.365435
774503880337458, -0.6867401, 3.952943, 8.724232, 0.39238238, 0.11265302, 9.593903
774503889977666, -0.701097, 5.221139, 9.037691, -0.5612457, -0.17674243, 10.444397
774503899617927, -0.7405786, 3.7651064, 8.734999, 0.5699849, 0.11430299, 9.522958
774503909258187, -0.5766702, 5.078766, 8.873783, -0.54529524, -0.057050824, 10.225939
774503918898396, -0.75254273, 3.8620157, 8.810373, 0.5326474, 0.09718394, 9.633847
774503928538604, -0.4881358, 4.698307, 8.732606, -0.30819106, 0.09662819, 9.923025
774503938178812, -0.73459655, 4.290331, 8.855837, 0.17243624, 0.00879395, 9.866236
774503947819021, -0.5276174, 4.278367, 8.579466, 0.0045979023, 0.1427716, 9.600503
774503957459281, -0.7118647, 4.861019, 8.8905325, -0.2994051, -0.13228095, 10.152374
774503967099541, -0.6113662, 3.9493537, 8.60459, 0.3220384, 0.16691852, 9.480431
774503976739750, -0.66999036, 5.204389, 9.0233345, -0.54901695, -0.16110289, 10.422464
774503986379958, -0.7046863, 3.7806597, 8.766106, 0.56432676, 0.15894711, 9.554625
774503996020166, -0.5886344, 5.1493545, 8.973084, -0.55079937, -0.08080697, 10.347401
774504005660427, -0.8039884, 3.8751762, 8.900104, 0.5619352, 0.07056248, 9.723914
774504015300687, -0.59700924, 4.8215375, 8.880961, -0.32020307, -0.019022346, 10.117915
774504024940896, -0.8350951, 4.278367, 9.029316, 0.2833054, -0.049339294, 10.02236
774504034581104, -0.56470615, 4.336991, 8.732606, 0.023289204, 0.11867273, 9.765867
774504044221312, -0.77766734, 4.7581277, 9.022138, -0.1423819, -0.13911057, 10.227605
774504053861521, -0.69272214, 3.9242291, 8.657232, 0.38531494, 0.11276555, 9.521866
774504063501781, -0.77647096, 5.1529436, 8.95155, -0.50607276, -0.2730596, 10.341921
774504073142041, -0.7728817, 3.81057, 8.603394, 0.4834001, 0.059590816, 9.428624
774504082782250, -0.6113662, 5.1852465, 8.809176, -0.6507919, -0.16461182, 10.218197
774504092422458, -0.75254273, 3.897908, 8.700303, 0.43938494, 0.075849414, 9.552826
774504102062666, -0.47258246, 4.9268217, 8.706285, -0.52659225, 0.018981695, 10.000934
774504111702875, -0.72023964, 4.278367, 8.851051, 0.17506838, 0.017083049, 9.855625
774504121343135, -0.506082, 4.4398823, 8.617751, -0.13740301, 0.115101576, 9.705782
774504130983396, -0.76331043, 4.738985, 8.885747, -0.18681407, -0.15401638, 10.09646
774504140623604, -0.6221339, 3.9613178, 8.5938225, 0.29858732, 0.14797759, 9.477438
774504150263812, -0.67477596, 5.0392847, 9.038888, -0.40944004, -0.12709379, 10.361825
774504159904021, -0.67836523, 3.6574295, 8.787642, 0.6490495, 0.23908293, 9.517415
774504169544229, -0.58265233, 5.081159, 9.085547, -0.47741675, -0.045891285, 10.415125
774504179184489, -0.74895346, 3.7423747, 8.979067, 0.66789985, 0.18272209, 9.731931
774504188824750, -0.5766702, 4.883751, 9.022138, -0.33231544, 0.004032612, 10.269962
774504198464958, -0.8817552, 4.1874394, 9.141779, 0.40091872, -0.040111303, 10.08573
774504208105166, -0.63529444, 4.506881, 8.903693, -0.048668623, 0.03135228, 9.999398
774504217745375, -0.8805587, 4.6935215, 9.103494, -0.035045624, -0.20890856, 10.277805
774504227385583, -0.7178468, 4.0498524, 8.797213, 0.32085824, 0.08321571, 9.705549
774504237025843, -0.7848458, 5.0512486, 9.089137, -0.36786556, -0.24622393, 10.418616
774504246666104, -0.74177504, 3.7591243, 8.723035, 0.53901315, 0.14601588, 9.511085
774504256306312, -0.6687939, 5.206782, 8.873783, -0.6157024, -0.25451493, 10.2887335
774504265946521, -0.82672024, 3.7890346, 8.671589, 0.5427687, 0.06769037, 9.483539
774504275586729, -0.54317075, 4.989035, 8.7469635, -0.5377333, -0.111121655, 10.069429
774504285226937, -0.7704889, 4.152744, 8.822337, 0.2711568, 0.019548893, 9.777457
774504294867146, -0.50009996, 4.564309, 8.640483, -0.24300551, 0.057828426, 9.781542
774504304507406, -0.71425754, 4.6396832, 8.903693, -0.11367512, -0.091376066, 10.064358
774504314147666, -0.5515456, 4.0833516, 8.57468, 0.15165448, 0.17686856, 9.510458
774504323787875, -0.66041905, 5.046463, 8.930014, -0.45286942, -0.1811986, 10.266945
774504333428083, -0.6472585, 3.7674992, 8.685946, 0.4988017, 0.23316693, 9.473938
774504343068291, -0.59342, 5.1493545, 8.949157, -0.5661869, -0.1443541, 10.325407
774504352708500, -0.70588267, 3.7483566, 8.766106, 0.57551885, 0.18923795, 9.540756
774504362348708, -0.4953143, 4.983053, 8.836694, -0.5157361, -0.017672062, 10.143818
774504371988968, -0.7645068, 4.0797625, 8.897711, 0.37329555, 0.04939866, 9.811036
774504381629229, -0.54317075, 4.6002016, 8.763713, -0.19977832, 0.046899796, 9.910471
774504391269437, -0.7812566, 4.575077, 8.988638, 3.6168098E-4, -0.11084843, 10.115583
774504400909646, -0.6041877, 4.119244, 8.669196, 0.17681503, 0.13124847, 9.614556
774504410549854, -0.7322037, 5.0045886, 9.071191, -0.3491757, -0.20031285, 10.378174
774504420190062, -0.7106683, 3.784249, 8.734999, 0.51842785, 0.1614554, 9.530528
774504429830271, -0.6735796, 5.1792645, 9.0233345, -0.5440166, -0.22191024, 10.409316
774504439470531, -0.76689965, 3.751946, 8.73141, 0.56629515, 0.121323586, 9.516688
774504449110791, -0.6017949, 5.020142, 8.834301, -0.5081811, -0.1456697, 10.165108
774504458751000, -0.77766734, 4.040281, 8.873783, 0.37526584, 0.044099808, 9.773939
774504468391208, -0.54317075, 4.6097727, 8.720642, -0.25427747, 0.009239674, 9.875723
774504478031416, -0.7513463, 4.4745784, 9.010174, 0.054860592, -0.057867527, 10.087778
774504487671625, -0.5288138, 4.101298, 8.671589, 0.13818717, 0.18630576, 9.604319
774504497311833, -0.701097, 4.8861437, 9.056833, -0.28603506, -0.15759826, 10.309486
774504506952093, -0.6580262, 3.7974095, 8.817552, 0.49361205, 0.2176671, 9.607886
774504516592354, -0.613759, 5.0596237, 9.176475, -0.43099403, -0.118207455, 10.487347
774504526232562, -0.6687939, 3.635894, 8.895318, 0.6599097, 0.2852701, 9.606083
774504535872771, -0.6125626, 5.099105, 8.925228, -0.56464124, -0.17648387, 10.280362
774504545512979, -0.8997013, 3.9864426, 8.933603, 0.47633505, -0.06253505, 9.81222
774504555153187, -0.5982057, 4.706682, 8.770891, -0.30107737, -0.052538633, 9.967238
774504564793396, -0.7968099, 4.4554358, 9.020942, 0.08874321, -0.09406185, 10.091902
774504574433656, -0.58983076, 4.220939, 8.812766, 0.12000179, 0.12465644, 9.7877035
774504584073916, -0.73459655, 4.867001, 9.110672, -0.2430973, -0.15503812, 10.351259
774504593714125, -0.6448657, 3.790231, 8.745767, 0.46656537, 0.21360755, 9.53975
774504603354333, -0.66400826, 5.127819, 9.018549, -0.51746583, -0.21879983, 10.380463
774504612994541, -0.73459655, 3.7172499, 8.7015, 0.5462172, 0.15739942, 9.473677
774504622634750, -0.58504516, 5.066802, 8.851051, -0.55428267, -0.1902554, 10.198648
774504632274958, -0.7704889, 3.9302113, 8.866604, 0.4474008, 0.11353493, 9.718221
774504641915166, -0.52522457, 4.759324, 8.845069, -0.32962155, -0.018112183, 10.052528
774504651555427, -0.77766734, 4.3740797, 9.004191, 0.14981699, -0.031453133, 10.039391
774504661195687, -0.54675996, 4.26401, 8.689535, 0.016160011, 0.12840557, 9.693915
774504670835896, -0.7465607, 4.837091, 8.99462, -0.23480797, -0.19300628, 10.235508
774504680476104, -0.64247286, 3.8560338, 8.715857, 0.40470576, 0.2063911, 9.54157
774504690116312, -0.64845496, 5.1385865, 9.090333, -0.48572397, -0.19021058, 10.449288
774504699756521, -0.7070791, 3.6981075, 8.756535, 0.5754678, 0.22016215, 9.511742
774504709396729, -0.55752766, 5.1014977, 8.907282, -0.5625863, -0.14491487, 10.263444
774504719036989, -0.7848458, 3.9074793, 8.816355, 0.4733281, 0.08032012, 9.663436
774504728677250, -0.6149554, 4.8191447, 8.79123, -0.3623495, -0.111079454, 10.037152
774504738317458, -0.8566305, 4.339384, 8.904889, 0.18524599, -0.11830425, 9.940464
774504747957666, -0.5814559, 4.3405805, 8.609376, -0.0497725, 0.050915956, 9.658935
774504757597875, -0.73459655, 4.8215375, 8.896515, -0.2629087, -0.19185376, 10.140459
774504767238083, -0.57906306, 3.9302113, 8.606983, 0.2727766, 0.22033954, 9.473072
774504776878343, -0.61854464, 5.1158547, 8.961121, -0.5287807, -0.19138479, 10.321821
774504786518604, -0.6412765, 3.7005002, 8.721839, 0.5295205, 0.28522015, 9.477007
774504796158812, -0.5371887, 5.117051, 9.0029955, -0.54395676, -0.11228132, 10.354624
774504805799021, -0.70348984, 3.8177485, 8.920443, 0.5330641, 0.23665118, 9.711038
774504815439229, -0.50488555, 4.807181, 8.973084, -0.32571936, 0.033503294, 10.186901
774504825079437, -0.7896315, 4.223332, 9.105886, 0.32220507, 0.039723635, 10.063391
774504834719646, -0.54317075, 4.3561335, 8.793623, -0.01858759, 0.12818718, 9.827614
774504844359906, -0.78723866, 4.7282176, 9.086744, -0.10334611, -0.15209651, 10.27185
774504854000166, -0.6556334, 3.938586, 8.7673025, 0.36662102, 0.17580748, 9.625102
774504863640375, -0.7465607, 5.1014977, 9.147761, -0.40972376, -0.23220754, 10.490109
774504873280583, -0.7609176, 3.735196, 8.849854, 0.6160104, 0.16429245, 9.614787
774504882920791, -0.6771688, 5.1649075, 9.029316, -0.528317, -0.21534204, 10.408547
774504892561000, -0.8327023, 3.8536408, 8.860622, 0.54500747, 0.055536985, 9.682689
774504902201260, -0.6197411, 4.955536, 8.815159, -0.46562266, -0.1383431, 10.119906
774504911841521, -0.85064846, 4.2592244, 8.886943, 0.23418617, -0.0837512, 9.888401
774504921481729, -0.57427746, 4.465007, 8.627322, -0.14580894, 0.025895596, 9.730101
774504931121937, -0.77647096, 4.6672006, 8.904889, -0.109990835, -0.15774941, 10.081951
774504940762146, -0.59700924, 3.9960139, 8.646464, 0.2496903, 0.20794559, 9.538361
774504950402406, -0.6580262, 5.029713, 9.016156, -0.4057076, -0.17088032, 10.335779
774504960042666, -0.6628119, 3.7088752, 8.693125, 0.5215261, 0.28387547, 9.455841
774504969682875, -0.5910272, 5.1493545, 8.967103, -0.553993, -0.1800623, 10.340926
774504979323083, -0.74416786, 3.8009987, 8.758927, 0.51062655, 0.19880795, 9.561378
774504988963291, -0.5180461, 4.930411, 8.822337, -0.460541, -0.052965164, 10.109205
774504998603500, -0.7429714, 4.1611185, 8.9312105, 0.29199195, 0.08951688, 9.876244
774505008243760, -0.4941179, 4.5427737, 8.754142, -0.1910069, 0.1106081, 9.872551
774505017884021, -0.7728817, 4.688736, 9.083155, -0.060777187, -0.10684419, 10.250375
774505027524229, -0.62931234, 4.0833516, 8.756535, 0.24851704, 0.16270804, 9.677731
774505037164437, -0.75613195, 5.0679984, 9.103494, -0.3733127, -0.22086549, 10.437519
774505046804646, -0.7178468, 3.7878382, 8.750552, 0.5328691, 0.18515682, 9.545521
774505056444906, -0.6652047, 5.188836, 8.980264, -0.561785, -0.20356393, 10.375675
774505066085166, -0.79441714, 3.7878382, 8.804391, 0.576982, 0.13167834, 9.599266
774505075725375, -0.6041877, 4.9770713, 8.831908, -0.4600668, -0.10659766, 10.144745
774505085365583, -0.82672024, 4.0845485, 8.914461, 0.39015698, 0.023175001, 9.832693
774505095005843, -0.57188463, 4.5595236, 8.715857, -0.17527127, 0.03629327, 9.851418
774505104646104, -0.79800636, 4.5678983, 8.919247, -0.013622522, -0.119885445, 10.05191
774505114286312, -0.61016977, 4.0881376, 8.633304, 0.1914084, 0.15243745, 9.56866
774505123926521, -0.721436, 5.0165524, 9.004191, -0.3771429, -0.19151068, 10.323898
774505133566729, -0.6735796, 3.7854455, 8.691928, 0.49049115, 0.22032309, 9.489141
774505143206989, -0.6257231, 5.194818, 9.048459, -0.55587935, -0.16034031, 10.4363575
774505152847250, -0.7513463, 3.798606, 8.823533, 0.5627587, 0.18005061, 9.617667
774505162487458, -0.56470615, 5.0536413, 8.933603, -0.5126822, -0.07286453, 10.266417
774505172127666, -0.8135597, 4.068995, 8.939586, 0.40507698, 0.043457747, 9.847276
774505181767927, -0.56829536, 4.621737, 8.772088, -0.21458149, 0.03614974, 9.929028
774505191408187, -0.80757767, 4.516453, 8.992228, 0.05447507, -0.09167838, 10.094519
774505201048396, -0.5814559, 4.130012, 8.659625, 0.15834689, 0.16344619, 9.608976
774505210688604, -0.6963114, 4.930411, 9.019745, -0.3227334, -0.11551237, 10.297189
774505220328864, -0.6472585, 3.7770705, 8.750552, 0.5131972, 0.2298491, 9.53631
774505229969125, -0.6448657, 5.1756754, 9.038888, -0.53928685, -0.14340448, 10.420824
774505239609333, -0.77647096, 3.7423747, 8.809176, 0.6107676, 0.12618768, 9.582323
774505249249593, -0.60658056, 5.058427, 8.895318, -0.52645755, -0.108263254, 10.236866
774505258889854, -0.83030945, 4.031906, 8.900104, 0.42842126, 0.012635469, 9.796621
774505268530062, -0.5838487, 4.7162533, 8.793623, -0.27999425, -0.01066184, 9.991658
774505278170271, -0.82313097, 4.486542, 9.007781, 0.088453054, -0.09731889, 10.096011
774505287810531, -0.61016977, 4.2041893, 8.705089, 0.11470032, 0.12026954, 9.684961
774505297450791, -0.7513463, 4.924429, 9.0747795, -0.27724504, -0.17425013, 10.346927
774505307091000, -0.62931234, 3.8416767, 8.723035, 0.41858268, 0.24485755, 9.539952
774505316731208, -0.6520442, 5.150551, 9.042477, -0.5203631, -0.17750835, 10.41237
774505326371468, -0.7477571, 3.6981075, 8.785249, 0.61747193, 0.20722032, 9.538949
774505336011729, -0.59940207, 5.0656056, 8.915657, -0.51366067, -0.12804079, 10.258086
774505345651937, -0.81236327, 3.9637108, 8.971889, 0.4917066, 0.07751012, 9.829441
774505355292198, -0.5886344, 4.723432, 8.889337, -0.26226234, 0.008052111, 10.080115
774505364932458, -0.8446664, 4.402794, 9.035298, 0.16360211, -0.08492589, 10.084676
774505374572666, -0.5982057, 4.2771707, 8.750552, 0.06311679, 0.113221884, 9.757429
774505384212927, -0.7788638, 4.9112687, 9.017352, -0.2914691, -0.19481254, 10.291595
774505393853187, -0.70229346, 3.906283, 8.650054, 0.3695054, 0.12265515, 9.50916
774505403493396, -0.7322037, 5.188836, 8.967103, -0.55555534, -0.2539053, 10.368027
774505413133656, -0.7429714, 3.7555351, 8.6548395, 0.51404023, 0.12782907, 9.4489
774505422773916, -0.5778667, 5.1421757, 8.839087, -0.63693905, -0.13171053, 10.221659
774505432414125, -0.7465607, 3.9026937, 8.803194, 0.4542172, 0.12254763, 9.646931
774505442054385, -0.5288138, 4.7629137, 8.866604, -0.3322494, 0.05241847, 10.07316
774505451694646, -0.75613195, 4.338187, 9.055637, 0.18444109, 0.022444725, 10.067853
774505461334854, -0.5491528, 4.261617, 8.766106, 0.05486417, 0.16935563, 9.760935
774505470975114, -0.7573284, 4.7653065, 9.11785, -0.15103245, -0.103609085, 10.314231
774505480615375, -0.6197411, 3.830909, 8.800801, 0.45864105, 0.23806441, 9.604532
774505490255635, -0.6855437, 5.087141, 9.140582, -0.44841242, -0.12866187, 10.4728985
774505499895896, -0.7298109, 3.676572, 8.872586, 0.6449828, 0.21638942, 9.607798
774505509536104, -0.6113662, 5.1122656, 9.000603, -0.54279375, -0.10893679, 10.354391
774505519176364, -0.8279166, 3.8787656, 8.974281, 0.5492518, 0.08438182, 9.795877
774505528816625, -0.63529444, 4.867001, 8.914461, -0.36383963, -0.0822947, 10.169551
774505538456833, -0.9092726, 4.31067, 9.001799, 0.23113728, -0.12657142, 10.018562
774505548097093, -0.6652047, 4.392026, 8.758927, -0.02532053, 0.014033318, 9.820915
774505557737354, -0.85184485, 4.802395, 9.031709, -0.19003654, -0.22585988, 10.260277
774505567377614, -0.6879365, 3.9565322, 8.691928, 0.32176566, 0.11598003, 9.568701
774505577017875, -0.721436, 5.0883374, 9.069994, -0.46758223, -0.18693852, 10.41263
774505586658083, -0.7262217, 3.7076788, 8.76132, 0.5708747, 0.17464077, 9.5225315
774505596298343, -0.60658056, 5.1349974, 8.927621, -0.6080749, -0.1206007, 10.298265
774505605938604, -0.7728817, 3.8129628, 8.830712, 0.52662635, 0.11772108, 9.634642
774505615578864, -0.51445687, 4.861019, 8.811569, -0.45605302, 0.026703238, 10.066241
774505625219125, -0.7716853, 4.2161536, 8.919247, 0.23205185, 0.016282082, 9.892942
774505634859333, -0.5563313, 4.430311, 8.737391, -0.103431225, 0.101911545, 9.81112
774505644499593, -0.77766734, 4.723432, 9.035298, -0.14742756, -0.12764049, 10.223217
774505654139854, -0.62452674, 3.9373896, 8.719446, 0.32225037, 0.19938123, 9.580095
774505663780114, -0.7178468, 5.0679984, 9.12503, -0.43114352, -0.16471052, 10.452419
774505673420375, -0.7046863, 3.723232, 8.810373, 0.5649414, 0.2092545, 9.57177
774505683060635, -0.6436693, 5.1206403, 9.041281, -0.53231525, -0.12560844, 10.396196
774505692700896, -0.8315059, 3.7567315, 8.878569, 0.60879326, 0.087572336, 9.656868
774505702341156, -0.63529444, 4.8789654, 8.9013, -0.40160465, -0.08565116, 10.162305
774505711981416, -0.8769695, 4.1347976, 9.001799, 0.3536539, -0.034095764, 9.938398
774505721621677, -0.6041877, 4.432704, 8.800801, -0.08290911, 0.06746364, 9.87201
774505731261937, -0.802792, 4.6289153, 9.038888, -0.0765636, -0.121908665, 10.185877
774505740902198, -0.60059845, 4.052245, 8.725428, 0.20576906, 0.17506957, 9.635429
774505750542458, -0.73100734, 5.1050873, 9.075976, -0.48622394, -0.21487832, 10.425308
774505760182718, -0.7322037, 3.8297126, 8.7780695, 0.46480632, 0.15319753, 9.59259
774505769822979, -0.6448657, 5.239085, 9.017352, -0.6560552, -0.18982744, 10.426413
774505779463239, -0.76331043, 3.8117664, 8.851051, 0.51538706, 0.13794208, 9.652391
774505789103500, -0.5946164, 4.912465, 8.920443, -0.4409337, -0.05247307, 10.191321
774505798743760, -0.87338024, 4.042674, 8.980264, 0.41790342, 1.5211105E-4, 9.878083
774505808384021, -0.58983076, 4.4781675, 8.76491, -0.1338203, 0.05928874, 9.859215
774505818024281, -0.81236327, 4.5248275, 9.001799, 0.0010101795, -0.10111022, 10.107233
774505827664541, -0.613759, 4.004389, 8.68475, 0.23011422, 0.18479729, 9.578602
774505837304802, -0.7082755, 4.9722853, 9.062816, -0.38702273, -0.14312577, 10.353242
774505846945062, -0.71425754, 3.7615173, 8.841479, 0.5301392, 0.21688116, 9.61784
774505856585323, -0.6771688, 5.21755, 9.156136, -0.57475066, -0.20006347, 10.542572
774505866225583, -0.8350951, 3.8057845, 8.938389, 0.57680464, 0.12281418, 9.73285
774505875865843, -0.6628119, 5.0440702, 9.030513, -0.4771607, -0.15342832, 10.352821
774505885506156, -0.87936234, 4.1084766, 9.064013, 0.38557076, 8.802414E-4, 9.983013
774505895146416, -0.62093747, 4.5894337, 8.882157, -0.1795907, 0.013613939, 10.015425
774505904786677, -0.84107715, 4.476971, 9.107083, 0.08554149, -0.08636546, 10.182085
774505914426937, -0.6161518, 4.0235314, 8.752945, 0.23808074, 0.18651628, 9.648369
774505924067198, -0.72502524, 4.8658047, 8.995817, -0.3203745, -0.14256191, 10.247123
774505933707458, -0.68195444, 3.694518, 8.699107, 0.5194802, 0.23693275, 9.458488
774505943347718, -0.64965135, 5.1266227, 8.95155, -0.581851, -0.16616178, 10.318352
774505952988031, -0.7537391, 3.7268212, 8.7015, 0.5265763, 0.15493059, 9.480091
774505962628291, -0.5910272, 5.066802, 8.841479, -0.59690046, -0.121684074, 10.189331
774505972268552, -0.8243274, 4.0307097, 8.925228, 0.3876152, 0.037326097, 9.820092
774505981908812, -0.5587241, 4.6707897, 8.82114, -0.29154968, 0.034163952, 9.992737
774505991549073, -0.8255238, 4.4805603, 9.071191, 0.06853151, -0.08385944, 10.150453
774506001189385, -0.61016977, 4.1515474, 8.656036, 0.089898586, 0.12745047, 9.618228
774506010829646, -0.77647096, 4.871787, 8.979067, -0.31657887, -0.1922071, 10.238344
774506020469906, -0.74536425, 3.7423747, 8.678768, 0.49387598, 0.14589453, 9.466613
774506030110166, -0.7405786, 5.1026945, 8.993423, -0.51336575, -0.2303555, 10.351377
774506039750427, -0.7728817, 3.696911, 8.792427, 0.58449435, 0.1688621, 9.549929
774506049390739, -0.58265233, 5.0799623, 8.963513, -0.57633734, -0.0828979, 10.302962
774506059031000, -0.7908279, 4.0067816, 8.987442, 0.40429163, 0.08973408, 9.863178
774506068671260, -0.52283174, 4.772485, 8.916854, -0.37694502, 0.05475545, 10.120037
774506078311573, -0.8135597, 4.4231324, 9.116654, 0.11321783, -0.043290615, 10.164875
774506087951833, -0.58983076, 4.197011, 8.799605, 0.08627343, 0.16142023, 9.765366
774506097592093, -0.8315059, 4.8263235, 9.164511, -0.2041111, -0.18432641, 10.387368
774506107232406, -0.73818576, 3.7328033, 8.825927, 0.5412407, 0.18359661, 9.594222
774506116872666, -0.73459655, 5.003392, 9.186047, -0.37985444, -0.14450526, 10.478162
774506126512927, -0.7968099, 3.5796626, 8.902496, 0.72233605, 0.19805002, 9.599081
774506136153239, -0.6329016, 4.9866424, 9.032906, -0.46764445, -0.08094573, 10.326436
774506145793500, -0.83389866, 3.8608193, 8.95155, 0.5118263, 0.06335139, 9.77065
774506155433760, -0.61016977, 4.7377887, 8.9312105, -0.322006, -0.0013905764, 10.123329
774506165074073, -0.8913264, 4.402794, 9.144172, 0.14616227, -0.115115404, 10.18628
774506174714385, -0.62093747, 4.3465624, 8.85823, -0.01598525, 0.085516095, 9.886295
774506184354646, -0.8350951, 4.898108, 9.18126, -0.27819562, -0.20752215, 10.433788
774506193994906, -0.721436, 3.9050865, 8.815159, 0.37760878, 0.111062765, 9.660344
774506203635218, -0.74895346, 5.0919266, 9.109476, -0.4942894, -0.21101475, 10.449034
774506213275479, -0.78843504, 3.6382868, 8.784052, 0.62466526, 0.123450875, 9.519079
774506222915739, -0.6113662, 5.0105705, 8.950353, -0.54399276, -0.09847736, 10.26074
774506232556052, -0.7848458, 3.7555351, 8.855837, 0.55091524, 0.113610506, 9.634806
774506242196364, -0.5276174, 4.7246284, 8.816355, -0.38594198, 0.034768462, 10.008919
774506251836625, -0.7513463, 4.2759743, 8.96471, 0.13978314, -0.003176093, 9.959667
774506261476885, -0.52522457, 4.3262234, 8.658429, -0.1029098, 0.12531054, 9.691965
774506271117198, -0.7716853, 4.7509494, 9.02812, -0.23596358, -0.1553917, 10.227127
774506280757510, -0.57547385, 3.9349968, 8.650054, 0.2404697, 0.18229663, 9.515657
774506290397771, -0.64008003, 5.10748, 9.139386, -0.5513089, -0.114450455, 10.474128
774506300038031, -0.7932207, 3.621537, 8.819944, 0.64809704, 0.08792758, 9.545072
774506309678343, -0.72263247, 5.022535, 9.068798, -0.49057484, -0.18756354, 10.378599
774506319318656, -0.802792, 3.802195, 9.006584, 0.5624473, 0.0560956, 9.792867
774506328958968, -0.5515456, 4.7916274, 8.924032, -0.4011402, 0.0035350323, 10.13614
774506338599229, -0.8135597, 4.125226, 9.047262, 0.30158615, -0.036121607, 9.971964
774506348239489, -0.55513483, 4.3357944, 8.822337, -0.059299946, 0.101622105, 9.845156
774506357879802, -0.76689965, 4.6911287, 9.062816, -0.19732952, -0.14698792, 10.230783
774506367520114, -0.64008003, 3.8991046, 8.760123, 0.3211701, 0.13344216, 9.6037245
774506377160427, -0.7178468, 5.0416775, 9.176475, -0.46241546, -0.17895746, 10.483111
774506386800687, -0.67477596, 4.066602, 8.941978, 0.26424575, 0.09504175, 9.842394
774506396440948, -0.6867401, 4.4458647, 8.995817, -0.03306818, -0.014725447, 10.057872
774506406081260, -0.67477596, 4.325027, 8.958728, 0.047785044, 0.023783326, 9.970816
774506415721573, -0.70229346, 4.3465624, 8.986245, 0.052350283, 7.195473E-4, 10.006783
774506425361885, -0.6687939, 4.341777, 8.88814, 0.008557081, 0.016781688, 9.914484
774506435002198, -0.654437, 4.3262234, 8.857033, 0.006263256, 0.028686047, 9.878799
774506444642458, -0.64845496, 4.3728833, 8.831908, -0.044722557, 0.0148922205, 9.876385
774506454282718, -0.65324056, 4.3944187, 8.895318, -0.036476135, 0.017967343, 9.94297
774506463923031, -0.6628119, 4.4207397, 8.944371, -0.036051273, 0.009389877, 9.999133
774506473563343, -0.6987042, 4.406383, 8.98146, 0.0029172897, -0.012614846, 10.0285015
774506483203656, -0.73579293, 4.4195433, 8.98146, 0.0053083897, -0.04966235, 10.036826
774506492843968, -0.7680961, 4.4171505, 8.932407, -0.001383543, -0.08942449, 9.994053
774506502484281, -0.76689965, 4.4051867, 8.904889, -0.002632141, -0.08769405, 9.964094
774506512124541, -0.7286145, 4.368098, 8.868998, 0.00735116, -0.0430876, 9.913042
774506521764802, -0.6687939, 4.3609195, 8.865408, -0.006367445, 0.014742017, 9.902532
774506531405114, -0.6687939, 4.3501515, 8.930014, 0.0296278, 0.03208506, 9.955617
774506541045427, -0.654437, 4.3537407, 8.944371, 0.02722001, 0.047242522, 9.969061
774506550685739, -0.62931234, 4.3525443, 8.928818, 0.014027119, 0.06811285, 9.952871
774506560326052, -0.61734825, 4.3812585, 8.922835, -0.01715684, 0.069535375, 9.959338
774506569966364, -0.634098, 4.4039903, 8.955139, -0.019050598, 0.050023675, 9.999444
774506579606677, -0.6472585, 4.3992043, 8.992228, 0.0031087399, 0.046505213, 10.0314455
774506589246989, -0.71306115, 4.409972, 9.006584, 0.022394657, -0.016528606, 10.053562
774506598887302, -0.74177504, 4.412365, 9.004191, 0.029327393, -0.04476905, 10.054442
774506608527562, -0.76689965, 4.3932223, 8.973084, 0.04309249, -0.067738056, 10.019897
774506618167823, -0.7298109, 4.4004006, 8.896515, -0.005551338, -0.04952824, 9.951967
774506627808135, -0.73579293, 4.4171505, 8.873783, -0.026195765, -0.062938094, 9.939416
774506637448448, -0.74536425, 4.426722, 8.855837, -0.0384171, -0.07595587, 9.928245
774506647088760, -0.7609176, 4.4147577, 8.8701935, -0.017215014, -0.084521174, 9.9369
774506656729073, -0.73459655, 4.432704, 8.849854, -0.04921508, -0.06586027, 9.924801
774506666369385, -0.6963114, 4.429115, 8.857033, -0.054920197, -0.025223374, 9.926997
774506676009698, -0.67836523, 4.409972, 8.898908, -0.026552439, 0.0066199303, 9.954791
774506685650010, -0.6759724, 4.398008, 8.974281, 0.013718843, 0.027612329, 10.016797
774506695290323, -0.65084773, 4.3968115, 8.986245, 0.011494875, 0.054154277, 10.025224
774506704930635, -0.6305088, 4.3728833, 8.956335, 0.014625311, 0.0739423, 9.986486
774506714570948, -0.66041905, 4.3669014, 8.999406, 0.047342777, 0.055427313, 10.024468
774506724211260, -0.6795616, 4.3537407, 8.995817, 0.06453872, 0.039135456, 10.016782
774506733851573, -0.6831509, 4.3561335, 8.995817, 0.06422162, 0.035074234, 10.018083
774506743491885, -0.66759753, 4.3465624, 9.012567, 0.075713396, 0.054446697, 10.027759
774506753132198, -0.6520442, 4.3704906, 8.956335, 0.02703929, 0.053473353, 9.986927
774506762772510, -0.68075806, 4.421936, 8.939586, -0.01518178, 0.0095306635, 9.996641
774506772412823, -0.7298109, 4.436293, 8.913264, -0.022643566, -0.046615362, 9.982831
774506782053135, -0.75254273, 4.456632, 8.8701935, -0.04567504, -0.081276655, 9.954875
774506791693448, -0.75493556, 4.4542394, 8.825927, -0.06060171, -0.09171486, 9.914388
774506801333760, -0.7609176, 4.4662037, 8.834301, -0.060296297, -0.09721744, 9.927626
774506810974073, -0.7692925, 4.4638104, 8.82473, -0.057825565, -0.10523951, 9.918612
774506820614385, -0.7286145, 4.4434714, 8.849854, -0.044389248, -0.05571735, 9.929258
774506830254698, -0.6723832, 4.418347, 8.873783, -0.02902317, 0.009874105, 9.935642
774506839895010, -0.64965135, 4.401597, 8.903693, -0.0070393085, 0.04273355, 9.953391
774506849535323, -0.63529444, 4.3836513, 8.928818, 0.014582157, 0.06554055, 9.9669075
774506859175635, -0.63529444, 4.3764725, 8.938389, 0.025864601, 0.07030809, 9.972275
774506868815948, -0.6580262, 4.388437, 8.9108715, 0.012954712, 0.041700482, 9.954552
774506878456260, -0.66400826, 4.412365, 8.904889, -0.0071964264, 0.03030777, 9.960217
774506888096573, -0.6759724, 4.4339004, 8.886943, -0.028555632, 0.010637879, 9.95456
774506897736885, -0.68075806, 4.4279184, 8.8905325, -0.019462585, 0.0067386627, 9.955454
774506907377198, -0.67836523, 4.4434714, 8.9108715, -0.025720835, 0.007609725, 9.980356
774506917017510, -0.68195444, 4.442275, 8.913264, -0.022597075, 0.0049874783, 9.982214
774506926657823, -0.6939186, 4.4315076, 8.886943, -0.019805908, -0.011209011, 9.95475
774506936298135, -0.70348984, 4.4195433, 8.880961, -0.008392811, -0.018892884, 9.944763
774506945938448, -0.7106683, 4.4171505, 8.882157, -0.0033824444, -0.02479732, 9.945268
774506955578760, -0.6963114, 4.401597, 8.873783, 0.0020503998, -0.009171486, 9.929895
774506965219073, -0.6963114, 4.409972, 8.891729, 0.002086401, -0.008261085, 9.949648
774506974859385, -0.6879365, 4.4398823, 8.922835, -0.014070988, -0.0026615858, 9.990125
774506984499698, -0.6963114, 4.4374895, 8.922835, -0.00937891, -0.010018468, 9.989643
774506994140010, -0.67836523, 4.4350967, 8.927621, -0.010877609, 0.00893569, 9.991621
774507003780323, -0.6879365, 4.4279184, 8.8701935, -0.022852182, -0.009024501, 9.937778
774507013420635, -0.6795616, 4.438686, 8.896515, -0.02431941, 0.0017014742, 9.965497
774507023061000, -0.6795616, 4.432704, 8.891729, -0.020307064, 0.0026016235, 9.95857
774507032701364, -0.6975078, 4.432704, 8.916854, -0.0038011074, -0.008538961, 9.982264
774507042341677, -0.7046863, 4.430311, 8.879765, -0.014482498, -0.02205205, 9.948556
774507051981989, -0.7046863, 4.4231324, 8.872586, -0.010489941, -0.021590948, 9.938959
774507061622302, -0.70348984, 4.4279184, 8.927621, 0.0073771477, -0.01111877, 9.990175
774507071262614, -0.701097, 4.421936, 8.922835, 0.0098257065, -0.008276463, 9.98308
774507080902927, -0.6963114, 4.401597, 8.930014, 0.029092073, 0.0030696392, 9.98014
774507090543239, -0.6687939, 4.389633, 8.879765, 0.010203838, 0.02199459, 9.928031
774507100183552, -0.695115, 4.401597, 8.876176, 0.008203745, -0.006280184, 9.93195
774507109823864, -0.721436, 4.3992043, 8.878569, 0.019517899, -0.029671192, 9.934849
774507119464177, -0.69152576, 4.432704, 8.865408, -0.024967909, -0.013300061, 9.935883
774507129104489, -0.6735796, 4.4446683, 8.914461, -0.021631002, 0.009671807, 9.983778
774507138744802, -0.65682983, 4.429115, 8.921639, -0.009948969, 0.031101823, 9.982136
774507148385166, -0.654437, 4.415954, 8.953942, 0.013525009, 0.040558577, 10.00501
774507158025531, -0.6903293, 4.4207397, 8.943174, 0.016006231, 0.0028572083, 9.999979
774507167665843, -0.65084773, 4.4207397, 8.867801, -0.025385141, 0.026063919, 9.929909
774507177306156, -0.6735796, 4.426722, 8.864211, -0.024058342, 0.0016492605, 9.9309225
774507186946468, -0.70348984, 4.4255257, 8.894122, -0.001843214, -0.020555973, 9.959173
774507196586781, -0.71306115, 4.4315076, 8.908479, 3.7407875E-4, -0.029806614, 9.975313
774507206227093, -0.71425754, 4.4135613, 8.930014, 0.025459528, -0.021820545, 9.986678
774507215867406, -0.74177504, 4.4231324, 8.957532, 0.035742044, -0.044942856, 10.017405
774507225507718, -0.74895346, 4.429115, 8.8701935, -0.0016825199, -0.06991196, 9.942506
774507235148083, -0.7477571, 4.449454, 8.853444, -0.026867867, -0.077468395, 9.936474
774507244788448, -0.7298109, 4.4542394, 8.756535, -0.074265, -0.07754433, 9.850799
774507254428760, -0.73579293, 4.4638104, 8.769695, -0.075562954, -0.08279276, 9.867216
774507264069073, -0.7118647, 4.4614177, 8.792427, -0.07084346, -0.054028034, 9.884829
774507273709385, -0.6664011, 4.453043, 8.82473, -0.06443238, 8.893013E-5, 9.9068365
774507283349698, -0.61016977, 4.4207397, 8.853444, -0.04129219, 0.06795049, 9.914252
774507292990010, -0.6305088, 4.4004006, 8.9013, 0.0015594959, 0.06366992, 9.949379
774507302630323, -0.6233303, 4.3788652, 8.937193, 0.033773422, 0.08265972, 9.971382
774507312270687, -0.63529444, 4.35733, 8.950353, 0.060045004, 0.0778836, 9.974421
774507321911052, -0.654437, 4.354937, 8.989835, 0.08161664, 0.065874934, 10.00999
774507331551364, -0.6795616, 4.3633122, 9.014959, 0.09200573, 0.044755578, 10.037893
774507341191677, -0.7118647, 4.375276, 9.032906, 0.09565115, 0.012524366, 10.061504
774507350831989, -0.6987042, 4.3968115, 8.98146, 0.049550533, 0.008263469, 10.024181
