timestamp_acc,device_acc_x,device_acc_y,device_acc_z,earth_acc_x,earth_acc_y,earth_acc_z
774855174200029, 2.9431717, 0.07776674, 9.623933, 0.0077381134, -0.0076402426, 10.064208
774855183840758, 2.926422, 0.05503492, 9.61795, 0.0095694065, 0.01818204, 10.053434
774855193481383, 2.9623144, 0.05383851, 9.580862, -0.028863907, -0.0056962967, 10.028473
774855203122008, 2.9826534, 0.04426722, 9.572487, -0.050613403, -0.01069963, 10.026366
774855212762633, 2.9336007, 0.033499517, 9.590433, -0.012487888, 0.027115345, 10.02909
774855222403362, 2.9312077, 0.021535404, 9.577272, -0.020913124, 0.0352484, 10.015733
774855232043987, 2.932404, 0.041874398, 9.578469, -0.010130644, 0.017996073, 10.017355
774855241684612, 2.955136, 0.021535404, 9.601201, -0.034512997, 0.02562058, 10.045621
774855251325237, 2.9455647, 0.043070808, 9.603594, -0.014995813, 0.0127847195, 10.04524
774855260965966, 2.949154, 0.06460621, 9.608379, -0.006293535, -0.0061653852, 10.050998
774855270606591, 2.9359934, 0.09092726, 9.615558, 0.019601107, -0.018663764, 10.05418
774855280247216, 2.973082, 0.10767702, 9.601201, -0.00588727, -0.053251505, 10.051418
774855289887945, 2.9575288, 0.13399807, 9.62154, 0.025894642, -0.06379259, 10.06649
774855299528570, 2.928815, 0.14596218, 9.595219, 0.048496008, -0.061696053, 10.033011
774855309169195, 2.9240294, 0.14356937, 9.615558, 0.05503249, -0.052706003, 10.051055
774855318809820, 2.940779, 0.1363909, 9.616755, 0.037839174, -0.055133224, 10.057052
774855328450550, 2.9383862, 0.10767702, 9.637094, 0.029920101, -0.02646637, 10.075598
774855338091175, 2.9108686, 0.08733802, 9.637094, 0.043509245, 0.0043689013, 10.067393
774855347731800, 2.9419754, 0.069391854, 9.610772, 0.0023458004, -7.996559E-4, 10.051217
774855357372425, 2.9467611, 0.040677983, 9.565309, -0.027274609, 0.013324857, 10.00896
774855367013154, 2.9563324, 0.02751746, 9.560523, -0.040610075, 0.018208861, 10.007112
774855376653779, 2.9503503, 0.013160525, 9.538987, -0.048868656, 0.0296309, 9.984675
774855386294404, 2.9240294, 0.008374879, 9.547362, -0.027338266, 0.04726839, 9.984948
774855395935133, 2.900101, 0.0, 9.585648, -0.002546072, 0.070568204, 10.014503
774855405575758, 2.922833, 0.03708875, 9.640682, 0.012627602, 0.033810616, 10.074016
774855415216383, 2.9276185, 0.025124637, 9.695718, 0.014764547, 0.04763043, 10.127984
774855424857008, 2.9479575, 0.034695927, 9.686146, 0.0010824203, 0.027643323, 10.124837
774855434497737, 2.9826534, 0.0526421, 9.622736, -0.034878254, -0.011141658, 10.074458
774855444138362, 2.9910283, 0.06460621, 9.584451, -0.044150352, -0.028764606, 10.040386
774855453778987, 2.9635108, 0.09451649, 9.565309, -0.0104961395, -0.04284823, 10.014215
774855463419612, 2.9467611, 0.1052842, 9.531809, 8.7857246E-4, -0.046640277, 9.97736
774855473060341, 2.9252257, 0.106480606, 9.55813, 0.026089191, -0.033441067, 9.996217
774855482700966, 2.934797, 0.09810573, 9.603594, 0.025018215, -0.023876786, 10.042434
774855492341591, 2.9635108, 0.08853444, 9.644272, 0.008204222, -0.02681613, 10.08967
774855501982320, 2.9503503, 0.078963146, 9.632308, 0.010734081, -0.013884783, 10.074316
774855511622945, 2.9359934, 0.062213387, 9.601201, 0.0054154396, 0.002452135, 10.040268
774855521263570, 2.9120653, 0.06819545, 9.584451, 0.023316383, 0.010195255, 10.017277
774855530904195, 2.932404, 0.050249275, 9.564112, -0.008060217, 0.012220979, 10.0036745
774855540544925, 2.9192436, 0.059820566, 9.549755, 0.004374504, 0.00895071, 9.986153
774855550185550, 2.9742785, 0.059820566, 9.559326, -0.037637472, -0.019703507, 10.0114355
774855559826175, 2.981457, 0.0634098, 9.571291, -0.038396597, -0.024640441, 10.025001
774855569466800, 2.9503503, 0.062213387, 9.600004, -0.0074050426, -0.004193306, 10.043329
774855579107529, 2.9312077, 0.08015956, 9.623933, 0.022842169, -0.009044766, 10.060709
774855588748154, 2.9539394, 0.096909314, 9.640682, 0.016824484, -0.032258987, 10.083481
774855598388779, 2.9431717, 0.08135597, 9.637094, 0.014195204, -0.013412476, 10.07681
774855608029508, 2.9455647, 0.086141616, 9.609575, 0.008136511, -0.02323687, 10.051224
774855617670133, 2.9180472, 0.06819545, 9.632308, 0.024463177, 0.011153817, 10.064804
774855627310758, 2.9431717, 0.051445685, 9.609575, -0.011914015, 0.0110138655, 10.0503025
774855636951383, 2.9312077, 0.040677983, 9.594023, -0.012068033, 0.023700356, 10.03186
774855646592112, 2.9156544, 0.059820566, 9.5868435, 0.009514332, 0.015235662, 10.020572
774855656232737, 2.934797, 0.051445685, 9.579665, -0.0110731125, 0.010504723, 10.019253
774855665873362, 2.9312077, 0.05742774, 9.598808, 4.4226646E-4, 0.009461999, 10.03655
774855675513987, 2.9096723, 0.058624156, 9.594023, 0.018579483, 0.01606071, 10.0256815
774855685154716, 2.914458, 0.043070808, 9.57488, 0.0013990402, 0.0222255, 10.008684
774855694795341, 2.922833, 0.07537391, 9.5868435, 0.014971018, -0.008476257, 10.02277
774855704435966, 2.9108686, 0.09571291, 9.6071825, 0.039989233, -0.016599655, 10.038846
774855714076695, 2.9252257, 0.08973085, 9.609575, 0.025821209, -0.018350124, 10.045295
774855723717320, 2.9395826, 0.10887343, 9.600004, 0.02054739, -0.042630315, 10.040462
774855733357945, 2.940779, 0.11844472, 9.582058, 0.020351171, -0.052910805, 10.023714
774855742998570, 2.955136, 0.11964113, 9.562916, 0.004807949, -0.06360972, 10.009618
774855752639300, 2.981457, 0.11006984, 9.571291, -0.01946807, -0.06746733, 10.025262
774855762279925, 2.9790642, 0.08255238, 9.584451, -0.030119658, -0.040600896, 10.036972
774855771920550, 2.932404, 0.07058827, 9.626326, 0.012105703, 2.5367737E-4, 10.063298
774855781561279, 2.914458, 0.076570325, 9.643075, 0.03510809, 0.005439639, 10.074102
774855791201904, 2.9336007, 0.061016977, 9.629914, 0.008053541, 0.006782651, 10.0670185
774855800842529, 2.9252257, 0.05623133, 9.614362, 0.008752584, 0.012217164, 10.049668
774855810483154, 2.9455647, 0.051445685, 9.578469, -0.018202782, -1.2993813E-5, 10.021266
774855820123883, 2.9515467, 0.039481573, 9.522238, -0.042872906, -0.0023360252, 9.96917
774855829764508, 2.9312077, 0.022731815, 9.519845, -0.03498745, 0.019330978, 9.96084
774855839405133, 2.9300113, 0.022731815, 9.562916, -0.023634434, 0.026945114, 10.0016775
774855849045758, 2.9575288, 0.025124637, 9.608379, -0.032815456, 0.015000105, 10.053223
774855858686487, 2.9455647, 0.0011964113, 9.682557, -0.017974854, 0.050937533, 10.120542
774855868327112, 2.9300113, -0.0071784677, 9.704092, -0.005040407, 0.0688318, 10.136551
774855877967737, 2.922833, 0.01794617, 9.647861, -3.4713745E-4, 0.043836355, 10.080801
774855887608362, 2.8953154, 0.02751746, 9.592826, 0.014034271, 0.041130543, 10.020181
774855897249091, 2.8929226, 0.039481573, 9.540184, 0.0079603195, 0.027536392, 9.969195
774855906889716, 2.906083, 0.0741775, 9.522238, 0.011931181, -0.011409283, 9.956082
774855916530341, 2.9240294, 0.09571291, 9.529416, 0.010448217, -0.03923726, 9.968312
774855926170966, 2.9312077, 0.09332009, 9.5760765, 0.01480937, -0.035244226, 10.015012
774855935811695, 2.952743, 0.10887343, 9.6275215, 0.019230843, -0.052601933, 10.07058
774855945452320, 2.9455647, 0.09332009, 9.653843, 0.022574663, -0.031700134, 10.093575
774855955092945, 2.9575288, 0.086141616, 9.62154, 0.0010392666, -0.03617716, 10.066137
774855964733570, 2.9575288, 0.09810573, 9.613165, 0.006140232, -0.04749143, 10.058192
774855974374300, 2.9503503, 0.096909314, 9.597611, 0.007763386, -0.04033971, 10.041236
774855984014925, 2.9252257, 0.08015956, 9.592826, 0.017386436, -0.012065768, 10.02922
774855993655550, 2.914458, 0.07537391, 9.5964155, 0.02464819, -0.0019366741, 10.029472
774856003296175, 2.9072795, 0.058624156, 9.622736, 0.028580904, 0.01914382, 10.052442
774856012936904, 2.9383862, 0.039481573, 9.631111, -0.0047750473, 0.019635797, 10.069437
774856022577529, 2.928815, 0.039481573, 9.671789, 0.017487526, 0.028609753, 10.105538
774856032218154, 2.9443684, 0.029910283, 9.623933, -0.011574745, 0.020105243, 10.0642805
774856041858779, 2.9419754, 0.031106694, 9.57488, -0.018013239, 0.011514425, 10.016689
774856051499508, 2.9371898, 0.02751746, 9.5353985, -0.0227077, 0.0105468035, 9.977527
774856061140133, 2.9599216, 0.019142581, 9.482756, -0.055702925, -0.0026735067, 9.933834
774856070780758, 2.9431717, 0.01794617, 9.479167, -0.04208851, 0.006001711, 9.925492
774856080421383, 2.9359934, 0.01794617, 9.471989, -0.036683083, 0.0062440634, 9.91653
774856090062008, 2.9539394, 0.021535404, 9.552148, -0.029675722, 0.006398797, 9.998442
774856099702737, 2.9982069, 0.029910283, 9.594023, -0.051581383, -0.016412139, 10.051492
774856109343362, 2.9886355, 0.02632105, 9.6275215, -0.03865075, -0.0018649101, 10.08069
774856118983987, 2.9623144, 0.062213387, 9.633504, 0.0033364296, -0.01797998, 10.07885
774856128624612, 2.9575288, 0.0526421, 9.616755, -0.0036129951, -0.00860095, 10.061394
774856138265341, 2.9336007, 0.07776674, 9.631111, 0.031093359, -0.013608217, 10.068229
774856147905966, 2.928815, 0.09930214, 9.578469, 0.03266239, -0.036733627, 10.01661
774856157546591, 2.934797, 0.086141616, 9.5557375, 0.014693499, -0.032862544, 9.996564
774856167187216, 2.922833, 0.07537391, 9.598808, 0.029280901, -0.010306239, 10.034182
774856176827945, 2.9336007, 0.08255238, 9.619147, 0.030657291, -0.02014327, 10.056813
774856186468570, 2.9216363, 0.033499517, 9.62154, 0.01513958, 0.026084065, 10.055358
774856196109195, 2.9240294, 0.031106694, 9.585648, 0.004016876, 0.019793153, 10.021734
774856205749820, 2.934797, 0.039481573, 9.547362, -0.009223461, 7.352829E-4, 9.988326
774856215390445, 3.054438, 0.3361916, 9.579665, 0.07087588, -0.30315268, 10.055629
774856225031175, 2.784049, -0.49651068, 9.390633, -0.23554254, 0.4965272, 9.791802
774856234671800, 3.1142588, 0.74536425, 9.701699, 0.2779112, -0.64726174, 10.192202
774856244312425, 2.8342984, -0.6329016, 9.339187, -0.37180948, 0.58165216, 9.755903
774856253953050, 2.9850461, 0.63888365, 9.827323, 0.35339558, -0.4713571, 10.273651
774856263593779, 2.989832, -0.34097722, 9.48156, -0.3042698, 0.2755761, 9.939157
774856273234404, 2.8354948, 0.24646074, 9.780663, 0.22531724, -0.067463756, 10.183655
774856282875029, 3.0843484, 0.09092726, 9.62154, -0.09412694, -0.10951793, 10.103199
774856292515654, 2.656033, -0.26799613, 9.58804, 0.017234564, 0.41543555, 9.944042
774856302156279, 3.1453655, 0.52163535, 9.710074, 0.12531686, -0.48205233, 10.207981
774856311797008, 2.664408, -0.62811595, 9.403793, -0.24289608, 0.6658519, 9.768448
774856321437633, 3.1310084, 0.7728817, 9.804591, 0.30336666, -0.66945326, 10.295163
774856331078258, 2.792424, -0.6795616, 9.328419, -0.38025188, 0.6341815, 9.73304
774856340718883, 2.9671001, 0.65922266, 9.789038, 0.35444307, -0.48220754, 10.232564
774856350359508, 2.9072795, -0.424726, 9.365508, -0.30768728, 0.35906363, 9.8041725
774856360000237, 2.7936203, 0.29072794, 9.708878, 0.26523495, -0.111038685, 10.102894
774856369640862, 3.0640094, 0.08733802, 9.503095, -0.11155009, -0.123312, 9.983835
774856379281487, 2.6189444, -0.20338993, 9.552148, 0.08721614, 0.36550415, 9.899624
774856388922112, 3.1513474, 0.54675996, 9.676575, 0.106194735, -0.51705205, 10.17779
774856398562737, 2.6955147, -0.56350976, 9.445667, -0.20472741, 0.6043949, 9.818186
774856408203466, 3.1549366, 0.82672024, 9.862019, 0.3125968, -0.72080946, 10.357568
774856417844091, 2.7900312, -0.6305088, 9.409775, -0.34380507, 0.6097339, 9.809979
774856427484716, 3.0161529, 0.7692925, 9.827323, 0.3787619, -0.58903325, 10.284691
774856437125341, 2.9084759, -0.37567315, 9.376275, -0.29360604, 0.3202634, 9.814588
774856446765966, 2.804388, 0.39361933, 9.747163, 0.30756283, -0.18413174, 10.143876
774856456406591, 3.0759735, 0.06580263, 9.5353985, -0.13656569, -0.10727835, 10.017965
774856466047320, 2.7086751, -0.12203395, 9.600004, 0.053901672, 0.26031888, 9.972022
774856475687945, 3.1956146, 0.47736812, 9.647861, 0.03504038, -0.4946314, 10.162439
774856485328570, 2.678765, -0.5910272, 9.410972, -0.2370894, 0.62092066, 9.780068
774856494969195, 3.1441689, 0.6843473, 9.814162, 0.24108386, -0.6075728, 10.307506
774856504609820, 2.7553353, -0.7848458, 9.35474, -0.43181634, 0.72877055, 9.746868
774856514250550, 3.0065815, 0.63529444, 9.830912, 0.32819724, -0.48815846, 10.283187
774856523891175, 2.8809586, -0.573081, 9.378669, -0.39505124, 0.4772061, 9.808362
774856533531800, 2.841477, 0.3397808, 9.820144, 0.27075958, -0.15154767, 10.223912
774856543172425, 3.028117, -0.08973085, 9.552148, -0.18854666, 0.040687323, 10.019175
774856552813050, 2.6955147, -0.09571291, 9.640682, 0.0893476, 0.24804199, 10.007407
774856562453675, 3.1465619, 0.44626144, 9.623933, 0.04762125, -0.44874382, 10.12504
774856572094404, 2.6608188, -0.48454657, 9.393025, -0.17324686, 0.5370152, 9.758344
774856581735029, 3.1609187, 0.80757767, 9.765109, 0.2775557, -0.7175586, 10.266891
774856591375654, 2.7338, -0.62452674, 9.347562, -0.3183961, 0.61517984, 9.734515
774856601016279, 3.0317063, 0.78723866, 9.809377, 0.37796617, -0.63329864, 10.27088
774856610656904, 2.8510482, -0.5096712, 9.373882, -0.34011793, 0.45802236, 9.794512
774856620297529, 2.8606195, 0.48933223, 9.792626, 0.33170867, -0.28547454, 10.204244
774856629938258, 3.0352955, -0.10289137, 9.505488, -0.2192514, 0.04307878, 9.976373
774856639578883, 2.6943183, -0.0526421, 9.620343, 0.10258174, 0.21123528, 9.987892
774856649219508, 3.1106694, 0.35294133, 9.620343, 0.012889624, -0.35115886, 10.110805
774856658860133, 2.6596224, -0.4941179, 9.468399, -0.15909791, 0.5594249, 9.830059
774856668500758, 3.150151, 0.715454, 9.796216, 0.22737217, -0.6485299, 10.292177
774856678141383, 2.6572297, -0.67477596, 9.383454, -0.27428627, 0.69216335, 9.747363
774856687782008, 2.9910283, 0.7860422, 9.840483, 0.40322363, -0.5994538, 10.28967
774856697422633, 2.8223343, -0.5312066, 9.355937, -0.32580256, 0.4784974, 9.769657
774856707063362, 2.8630123, 0.49651068, 9.8321085, 0.3397634, -0.30628932, 10.242288
774856716703987, 2.9994032, -0.17347965, 9.519845, -0.2305007, 0.11991739, 9.979302
774856726344612, 2.7481568, 0.041874398, 9.670592, 0.12719321, 0.10463357, 10.052231
774856735985237, 3.1058838, 0.34097722, 9.59163, -0.0037448406, -0.35051668, 10.08163
774856745625862, 2.6416762, -0.39361933, 9.42174, -0.10361433, 0.4812609, 9.780604
774856755266487, 3.141776, 0.72741807, 9.767502, 0.23686409, -0.65837955, 10.26228
774856764907112, 2.6691937, -0.6759724, 9.373882, -0.2981403, 0.6795623, 9.74169
774856774547841, 3.0329027, 0.77647096, 9.87159, 0.37779856, -0.62424624, 10.330407
774856784188466, 2.7984061, -0.6221339, 9.38824, -0.3618319, 0.5737804, 9.792705
774856793829091, 2.9084759, 0.5168497, 9.83809, 0.30770922, -0.34507918, 10.261608
774856803469716, 2.9778678, -0.26679972, 9.486345, -0.27199435, 0.195822, 9.94069
774856813110341, 2.7385855, 0.059820566, 9.656236, 0.14439154, 0.08423686, 10.035855
774856822750966, 3.1022944, 0.21774685, 9.5760765, -0.0696969, -0.2625028, 10.064748
774856832391591, 2.6536403, -0.4331009, 9.49472, -0.10905385, 0.50706935, 9.854445
774856842032320, 3.1525438, 0.6412765, 9.747163, 0.1641531, -0.61553276, 10.244567
774856851672945, 2.6620152, -0.6520442, 9.355937, -0.26299453, 0.6660113, 9.722773
774856861313570, 3.0735807, 0.7956135, 9.818948, 0.3295889, -0.6898718, 10.291116
774856870954195, 2.8175488, -0.6089734, 9.361918, -0.3613639, 0.5360086, 9.774304
774856880594820, 2.9467611, 0.6376872, 9.839287, 0.3385079, -0.47685325, 10.274222
774856890235445, 2.9982069, -0.25004998, 9.449257, -0.28603125, 0.15871799, 9.911267
774856899876070, 2.7505496, 0.19381863, 9.71845, 0.21467805, -0.02839601, 10.099726
774856909516695, 3.0735807, 0.23569304, 9.647861, -0.037299633, -0.2450546, 10.125325
774856919157320, 2.6285157, -0.3062813, 9.559326, 7.80344E-4, 0.43197787, 9.90944
774856928798050, 3.1190443, 0.6376872, 9.74477, 0.1716361, -0.5838939, 10.233535
774856938438675, 2.605784, -0.6472585, 9.355937, -0.23036003, 0.6843428, 9.706761
774856948079300, 3.0412776, 0.7956135, 9.80818, 0.34547138, -0.65625966, 10.272913
774856957719925, 2.7302105, -0.6628119, 9.327223, -0.35426164, 0.6241083, 9.714703
774856967360550, 2.8977082, 0.58504516, 9.814162, 0.35314882, -0.4200709, 10.235018
774856977001175, 2.900101, -0.40438703, 9.433703, -0.3043654, 0.325683, 9.867632
774856986641800, 2.7493532, 0.17467605, 9.720842, 0.21482062, -0.019988418, 10.10137
774856996282425, 3.083152, 0.1052842, 9.529416, -0.13059807, -0.17682624, 10.013908
774857005923050, 2.635694, -0.33020952, 9.480363, -0.04604292, 0.41966224, 9.8364105
774857015563675, 3.1645079, 0.55513483, 9.736395, 0.10584116, -0.5527444, 10.237331
774857025204404, 2.672783, -0.6161518, 9.497113, -0.22510481, 0.6326201, 9.862438
774857034845029, 3.1118658, 0.81595254, 9.919446, 0.31729007, -0.7131562, 10.3988285
774857044485654, 2.7565317, -0.634098, 9.365508, -0.33592296, 0.5967536, 9.759321
774857054126279, 2.9455647, 0.6987042, 9.809377, 0.36313522, -0.54903567, 10.24476
774857063766904, 2.9072795, -0.38285163, 9.377472, -0.30737448, 0.3009671, 9.815844
774857073407529, 2.772085, 0.27756742, 9.694521, 0.2394588, -0.11250985, 10.083413
774857083048154, 3.0699914, 0.07058827, 9.503095, -0.15549564, -0.14152539, 9.984711
774857092688779, 2.656033, -0.22372891, 9.550952, 0.024166822, 0.33021414, 9.91038
774857102329404, 3.1489546, 0.48933223, 9.724431, 0.07683492, -0.5043788, 10.220548
774857111970029, 2.664408, -0.6221339, 9.506684, -0.22579384, 0.6364744, 9.869504
774857121610654, 3.117848, 0.76570326, 9.930214, 0.30722356, -0.67371523, 10.410002
774857131251383, 2.7158537, -0.7286145, 9.395418, -0.34509468, 0.6759664, 9.777761
774857140892008, 2.940779, 0.62093747, 9.85484, 0.3472433, -0.46686256, 10.28655
774857150532633, 2.8725836, -0.49172506, 9.379865, -0.3383665, 0.3971343, 9.808323
774857160173258, 2.786442, 0.30149564, 9.730413, 0.25921893, -0.13680947, 10.121768
774857169813883, 3.0400813, -0.015553347, 9.504292, -0.1739335, -0.053607106, 9.977013
774857179454508, 2.6536403, -0.2009971, 9.538987, 0.03573394, 0.3136456, 9.898224
774857189095133, 3.1477582, 0.45822555, 9.646665, 0.045493603, -0.47823596, 10.146218
774857198735758, 2.6512475, -0.5778667, 9.432507, -0.20087337, 0.6094729, 9.794049
774857208376383, 3.1262228, 0.76689965, 9.83809, 0.29411483, -0.6831006, 10.324547
774857218017008, 2.7146573, -0.67836523, 9.376275, -0.32722974, 0.6326767, 9.75893
774857227657633, 3.001796, 0.7322037, 9.857233, 0.37966943, -0.59406793, 10.306061
774857237298258, 2.8725836, -0.45583272, 9.399008, -0.3197043, 0.3802247, 9.826194
774857246938883, 2.7816563, 0.42592242, 9.784252, 0.34983253, -0.2347796, 10.172174
774857256579612, 2.9850461, -0.011964113, 9.4839525, -0.13718963, -0.032197475, 9.941639
774857266220237, 2.6620152, -0.086141616, 9.602397, 0.105659485, 0.22592962, 9.961806
774857275860862, 3.1310084, 0.43788654, 9.664611, 0.04776907, -0.44951367, 10.158509
774857285501487, 2.6404798, -0.5395815, 9.462418, -0.15555835, 0.58841234, 9.819889
774857295142112, 3.1274192, 0.7405786, 9.829716, 0.2572143, -0.6764864, 10.316431
774857304782737, 2.7062824, -0.70348984, 9.382257, -0.32020092, 0.6854888, 9.760798
774857314423362, 3.028117, 0.74536425, 9.839287, 0.33174825, -0.61766267, 10.297818
774857324063987, 2.8606195, -0.52163535, 9.383454, -0.3446772, 0.44746304, 9.807419
774857333704612, 2.7984061, 0.41994038, 9.777073, 0.32396328, -0.23554158, 10.170455
774857343345237, 3.0149565, -0.13160525, 9.500702, -0.22219968, 0.052705765, 9.965865
774857352985862, 2.7445676, -0.06460621, 9.620343, 0.060514927, 0.16490269, 10.002849
774857362626487, 3.1477582, 0.3505485, 9.631111, -0.017415524, -0.39668286, 10.130742
774857372267112, 2.6225336, -0.51445687, 9.439685, -0.13875103, 0.56947565, 9.793184
774857381907737, 3.1465619, 0.6891329, 9.812965, 0.21683145, -0.63722837, 10.306163
774857391548362, 2.678765, -0.7369894, 9.425328, -0.31052876, 0.7172864, 9.795142
774857401189091, 3.0269206, 0.7070791, 9.911072, 0.3560071, -0.57749, 10.364906
774857410829716, 2.8426733, -0.6197411, 9.399008, -0.38882804, 0.5190067, 9.817618
774857420470341, 2.879762, 0.44745782, 9.826126, 0.28909564, -0.29349482, 10.240912
774857430110966, 3.0029924, -0.24765715, 9.491131, -0.27535176, 0.14756727, 9.953054
774857439751591, 2.693122, -0.058624156, 9.640682, 0.1129508, 0.18787897, 10.007549
774857449392216, 3.0915267, 0.27996024, 9.598808, -0.019420385, -0.31347978, 10.083373
774857459032841, 2.6775684, -0.44626144, 9.474381, -0.13610554, 0.48784375, 9.842556
774857468673466, 3.1884363, 0.71665037, 9.806984, 0.19894886, -0.69169855, 10.312063
774857478314091, 2.6679974, -0.63170516, 9.41456, -0.24790335, 0.6378551, 9.781764
774857487954716, 3.0257242, 0.8853444, 9.82493, 0.4320624, -0.7469498, 10.282193
774857497595341, 2.7816563, -0.506082, 9.3104725, -0.2908728, 0.443228, 9.715842
774857507235966, 2.8905299, 0.64965135, 9.732806, 0.38484025, -0.4825437, 10.154989
774857516876591, 2.9240294, -0.15314065, 9.48156, -0.1654563, 0.11019826, 9.921383
774857526517216, 2.6548367, 0.13040884, 9.723235, 0.25762546, 0.07848239, 10.076406
774857536157841, 3.0939198, 0.2644069, 9.634701, -0.027727127, -0.29121625, 10.118504
774857545798466, 2.617748, -0.46779683, 9.556933, -0.107331514, 0.55405617, 9.903935
774857555439091, 3.12383, 0.5706882, 9.821341, 0.1676197, -0.53061867, 10.306943
774857565079716, 2.6656044, -0.7645068, 9.44806, -0.3288324, 0.7507396, 9.812443
774857574720445, 3.0903304, 0.7046863, 9.864411, 0.27402377, -0.60723674, 10.339706
774857584360966, 2.8402805, -0.71306115, 9.323633, -0.46010208, 0.58814, 9.744136
774857594001695, 2.928815, 0.5288138, 9.806984, 0.30304873, -0.39797568, 10.236421
774857603642320, 2.9336007, -0.33140594, 9.468399, -0.27750254, 0.25307333, 9.9108715
774857613282945, 2.6955147, 0.13160525, 9.706485, 0.23323298, 0.03935063, 10.071895
774857622923570, 3.0400813, 0.19142582, 9.543773, -0.043947935, -0.22873986, 10.015392
774857632564195, 2.5962126, -0.34217364, 9.475577, -0.021728039, 0.44392276, 9.820715
774857642204820, 3.097509, 0.6269195, 9.71486, 0.19974256, -0.58487606, 10.197262
774857651845445, 2.6249263, -0.6149554, 9.413364, -0.21633053, 0.6422311, 9.768345
774857661486070, 3.0592237, 0.80518484, 9.882358, 0.3674389, -0.6803373, 10.347477
774857671126695, 2.7972097, -0.63888365, 9.397811, -0.36576605, 0.55366755, 9.803625
774857680767320, 2.9682965, 0.66041905, 9.868001, 0.343004, -0.51797915, 10.307203
774857690407945, 2.9467611, -0.2943172, 9.452846, -0.27293372, 0.20263135, 9.900038
774857700048570, 2.7684958, 0.27517462, 9.738789, 0.2501676, -0.11622679, 10.124634
774857709689195, 3.1262228, 0.18903299, 9.560523, -0.120304346, -0.26884007, 10.056137
774857719329820, 2.6751757, -0.26679972, 9.5353985, -0.023152351, 0.34735465, 9.901029
774857728970445, 3.1310084, 0.59342, 9.720842, 0.15106034, -0.5823755, 10.212158
774857738611070, 2.6141586, -0.67477596, 9.440882, -0.2297411, 0.69541883, 9.791987
774857748251695, 3.0759735, 0.7298109, 9.921839, 0.32460654, -0.63563514, 10.388827
774857757892320, 2.751746, -0.75493556, 9.403793, -0.39660978, 0.68298364, 9.795386
774857767532945, 2.9539394, 0.56829536, 9.834501, 0.3137244, -0.44939613, 10.269652
774857777173570, 2.87378, -0.47018966, 9.406186, -0.3235166, 0.37113047, 9.834309
774857786814300, 2.7302105, 0.2009971, 9.743574, 0.24859667, -0.03507328, 10.11774
774857796454925, 3.0317063, 0.02751746, 9.580862, -0.12008643, -0.0909667, 10.047996
774857806095550, 2.6596224, -0.24885355, 9.600004, 0.021373749, 0.34777987, 9.958625
774857815736175, 3.117848, 0.52163535, 9.710074, 0.12556076, -0.51643765, 10.197852
774857825376800, 2.7122645, -0.5886344, 9.450453, -0.24923086, 0.56975424, 9.829912
774857835017425, 3.083152, 0.7501499, 9.87159, 0.32411003, -0.64993453, 10.343567
774857844658050, 2.7469604, -0.6939186, 9.328419, -0.36451054, 0.6284241, 9.722085
774857854298675, 3.001796, 0.7082755, 9.809377, 0.3495443, -0.5810492, 10.260433
774857863939300, 2.9096723, -0.42831525, 9.389436, -0.31604242, 0.32182264, 9.828922
774857873579925, 2.824727, 0.34217364, 9.814162, 0.2933495, -0.1912247, 10.212314
774857883220550, 3.0640094, 0.023928227, 9.517452, -0.15037847, -0.10639739, 9.996834
774857892861175, 2.6404798, -0.15672988, 9.590433, 0.0974257, 0.28881466, 9.943851
774857902501800, 3.1334012, 0.4977071, 9.58804, 0.082167864, -0.5179012, 10.085707
774857912142425, 2.5818555, -0.59342, 9.416953, -0.14535546, 0.64819616, 9.75991
774857921783050, 3.141776, 0.7429714, 9.773484, 0.24573112, -0.6890323, 10.2668705
774857931423675, 2.725425, -0.721436, 9.363115, -0.3418765, 0.6684119, 9.749496
774857941064300, 2.9742785, 0.68075806, 9.8524475, 0.3632145, -0.54741275, 10.293149
774857950704925, 2.8558338, -0.5587241, 9.476774, -0.3341465, 0.47630608, 9.896398
774857960345550, 2.821138, 0.33020952, 9.893126, 0.291332, -0.16944695, 10.287283
774857969986175, 3.0664022, -0.09930214, 9.6275215, -0.20979786, 0.005177021, 10.102367
774857979626904, 2.713461, -0.16869399, 9.674182, 0.035214424, 0.26617503, 10.045349
774857989267529, 3.1489546, 0.36370903, 9.669396, -0.0058784485, -0.40984392, 10.167469
774857998908154, 2.6273193, -0.5778667, 9.457631, -0.18324399, 0.616372, 9.811728
774858008548779, 3.1070802, 0.7070791, 9.818948, 0.27100515, -0.6475742, 10.299169
774858018189404, 2.6715865, -0.7298109, 9.385847, -0.31627655, 0.6948568, 9.75609
774858027830029, 2.9862428, 0.71665037, 9.856036, 0.38004208, -0.56915414, 10.300695
774858037470654, 2.879762, -0.5599205, 9.37149, -0.38579702, 0.43445516, 9.802742
774858047111279, 2.861816, 0.40797627, 9.793823, 0.28233016, -0.2631849, 10.204236
774858056751904, 3.010171, -0.12921242, 9.479167, -0.21813846, 0.03807962, 9.944014
774858066392529, 2.6668007, -0.05623133, 9.6071825, 0.1210897, 0.18822789, 9.968093
774858076033154, 3.07717, 0.37088752, 9.5760765, 0.0384562, -0.39371228, 10.057401
774858085673779, 2.6452653, -0.46301118, 9.454042, -0.13655376, 0.50806, 9.813969
774858095314404, 3.1633115, 0.7477571, 9.823733, 0.24004626, -0.71586347, 10.319948
774858104955029, 2.7278178, -0.68075806, 9.433703, -0.3234396, 0.6306708, 9.81819
774858114595654, 3.0329027, 0.79441714, 9.927821, 0.38794863, -0.6685324, 10.38238
774858124236279, 2.824727, -0.56111693, 9.432507, -0.33428836, 0.4783213, 9.845079
774858133876904, 2.8689942, 0.49172506, 9.851251, 0.3243723, -0.3384775, 10.261592
774858143517529, 3.0317063, -0.15314065, 9.507881, -0.24997115, 0.04833913, 9.977457
774858153158258, 2.6943183, 0.014356935, 9.661021, 0.1420734, 0.123641014, 10.027932
774858162798883, 3.0879376, 0.2943172, 9.590433, -0.032500267, -0.33404887, 10.074013
774858172439508, 2.6141586, -0.4977071, 9.430114, -0.13419628, 0.5498185, 9.782038
774858182080133, 3.0927234, 0.62811595, 9.817751, 0.20827842, -0.585732, 10.293749
774858191720758, 2.6225336, -0.7716853, 9.47797, -0.28542686, 0.7697045, 9.830117
774858201361383, 3.0113673, 0.6867401, 9.967302, 0.34820664, -0.57116115, 10.413433
774858211002008, 2.7792635, -0.67836523, 9.454042, -0.36346173, 0.5950352, 9.8527775
774858220642633, 2.845066, 0.4881358, 9.847662, 0.33365238, -0.32529128, 10.251438
774858230283258, 2.9120653, -0.2620141, 9.500702, -0.23190475, 0.19262779, 9.935857
774858239923883, 2.656033, 0.08853444, 9.670592, 0.21402264, 0.07672107, 10.026516
774858249564508, 3.0675986, 0.29910284, 9.573684, -0.00701952, -0.3393134, 10.051858
774858259205133, 2.617748, -0.34456646, 9.485149, -0.0578866, 0.4242264, 9.836467
774858268845758, 3.1345978, 0.70348984, 9.783055, 0.21642518, -0.6664016, 10.273162
774858278486383, 2.6703901, -0.66161543, 9.461221, -0.2932489, 0.64934, 9.827298
774858288127008, 3.0317063, 0.78723866, 9.877572, 0.36477196, -0.6751069, 10.333858
774858297767633, 2.7529426, -0.6233303, 9.394221, -0.34813023, 0.5603194, 9.786904
774858307408362, 2.8474588, 0.6053841, 9.850055, 0.395849, -0.4323393, 10.254487
774858317048987, 2.8881369, -0.29671, 9.550952, -0.2207346, 0.23686886, 9.977237
774858326689612, 2.7003005, 0.15433706, 9.829716, 0.2507217, 0.023115754, 10.191926
774858336330237, 3.0352955, 0.19142582, 9.661021, -0.02668333, -0.21975195, 10.126006
774858345970862, 2.672783, -0.33379877, 9.529416, -0.08762765, 0.38775122, 9.8947935
774858355611487, 3.1872396, 0.6436693, 9.757931, 0.1480012, -0.6474438, 10.263964
774858365252112, 2.6859434, -0.695115, 9.412168, -0.33207583, 0.6589564, 9.78478
774858374892737, 3.0867412, 0.7537391, 9.84168, 0.33071625, -0.6718643, 10.314747
774858384533362, 2.7696922, -0.69272214, 9.365508, -0.4083619, 0.59059656, 9.764643
774858394173987, 2.9036903, 0.57188463, 9.775877, 0.3585124, -0.43287563, 10.198544
774858403814612, 2.926422, -0.38644084, 9.406186, -0.32543206, 0.25929368, 9.849695
774858413455237, 2.7469604, 0.13878371, 9.683753, 0.20001316, -0.007681608, 10.064794
774858423095862, 3.0843484, 0.058624156, 9.49472, -0.15210843, -0.17088771, 9.980681
774858432736591, 2.6488547, -0.39481574, 9.469596, -0.08668971, 0.4384278, 9.830861
774858442377216, 3.1465619, 0.47856453, 9.667004, 0.084489584, -0.5123452, 10.164213
774858452017841, 2.672783, -0.7501499, 9.424132, -0.32781005, 0.6988949, 9.794123
774858461658466, 3.1022944, 0.67836523, 9.908679, 0.28217244, -0.61080825, 10.383335
774858471299091, 2.7972097, -0.7704889, 9.493524, -0.4167621, 0.6693279, 9.895621
774858480939716, 2.955136, 0.6149554, 9.946963, 0.37028432, -0.48331535, 10.377011
774858490580341, 2.9168508, -0.3924229, 9.529416, -0.28201604, 0.3060838, 9.964868
774858500220966, 2.7505496, 0.31944183, 9.799805, 0.32050598, -0.1393311, 10.1775055
774858509861591, 3.0197423, 0.18185452, 9.467203, -0.04664564, -0.22799206, 9.93608
774858519502216, 2.6464617, -0.1052842, 9.497113, 0.082432985, 0.21894598, 9.856738
774858529142841, 3.1465619, 0.6448657, 9.595219, 0.15363646, -0.6488601, 10.09655
774858538783466, 2.5579274, -0.5395815, 9.434899, -0.1105628, 0.61795515, 9.770229
774858548424195, 3.1334012, 0.8039884, 9.8727865, 0.3195554, -0.72255325, 10.359166
774858558064820, 2.751746, -0.7106683, 9.407382, -0.35997343, 0.64295596, 9.799644
774858567705445, 2.9587252, 0.62093747, 9.938589, 0.36701298, -0.47181284, 10.371011
774858577346070, 2.8881369, -0.5312066, 9.533006, -0.32743168, 0.43941748, 9.9599905
774858586986695, 2.786442, 0.24047868, 9.853643, 0.26592922, -0.091066, 10.239013
774858596627320, 3.0209386, -0.09092726, 9.603594, -0.15751553, 0.012543917, 10.066697
774858606267945, 2.6608188, -0.2835495, 9.5964155, 0.015817642, 0.37041926, 9.955606
774858615908570, 3.1645079, 0.3900301, 9.622736, 0.013398647, -0.4487959, 10.127272
774858625549195, 2.7122645, -0.6364908, 9.404989, -0.26892066, 0.6027626, 9.786709
774858635189925, 3.1190443, 0.6867401, 9.80818, 0.2781036, -0.6309638, 10.291987
774858644830550, 2.7553353, -0.74416786, 9.407382, -0.36665154, 0.68143827, 9.800291
774858654471175, 3.042474, 0.69152576, 9.806984, 0.35093725, -0.583717, 10.268783
774858664111800, 2.902494, -0.49651068, 9.409775, -0.33413053, 0.40221393, 9.845885
774858673752425, 2.8893332, 0.4103691, 9.798609, 0.30072117, -0.26620686, 10.216071
774858683393050, 3.083152, -0.0023928226, 9.537791, -0.15200186, -0.07933819, 10.022269
774858693033675, 2.7433712, -0.050249275, 9.626326, 0.108068705, 0.17130148, 10.007684
774858702674300, 3.1262228, 0.53359944, 9.644272, 0.14143348, -0.5131469, 10.138375
774858712314925, 2.5962126, -0.46181476, 9.457631, -0.048484325, 0.5742885, 9.801439
774858721955550, 3.1190443, 0.8219346, 9.796216, 0.33660436, -0.7123302, 10.283439
774858731596279, 2.754139, -0.64845496, 9.353543, -0.3006692, 0.6211518, 9.747735
774858741236904, 3.062813, 0.7465607, 9.79143, 0.34022224, -0.6100335, 10.2626705
774858750877529, 2.955136, -0.54317075, 9.361918, -0.41146278, 0.43412828, 9.814053
774858760518154, 2.926422, 0.39960137, 9.820144, 0.25581694, -0.24828279, 10.248501
774858770158779, 3.0783663, -0.18185452, 9.590433, -0.2434485, 0.09479892, 10.070628
774858779799404, 2.7637103, -0.1268196, 9.742377, 0.06814337, 0.25535512, 10.124142
774858789440029, 3.1669009, 0.3182454, 9.675379, -0.003550768, -0.34632385, 10.179565
774858799080654, 2.6572297, -0.5599205, 9.513863, -0.14535785, 0.6249982, 9.873005
774858808721383, 3.121437, 0.6879365, 9.793823, 0.26723766, -0.5979674, 10.281372
774858818362008, 2.6955147, -0.7393822, 9.375079, -0.31017613, 0.7258196, 9.750979
774858828002633, 3.0664022, 0.72023964, 9.750752, 0.315701, -0.6009152, 10.224381
774858837643258, 2.9084759, -0.6161518, 9.317652, -0.42193222, 0.5062586, 9.758236
774858847283883, 2.8989046, 0.44027936, 9.785448, 0.30402017, -0.2899822, 10.206665
774858856924508, 3.0520453, -0.20937198, 9.498309, -0.2521448, 0.11550236, 9.974958
774858866565133, 2.7696922, 0.009571291, 9.705289, 0.13732958, 0.12755716, 10.091025
774858876205758, 3.1645079, 0.32063824, 9.643075, -0.002059698, -0.3579563, 10.147792
774858885846487, 2.6691937, -0.41754755, 9.5353985, -0.070850134, 0.49686503, 9.8980255
774858895487112, 3.1322048, 0.7645068, 9.814162, 0.30874777, -0.67272186, 10.303643
774858905127737, 2.7194428, -0.6364908, 9.408579, -0.26180816, 0.62656665, 9.790849
774858914768362, 3.042474, 0.84825563, 9.785448, 0.41755855, -0.6921252, 10.250745
774858924408987, 2.8402805, -0.55513483, 9.24826, -0.3455801, 0.46928895, 9.672953
774858934049612, 2.8953154, 0.5910272, 9.765109, 0.37232757, -0.41435146, 10.187206
774858943690237, 3.0735807, -0.20697916, 9.52822, -0.266608, 0.105954885, 10.009716
774858953330862, 2.8139594, 0.06699903, 9.772287, 0.14938235, 0.05424118, 10.168343
774858962971591, 3.1800613, 0.2117648, 9.676575, -0.07833624, -0.28718388, 10.183571
774858972612216, 2.684747, -0.48933223, 9.564112, -0.11337185, 0.53816545, 9.930613
774858982252841, 3.1537402, 0.5910272, 9.796216, 0.19706678, -0.5599592, 10.291203
774858991893466, 2.6799614, -0.75254273, 9.425328, -0.28461576, 0.7429222, 9.795529
774859001534091, 3.0843484, 0.6879365, 9.802198, 0.3213246, -0.5904963, 10.277044
774859011174716, 2.7948167, -0.6903293, 9.316455, -0.37517953, 0.5913161, 9.725918
774859020815445, 2.928815, 0.5407779, 9.80818, 0.35506082, -0.38503718, 10.237016
774859030456070, 3.0089746, -0.32662028, 9.460024, -0.29306602, 0.20018828, 9.926062
774859040096695, 2.8199415, 0.09332009, 9.76152, 0.1695683, 0.021872759, 10.159666
774859049737320, 3.117848, 0.14117654, 9.638289, -0.06261039, -0.20339942, 10.128784
774859059377945, 2.713461, -0.41635114, 9.580862, -0.089653015, 0.47287416, 9.954773
774859069018570, 3.1680973, 0.5778667, 9.779466, 0.18670058, -0.55814767, 10.279219
774859078659195, 2.7278178, -0.6903293, 9.456435, -0.27604175, 0.6670869, 9.839743
774859088299925, 3.1477582, 0.7956135, 9.836894, 0.32822943, -0.70637727, 10.329528
774859097940550, 2.833102, -0.61854464, 9.329616, -0.34860587, 0.5311322, 9.749213
774859107581175, 2.9563324, 0.6472585, 9.801002, 0.38114297, -0.48620737, 10.238985
774859117221800, 2.952743, -0.3074777, 9.402596, -0.24800444, 0.224092, 9.854456
774859126862425, 2.7912276, 0.25124636, 9.713663, 0.2710123, -0.0902673, 10.105826
774859136503050, 3.1082766, 0.1902294, 9.529416, -0.05919671, -0.24478531, 10.02217
774859146143779, 2.6859434, -0.27996024, 9.547362, 0.01436758, 0.3745067, 9.914854
774859155784404, 3.176472, 0.57427746, 9.723235, 0.14400291, -0.5624734, 10.228586
774859165425029, 2.7003005, -0.65682983, 9.487542, -0.22728872, 0.66612273, 9.861092
774859175065654, 3.1274192, 0.7322037, 9.906285, 0.30958152, -0.6463944, 10.389306
774859184706279, 2.804388, -0.71665037, 9.401401, -0.3626628, 0.6596253, 9.808052
774859194346904, 3.0041888, 0.63170516, 9.83809, 0.32671285, -0.49928284, 10.288645
774859203987633, 2.8869405, -0.27158538, 9.498309, -0.14715052, 0.25368714, 9.926735
774859213628258, 2.9539394, 0.05383851, 9.646665, 0.01000452, -0.028903723, 10.088899
774859223268883, 2.9072795, -0.043070808, 9.610772, -0.013706446, 0.06976187, 10.040717
774859232909508, 2.9383862, 0.0059820567, 9.640682, -0.0025053024, 0.015202403, 10.078524
774859242550133, 2.9336007, 0.0035892338, 9.577272, -0.014418364, 0.008887053, 10.016481
774859252190862, 2.9575288, 0.03708875, 9.589237, -0.01256156, -0.02974379, 10.034979
774859261831487, 2.9216363, 0.015553347, 9.531809, -0.009305239, -0.0028768778, 9.969528
774859271472112, 2.9503503, 0.05383851, 9.592826, 0.0028717518, -0.04060161, 10.03634
774859281112737, 2.989832, 0.034695927, 9.60479, -0.03637743, -0.04399097, 10.059278
774859290753362, 2.9467611, 0.020338992, 9.629914, -0.0040950775, -0.00475204, 10.070702
774859300393987, 2.9312077, 0.0741775, 9.6071825, 0.030821323, -0.046138763, 10.044518
774859310034716, 2.9312077, 0.047856454, 9.645468, 0.024450064, -0.01807475, 10.081091
774859319675341, 2.9240294, 0.023928227, 9.707682, 0.03253436, 0.015773296, 10.138456
774859329315966, 2.9826534, -0.011964113, 9.707682, -0.034069538, 0.016207576, 10.155492
774859338956591, 2.9874392, -0.025124637, 9.61795, -0.06635094, 0.0100262165, 10.071043
774859348597216, 2.9168508, -0.011964113, 9.5760765, -0.011244535, 0.029333234, 10.010416
774859358237945, 2.902494, -0.021535404, 9.608379, 0.0045747757, 0.049441576, 10.037103
774859367878570, 2.9168508, 0.009571291, 9.632308, 0.01817727, 0.018752933, 10.064234
774859377519195, 2.9503503, 0.031106694, 9.622736, 8.4519386E-4, -0.018318653, 10.064901
774859387159820, 2.9455647, 0.032303106, 9.58804, -0.0021705627, -0.021972775, 10.030326
774859396800445, 2.9515467, 0.041874398, 9.5557375, -0.010330439, -0.037278175, 10.001201
774859406441175, 2.9276185, 0.069391854, 9.549755, 0.021398306, -0.047522902, 9.988538
774859416081800, 2.9419754, 0.07776674, 9.552148, 0.01204443, -0.06109965, 9.995045
774859425722425, 2.9479575, 0.086141616, 9.577272, 0.018132687, -0.06714785, 10.02084
774859435363050, 2.9300113, 0.04426722, 9.613165, 0.012270689, -0.016640663, 10.049848
774859445003779, 2.906083, 0.031106694, 9.661021, 0.035910845, 0.014573932, 10.0886135
774859454644404, 2.922833, 0.023928227, 9.667004, 0.014730692, 0.011200786, 10.099215
774859464285029, 2.9012976, -0.0011964113, 9.693324, 0.02279067, 0.04681039, 10.118071
774859473925654, 2.9084759, -0.0023928226, 9.656236, 0.007386923, 0.037872553, 10.084673
774859483566279, 2.9276185, -0.010767702, 9.661021, -0.011068344, 0.0319916, 10.094812
774859493207008, 2.9156544, -0.014356935, 9.664611, -0.0029258728, 0.041921258, 10.09476
774859502847633, 2.9180472, -0.02871387, 9.665807, -0.009024143, 0.050694585, 10.096584
774859512488258, 2.9072795, -0.021535404, 9.603594, -0.010238647, 0.040013313, 10.033945
774859522128883, 2.8845477, -0.015553347, 9.5665045, 0.0021140575, 0.040992737, 9.991856
774859531769612, 2.9048867, 0.0, 9.571291, -0.0022041798, 0.017881274, 10.002383
774859541410237, 2.9120653, 0.02751746, 9.625129, 0.020151138, -3.3807755E-4, 10.056024
774859551050862, 2.9443684, 0.07537391, 9.615558, 0.019234657, -0.058214545, 10.056351
774859560691487, 2.9300113, 0.08973085, 9.589237, 0.03251791, -0.06590974, 10.027018
774859570332112, 2.9072795, 0.09810573, 9.567701, 0.049913645, -0.062497377, 9.999819
774859579972841, 2.9276185, 0.09451649, 9.578469, 0.032282352, -0.0660584, 10.016066
774859589613466, 2.9276185, 0.09571291, 9.614362, 0.042069435, -0.06106639, 10.0504
774859599254091, 2.9682965, 0.09092726, 9.638289, 0.012559414, -0.07419944, 10.085139
774859608894716, 2.969493, 0.04426722, 9.656236, -0.0102341175, -0.03290093, 10.102551
774859618535445, 2.922833, 0.0023928226, 9.65504, 0.0039844513, 0.02661395, 10.087719
774859628176070, 2.902494, -0.009571291, 9.6682, 0.016843319, 0.049175143, 10.094353
774859637816695, 2.906083, -0.016749758, 9.646665, 0.006790638, 0.04810834, 10.074789
774859647457320, 2.940779, -0.02632105, 9.650253, -0.024083614, 0.037705302, 10.088322
774859657098050, 2.9563324, -0.016749758, 9.629914, -0.033764362, 0.01790762, 10.073428
774859666738675, 2.973082, -0.023928227, 9.650253, -0.046153784, 0.018303156, 10.097758
774859676379300, 2.9467611, -0.01794617, 9.663414, -0.016391993, 0.02978754, 10.10268
774859686019925, 2.9371898, -0.032303106, 9.65145, -0.017102242, 0.046076417, 10.088421
774859695660654, 2.9192436, -0.0047856453, 9.5964155, 0.0011088848, 0.025764108, 10.0305805
774859705301279, 2.9479575, 0.0071784677, 9.549755, -0.023371458, -0.0043148994, 9.994389
774859714941904, 2.9395826, 0.025124637, 9.527023, -0.011893511, -0.018406868, 9.97023
774859724582529, 2.9431717, 0.016749758, 9.538987, -0.015400171, -0.009968042, 9.982708
774859734223258, 2.9635108, 0.01794617, 9.5557375, -0.025865555, -0.018574715, 10.004689
774859743863883, 2.9515467, 0.02871387, 9.5760765, -0.0058751106, -0.018660665, 10.020643
774859753504508, 2.9515467, 0.046660043, 9.603594, 0.0108065605, -0.029030323, 10.046984
774859763145133, 2.9647074, 0.059820566, 9.633504, 0.012384415, -0.04134488, 10.079464
774859772785862, 2.9515467, 0.07178468, 9.646665, 0.03268957, -0.04217136, 10.088214
774859782426487, 2.9443684, 0.08733802, 9.623933, 0.039619684, -0.05345738, 10.064424
774859792067112, 2.934797, 0.07178468, 9.5964155, 0.030462742, -0.037546992, 10.035292
774859801707737, 2.9216363, 0.08255238, 9.582058, 0.04091382, -0.040231824, 10.017748
774859811348466, 2.922833, 0.051445685, 9.615558, 0.0311172, -0.009198546, 10.050051
774859820989091, 2.92044, 0.025124637, 9.60479, 0.01475668, 0.007967353, 10.038989
774859830629716, 2.906083, 0.0059820567, 9.633504, 0.02228117, 0.033752084, 10.062213
774859840270341, 2.92044, -0.019142581, 9.631111, -0.0032880306, 0.044255495, 10.064077
774859849911070, 2.9455647, -0.03708875, 9.632308, -0.03310275, 0.04592395, 10.072531
774859859551695, 2.952743, -0.032303106, 9.594023, -0.045300484, 0.029631257, 10.038031
774859869192320, 2.9563324, -0.02871387, 9.590433, -0.04700041, 0.024128199, 10.035653
774859878832945, 2.928815, -0.033499517, 9.5868435, -0.029120445, 0.042101026, 10.024172
774859888473675, 2.922833, -0.023928227, 9.59163, -0.018268585, 0.037338734, 10.027021
774859898114300, 2.9276185, -0.025124637, 9.610772, -0.01759839, 0.039153457, 10.046724
774859907754925, 2.9371898, 0.0047856453, 9.65504, 7.851124E-4, 0.014752626, 10.091911
774859917395654, 2.955136, 0.015553347, 9.633504, -0.014104366, -0.008406997, 10.076566
774859927036279, 2.9778678, 0.022731815, 9.611969, -0.03648162, -0.030299544, 10.062599
774859936676904, 2.9479575, 0.047856454, 9.611969, 0.0014426708, -0.036075234, 10.053924
774859946317529, 2.9467611, 0.05623133, 9.600004, 0.003452301, -0.04427409, 10.042146
774859955958258, 2.9300113, 0.07298109, 9.609575, 0.026776552, -0.048015714, 10.0464525
774859965598883, 2.9168508, 0.062213387, 9.632308, 0.035945654, -0.02801776, 10.064354
774859975239508, 2.9180472, 0.06819545, 9.638289, 0.038011312, -0.03189218, 10.070444
774859984880133, 2.8833513, 0.096909314, 9.623933, 0.07754755, -0.038737297, 10.046676
774859994520862, 2.9036903, 0.05383851, 9.667004, 0.04735422, -0.0071156025, 10.093712
774860004161487, 2.8701909, 0.034695927, 9.62154, 0.04979539, 0.018937826, 10.04044
774860013802112, 2.8977082, 0.033499517, 9.610772, 0.02379775, 0.0030902624, 10.038137
774860023442841, 2.9168508, -0.008374879, 9.59163, -0.019337416, 0.024324179, 10.025292
774860033083466, 2.9096723, 0.010767702, 9.602397, -4.1246414E-4, 0.013524413, 10.033551
774860042724091, 2.9276185, 0.0047856453, 9.601201, -0.017774105, 0.0065790415, 10.037614
774860052364716, 2.9359934, -0.0011964113, 9.579665, -0.033385277, 0.002523899, 10.019428
774860062005445, 2.922833, 0.0, 9.594023, -0.019200802, 0.009902716, 10.029345
774860071646070, 2.9240294, 0.015553347, 9.6071825, -0.0085635185, -0.0017797947, 10.042315
774860081286695, 2.9216363, 0.020338992, 9.616755, -0.0050418377, -0.0044403076, 10.050785
774860090927425, 2.9336007, 0.015553347, 9.628718, -0.01439476, -0.004617214, 10.065697
774860100568050, 2.9240294, 0.038285162, 9.634701, 0.005148649, -0.017821312, 10.06869
774860110208675, 2.9120653, 0.03708875, 9.632308, 0.01226902, -0.0102773905, 10.062932
774860119849300, 2.8869405, 0.023928227, 9.623933, 0.021735668, 0.013390899, 10.047608
774860129490029, 2.8773692, 0.029910283, 9.610772, 0.02784586, 0.010954738, 10.032258
774860139130654, 2.8917263, 0.031106694, 9.637094, 0.023621082, 0.005174279, 10.061613
774860148771279, 2.8725836, 0.020338992, 9.644272, 0.034764767, 0.025297165, 10.062916
774860158412008, 2.9096723, 0.02632105, 9.637094, 0.008426428, -0.0051600933, 10.066796
774860168052633, 2.9168508, 0.009571291, 9.61795, -0.009684086, 2.0062923E-4, 10.05052
