timestamp_acc,device_acc_x,device_acc_y,device_acc_z,earth_acc_x,earth_acc_y,earth_acc_z
774670350632128, -0.24047868, 3.4169507, 9.445667, 0.020295143, 0.049431145, 10.047446
774670360272649, -0.2656033, 3.414558, 9.408579, 0.007461548, 0.025183626, 10.012513
774670369913066, -0.30508488, 3.3906298, 9.38465, 0.018975735, -0.014535982, 9.983013
774670379553587, -0.35413775, 3.3966117, 9.315259, -0.012858629, -0.059195638, 9.9213295
774670389194108, -0.36490545, 3.385844, 9.309277, -0.0053551197, -0.070631474, 9.912352
774670398834628, -0.3397808, 3.3810585, 9.336794, 0.011211157, -0.04204981, 9.935837
774670408475149, -0.33140594, 3.3559337, 9.317652, 0.028992176, -0.0344327, 9.909023
774670418115670, -0.30867413, 3.377469, 9.296116, 0.0023276806, -0.010865748, 9.895465
774670427756087, -0.27756742, 3.3750763, 9.3200445, 0.015471697, 0.020525392, 9.916186
774670437396608, -0.29671, 3.4049866, 9.296116, -0.022043943, 0.003753977, 9.904508
774670447037128, -0.2955136, 3.4133615, 9.26142, -0.04113722, 0.004973337, 9.874744
774670456677649, -0.28713873, 3.3930225, 9.300901, -0.005759716, 0.0090928, 9.904629
774670466318170, -0.28953153, 3.4313076, 9.300901, -0.04174733, 0.010011995, 9.917793
774670475958691, -0.28115666, 3.4480574, 9.3200445, -0.04978919, 0.01810282, 9.941256
774670485599212, -0.23928227, 3.4420755, 9.349955, -0.030306816, 0.058123134, 9.966068
774670495239733, -0.276371, 3.4360933, 9.346365, -0.028971672, 0.019620944, 9.96175
774670504880149, -0.27038896, 3.4372897, 9.42174, -0.0061893463, 0.024445921, 10.032777
774670514520670, -0.2835495, 3.397808, 9.500702, 0.05689597, 0.009397231, 10.093836
774670524161191, -0.29192436, 3.3930225, 9.492328, 0.056167126, -3.7534162E-4, 10.08459
774670533801712, -0.33499518, 3.4241292, 9.437292, 0.0054633617, -0.04135393, 10.044782
774670543442233, -0.33260235, 3.4169507, 9.363115, -0.012782097, -0.037018806, 9.972591
774670553082753, -0.33499518, 3.4157543, 9.306884, -0.03166914, -0.039514165, 9.919431
774670562723274, -0.30867413, 3.4360933, 9.293723, -0.053156614, -0.009430746, 9.913243
774670572363691, -0.32303107, 3.434897, 9.32483, -0.041594982, -0.020943588, 9.9424925
774670582004212, -0.3385844, 3.4325042, 9.361918, -0.026388407, -0.037128765, 9.97698
774670591644733, -0.29790643, 3.367898, 9.396614, 0.0493145, -0.0026876852, 9.98626
774670601285253, -0.2620141, 3.3786657, 9.391829, 0.04522538, 0.030290972, 9.9843645
774670610925774, -0.25124636, 3.377469, 9.336794, 0.028624535, 0.040861037, 9.9319515
774670620566295, -0.26679972, 3.3834512, 9.32483, 0.01914382, 0.02379398, 9.923228
774670630206816, -0.28594232, 3.4241292, 9.32483, -0.020050764, 0.0074764974, 9.937728
774670639847337, -0.30149564, 3.446861, 9.273384, -0.061540604, -0.0036154706, 9.897657
774670649487753, -0.3278167, 3.426522, 9.190832, -0.07297349, -0.03210186, 9.813948
774670659128274, -0.36131623, 3.4480574, 9.116654, -0.12120986, -0.061287925, 9.752671
774670668768795, -0.3397808, 3.4564323, 9.150154, -0.11611581, -0.03878162, 9.786355
774670678409316, -0.29312077, 3.4576287, 9.235099, -0.084481716, 0.0076422505, 9.865139
774670688049837, -0.25722843, 3.455236, 9.318848, -0.051203012, 0.038365588, 9.941915
774670697690358, -0.23449662, 3.426522, 9.391829, 0.0020079613, 0.059924863, 9.999947
774670707330878, -0.22013968, 3.3918262, 9.457631, 0.057541132, 0.06902739, 10.049461
774670716971295, -0.2117648, 3.3702908, 9.542577, 0.103173494, 0.07152994, 10.1216955
774670726611816, -0.21415763, 3.3702908, 9.556933, 0.105431795, 0.06766674, 10.135285
774670736252337, -0.22253251, 3.3882368, 9.543773, 0.08391285, 0.059759066, 10.129296
774670745892858, -0.23688944, 3.4253256, 9.537791, 0.04472804, 0.045916475, 10.13678
774670755533378, -0.26679972, 3.463611, 9.500702, -0.006267309, 0.017107226, 10.115868
774670765173899, -0.2656033, 3.4923246, 9.445667, -0.05047369, 0.02102971, 10.073952
774670774814420, -0.27996024, 3.4672, 9.404989, -0.041680098, 0.0048992, 10.027557
774670784454837, -0.28115666, 3.4540396, 9.311669, -0.05940509, 0.0044382773, 9.935446
774670794095358, -0.33738798, 3.414558, 9.250652, -0.044739485, -0.04909528, 9.866265
774670803735878, -0.3361916, 3.3954153, 9.224331, -0.03527689, -0.04613681, 9.834978
774670813376399, -0.2955136, 3.339184, 9.235099, 0.024101019, -0.009992516, 9.824656
774670823016920, -0.27876383, 3.3583267, 9.229117, 0.0052878857, 0.010861788, 9.825096
774670832657441, -0.25603202, 3.4049866, 9.262616, -0.02699852, 0.03904624, 9.871843
774670842297962, -0.25124636, 3.4301112, 9.315259, -0.031965733, 0.04482217, 9.929745
774670851938378, -0.28594232, 3.4217365, 9.292527, -0.032833576, 0.008230712, 9.906561
774670861578899, -0.29910284, 3.4337006, 9.26142, -0.05547142, -0.0052476525, 9.881829
774670871219420, -0.31944183, 3.4241292, 9.309277, -0.029984713, -0.026510544, 9.924098
774670880859941, -0.30987054, 3.4241292, 9.35474, -0.012935638, -0.017634436, 9.966511
774670890500462, -0.3481557, 3.4073794, 9.336794, -0.0054240227, -0.05737006, 9.945043
774670900140983, -0.3469593, 3.3822548, 9.269794, -0.006251335, -0.057499506, 9.873487
774670909781399, -0.34097722, 3.3463624, 9.286545, 0.03168583, -0.05160394, 9.876774
774670919421920, -0.36490545, 3.3355947, 9.303294, 0.03901887, -0.07173474, 9.889589
774670929062441, -0.39361933, 3.3367913, 9.268599, 0.023884773, -0.100361496, 9.858265
774670938702962, -0.34217364, 3.3164523, 9.2793665, 0.04741311, -0.04830689, 9.85992
774670948343483, -0.3290131, 3.3164523, 9.286545, 0.04521799, -0.035573762, 9.866291
774670957984003, -0.3278167, 3.339184, 9.2997055, 0.026352882, -0.035044193, 9.886364
774670967624524, -0.29910284, 3.3463624, 9.357133, 0.041535616, -0.005841608, 9.94192
774670977264941, -0.2835495, 3.3702908, 9.431311, 0.04407978, 0.009041797, 10.019325
774670986905462, -0.24526432, 3.3870404, 9.444471, 0.033773184, 0.045386985, 10.036286
774670996545983, -0.22731815, 3.400201, 9.439685, 0.019846201, 0.062197227, 10.035757
774671006186503, -0.22971097, 3.4241292, 9.456435, -0.003162384, 0.06107954, 10.059715
774671015827024, -0.23569304, 3.446861, 9.500702, -0.009524345, 0.057034925, 10.109222
774671025467545, -0.2548356, 3.4420755, 9.471989, -0.019666433, 0.038782544, 10.081145
774671035108066, -0.30388847, 3.4157543, 9.474381, -5.502701E-4, -0.010164104, 10.07589
774671044748483, -0.3182454, 3.4540396, 9.48156, -0.037183523, -0.019737203, 10.096034
774671054389003, -0.30867413, 3.4767714, 9.458828, -0.06784201, -0.0030927658, 10.082066
774671064029524, -0.3361916, 3.4911282, 9.387043, -0.107718945, -0.025108948, 10.0202465
774671073670045, -0.33738798, 3.4707892, 9.334401, -0.106123686, -0.030006014, 9.96389
774671083310566, -0.34337005, 3.4504502, 9.326026, -0.08964443, -0.0333571, 9.949327
774671092951087, -0.36729828, 3.4516466, 9.274581, -0.10822344, -0.05031345, 9.902141
774671102591503, -0.3505485, 3.4157543, 9.26142, -0.0771749, -0.03216663, 9.877104
774671112232024, -0.37208393, 3.4085758, 9.270991, -0.06811285, -0.05158858, 9.884372
774671121872545, -0.3397808, 3.418147, 9.314062, -0.059532166, -0.016898751, 9.92709
774671131513066, -0.33020952, 3.385844, 9.38824, -0.003442049, -0.009027682, 9.985587
774671141153587, -0.3182454, 3.3870404, 9.391829, -0.0022127628, 0.0056787506, 9.988981
774671150794108, -0.26679972, 3.3846476, 9.457631, 0.026201963, 0.05715631, 10.048376
774671160434524, -0.24646074, 3.3487554, 9.549755, 0.09167409, 0.07695602, 10.122174
774671170075045, -0.31465617, 3.330809, 9.527023, 0.09414506, 0.008519679, 10.096956
774671179715566, -0.39601216, 3.3212378, 9.4432745, 0.06549454, -0.07012626, 10.017669
774671189356087, -0.4438686, 3.2925239, 9.348758, 0.05397606, -0.11468198, 9.9207325
774671198996608, -0.47976094, 3.2853456, 9.288938, 0.035681725, -0.14360505, 9.863373
774671208637024, -0.49172506, 3.2853456, 9.24467, 0.018150806, -0.14791976, 9.822271
774671218277545, -0.4953143, 3.2997024, 9.194421, -0.013581991, -0.143417, 9.780081
774671227918066, -0.49292147, 3.318845, 9.164511, -0.04094529, -0.13028541, 9.75845
774671237558587, -0.48095736, 3.3296127, 9.180064, -0.04566264, -0.11440764, 9.7763
774671247199108, -0.42592242, 3.306881, 9.250652, 0.0044703484, -0.059882767, 9.832998
774671256839628, -0.35413775, 3.3032916, 9.312865, 0.03488159, 0.011354774, 9.887633
774671266480045, -0.3290131, 3.345166, 9.369097, 0.014851332, 0.038918704, 9.953726
774671276120566, -0.37208393, 3.3236306, 9.402596, 0.042925596, -0.0054853633, 9.979575
774671285761087, -0.3589234, 3.286542, 9.471989, 0.10316181, -0.0017001107, 10.031854
774671295401608, -0.317049, 3.3092737, 9.518648, 0.10102606, 0.042144597, 10.081889
774671305042128, -0.3062813, 3.347559, 9.462418, 0.047138453, 0.0528159, 10.04153
774671314682545, -0.2847459, 3.3403804, 9.416953, 0.040379763, 0.07099438, 9.995577
774671324323066, -0.2632105, 3.318845, 9.48156, 0.08441496, 0.089912474, 10.048322
774671333963587, -0.29192436, 3.269792, 9.375079, 0.09298134, 0.054771982, 9.932634
774671343604108, -0.31585258, 3.199204, 9.232706, 0.11009908, 0.021656554, 9.775732
774671353244628, -0.3481557, 3.1932218, 9.156136, 0.0862658, -0.012271204, 9.702839
774671362885149, -0.29192436, 3.2303107, 9.113065, 0.042434692, 0.047151722, 9.672852
774671372525566, -0.25842485, 3.2745779, 9.09153, -0.0021116734, 0.07860133, 9.666406
774671382166087, -0.19740787, 3.333202, 9.0747795, -0.055025578, 0.13965295, 9.668417
774671391806608, -0.12801601, 3.2817562, 9.056833, -0.007235527, 0.195392, 9.631942
774671401447128, -0.16151553, 3.6658044, 9.262616, -0.29989648, 0.1992457, 9.956437
774671411087649, -0.16031912, 3.4683964, 9.115458, -0.1668024, 0.1715078, 9.7514
774671420728066, -0.2847459, 3.2757742, 9.178867, 0.027939081, 0.01464108, 9.749994
774671430368587, -0.069391854, 3.8811584, 9.287741, -0.48783565, 0.2759538, 10.050681
774671440009108, -0.2943172, 2.8558338, 8.98146, 0.35644436, -0.03774053, 9.422344
774671449649628, -0.061016977, 4.109673, 9.432507, -0.65467453, 0.27669418, 10.264509
774671459290045, -0.27996024, 2.6835506, 8.980264, 0.50954366, -0.038403295, 9.362898
774671468930566, -0.14356937, 4.0677986, 9.55813, -0.5962758, 0.16666114, 10.370253
774671478571087, -0.2883351, 2.8725836, 9.119047, 0.37213564, -0.045134358, 9.557791
774671488211608, -0.2536392, 3.7160535, 9.644272, -0.24690962, 0.028694414, 10.335548
774671497852128, -0.22612174, 3.2757742, 9.396614, 0.08400321, 0.029615134, 9.953404
774671507492545, -0.34337005, 3.2279177, 9.533006, 0.17002678, -0.09645412, 10.068633
774671517133066, -0.13998012, 3.7471602, 9.683753, -0.2697394, 0.1279718, 10.380114
774671526773587, -0.37447673, 2.7696922, 9.54138, 0.589277, -0.16839659, 9.923395
774671536414108, -0.18305093, 4.0558343, 10.030712, -0.46103954, 0.09286605, 10.810983
774671546054628, -0.47377887, 2.6153553, 9.5557375, 0.7198086, -0.2782696, 9.888435
774671555695045, -0.32542387, 4.037888, 9.998409, -0.4553492, -0.04740261, 10.778175
774671565335566, -0.43070808, 2.8319056, 9.345169, 0.44213748, -0.21560073, 9.761936
774671574976087, -0.3278167, 3.8093736, 9.736395, -0.3347969, -0.053990435, 10.4547205
774671584616608, -0.30508488, 3.3008988, 9.312865, 0.003307104, -0.054551795, 9.885115
774671594257024, -0.40558344, 3.35713, 9.296116, -0.05939126, -0.15244871, 9.890694
774671603897545, -0.2321038, 3.7387853, 9.254242, -0.42458272, 0.04456181, 9.974524
774671613538066, -0.4331009, 2.806781, 9.056833, 0.38215733, -0.19695356, 9.481931
774671623178587, -0.2213361, 3.9553359, 9.455238, -0.5634012, 0.08183907, 10.235774
774671632819003, -0.48933223, 2.5339992, 9.032906, 0.63114643, -0.24890204, 9.369829
774671642459524, -0.30269206, 3.9218364, 9.643075, -0.4644444, 0.0024250448, 10.404116
774671652100045, -0.4426722, 2.6045876, 9.205189, 0.6206722, -0.1947168, 9.554692
774671661740566, -0.28235307, 3.6885362, 9.775877, -0.21071792, 0.018290967, 10.450266
774671671381087, -0.16630118, 3.1549366, 9.412168, 0.18279338, 0.10011005, 9.926064
774671681021503, -0.12083755, 3.3822548, 9.476774, -0.0075876713, 0.15721342, 10.061747
774671690662024, 0.09810573, 3.6681972, 9.403793, -0.29104424, 0.38529888, 10.08283
774671700302545, -0.09092726, 2.8630123, 9.226724, 0.40130663, 0.15382436, 9.651572
774671709943066, 0.051445685, 3.958925, 9.580862, -0.49489355, 0.35953048, 10.348646
774671719583483, -0.2644069, 2.5603201, 9.134601, 0.6452687, -0.04506169, 9.468246
774671729224003, -0.12203395, 3.9924245, 9.652647, -0.5296447, 0.20798627, 10.430923
774671738864524, -0.34456646, 2.6189444, 9.071191, 0.5494869, -0.123700716, 9.431165
774671748505045, -0.26919255, 3.735196, 9.470792, -0.35091853, 0.043168865, 10.1781645
774671758145462, -0.39601216, 3.0269206, 8.952746, 0.120619535, -0.14330341, 9.457044
774671767785983, -0.46181476, 3.3619158, 9.122637, -0.13161135, -0.18148033, 9.730777
774671777426503, -0.34217364, 3.5808592, 9.102298, -0.33609748, -0.0404208, 9.781456
774671787067024, -0.6257231, 2.9479575, 8.935996, 0.17999744, -0.37807745, 9.421182
774671796707441, -0.42711884, 4.0271206, 9.256635, -0.70381474, -0.0986755, 10.078707
774671806347962, -0.66041905, 2.7158537, 8.938389, 0.3985772, -0.41814297, 9.347359
774671815988483, -0.4438686, 4.1276193, 9.553345, -0.7012458, -0.1018218, 10.392236
774671825628899, -0.5886344, 2.6715865, 9.062816, 0.48661065, -0.3369036, 9.448187
774671835269420, -0.46779683, 3.8201413, 9.611969, -0.39303803, -0.15335144, 10.345252
774671844909941, -0.50129634, 2.9455647, 9.339187, 0.3238485, -0.23569809, 9.797329
774671854550462, -0.44745782, 3.3164523, 9.675379, 0.09310341, -0.16368403, 10.236041
774671864190878, -0.21655045, 3.3403804, 9.521041, 0.028727293, 0.066541985, 10.092075
774671873831399, -0.29312077, 2.7732813, 9.401401, 0.52017736, -0.050019525, 9.7923565
774671883471920, -0.009571291, 3.751946, 9.686146, -0.29321766, 0.28442883, 10.379391
774671893112441, -0.15672988, 2.4741786, 9.32124, 0.7817383, 0.049412303, 9.613435
774671902752858, 0.12562318, 3.9314077, 9.85484, -0.40445638, 0.40662715, 10.595316
774671912393378, -0.07178468, 2.556731, 9.245867, 0.67629766, 0.11581029, 9.568559
774671922033899, 0.09332009, 3.842873, 9.702896, -0.3691442, 0.35083854, 10.424166
774671931674316, 0.022731815, 2.92044, 9.312865, 0.36947608, 0.21037117, 9.750803
774671941314837, -0.02751746, 3.542574, 9.598808, -0.12144375, 0.20009457, 10.229023
774671950955358, 0.0011964113, 3.5700915, 9.327223, -0.23339558, 0.23568693, 9.981614
774671960595878, -0.16749759, 3.1286156, 9.175279, 0.120167494, 0.020951264, 9.694697
774671970236295, 0.0, 4.019942, 9.373882, -0.6340213, 0.26852554, 10.176224
774671979876816, -0.2416751, 2.824727, 9.047262, 0.3535185, -0.08148445, 9.474114
774671989517337, -0.034695927, 4.2388854, 9.583255, -0.77139306, 0.2382605, 10.44779
774671999157753, -0.27517462, 2.78046, 9.046066, 0.39887047, -0.11577553, 9.458619
774672008798274, -0.13878371, 4.0498524, 9.55813, -0.5988505, 0.10318048, 10.363838
774672018438795, -0.22372891, 3.0233314, 9.122637, 0.21777606, -0.050620228, 9.610573
774672028079316, -0.22372891, 3.6323047, 9.473185, -0.23666549, -0.018787708, 10.145371
774672037719733, -0.1471586, 3.438486, 9.318848, -0.10522008, 0.049107105, 9.933393
774672047360253, -0.32063824, 3.0161529, 9.393025, 0.30794525, -0.14720277, 9.864705
774672057000774, -0.1794617, 3.7555351, 9.649057, -0.30327225, 0.037530676, 10.351192
774672066641191, -0.47736812, 2.5579274, 9.394221, 0.7218547, -0.32626587, 9.715695
774672076281712, -0.2739782, 3.867998, 9.88475, -0.33165145, -0.04403098, 10.612863
774672085922233, -0.53359944, 2.3928227, 9.300901, 0.8366003, -0.39268422, 9.5740795
774672095562649, -0.31944183, 3.8069808, 9.760324, -0.32372785, -0.0875747, 10.476001
774672105203170, -0.41515473, 2.7266214, 9.218349, 0.49960995, -0.23959246, 9.6061325
774672114843691, -0.37088752, 3.4983068, 9.538987, -0.11477423, -0.14783181, 10.165283
774672124484108, -0.33379877, 3.219543, 9.332008, 0.07620692, -0.117849395, 9.876414
774672134124628, -0.46301118, 3.01376, 9.407382, 0.28921485, -0.25719136, 9.881609
774672143765149, -0.2835495, 3.67059, 9.509077, -0.28871107, -0.035788335, 10.19272
774672153405670, -0.43788654, 2.5674987, 9.194421, 0.6468909, -0.24199486, 9.5312195
774672163046087, -0.16630118, 3.9493537, 9.635897, -0.49602556, 0.092740886, 10.402928
774672172686608, -0.30388847, 2.5818555, 9.0233345, 0.58315396, -0.11941265, 9.371476
774672182327128, -0.04426722, 4.0127635, 9.49472, -0.5956087, 0.23091659, 10.288143
774672191967545, -0.1471586, 2.865405, 8.919247, 0.29607844, 0.04672216, 9.364577
774672201608066, -0.12801601, 3.7686956, 9.284152, -0.42879677, 0.12728058, 10.010736
774672211248587, -0.11365908, 3.3918262, 9.040084, -0.15899205, 0.112644546, 9.654147
774672220889003, -0.19860429, 3.286542, 9.206385, -4.3964386E-4, 0.015021127, 9.777429
774672230529524, -0.034695927, 3.879962, 9.359526, -0.49210644, 0.2097508, 10.117798
774672240170045, -0.2632105, 2.8917263, 9.190832, 0.36764264, -0.08927481, 9.63118
774672249810462, 0.022731815, 4.1671004, 9.767502, -0.6150608, 0.2538694, 10.598425
774672259450983, -0.19381863, 2.71705, 9.322437, 0.59992504, -0.042589225, 9.693609
774672269091503, 0.013160525, 4.104887, 9.84168, -0.522707, 0.22267619, 10.648293
774672278731920, -0.10049855, 2.8630123, 9.329616, 0.4609537, 0.06147363, 9.748457
774672288372441, 0.013160525, 3.8213377, 9.786645, -0.27160788, 0.20307145, 10.500772
774672298012962, 0.07298109, 3.3296127, 9.379865, 0.050028324, 0.2433699, 9.950467
774672307653378, 0.009571291, 3.3607194, 9.424132, 0.04252863, 0.17764856, 10.003773
774672317293899, 0.13280165, 3.7878382, 9.369097, -0.36990428, 0.31459033, 10.095026
774672326934420, -0.15194423, 2.9108686, 9.159725, 0.37422538, -0.0015324503, 9.605039
774672336574837, 0.02751746, 4.106084, 9.59163, -0.59832597, 0.22260529, 10.414055
774672346215358, -0.30388847, 2.626123, 9.079565, 0.60843396, -0.16344911, 9.435595
774672355855878, -0.17108682, 4.0235314, 9.480363, -0.5546799, 0.028324516, 10.2852745
774672365496295, -0.38165522, 2.7026932, 8.9312105, 0.48045635, -0.2310389, 9.323762
774672375136816, -0.35533416, 3.7627137, 9.424132, -0.3370936, -0.15898678, 10.146902
774672384777337, -0.38165522, 3.1932218, 9.096315, 0.07904434, -0.19922948, 9.64569
774672394417753, -0.41515473, 3.4193435, 9.303294, -0.05313468, -0.22218509, 9.91783
774672404058274, -0.24047868, 3.8129628, 9.342776, -0.40482545, -0.038731776, 10.085564
774672413698795, -0.4546363, 2.9359934, 9.190832, 0.36525846, -0.27256593, 9.648339
774672423339212, -0.19262223, 3.9840498, 9.675379, -0.43980932, 0.014004007, 10.456054
774672432979733, -0.35653058, 2.5232315, 9.26142, 0.799876, -0.18153897, 9.570525
774672442620149, -0.06580263, 3.9074793, 9.652647, -0.37517285, 0.13159473, 10.406165
774672452260670, -0.15672988, 2.5519454, 8.993423, 0.68154216, 0.0023535714, 9.324922
774672461901191, 0.020338992, 3.6933217, 9.450453, -0.23868322, 0.21098164, 10.141529
774672471541608, 0.02871387, 2.9778678, 9.110672, 0.32188797, 0.18946615, 9.577754
774672481182128, -0.05503492, 3.2159536, 9.257831, 0.14216042, 0.10914585, 9.799017
774672490822649, 0.015553347, 3.4420755, 9.148957, -0.106630325, 0.1793022, 9.772821
774672500463066, -0.18185452, 2.792424, 9.006584, 0.4500959, -0.037932582, 9.420469
774672510103587, 0.03589234, 3.9541395, 9.327223, -0.5215807, 0.21254225, 10.115155
774672519744108, -0.19381863, 2.6871397, 8.895318, 0.5071459, -0.071428634, 9.280229
774672529384524, 0.069391854, 4.188636, 9.519845, -0.67903376, 0.23035212, 10.376068
774672539025045, -0.12562318, 2.8462625, 9.104691, 0.44353533, -0.024428563, 9.529695
774672548665566, -0.010767702, 4.0366917, 9.692128, -0.4670434, 0.1388385, 10.487848
774672558305983, -0.09451649, 3.1405797, 9.367901, 0.2502687, 0.003930792, 9.877607
774672567946503, -0.09451649, 3.5413775, 9.632308, -0.032918453, 0.011062652, 10.2630625
774672577587024, 0.11485548, 3.6753755, 9.461221, -0.20434499, 0.23018853, 10.146011
774672587227441, 0.043070808, 3.0652058, 9.298509, 0.31510305, 0.10682785, 9.785136
774672596867962, 0.30867413, 4.0642095, 9.49472, -0.5459132, 0.41296548, 10.30991
774672606508378, 0.034695927, 2.7792635, 9.107083, 0.51462936, 0.078094795, 9.507551
774672616148899, 0.21774685, 4.199404, 9.728021, -0.5809033, 0.32012317, 10.577186
774672625789420, -0.031106694, 2.7732813, 9.182457, 0.545773, -0.002816312, 9.576623
774672635429837, 0.08255238, 3.9900317, 9.626326, -0.42631483, 0.15808472, 10.410889
774672645070358, -0.050249275, 3.129812, 9.169296, 0.20540667, -0.017516375, 9.686678
774672654710878, -0.069391854, 3.6574295, 9.515059, -0.17194605, -0.011239871, 10.19256
774672664351295, -0.040677983, 3.6311083, 9.322437, -0.21142173, 0.019725144, 10.002468
774672673991816, -0.2883351, 3.1429725, 9.18126, 0.17868257, -0.2550067, 9.703608
774672683632337, -0.10289137, 4.0211387, 9.469596, -0.5305593, -0.006864384, 10.274816
774672693272753, -0.35533416, 2.7708886, 9.08794, 0.48205805, -0.33583418, 9.489447
774672702913274, -0.13758731, 4.202993, 9.602397, -0.66181755, -0.015838087, 10.4619255
774672712553691, -0.2739782, 2.7409782, 9.090333, 0.5088191, -0.24486278, 9.481737
774672722194212, -0.11365908, 4.0151563, 9.512667, -0.52957153, 0.007987022, 10.312358
774672731834733, -0.19381863, 2.9587252, 9.105886, 0.32450128, -0.13447577, 9.570025
774672741475149, -0.17706887, 3.4947174, 9.584451, -0.013641834, -0.09174672, 10.202818
774672751115670, -0.18783657, 3.3212378, 9.403793, 0.07689452, -0.10758942, 9.973952
774672760756191, -0.3696911, 2.9443684, 9.341579, 0.39984918, -0.30921513, 9.788543
774672770396608, -0.18544376, 3.7531424, 9.688539, -0.23418736, -0.080259174, 10.38879
774672780037128, -0.41994038, 2.617748, 9.413364, 0.71286845, -0.37825269, 9.746237
774672789677545, -0.1591227, 4.0642095, 9.926624, -0.46550083, -0.02124381, 10.717456
774672799318066, -0.3385844, 2.629712, 9.352347, 0.6744807, -0.28877795, 9.6932
774672808958587, -0.12083755, 4.0271206, 9.750752, -0.47853017, 0.01572188, 10.539461
774672818599003, -0.22253251, 2.9276185, 9.208778, 0.3640008, -0.14467612, 9.65757
774672828239524, -0.16390835, 3.6586258, 9.552148, -0.20393181, -0.039224066, 10.22804
774672837880045, -0.0849452, 3.3834512, 9.3104725, -0.022739887, 0.024984851, 9.9065
774672847520462, -0.1794617, 3.150151, 9.236296, 0.17535329, -0.08343344, 9.758436
774672857160983, 0.05503492, 3.863212, 9.401401, -0.4231074, 0.19278988, 10.153698
774672866801503, -0.14955142, 2.7948167, 9.122637, 0.4729221, -0.06958991, 9.53034
774672876441920, 0.08135597, 4.139583, 9.57488, -0.61847854, 0.23148447, 10.410812
774672886082441, -0.1698904, 2.6871397, 8.989835, 0.54105663, -0.104873665, 9.368188
774672895722858, 0.033499517, 4.085745, 9.482756, -0.5980246, 0.18524656, 10.30656
774672905363378, -0.0849452, 2.9383862, 9.001799, 0.30714464, -0.0011237487, 9.464639
774672915003899, -0.0634098, 3.7794633, 9.373882, -0.34275436, 0.07567614, 10.10123
774672924644316, -0.07058827, 3.3930225, 9.113065, -0.07272935, 0.044764042, 9.724108
774672934284837, -0.18424734, 3.339184, 9.140582, -0.020306349, -0.07273963, 9.732866
774672943925358, -0.013160525, 3.8763726, 9.2793665, -0.46367884, 0.13870126, 10.044843
774672953565774, -0.23569304, 2.8558338, 9.096315, 0.41010427, -0.16016373, 9.526829
774672963206295, 0.0035892338, 4.1982074, 9.678967, -0.6248536, 0.16744682, 10.530379
774672972846712, -0.21894327, 2.7182465, 9.247063, 0.5892787, -0.15031855, 9.621597
774672982487233, 0.0011964113, 4.1694937, 9.857233, -0.54995394, 0.16174932, 10.687428
774672992127753, -0.14476576, 2.865405, 9.346365, 0.48921347, -0.062183827, 9.764367
774673001768170, -0.13160525, 3.7998023, 9.777073, -0.23570442, 0.001654759, 10.4876795
774673011408691, -0.1471586, 3.2147572, 9.396614, 0.18221164, -0.04637009, 9.930626
774673021049212, -0.22971097, 3.2434711, 9.4636135, 0.17686343, -0.122671366, 10.004324
774673030689628, -0.05742774, 3.6981075, 9.546165, -0.21072483, 0.07601503, 10.235154
774673040330149, -0.2727818, 2.784049, 9.262616, 0.53967404, -0.18211618, 9.659037
774673049970566, -0.046660043, 4.0067816, 9.652647, -0.4607215, 0.11245042, 10.440554
774673059611087, -0.28594232, 2.5806592, 9.101101, 0.6639292, -0.21209061, 9.438529
774673069251608, -0.08853444, 4.0331025, 9.594023, -0.51330113, 0.092783, 10.394564
774673078892024, -0.2428715, 2.7385855, 9.072387, 0.51896, -0.15471536, 9.464343
774673088532545, -0.18664017, 3.8057845, 9.497113, -0.32987833, -0.014972031, 10.227656
774673098173066, -0.23330021, 3.176472, 9.153743, 0.13839293, -0.103869066, 9.690482
774673107813483, -0.29312077, 3.35713, 9.288938, 0.009653807, -0.14679629, 9.88023
774673117454003, -0.11365908, 3.6849468, 9.2793665, -0.28358865, 0.06207867, 9.980689
774673127094524, -0.33260235, 2.8725836, 9.05803, 0.38247323, -0.22142722, 9.498156
774673136734941, -0.09930214, 4.0570307, 9.466006, -0.5609164, 0.09795501, 10.283503
774673146375462, -0.3074777, 2.6392834, 9.035298, 0.5986414, -0.21050489, 9.396504
774673156015878, -0.10049855, 4.121637, 9.590433, -0.5821104, 0.089478694, 10.422454
774673165656399, -0.27038896, 2.7481568, 9.010174, 0.5092821, -0.15432057, 9.408798
774673175296920, -0.15314065, 3.830909, 9.561719, -0.31098223, 0.017073732, 10.297027
774673184937337, -0.14117654, 3.1226335, 9.284152, 0.25025535, -0.011353038, 9.793034
774673194577858, -0.17108682, 3.4025939, 9.480363, 0.059147835, -0.027889192, 10.073725
774673204218378, -0.020338992, 3.6634114, 9.408579, -0.20116568, 0.13703261, 10.093716
774673213858795, -0.18783657, 2.9623144, 9.203992, 0.37862277, -0.086384326, 9.662984
774673223499316, 0.049052864, 4.066602, 9.585648, -0.50965166, 0.22535518, 10.397779
774673233139837, -0.15433706, 2.7421749, 9.176475, 0.5846369, -0.08061682, 9.560477
774673242780253, 0.06699903, 4.229314, 9.675379, -0.61362267, 0.2590449, 10.538544
774673252420774, -0.11485548, 2.812763, 9.069994, 0.48746943, -0.038126618, 9.484225
774673262061191, -0.020338992, 4.0366917, 9.615558, -0.47007322, 0.15028366, 10.416846
774673271701712, -0.058624156, 3.1489546, 9.212367, 0.21889806, 0.043764547, 9.733305
774673281342233, -0.11006984, 3.5521452, 9.438489, -0.0815568, 0.02532272, 10.085021
774673290982649, -0.0059820567, 3.615555, 9.293723, -0.1793623, 0.13708107, 9.969685
774673300623170, -0.18783657, 3.0197423, 9.160921, 0.31700397, -0.089239985, 9.641998
774673310263691, 0.025124637, 4.0163527, 9.457631, -0.4957478, 0.19389947, 10.261342
774673319904108, -0.19860429, 2.7445676, 9.042477, 0.5345602, -0.1159398, 9.436063
774673329544628, 0.008374879, 4.214957, 9.568898, -0.63738036, 0.17701247, 10.43514
774673339185149, -0.20458634, 2.7469604, 9.010174, 0.52121186, -0.12498514, 9.406571
774673348825566, -0.11006984, 4.0007997, 9.638289, -0.41980577, 0.045363866, 10.427695
774673358466087, -0.20937198, 3.0209386, 9.257831, 0.34875345, -0.108710766, 9.733647
774673368106503, -0.2727818, 3.5353954, 9.582058, -0.02950883, -0.13828883, 10.216127
774673377747024, -0.21415763, 3.4863427, 9.377472, -0.050678253, -0.080712, 10.006416
774673387387545, -0.38644084, 2.9862428, 9.280562, 0.36927772, -0.28576523, 9.745655
774673397027962, -0.14476576, 3.9038901, 9.500702, -0.39845538, 0.028900951, 10.264748
774673406668483, -0.33260235, 2.6679974, 9.066405, 0.5919156, -0.25451013, 9.434691
774673416309003, -0.03589234, 4.1312084, 9.59163, -0.5614486, 0.1548036, 10.427289
774673425949420, -0.22612174, 2.6691937, 9.025727, 0.5883801, -0.1400015, 9.395407
774673435589941, -0.04426722, 4.048656, 9.609575, -0.47687435, 0.13190776, 10.415983
774673445230462, -0.101694964, 2.9838498, 9.213564, 0.36946368, -0.0044680536, 9.678168
774673454870878, -0.08733802, 3.6370904, 9.57488, -0.10701251, 0.050255314, 10.242089
774673464511399, 0.031106694, 3.4887354, 9.407382, -0.02622366, 0.15688151, 10.032236
774673474151920, -0.106480606, 3.1513474, 9.395418, 0.28180337, -0.0022342578, 9.906402
774673483792337, 0.034695927, 3.979264, 9.564112, -0.42954516, 0.1825558, 10.348437
774673493432858, -0.25842485, 2.7984061, 9.136993, 0.5210278, -0.1753496, 9.543599
774673503073378, -0.050249275, 4.206582, 9.571291, -0.6430857, 0.12275329, 10.4345045
774673512713795, -0.2428715, 2.7469604, 8.9108715, 0.49238586, -0.16479163, 9.313367
774673522354316, -0.04546363, 4.1671004, 9.373882, -0.6633649, 0.12239938, 10.2362795
774673531994837, -0.11246266, 3.0448668, 8.825927, 0.19501352, -0.011216953, 9.335026
774673541635253, -0.050249275, 3.804588, 9.285348, -0.35201025, 0.09977983, 10.028023
774673551275774, 0.0047856453, 3.528217, 9.156136, -0.13516355, 0.12774852, 9.8106365
774673560916295, -0.11246266, 3.245864, 9.281759, 0.16478562, -0.009428106, 9.832197
774673570556712, 0.05742774, 3.8787656, 9.549755, -0.32385874, 0.19085817, 10.300711
774673580197233, -0.1902294, 2.7338, 9.369097, 0.67143726, -0.14462073, 9.737458
774673589837753, 0.020338992, 4.1204405, 9.924232, -0.41972065, 0.1520221, 10.736365
774673599478170, -0.21415763, 2.6703901, 9.336794, 0.7106271, -0.16059422, 9.686165
774673609118691, -0.022731815, 4.1383867, 9.810573, -0.48251772, 0.099039376, 10.636328
774673618759212, -0.09810573, 2.9671001, 9.211171, 0.4016304, -0.029214717, 9.669375
774673628399628, -0.03589234, 3.863212, 9.568898, -0.3106234, 0.07882378, 10.314399
774673638040149, -0.0071784677, 3.4420755, 9.2075815, -0.04387617, 0.09167786, 9.829403
774673647680670, -0.1268196, 3.2733815, 9.21476, 0.11443424, -0.039252505, 9.778972
774673657321087, 0.03589234, 3.8476589, 9.292527, -0.38363314, 0.16121641, 10.049063
774673666961608, -0.23090738, 2.8187451, 9.077172, 0.4844756, -0.172082, 9.493648
774673676602128, -0.021535404, 4.119244, 9.608379, -0.5248997, 0.12411143, 10.440244
774673686242545, -0.29192436, 2.6117659, 9.107083, 0.6779952, -0.26239806, 9.450767
774673695883066, -0.10887343, 4.06062, 9.688539, -0.4476967, 0.028199106, 10.496048
774673705523587, -0.2536392, 2.792424, 9.123833, 0.530952, -0.19928913, 9.528099
774673715164003, -0.16151553, 3.7818563, 9.58804, -0.22722292, -0.04479961, 10.305601
774673724804524, -0.11724831, 3.2853456, 9.205189, 0.10787058, -0.028099135, 9.773962
774673734445045, -0.16749759, 3.3607194, 9.296116, 0.06602788, -0.07522577, 9.885862
774673744085462, 0.040677983, 3.8440695, 9.337991, -0.35925603, 0.162144, 10.0906515
774673753725983, -0.18664017, 2.9300113, 9.188439, 0.4289496, -0.12129282, 9.635795
774673763366503, 0.03589234, 4.1790648, 9.693324, -0.5544276, 0.16488704, 10.540012
774673773006920, -0.18424734, 2.6871397, 9.1872425, 0.663594, -0.1383716, 9.549899
774673782647441, 0.011964113, 4.1635113, 9.757931, -0.5167055, 0.1505795, 10.595402
774673792287962, -0.15433706, 2.8091738, 9.175279, 0.5350294, -0.10827339, 9.58139
774673801928378, -0.09092726, 3.8955152, 9.634701, -0.31496668, 0.030923024, 10.388003
774673811568899, -0.0849452, 3.251846, 9.249456, 0.1538043, -0.0072815865, 9.803595
774673821209420, -0.17826529, 3.4109688, 9.341579, 0.036371946, -0.089935616, 9.945964
774673830849941, -0.0047856453, 3.778267, 9.263813, -0.3229475, 0.10992779, 9.9988575
774673840490358, -0.16510476, 2.9850461, 9.083155, 0.345778, -0.100557625, 9.555721
774673850130878, 0.09092726, 4.1647077, 9.480363, -0.59330463, 0.2324103, 10.335586
774673859771399, -0.16630118, 2.751746, 9.010174, 0.5399082, -0.122425675, 9.406197
774673869411816, 0.05383851, 4.186243, 9.62154, -0.55998063, 0.18961224, 10.476261
774673879052337, -0.1363909, 2.7948167, 9.0747795, 0.53674436, -0.09613885, 9.480711
774673888692858, -0.07058827, 3.9553359, 9.610772, -0.35676455, 0.041312993, 10.386896
774673898333274, -0.06819545, 3.2004004, 9.265009, 0.21984887, -7.790774E-4, 9.799963
774673907973795, -0.08135597, 3.5234313, 9.567701, 0.023791313, 9.570271E-4, 10.196153
774673917614316, 0.033499517, 3.778267, 9.449257, -0.24854541, 0.13318141, 10.172776
774673927254733, -0.17347965, 3.0293136, 9.223135, 0.36722565, -0.11185262, 9.70184
774673936895253, 0.07537391, 4.112066, 9.530613, -0.52967715, 0.1792906, 10.365068
774673946535774, -0.17228323, 2.745764, 9.066405, 0.5754709, -0.11025314, 9.456495
774673956176295, 0.07537391, 4.2341, 9.60479, -0.6141653, 0.18000293, 10.477388
774673965816712, -0.13519448, 2.7900312, 8.99462, 0.5109196, -0.07168616, 9.404234
774673975457233, -0.02871387, 4.0031924, 9.561719, -0.4206748, 0.08052859, 10.357095
774673985097753, -0.08733802, 3.1525438, 9.177671, 0.2388711, -0.0166092, 9.7014675
774673994738170, -0.14955142, 3.5784662, 9.488738, -0.047156334, -0.06401343, 10.141872
774674004378691, -0.023928227, 3.650251, 9.35474, -0.15773964, 0.07073489, 10.040228
774674014019212, -0.22253251, 3.042474, 9.217153, 0.35059428, -0.1642611, 9.701141
774674023659733, 0.014356935, 4.0594234, 9.476774, -0.4930339, 0.1367738, 10.29692
774674033300149, -0.22971097, 2.7397819, 9.05803, 0.5806713, -0.18465362, 9.446471
774674042940670, 0.034695927, 4.2185464, 9.570094, -0.6145508, 0.17459561, 10.439152
774674052581191, -0.16510476, 2.7302105, 8.96471, 0.55201674, -0.11986248, 9.355653
774674062221608, -0.04426722, 4.0354953, 9.516255, -0.4668963, 0.08137101, 10.325776
774674071862128, -0.148355, 3.097509, 9.145369, 0.28060222, -0.083542466, 9.65239
774674081502649, -0.16510476, 3.5736806, 9.5665045, -0.024104357, -0.074232146, 10.213246
774674091143170, -0.09092726, 3.5246277, 9.390633, -0.03490877, -8.600876E-4, 10.030655
774674100783587, -0.25962126, 3.068795, 9.359526, 0.3689475, -0.19892663, 9.844284
774674110424108, -0.031106694, 3.9960139, 9.639486, -0.38904047, 0.08672094, 10.427364
774674120064628, -0.25244278, 2.7672994, 9.270991, 0.6158509, -0.21373288, 9.656499
774674129705045, 0.025124637, 4.240082, 9.815358, -0.54350734, 0.15057871, 10.677177
774674139345566, -0.1471586, 2.7613173, 9.119047, 0.5898659, -0.10787292, 9.510203
774674148986087, 0.008374879, 4.0977087, 9.611969, -0.4846666, 0.1286069, 10.436945
774674158626608, -0.04546363, 3.0556345, 9.083155, 0.30166626, 0.015936546, 9.578697
774674168267024, -0.08255238, 3.6933217, 9.38824, -0.18545961, 0.011277147, 10.087219
774674177907545, -0.013160525, 3.5389848, 9.111869, -0.13154912, 0.07586962, 9.773827
774674187548066, -0.1902294, 3.1872396, 9.030513, 0.1610918, -0.11642932, 9.576289
774674197188587, 0.032303106, 3.987639, 9.215957, -0.5104823, 0.1431663, 10.027716
774674206829003, -0.2321038, 2.8031917, 8.924032, 0.47817516, -0.17795363, 9.342899
774674216469524, 0.011964113, 4.2329035, 9.45165, -0.65308905, 0.13788703, 10.334687
774674226110045, -0.19142582, 2.7469604, 8.933603, 0.5440471, -0.15087064, 9.331287
774674235750566, -0.011964113, 4.125226, 9.572487, -0.51057935, 0.09993407, 10.410544
774674245390983, -0.096909314, 2.981457, 9.142975, 0.392756, -0.05388905, 9.609125
774674255031503, -0.09092726, 3.7280176, 9.597611, -0.13843155, -0.007842675, 10.295693
774674264672024, 0.015553347, 3.4564323, 9.408579, 0.050073385, 0.0759072, 10.022987
774674274312545, -0.13280165, 3.2362926, 9.474381, 0.2650113, -0.095514864, 10.008785
774674283952962, 0.058624156, 3.932604, 9.65145, -0.30902362, 0.14381473, 10.416483
774674293593483, -0.18305093, 2.82712, 9.352347, 0.60262704, -0.1764894, 9.75183
774674303234003, 0.069391854, 4.2161536, 9.84168, -0.50642514, 0.16323614, 10.693751
774674312874524, -0.16749759, 2.7349963, 9.232706, 0.6359596, -0.17700604, 9.608087
774674322514941, 0.023928227, 4.176672, 9.710074, -0.5243499, 0.13001251, 10.55646
774674332155462, -0.11246266, 2.9850461, 9.049655, 0.34498405, -0.09644179, 9.523188
774674341795983, -0.047856454, 3.8356948, 9.409775, -0.31055307, 0.03983158, 10.156804
774674351436503, 0.008374879, 3.4325042, 9.080762, -0.037779808, 0.06507188, 9.707561
774674361076920, -0.13519448, 3.32722, 9.084352, 0.04700923, -0.088079825, 9.674923
774674370717441, -0.0071784677, 3.6000016, 9.102298, -0.18647003, 0.06592178, 9.786356
774674380357962, -0.03708875, 3.4480574, 9.211171, -0.010341406, 0.012770146, 9.835442
774674389998483, -0.0059820567, 3.4947174, 9.220742, -0.04804063, 0.046574205, 9.860562
774674399638899, -0.025124637, 3.487539, 9.157332, -0.06581807, 0.029269874, 9.798729
774674409279420, -0.01794617, 3.434897, 9.200403, -0.005234003, 0.020608008, 9.8206835
774674418919941, 0.0011964113, 3.4911282, 9.376275, 0.0059132576, 0.03918889, 10.005047
774674428560462, -0.04426722, 3.4791641, 9.408579, 0.018396616, -0.01298362, 10.031322
774674438200983, -0.01794617, 3.4839497, 9.45165, 0.028253555, 0.0077001154, 10.073285
774674447841399, -0.031106694, 3.4803605, 9.503095, 0.042546034, -0.01524955, 10.120309
774674457481920, -0.034695927, 3.5270207, 9.527023, 0.0070462227, -0.014938712, 10.158986
774674467122441, -0.02632105, 3.5090744, 9.515059, 0.018766642, -0.011295408, 10.141509
774674476762962, -0.013160525, 3.4899318, 9.5353985, 0.04414606, -0.003689766, 10.153898
774674486403378, 0.009571291, 3.4683964, 9.504292, 0.05510831, 0.015715003, 10.117221
774674496043899, -0.0059820567, 3.4516466, 9.460024, 0.053066254, -0.0010254979, 10.069914
774674505684420, 0.023928227, 3.4480574, 9.403793, 0.039951563, 0.030157298, 10.015911
774674515324941, 0.021535404, 3.4540396, 9.363115, 0.019559383, 0.031276792, 9.979851
774674524965462, 0.03589234, 3.4672, 9.366704, 0.009910822, 0.048061013, 9.987767
774674534605878, 0.033499517, 3.473182, 9.342776, -0.0044338703, 0.048695594, 9.967407
774674544246399, -0.0011964113, 3.5006995, 9.309277, -0.046072483, 0.019918054, 9.945602
774674553886920, 0.0047856453, 3.5126636, 9.312865, -0.053598404, 0.026408613, 9.953125
774674563527441, 0.013160525, 3.5066817, 9.327223, -0.042420626, 0.03313124, 9.964498
774674573167962, 0.010767702, 3.5066817, 9.316455, -0.044341087, 0.031058997, 9.954414
774674582808378, 0.0035892338, 3.5090744, 9.29492, -0.05202818, 0.023700625, 9.935083
774674592448899, 0.008374879, 3.4648073, 9.275777, -0.015974522, 0.024830878, 9.901724
774674602089420, 0.034695927, 3.487539, 9.353543, -0.007437229, 0.05056861, 9.982498
774674611729941, 0.0071784677, 3.4923246, 9.342776, -0.018925428, 0.024453491, 9.974111
774674621370462, -0.015553347, 3.4612179, 9.322437, -9.012222E-5, 3.4591556E-4, 9.94425
774674631010878, -0.041874398, 3.4719856, 9.347562, -0.0049688816, -0.024146467, 9.971597
774674640651399, -0.07178468, 3.4743786, 9.366704, -0.0047254562, -0.05312434, 9.990435
774674650291920, -0.058624156, 3.4660037, 9.406186, 0.017092943, -0.040991873, 10.02452
774674659932441, -0.09332009, 3.4564323, 9.424132, 0.02909398, -0.076007605, 10.038092
774674669572962, -0.083748795, 3.4372897, 9.425328, 0.048279524, -0.06822598, 10.032537
774674679213378, -0.05503492, 3.4504502, 9.442079, 0.045193195, -0.037945062, 10.052761
774674688853899, -0.020338992, 3.4540396, 9.433703, 0.04255867, -0.0012678951, 10.0460825
774674698494420, -0.019142581, 3.4612179, 9.393025, 0.021846056, 0.0013670325, 10.010438
774674708134941, -0.03589234, 3.4767714, 9.341579, -0.0116992, -0.01136373, 9.96765
774674717775462, -0.05383851, 3.4779677, 9.263813, -0.039739132, -0.024097592, 9.895212
774674727415878, -0.038285162, 3.458825, 9.292527, -0.010773182, -0.010618418, 9.915431
774674737056399, -0.01794617, 3.4839497, 9.314062, -0.02388215, 0.012231767, 9.944309
774674746696920, -0.019142581, 3.4791641, 9.269794, -0.03383422, 0.012268215, 9.901148
774674756337441, -0.038285162, 3.4707892, 9.251849, -0.032735586, -0.0073182285, 9.88147
774674765977962, -0.015553347, 3.4779677, 9.275777, -0.027864218, 0.015453696, 9.906338
774674775618483, -0.0059820567, 3.4803605, 9.300901, -0.020131826, 0.024241328, 9.930696
774674785258899, 0.022731815, 3.525824, 9.315259, -0.055024147, 0.056225985, 9.95991
774674794899420, -0.008374879, 3.534199, 9.38465, -0.042064667, 0.0216299, 10.027965
774674804539941, -0.031106694, 3.5126636, 9.419347, -0.01243639, -0.0045826435, 10.053046
774674814180462, -0.010767702, 3.4779677, 9.44806, 0.032134295, 0.010486662, 10.067822
774674823820983, 0.0059820567, 3.4803605, 9.466006, 0.03729129, 0.027247697, 10.085441
774674833461399, 0.013160525, 3.51386, 9.456435, 0.0015211105, 0.040091038, 10.088108
774674843101920, 0.032303106, 3.5066817, 9.440882, 0.0058357716, 0.060322195, 10.070969
774674852742441, -0.0059820567, 3.5006995, 9.427721, 0.0023772717, 0.022140115, 10.056657
774674862382962, -0.021535404, 3.5030923, 9.395418, -0.01059413, 0.0102621615, 10.027251
774674872023483, -0.016749758, 3.487539, 9.361918, -0.005395174, 0.015639633, 9.990418
774674881664003, -0.008374879, 3.4923246, 9.309277, -0.02573347, 0.027924716, 9.942717
774674891304420, -0.0035892338, 3.4504502, 9.30808, 0.013363838, 0.02820161, 9.926983
774674900944941, -0.041874398, 3.4504502, 9.274581, -0.0014462471, -0.0071539283, 9.895716
774674910585462, -0.09092726, 3.4360933, 9.226724, -0.009968996, -0.053530037, 9.846039
774674920225983, -0.12921242, 3.4277184, 9.164511, -0.027588844, -0.08709049, 9.784983
774674929866503, -0.13040884, 3.4360933, 9.177671, -0.03384304, -0.079159126, 9.800306
774674939507024, -0.13519448, 3.4372897, 9.247063, -0.011750221, -0.08592343, 9.865795
774674949147545, -0.13399807, 3.4444683, 9.223135, -0.029006243, -0.079070285, 9.845884
774674958787962, -0.16390835, 3.414558, 9.262616, 0.008609772, -0.109479055, 9.872694
774674968428483, -0.15792629, 3.4133615, 9.296116, 0.020016909, -0.10373233, 9.903666
774674978069003, -0.14596218, 3.418147, 9.32483, 0.026717186, -0.09218718, 9.932184
774674987709524, -0.06819545, 3.4133615, 9.428918, 0.074597836, -0.019798934, 10.027674
774674997350045, -0.034695927, 3.4624143, 9.524631, 0.064254045, 0.012630761, 10.134289
774675006990566, -0.008374879, 3.4576287, 9.58804, 0.09123564, 0.034036368, 10.191972
774675016631087, -0.010767702, 3.4492538, 9.615558, 0.10609102, 0.029833704, 10.214905
774675026271503, -0.013160525, 3.4791641, 9.547362, 0.051833153, 0.031440377, 10.161359
774675035912024, 0.009571291, 3.5186458, 9.501899, -5.309582E-4, 0.059295103, 10.132301
774675045552545, 0.010767702, 3.546163, 9.442079, -0.0463171, 0.065770596, 10.085722
774675055193066, 0.0059820567, 3.5294135, 9.339187, -0.06477237, 0.0626117, 9.98344
774675064833587, 0.041874398, 3.5006995, 9.268599, -0.05520296, 0.09785876, 9.907117
774675074474108, 0.0023928226, 3.5174494, 9.199206, -0.09524298, 0.06162429, 9.848097
774675084114524, -0.015553347, 3.542574, 9.1681, -0.12597466, 0.04489681, 9.827829
774675093755045, -0.020338992, 3.5042887, 9.203992, -0.078067064, 0.03658411, 9.848171
774675103395566, -0.05383851, 3.4911282, 9.201599, -0.06674957, 0.0024552047, 9.8415365
774675113036087, -0.0526421, 3.4648073, 9.158528, -0.055289984, 0.0037552118, 9.791999
774675122676608, -0.07178468, 3.4528432, 9.18126, -0.03750658, -0.016787603, 9.8092375
774675132317128, -0.08135597, 3.4624143, 9.212367, -0.037406206, -0.026096344, 9.841777
774675141957649, -0.07298109, 3.4325042, 9.280562, 0.013422966, -0.021382883, 9.89523
774675151598170, -0.08255238, 3.4205399, 9.3511505, 0.04867983, -0.032792106, 9.957283
774675161238587, -0.096909314, 3.4576287, 9.416953, 0.033724785, -0.046985663, 10.031961
774675170879108, -0.08973085, 3.4432719, 9.480363, 0.06625605, -0.044781983, 10.086379
774675180519628, -0.09810573, 3.4396825, 9.505488, 0.075185776, -0.05716619, 10.108731
774675190160149, -0.09092726, 3.4504502, 9.504292, 0.06523061, -0.04923269, 10.111318
774675199800670, -0.086141616, 3.4827533, 9.495916, 0.031555176, -0.04396069, 10.114668
774675209441191, -0.06580263, 3.475575, 9.445667, 0.022935867, -0.022892386, 10.064966
774675219081712, -0.06699903, 3.4851463, 9.389436, -0.0041184425, -0.020903915, 10.015577
774675228722128, -0.046660043, 3.495914, 9.387043, -0.012690306, 5.72443E-4, 10.016987
774675238362649, -0.02632105, 3.4983068, 9.391829, -0.010164499, 0.022049993, 10.022209
774675248003170, -0.021535404, 3.481557, 9.359526, -0.004851103, 0.027133197, 9.9860735
774675257643691, -0.051445685, 3.4995031, 9.303294, -0.043384552, 0.0024969876, 9.939747
774675267284212, -0.038285162, 3.4899318, 9.286545, -0.03745389, 0.015811712, 9.920652
774675276924733, -0.02751746, 3.4995031, 9.287741, -0.042961836, 0.027661383, 9.925057
774675286565253, -0.03708875, 3.5006995, 9.247063, -0.055563927, 0.018479168, 9.887416
774675296205774, -0.043070808, 3.4923246, 9.232706, -0.051798105, 0.011143804, 9.871082
774675305846295, -0.05623133, 3.4779677, 9.235099, -0.038776398, -0.0032570362, 9.868382
774675315486712, -0.03589234, 3.4600215, 9.213564, -0.026577711, 0.0153528005, 9.841843
774675325127233, -0.049052864, 3.4672, 9.242277, -0.024027824, 0.002119884, 9.871323
774675334767753, -0.03708875, 3.4528432, 9.318848, 0.01653862, 0.009818941, 9.938009
774675344408274, -0.032303106, 3.455236, 9.378669, 0.033302307, 0.010218561, 9.994896
