timestamp_acc,device_acc_x,device_acc_y,device_acc_z,earth_acc_x,earth_acc_y,earth_acc_z
180893419975949, 1.538585, 3.0496526, 10.189836, 0.15275812, -0.07883978, 10.745737
180893429615220, 1.3698909, 2.9312077, 10.066605, -0.036430836, -0.09558749, 10.5732975
180893439254387, 1.2669996, 2.8139594, 9.812965, -0.11740184, -0.11210728, 10.285504
180893448893657, 1.1964114, 2.7912276, 9.603594, -0.13997126, -0.05606103, 10.071178
180893458532928, 1.1916257, 2.7948167, 9.47797, -0.1035018, -0.04431522, 9.952398
180893468172095, 1.1485549, 2.7948167, 9.401401, -0.122944355, -0.0062627792, 9.874279
180893477811366, 1.1270195, 2.804388, 9.300901, -0.10200381, 0.021361947, 9.779093
180893487450637, 1.0947163, 2.7948167, 9.192028, -0.081442595, 0.036164403, 9.669272
180893497089803, 1.0624132, 2.8390841, 9.141779, -0.07948947, 0.099547386, 9.630422
180893506729074, 1.0695918, 2.8833513, 9.15135, -0.04660821, 0.12763095, 9.653314
180893516368345, 1.1174482, 2.9108686, 9.19801, 0.005761862, 0.11664736, 9.711415
180893526007512, 1.1473584, 2.8845477, 9.235099, 0.019692898, 0.0695349, 9.742632
180893535646782, 1.1904292, 2.8869405, 9.255438, 0.057750225, 0.045460224, 9.767768
180893545285949, 1.262214, 2.9575288, 9.361918, 0.13126373, 0.05475056, 9.897751
180893554925220, 1.3244274, 2.981457, 9.507881, 0.16568637, 0.0155392885, 10.050636
180893564564491, 1.3387842, 2.9599216, 9.582058, 0.15580988, -0.020904183, 10.116551
180893574203657, 1.3555341, 2.9886355, 9.652647, 0.1658845, -0.01829505, 10.193878
180893583842928, 1.3615161, 2.9910283, 9.6993065, 0.17305589, -0.02666521, 10.239429
180893593482199, 1.3328022, 3.0029924, 9.731609, 0.14505696, -0.010883927, 10.27022
180893603121366, 1.2729816, 2.949154, 9.809377, 0.05966544, -0.047495127, 10.3216305
180893612760637, 1.2203395, 2.9312077, 9.762716, 0.0401752, -0.03801751, 10.265904
180893622399803, 1.1234303, 2.900101, 9.649057, -0.015110493, -0.0020576715, 10.137888
180893632039074, 1.0336994, 2.8773692, 9.51147, -0.05388236, 0.041318655, 9.990559
180893641678345, 0.96550393, 2.8402805, 9.420543, -0.108383656, 0.060452938, 9.8858795
180893651317512, 0.9667004, 2.8438697, 9.35833, -0.05760193, 0.061718702, 9.82819
180893660956782, 0.96789676, 2.8689942, 9.30808, -0.017780542, 0.08661866, 9.787773
180893670595949, 0.95832545, 2.861816, 9.281759, -0.008373976, 0.08547521, 9.759716
180893680235220, 0.97866446, 2.8809586, 9.263813, 0.036554337, 0.09098303, 9.750196
180893689874491, 0.99900347, 2.8546374, 9.29133, 0.03523922, 0.053086042, 9.770965
180893699513657, 0.99661064, 2.82712, 9.346365, 0.021237135, 0.018860698, 9.815273
180893709152928, 0.9942178, 2.853441, 9.473185, 0.016070366, 0.017535806, 9.943402
180893718792199, 1.0133604, 2.8426733, 9.641879, 0.0017673969, -0.032535553, 10.103093
180893728431366, 0.9726824, 2.7637103, 9.817751, -0.08907175, -0.1066699, 10.244664
180893738070637, 0.90807617, 2.6919255, 9.911072, -0.19028044, -0.14917612, 10.307374
180893747709803, 0.79441714, 2.693122, 9.865608, -0.26765323, -0.08105385, 10.253585
180893757349074, 0.7046863, 2.6955147, 9.80818, -0.32357264, -0.022721767, 10.191053
180893766988345, 0.715454, 2.652444, 9.743574, -0.31511927, -0.057920694, 10.118395
180893776627512, 0.715454, 2.652444, 9.634701, -0.29059625, -0.036447287, 10.014439
180893786266782, 0.6879365, 2.656033, 9.534202, -0.2847228, -0.0020378828, 9.917042
180893795905949, 0.73579293, 2.6919255, 9.46481, -0.20648885, 0.0043634176, 9.865488
180893805545220, 0.7645068, 2.7062824, 9.407382, -0.15719056, 0.0037755966, 9.817461
180893815184491, 0.8135597, 2.7098715, 9.440882, -0.11668134, -0.030611753, 9.854998
180893824823657, 0.84347, 2.725425, 9.503095, -0.089761734, -0.05306852, 9.921559
180893834462928, 0.85902333, 2.778067, 9.493524, -0.04876566, -0.016365051, 9.928741
180893844102095, 0.863809, 2.7984061, 9.512667, -0.030524492, -0.01178956, 9.953241
180893853741366, 0.82313097, 2.7960134, 9.552148, -0.07124591, -0.0031621456, 9.986674
180893863380637, 0.85184485, 2.7900312, 9.613165, -0.063759565, -0.034900665, 10.045774
180893873019803, 0.8470592, 2.784049, 9.663414, -0.07392979, -0.055632234, 10.091653
180893882659074, 0.81954175, 2.824727, 9.522238, -0.04026246, 0.014511228, 9.966039
180893892298241, 0.5838487, 2.8689942, 9.275777, -0.16161859, 0.22527206, 9.722921
180893901937512, 0.65922266, 2.7385855, 9.550952, -0.22028875, 0.019991994, 9.955208
180893911576782, 0.64965135, 2.705086, 9.457631, -0.2218777, 0.009013414, 9.855811
180893921215949, 0.6041877, 2.7613173, 9.339187, -0.20595789, 0.10389507, 9.754851
180893930855220, 0.7716853, 2.7397819, 9.49472, -0.11321938, -0.03670609, 9.911481
180893940494387, 0.9822537, 2.774478, 9.68495, 0.0371871, -0.15588415, 10.121023
180893950133657, 1.052842, 2.882155, 9.77827, 0.13141823, -0.11885333, 10.246875
180893959772928, 1.0839486, 2.9443684, 9.830912, 0.16963434, -0.090999365, 10.3176565
180893969412095, 1.0301101, 3.0077782, 9.728021, 0.16273856, 0.007834792, 10.233068
180893979051366, 0.99661064, 2.9958138, 9.641879, 0.14091611, 0.029589653, 10.144615
180893988690532, 0.94755775, 3.010171, 9.513863, 0.13265872, 0.09184742, 10.022304
180893998329803, 0.93320084, 2.9706893, 9.38824, 0.12494898, 0.084223986, 9.890006
180894007969074, 0.910469, 2.9096723, 9.335598, 0.08379197, 0.048372984, 9.820347
180894017608241, 0.89371926, 2.8642087, 9.357133, 0.035567045, 0.003502369, 9.826346
180894027247512, 0.86141616, 2.8283165, 9.334401, -0.003939867, -0.0051357746, 9.791446
180894036886678, 0.8673982, 2.8187451, 9.316455, -0.0037231445, -0.01550734, 9.772093
180894046525949, 0.89371926, 2.8689942, 9.376275, 0.024069786, -0.001175046, 9.846005
180894056165220, 0.87218386, 2.8881369, 9.393025, 0.0051026344, 0.022165895, 9.865621
180894065804387, 0.9559326, 2.894119, 9.45165, 0.0584538, -0.025600076, 9.930729
180894075443657, 1.0085747, 2.9635108, 9.554541, 0.113141775, -0.012761593, 10.053652
180894085082824, 1.0695918, 3.0113673, 9.656236, 0.16310906, -0.01934886, 10.16997
180894094722095, 1.0959128, 3.0113673, 9.71845, 0.17245412, -0.045359373, 10.231609
180894104361366, 1.0073783, 2.9922247, 9.698111, 0.089962244, -0.012975931, 10.19869
180894114000532, 0.90807617, 2.932404, 9.62154, -0.006750107, -0.004844904, 10.099385
180894123639803, 0.83030945, 2.9371898, 9.517452, -0.049838066, 0.059171677, 9.994617
180894133278970, 0.80997044, 2.9072795, 9.479167, -0.07027376, 0.042618275, 9.947673
180894142918241, 0.79441714, 2.8953154, 9.433703, -0.07956469, 0.049189806, 9.899492
180894152557407, 0.81595254, 2.8869405, 9.437292, -0.06357503, 0.028082967, 9.902416
180894162196678, 0.8566305, 2.879762, 9.469596, -0.040789604, -0.013111353, 9.934698
180894171835949, 0.86141616, 2.9108686, 9.454042, -0.021229982, 0.011260986, 9.929428
180894181475116, 0.9236295, 2.9240294, 9.510274, 0.024051666, -0.022865057, 9.992361
180894191114387, 0.92602235, 2.949154, 9.519845, 0.035229206, -0.005224943, 10.009056
180894200753553, 0.9798609, 3.022135, 9.565309, 0.102939844, 0.019348621, 10.07857
180894210392824, 1.0013963, 3.0317063, 9.5557375, 0.12715316, 0.018786192, 10.074207
180894220032095, 0.98584294, 3.0041888, 9.460024, 0.12050319, 0.015550375, 9.9736805
180894229671262, 0.99661064, 2.9886355, 9.393025, 0.1376307, 0.01142478, 9.906312
180894239310532, 0.9906286, 3.001796, 9.382257, 0.1395979, 0.025472641, 9.899432
180894248949699, 0.9822537, 2.9922247, 9.364311, 0.13145185, 0.022890091, 9.878802
180894258588970, 0.91525465, 2.9766715, 9.337991, 0.074377775, 0.044982195, 9.84321
180894268228137, 0.9272188, 3.0065815, 9.343972, 0.09567726, 0.06473255, 9.858791
180894277867407, 0.94396853, 3.0412776, 9.383454, 0.12143016, 0.07626414, 9.908033
180894287506574, 0.9415757, 3.0412776, 9.389436, 0.12128782, 0.076793194, 9.913467
180894297145845, 0.9164511, 3.0376883, 9.428918, 0.0916307, 0.077753544, 9.947738
180894306785116, 0.92602235, 3.0089746, 9.4229355, 0.08871746, 0.052113533, 9.934415
180894316424282, 0.9379865, 2.9970105, 9.428918, 0.09233081, 0.03847742, 9.937625
180894326063553, 0.9559326, 2.9802606, 9.480363, 0.09023452, 0.004831314, 9.98323
180894335702720, 0.91525465, 2.9838498, 9.468399, 0.06273317, 0.032904148, 9.969285
180894345341991, 0.8817552, 2.9671001, 9.468399, 0.032723904, 0.03724122, 9.9613905
180894354981262, 0.8745767, 2.9168508, 9.473185, 0.010180473, 0.0013320446, 9.95058
180894364620428, 0.86859465, 2.9096723, 9.498309, -0.003546238, -0.007413864, 9.971885
180894374259699, 0.8554341, 2.8845477, 9.567701, -0.028188944, -0.029199123, 10.029538
180894383898866, 0.8135597, 2.8558338, 9.579665, -0.07574749, -0.032583952, 10.029
180894393538137, 0.7812566, 2.8342984, 9.565309, -0.10611153, -0.028778315, 10.00633
180894403177303, 0.762114, 2.82712, 9.5665045, -0.12645364, -0.024913073, 10.00374
180894412816574, 0.721436, 2.8761728, 9.506684, -0.122338295, 0.052153587, 9.957521
180894422455741, 0.73579293, 2.8139594, 9.462418, -0.11730504, 0.007540226, 9.898649
180894432095012, 0.74177504, 2.8223343, 9.473185, -0.11056018, 0.010456443, 9.911846
180894441734282, 0.7920243, 2.8175488, 9.54138, -0.08091521, -0.029614687, 9.979799
180894451373449, 0.8255238, 2.821138, 9.571291, -0.05962324, -0.043361902, 10.012217
180894461012720, 0.83748794, 2.8319056, 9.602397, -0.051426172, -0.046423674, 10.046009
180894470651887, 0.83748794, 2.8438697, 9.573684, -0.04652834, -0.024436831, 10.022057
180894480291157, 0.8985049, 2.9168508, 9.550952, 0.044935465, 0.0099698305, 10.026659
180894489930324, 0.77647096, 2.8402805, 9.669396, -0.123366594, -0.013232708, 10.107023
180894499569595, 1.1234303, 3.1250265, 9.38465, 0.37136078, 0.106420755, 9.947377
180894509208762, 0.7262217, 2.4538395, 9.594023, -0.33240438, -0.29341626, 9.919547
180894518848032, 1.0971092, 3.4863427, 9.5665045, 0.4857869, 0.38722086, 10.222051
180894528487303, 0.8781659, 2.1834507, 9.389436, -0.28886533, -0.5494412, 9.659959
180894538126470, 0.97866446, 3.621537, 9.83809, 0.37195516, 0.50956726, 10.510155
180894547765741, 0.99900347, 2.2145574, 9.136993, -0.092475176, -0.53512704, 9.438857
180894557404907, 0.6723832, 3.5066817, 9.890733, 0.058495283, 0.57040834, 10.4998455
180894567044178, 0.99302137, 2.5830522, 9.157332, 0.067661524, -0.2143029, 9.563706
180894576683345, 0.5276174, 2.906083, 9.869197, -0.33931673, 0.12888622, 10.295291
180894586322616, 1.0839486, 2.9982069, 9.293723, 0.3089819, 0.058941722, 9.820313
180894595961782, 0.6364908, 2.4059832, 9.669396, -0.417248, -0.30870116, 9.971044
180894605601053, 1.0516455, 3.406183, 9.637094, 0.37940645, 0.35198832, 10.262251
180894615240220, 0.7752745, 2.0985055, 9.480363, -0.4096403, -0.5864079, 9.714443
180894624879491, 0.89730847, 3.6000016, 9.860822, 0.29063654, 0.5307095, 10.5183115
180894634518762, 0.9451649, 2.1104696, 9.105886, -0.19500852, -0.5862831, 9.374584
180894644157928, 0.68075806, 3.3930225, 9.859626, 0.017403603, 0.47680926, 10.43842
180894653797199, 1.0301101, 2.4598217, 9.055637, 0.058403373, -0.32349896, 9.434424
180894663436366, 0.58265233, 2.9874392, 9.881161, -0.25856853, 0.1791532, 10.334537
180894673075637, 1.1174482, 2.9910283, 9.217153, 0.34774375, 0.0546875, 9.748176
180894682714803, 0.6628119, 2.4837499, 9.659825, -0.37113428, -0.23790061, 9.986301
180894692354074, 1.1270195, 3.4612179, 9.560523, 0.51207376, 0.3695687, 10.210534
180894701993241, 0.8566305, 2.2025933, 9.469596, -0.30238664, -0.52740085, 9.741093
180894711632512, 0.9834501, 3.6777685, 9.83809, 0.4349265, 0.5679898, 10.524706
180894721271678, 0.9667004, 2.1367905, 9.096315, -0.15930295, -0.56239593, 9.37559
180894730910949, 0.73818576, 3.4947174, 9.82493, 0.14348125, 0.5348184, 10.439379
180894740550116, 1.038485, 2.4478576, 8.98146, 0.08620751, -0.31522548, 9.361105
180894750189387, 0.5706882, 3.0245278, 9.804591, -0.21233463, 0.25175858, 10.271075
180894759828657, 1.0899308, 2.902494, 9.15135, 0.30948997, 0.0026599169, 9.65732
180894769467824, 0.6017949, 2.487339, 9.628718, -0.4096887, -0.1652019, 9.953195
180894779107095, 1.052842, 3.345166, 9.510274, 0.41492128, 0.32575285, 10.12253
180894788746262, 0.70947194, 2.0877378, 9.497113, -0.47467232, -0.5229639, 9.7241125
180894798385532, 0.9068798, 3.5557344, 9.893126, 0.3197415, 0.50434756, 10.534846
180894808024699, 0.8554341, 2.0315065, 9.249456, -0.2986436, -0.5950053, 9.485147
180894817663970, 0.6735796, 3.426522, 10.003195, 0.06355572, 0.5185034, 10.5823345
180894827303137, 0.96909314, 2.3018954, 9.171689, -0.058518887, -0.4097085, 9.4966545
180894836942407, 0.55393845, 3.0352955, 10.013963, -0.22561538, 0.2537595, 10.473014
180894846581574, 1.0205388, 2.8091738, 9.256635, 0.22439551, -0.03260243, 9.724549
180894856220845, 0.53599226, 2.4634109, 9.737592, -0.46641064, -0.13340461, 10.046943
180894865860012, 1.0013963, 3.2410784, 9.473185, 0.37663507, 0.30313408, 10.050614
180894875499282, 0.63170516, 2.03031, 9.455238, -0.53148127, -0.49966514, 9.663882
180894885138449, 0.8578269, 3.5030923, 9.795019, 0.3288114, 0.5326886, 10.419121
180894894777720, 0.8458628, 1.9776679, 9.212367, -0.32897437, -0.60143304, 9.435276
180894904416991, 0.7585248, 3.4791641, 9.958928, 0.1952858, 0.5283897, 10.561387
180894914056157, 1.0468599, 2.288735, 9.152547, 0.018924236, -0.4403292, 9.482039
180894923695428, 0.67477596, 3.1465619, 10.004392, -0.047831535, 0.3105228, 10.504539
180894933334595, 1.1413764, 2.833102, 9.2075815, 0.36304355, -0.049050212, 9.694048
180894942973866, 0.6329016, 2.617748, 9.670592, -0.2718594, -0.04009068, 10.034842
180894952613032, 1.0875379, 3.2829528, 9.342776, 0.5084691, 0.32483184, 9.94404
180894962252303, 0.69272214, 2.1272194, 9.403793, -0.40843844, -0.4210148, 9.64843
180894971891470, 0.90448695, 3.5102708, 9.713663, 0.37824345, 0.5401714, 10.347005
180894981530741, 0.82672024, 1.9405792, 9.160921, -0.33647978, -0.5961524, 9.37567
180894991169907, 0.7405786, 3.4408789, 9.848858, 0.1785047, 0.5655936, 10.442048
180895000809178, 1.006182, 2.1738794, 9.079565, -0.06424403, -0.4726317, 9.378121
180895010448345, 0.6257231, 3.0903304, 10.030712, -0.1346016, 0.29943705, 10.509477
180895020087616, 1.1377872, 2.672783, 9.327223, 0.24774027, -0.17371023, 9.76442
180895029726782, 0.6855437, 2.6165516, 9.954143, -0.29562807, -0.08782065, 10.31049
180895039366053, 1.160519, 3.196811, 9.583255, 0.4731109, 0.20482957, 10.155756
180895049005220, 0.6999006, 2.1355941, 9.664611, -0.45014954, -0.43349516, 9.902766
180895058644491, 0.91405827, 3.4672, 9.82493, 0.34666276, 0.5201411, 10.440092
180895068283657, 0.74895346, 1.8891335, 9.219545, -0.44084382, -0.5747385, 9.41303
180895077922928, 0.67118675, 3.3810585, 9.879965, 0.07430935, 0.5725087, 10.448084
180895087562095, 0.8889336, 2.0183458, 9.080762, -0.2187401, -0.5075649, 9.328381
180895097201366, 0.5623133, 3.0269206, 10.036695, -0.2021178, 0.3222953, 10.491377
180895106840532, 1.0576276, 2.5328028, 9.235099, 0.14786065, -0.1955663, 9.631231
180895116479803, 0.55393845, 2.57707, 9.83809, -0.38516378, 1.9907951E-5, 10.177809
180895126118970, 1.0971092, 3.0867412, 9.366704, 0.4304974, 0.21002638, 9.911474
180895135758241, 0.6735796, 2.1104696, 9.552148, -0.46252322, -0.3847803, 9.787201
180895145397512, 0.99661064, 3.4576287, 9.722038, 0.45440674, 0.5229876, 10.343426
180895155036678, 0.87338024, 1.9465612, 9.309277, -0.33685637, -0.57582164, 9.527303
180895164675949, 0.87338024, 3.4648073, 9.95175, 0.2968011, 0.54617, 10.555501
180895174315116, 1.0660025, 2.097309, 9.194421, -0.06853628, -0.53584146, 9.475264
180895183954387, 0.73579293, 3.1812577, 10.124033, 0.0020976067, 0.36403155, 10.631338
180895193593553, 1.160519, 2.5196424, 9.270991, 0.20495367, -0.2520882, 9.671666
180895203232824, 0.62931234, 2.6536403, 9.909875, -0.30696845, 0.029477954, 10.273674
180895212871991, 1.134198, 3.0161529, 9.359526, 0.4179325, 0.16515088, 9.888495
180895222511262, 0.66999036, 2.1415763, 9.613165, -0.46615493, -0.3506788, 9.854335
180895232150428, 1.0073783, 3.3667014, 9.74477, 0.40811753, 0.44328797, 10.341517
180895241789699, 0.7752745, 1.861616, 9.353543, -0.45763135, -0.5956714, 9.53893
180895251428866, 0.77766734, 3.426522, 9.929018, 0.1933229, 0.5885699, 10.514154
180895261068137, 0.89730847, 2.0027926, 9.108279, -0.23263538, -0.49665844, 9.352878
180895270707303, 0.57547385, 3.1465619, 9.98166, -0.12867951, 0.45905876, 10.470827
180895280346574, 1.0731809, 2.4179473, 9.144172, 0.122264385, -0.25021613, 9.515066
180895289985741, 0.6161518, 2.6811578, 9.882358, -0.29773366, 0.08122504, 10.253488
180895299625012, 1.1796615, 2.9563324, 9.345169, 0.43422604, 0.09362304, 9.862372
180895309264178, 0.7513463, 2.172683, 9.644272, -0.39137185, -0.3668201, 9.899966
180895318903449, 1.1162517, 3.3906298, 9.742377, 0.51059747, 0.4270159, 10.354384
180895328542616, 0.8769695, 1.963311, 9.436096, -0.3565998, -0.56013656, 9.655189
180895338181887, 0.8913264, 3.4528432, 9.957731, 0.30691957, 0.5560334, 10.55792
180895347821053, 0.9667004, 1.975275, 9.09153, -0.18987846, -0.5386976, 9.336268
180895357460324, 0.6771688, 3.2027931, 9.988838, -0.0069577694, 0.4651357, 10.501282
180895367099491, 1.0827522, 2.3629124, 9.178867, 0.0844028, -0.2950343, 9.534839
180895376738762, 0.58983076, 2.678765, 9.936196, -0.33497238, 0.093265295, 10.30198
180895386377928, 1.119841, 2.853441, 9.327223, 0.3304665, 0.06609726, 9.812221
180895396017199, 0.6412765, 2.1906292, 9.638289, -0.46970987, -0.27328372, 9.889964
180895405656366, 1.052842, 3.290131, 9.620343, 0.43089223, 0.4077747, 10.204534
180895415295637, 0.77647096, 1.8520447, 9.37149, -0.48204482, -0.56479967, 9.555441
180895424934803, 0.8578269, 3.3930225, 9.850055, 0.2871325, 0.55410874, 10.434682
180895434574074, 0.9499506, 1.8939191, 9.05803, -0.25178194, -0.5542461, 9.282599
180895444213345, 0.6855437, 3.182454, 9.919446, 0.011624098, 0.49728918, 10.428133
180895453852512, 1.0683953, 2.2995026, 9.096315, 0.055789232, -0.28626764, 9.438594
180895463491782, 0.65324056, 2.7792635, 9.915857, -0.22711742, 0.19022787, 10.31443
180895473130949, 1.2023934, 2.8689942, 9.309277, 0.40409505, 0.09967458, 9.806441
180895482770220, 0.7704889, 2.2815564, 9.722038, -0.33982658, -0.24073184, 10.007186
180895492409387, 1.2191432, 3.3284163, 9.780663, 0.52761364, 0.39763606, 10.3821745
180895502048657, 0.8997013, 1.9465612, 9.622736, -0.36156, -0.5612987, 9.836149
180895511687824, 0.9774681, 3.4516466, 10.040284, 0.31608653, 0.6026342, 10.640185
180895521327095, 0.9846465, 1.8628124, 9.257831, -0.2529701, -0.6010263, 9.472159
180895530966262, 0.73579293, 3.196811, 10.070194, -0.010282278, 0.5081147, 10.578824
180895540605532, 1.079163, 2.1487548, 9.24826, -0.053122044, -0.39962876, 9.547228
180895550244699, 0.5982057, 2.7218359, 10.113265, -0.3677628, 0.1862855, 10.482101
180895559883970, 1.0839486, 2.6955147, 9.377472, 0.18927598, 0.024275899, 9.815361
180895569523137, 0.58504516, 2.213361, 9.775877, -0.5699756, -0.15816736, 10.022929
180895579162407, 1.032503, 3.1645079, 9.640682, 0.32028437, 0.3950063, 10.186479
180895588801574, 0.7860422, 1.8448663, 9.538987, -0.5366943, -0.5247936, 9.718551
180895598440845, 1.006182, 3.359523, 9.908679, 0.3339343, 0.5188112, 10.492858
180895608080012, 1.0576276, 1.7874385, 9.107083, -0.24866748, -0.64926624, 9.314993
180895617719282, 0.9092726, 3.182454, 9.926624, 0.14730668, 0.43522227, 10.453781
180895627358449, 1.2550355, 2.115255, 9.078369, 0.059452772, -0.48205113, 9.393098
180895636997720, 0.8243274, 2.833102, 9.956535, -0.12977362, 0.19821465, 10.381832
180895646636887, 1.3280165, 2.7194428, 9.221938, 0.386086, -0.05763173, 9.697977
180895656276157, 0.81834537, 2.3748765, 9.704092, -0.33266687, -0.11356878, 10.017762
180895665915428, 1.2753744, 3.2219357, 9.568898, 0.5259404, 0.32024574, 10.15835
180895675554595, 0.9403793, 2.0219352, 9.637094, -0.40638041, -0.44844556, 9.873189
180895685193866, 1.1593226, 3.5102708, 10.025927, 0.46747422, 0.5683458, 10.660381
180895694833032, 1.1330016, 1.9704895, 9.37149, -0.21098363, -0.5573181, 9.624773
180895704472303, 0.9667004, 3.3690944, 10.091729, 0.19717407, 0.55829346, 10.666665
180895714111470, 1.2394822, 2.1750758, 9.1681, 0.036311388, -0.42102563, 9.494354
180895723750741, 0.80877405, 2.9467611, 9.9756775, -0.12947392, 0.30953252, 10.427804
180895733389907, 1.2957134, 2.6739793, 9.162118, 0.3306234, -0.03553295, 9.626156
180895743029178, 0.8039884, 2.3940191, 9.652647, -0.3333422, -0.09608805, 9.971509
180895752668345, 1.288535, 3.1657043, 9.35474, 0.5163336, 0.34663045, 9.940143
180895762307616, 0.9296116, 2.0279171, 9.482756, -0.38458204, -0.4307344, 9.724497
180895771946782, 1.1796615, 3.4839497, 9.801002, 0.48653436, 0.5747993, 10.441361
180895781586053, 1.0911272, 1.9214365, 9.148957, -0.21496677, -0.55286753, 9.393296
180895791225220, 1.0133604, 3.3990045, 9.895518, 0.28566957, 0.58501434, 10.491786
180895800864491, 1.2610176, 2.158326, 9.044869, 0.059746027, -0.42519224, 9.374105
180895810503762, 0.80518484, 2.9515467, 9.924232, -0.13089919, 0.32995236, 10.379033
180895820142928, 1.2669996, 2.5423741, 9.174082, 0.22870207, -0.12374151, 9.600268
180895829782199, 0.7262217, 2.408376, 9.768699, -0.42776048, -0.048840404, 10.078184
180895839421366, 1.1988041, 3.0412776, 9.41815, 0.35502625, 0.30237854, 9.958444
180895849060637, 0.80518484, 1.9501505, 9.578469, -0.5357188, -0.4426105, 9.783433
180895858699803, 1.0671989, 3.3523445, 9.907482, 0.29103923, 0.5377903, 10.49578
180895868339074, 0.95473623, 1.7587247, 9.425328, -0.4744792, -0.6391089, 9.602492
180895877978241, 0.83988076, 3.2733815, 10.177871, -0.006636381, 0.5633241, 10.709438
180895887617512, 1.0588241, 1.9680966, 9.369097, -0.2752776, -0.501881, 9.614927
180895897256678, 0.73818576, 2.955136, 10.237692, -0.2527697, 0.3494991, 10.672489
180895906895949, 1.2323036, 2.4861426, 9.402596, 0.11234999, -0.1684978, 9.801393
180895916535220, 0.74177504, 2.449054, 9.911072, -0.43141067, -0.005186796, 10.22699
180895926174387, 1.2239288, 2.9946175, 9.445667, 0.36033416, 0.24032462, 9.974909
180895935813657, 0.79920274, 1.9441684, 9.501899, -0.5442152, -0.39023733, 9.708562
180895945452824, 1.0755738, 3.266203, 9.742377, 0.2994597, 0.50089383, 10.314954
180895955092095, 1.0037891, 1.7431713, 9.3200445, -0.4525242, -0.6318261, 9.50292
180895964731262, 1.006182, 3.32722, 10.000802, 0.20460343, 0.54380894, 10.57172
180895974370532, 1.2071791, 1.9824536, 9.190832, -0.15025067, -0.53034633, 9.463348
180895984009699, 0.8446664, 3.0592237, 10.051051, -0.09012413, 0.41074717, 10.531812
180895993648970, 1.2861422, 2.5220351, 9.239884, 0.15824223, -0.14849484, 9.661428
180896003288241, 0.8350951, 2.5926232, 9.783055, -0.30092716, 0.08295727, 10.15036
180896012927407, 1.3507484, 3.0795627, 9.3200445, 0.4830656, 0.2492894, 9.8932295
180896022566678, 0.9667004, 2.1511476, 9.525827, -0.3743646, -0.3112017, 9.801344
180896032205845, 1.3375878, 3.473182, 9.6993065, 0.57014036, 0.5322896, 10.3595495
180896041845116, 1.2167503, 1.9824536, 9.292527, -0.18358159, -0.5470864, 9.561834
180896051484282, 1.302892, 3.5210385, 9.952946, 0.49763608, 0.56955934, 10.610577
180896061123553, 1.4811572, 2.0614166, 9.1681, 0.104150295, -0.5998792, 9.4935055
180896070762824, 1.1210374, 3.150151, 10.126426, 0.10218358, 0.3391384, 10.658294
180896080401991, 1.5337993, 2.4526432, 9.361918, 0.29330492, -0.3273207, 9.788788
180896090041262, 0.9559326, 2.5950162, 9.97807, -0.2791536, -0.019413114, 10.350435
180896099680428, 1.3926228, 2.865405, 9.387043, 0.35115743, 0.08313191, 9.906376
180896109319699, 0.92243314, 2.0231316, 9.552148, -0.4867823, -0.40767562, 9.786946
180896118958866, 1.253839, 3.237489, 9.625129, 0.34975028, 0.43188512, 10.217031
180896128598137, 1.0456635, 1.8113668, 9.27817, -0.42710948, -0.5961084, 9.482674
180896138237407, 1.0983056, 3.4109688, 9.828519, 0.24983358, 0.62122345, 10.439946
180896147876574, 1.2658032, 2.0279171, 9.083155, -0.06740451, -0.5012704, 9.378838
180896157515845, 0.9906286, 3.2889347, 10.001999, 0.06631303, 0.54851806, 10.560927
180896167155012, 1.4213367, 2.475375, 9.215957, 0.2434833, -0.22080147, 9.642278
180896176794282, 0.9451649, 2.705086, 9.937392, -0.22458625, 0.08589685, 10.3394785
180896186433553, 1.4584254, 2.882155, 9.348758, 0.43383145, 0.077619195, 9.881238
180896196072720, 0.9667004, 2.0985055, 9.669396, -0.4365952, -0.37264395, 9.925018
180896205711991, 1.314856, 3.225525, 9.707682, 0.395988, 0.3767935, 10.299181
180896215351157, 1.0456635, 1.7898313, 9.458828, -0.45814705, -0.63883996, 9.651337
180896224990428, 1.1042876, 3.3714871, 9.958928, 0.275079, 0.56443477, 10.553311
180896234629699, 1.1892328, 1.9130617, 9.183653, -0.22044802, -0.5510133, 9.437232
180896244268866, 0.91525465, 3.1657043, 10.052248, 8.9645386E-4, 0.4864273, 10.567425
180896253908137, 1.3052847, 2.3282163, 9.305687, 0.079153776, -0.29382157, 9.676136
180896263547303, 0.8147561, 2.7397819, 10.048658, -0.29540086, 0.18616712, 10.441448
180896273186574, 1.3351951, 2.8139594, 9.42174, 0.3239851, 0.079607844, 9.917609
180896282825845, 0.8554341, 2.132005, 9.759128, -0.48801923, -0.29622686, 10.009587
180896292465012, 1.274178, 3.1657043, 9.754341, 0.36203027, 0.35105956, 10.321729
180896302104282, 1.0396814, 1.7922242, 9.570094, -0.43977392, -0.6508245, 9.760264
180896311743449, 1.1581261, 3.3343983, 10.029516, 0.28928375, 0.5063685, 10.616525
180896321382720, 1.2658032, 1.8221345, 9.247063, -0.16151047, -0.6900729, 9.483054
180896331021991, 1.052842, 3.2075787, 10.070194, 0.14662862, 0.438048, 10.61096
180896340661157, 1.4440684, 2.2660031, 9.239884, 0.19830656, -0.41554725, 9.611636
180896350300428, 0.9415757, 2.7290142, 9.991231, -0.15997934, 0.10999882, 10.398129
180896359939699, 1.3890336, 2.7026932, 9.2793665, 0.36186385, -0.051682234, 9.757408
180896369578866, 0.8446664, 2.164308, 9.6682, -0.45888853, -0.243518, 9.929849
180896379218137, 1.1904292, 3.178865, 9.592826, 0.37635422, 0.39406443, 10.161087
180896388857303, 0.81834537, 1.8400806, 9.45165, -0.5833087, -0.47417068, 9.634529
180896398496574, 0.9822537, 3.3619158, 9.8428755, 0.23366547, 0.60933423, 10.427061
180896408135845, 1.0468599, 1.8329022, 9.059227, -0.30104613, -0.55771816, 9.280268
180896417775012, 0.86859465, 3.225525, 9.85484, 0.047879457, 0.55635595, 10.390597
180896427414282, 1.2131611, 2.2073789, 9.077172, 0.0060100555, -0.34171033, 9.413956
180896437053553, 0.77647096, 2.882155, 10.003195, -0.24727106, 0.29277754, 10.432007
180896446692720, 1.3064811, 2.8606195, 9.395418, 0.33102918, 0.102841854, 9.901704
180896456331991, 0.8781659, 2.4478576, 9.845269, -0.33385968, -0.092739105, 10.177055
180896465971262, 1.3974084, 3.3260236, 9.647861, 0.59076214, 0.40032816, 10.27556
180896475610428, 1.0935199, 1.9465612, 9.431311, -0.27033973, -0.5690104, 9.671487
180896485249699, 1.2191432, 3.35713, 9.706485, 0.44653225, 0.4964162, 10.321175
180896494888866, 1.14018, 1.7874385, 8.993423, -0.21968865, -0.6415656, 9.215028
180896504528137, 0.8997013, 3.2470603, 9.82493, 0.09155035, 0.5604446, 10.371097
180896514167407, 1.1353943, 2.231307, 9.15494, -0.045058012, -0.29165196, 9.4865
180896523806678, 0.71306115, 3.0460632, 10.124033, -0.22685552, 0.44487667, 10.584593
180896533445845, 1.3016955, 2.865405, 9.554541, 0.31062937, 0.09520888, 10.054285
180896543085116, 0.8673982, 2.4442682, 9.957731, -0.3475207, -0.111772776, 10.283481
180896552724282, 1.2957134, 3.1286156, 9.595219, 0.43740606, 0.29064143, 10.161671
180896562363553, 0.9559326, 1.881955, 9.391829, -0.42531538, -0.50864387, 9.6032505
180896572002824, 1.2454642, 3.359523, 9.5964155, 0.5022578, 0.51936114, 10.217962
180896581641991, 1.2729816, 1.8592232, 8.922835, -0.05658269, -0.63035214, 9.181157
180896591281262, 1.2083755, 3.3643086, 9.725628, 0.45343018, 0.513901, 10.339096
180896600920532, 1.5134603, 2.2145574, 9.010174, 0.29110456, -0.47867966, 9.384253
180896610559803, 1.0779666, 3.0089746, 9.95175, 0.11730695, 0.26727653, 10.448351
180896620198970, 1.5278172, 2.71705, 9.326026, 0.49737525, -0.1145463, 9.8199215
180896629838241, 0.99302137, 2.4394827, 9.80818, -0.1920867, -0.107786894, 10.153279
180896639477512, 1.4668003, 3.1345978, 9.601201, 0.6048088, 0.23062456, 10.185347
180896649116678, 1.1138589, 1.9848464, 9.707682, -0.30217338, -0.5196199, 9.952791
180896658755949, 1.4069797, 3.3894334, 10.133604, 0.5866325, 0.39331043, 10.754484
180896668395220, 1.3016955, 1.8520447, 9.736395, -0.18779278, -0.7247954, 9.968013
180896678034387, 1.1138589, 3.3176486, 10.573883, 0.22912598, 0.4449333, 11.126726
180896687673657, 1.2263216, 2.0386848, 9.77827, -0.14963245, -0.53720933, 10.048068
180896697312928, 0.76570326, 2.9012976, 10.565509, -0.24529338, 0.30291283, 10.976424
180896706952095, 1.125823, 2.4634109, 9.647861, 0.030641079, -0.13499606, 10.0198765
180896716591366, 0.5491528, 2.2791636, 9.876375, -0.58911324, 0.014687777, 10.133692
180896726230637, 0.9379865, 2.7768707, 9.334401, 0.114834785, 0.26028657, 9.779617
180896735869907, 0.47018966, 1.6462619, 9.157332, -0.83541334, -0.36441147, 9.271317
180896745509074, 0.6903293, 2.9635108, 9.328419, 0.0014262199, 0.52317595, 9.798197
180896755148345, 0.52283174, 1.4344971, 8.823533, -0.83578825, -0.5304817, 8.899771
180896764787616, 0.45583272, 3.0089746, 9.486345, -0.1862824, 0.66838264, 9.93836
180896774426782, 0.6556334, 1.7635103, 8.717052, -0.5121685, -0.33352745, 8.896813
180896784066053, 0.31226337, 2.8295128, 9.658628, -0.4361149, 0.57685745, 10.043396
180896793705324, 0.8003992, 2.388037, 9.02453, -0.0999676, 0.06710255, 9.368619
180896803344595, 0.40558344, 2.5088747, 9.74477, -0.51601815, 0.28637218, 10.053417
180896812983762, 0.98943216, 3.0795627, 9.523434, 0.31002712, 0.47353256, 10.04182
180896822623032, 0.7465607, 2.0721843, 9.765109, -0.46888995, -0.24704778, 9.996387
180896832262303, 1.180858, 3.2614172, 10.042677, 0.44456434, 0.4471346, 10.606087
180896841901470, 1.1030912, 1.6366907, 9.58804, -0.36533678, -0.74947584, 9.753507
180896851540741, 1.2035898, 3.0999017, 10.150353, 0.34741282, 0.30754364, 10.671101
180896861180012, 1.4823537, 1.6809579, 9.340384, 0.022299767, -0.8656713, 9.566393
180896870819282, 1.1880364, 2.784049, 10.230514, 0.14787626, 0.08000183, 10.667591
180896880458449, 1.5720844, 2.2372892, 9.516255, 0.3606522, -0.4635141, 9.883881
180896890097720, 0.9619147, 2.4933212, 10.140782, -0.15974069, -0.013877511, 10.485785
180896899736991, 1.3519448, 2.9862428, 9.662218, 0.51906323, 0.25883162, 10.18663
180896909376262, 0.87338024, 2.082952, 9.665807, -0.3318982, -0.22865963, 9.918009
180896919015428, 1.2000005, 3.3140593, 9.755538, 0.555774, 0.591149, 10.340947
180896928654699, 0.9954142, 1.7682959, 9.382257, -0.33804727, -0.4964679, 9.580381
180896938293970, 1.0396814, 3.2123644, 10.017552, 0.3190868, 0.5622573, 10.551475
180896947933241, 1.1676974, 1.7168503, 9.263813, -0.19658351, -0.60960674, 9.472016
180896957572407, 0.8350951, 2.8761728, 10.1599245, -0.053497553, 0.39504433, 10.584655
180896967211678, 1.2418749, 2.1260228, 9.335598, 0.066666365, -0.3191409, 9.649319
180896976850949, 0.7920243, 2.3282163, 9.8321085, -0.3083024, 0.025384665, 10.130279
180896986490220, 1.3304094, 2.6572297, 9.410972, 0.39955282, 0.060705304, 9.860724
180896996129387, 0.95473623, 1.9130617, 9.804591, -0.38374162, -0.39553988, 10.019861
180897005768657, 1.3304094, 3.0735807, 10.009177, 0.4691832, 0.33194733, 10.538983
180897015407928, 1.0719845, 1.5672989, 9.7399845, -0.45495188, -0.7318773, 9.88586
180897025047199, 1.0444671, 3.1393833, 10.299905, 0.18582106, 0.495741, 10.805296
180897034686470, 1.0552348, 1.7324036, 9.4432745, -0.3499105, -0.53543144, 9.637482
180897044325637, 0.7477571, 2.9635108, 10.133604, -0.123236656, 0.5367712, 10.570156
180897053964907, 1.1066805, 2.1894326, 9.230313, -0.03962946, -0.17309332, 9.5491085
180897063604178, 0.6664011, 2.5555346, 9.851251, -0.34613776, 0.2848363, 10.18926
180897073243449, 1.1485549, 2.7182465, 9.272188, 0.26371717, 0.22307014, 9.724311
180897082882720, 0.721436, 2.0051854, 9.5353985, -0.5259687, -0.15450203, 9.755233
180897092521887, 1.1832508, 3.1058838, 9.552148, 0.4341042, 0.46854126, 10.09367
180897102161157, 0.97866446, 1.6713866, 9.211171, -0.42468953, -0.5226402, 9.388474
180897111800428, 1.1892328, 3.211168, 9.676575, 0.45451784, 0.5419873, 10.240196
180897121439699, 1.3256238, 1.7862421, 9.02453, -0.042771816, -0.5934977, 9.27556
180897131078866, 1.1653047, 3.1549366, 9.969695, 0.35698867, 0.46501005, 10.505365
180897140718137, 1.5613167, 2.3234308, 9.323633, 0.36514568, -0.33095443, 9.722309
180897150357407, 1.0516455, 2.7469604, 10.031909, 0.022197485, 0.21516895, 10.451994
180897159996678, 1.4596218, 2.751746, 9.346365, 0.50964403, 0.08047557, 9.838238
180897169635949, 0.9200403, 2.0602202, 9.580862, -0.3618574, -0.18258381, 9.834614
180897179275220, 1.274178, 3.048456, 9.546165, 0.45571446, 0.42681324, 10.082463
180897188914387, 0.90329057, 1.6450655, 9.396614, -0.5559561, -0.4821142, 9.553902
180897198553657, 1.052842, 3.1262228, 9.944571, 0.21265388, 0.5661452, 10.459947
180897208192928, 1.1114662, 1.6307086, 9.38824, -0.37599337, -0.60427547, 9.566979
180897217832199, 0.9810573, 2.9587252, 10.273584, -0.014870405, 0.43917978, 10.727066
180897227471470, 1.294517, 1.9202402, 9.521041, -0.11251569, -0.4715538, 9.786638
180897237110741, 0.8327023, 2.4454648, 10.2317095, -0.38502836, 0.12657762, 10.545013
180897246749907, 1.262214, 2.4119651, 9.524631, 0.11428404, -0.037783623, 9.905294
180897256389178, 0.7573284, 1.9334008, 9.790234, -0.61711144, -0.17019403, 9.987515
180897266028449, 1.1904292, 2.8977082, 9.656236, 0.27180123, 0.3853793, 10.140727
180897275667720, 0.9068798, 1.6271194, 9.519845, -0.6095836, -0.45863318, 9.67034
180897285306991, 1.1653047, 3.2183464, 9.917053, 0.3599496, 0.627625, 10.466144
180897294946262, 1.2251252, 1.719243, 9.193225, -0.24094152, -0.51683944, 9.415252
180897304585428, 1.1892328, 3.1310084, 9.968499, 0.30071282, 0.55074143, 10.497367
180897314224699, 1.5337993, 2.097309, 9.218349, 0.20270157, -0.3886513, 9.5675
180897323863970, 1.1617154, 2.737389, 10.052248, 0.045041323, 0.24315107, 10.479954
180897333503241, 1.6247265, 2.5842485, 9.416953, 0.48108745, -0.056074977, 9.887492
180897343142512, 1.1294123, 2.164308, 9.827323, -0.24683166, -0.16249037, 10.121697
180897352781782, 1.544567, 3.0113673, 9.682557, 0.58048534, 0.29933476, 10.236179
180897362421053, 1.1306087, 1.7563318, 9.603594, -0.41453266, -0.4590332, 9.808641
180897372060220, 1.2658032, 3.2075787, 9.924232, 0.40282297, 0.59338, 10.481737
180897381699491, 1.1880364, 1.6414764, 9.253045, -0.35164547, -0.5326616, 9.450786
180897391338762, 1.1270195, 3.0616167, 10.025927, 0.19081354, 0.548046, 10.527397
180897400978032, 1.4356936, 1.9381863, 9.311669, -0.006304264, -0.43584746, 9.60911
180897410617303, 1.1138589, 2.6069803, 10.187443, -0.11587596, 0.18201447, 10.572344
180897420256574, 1.5637096, 2.3377876, 9.549755, 0.26144552, -0.20705092, 9.949725
180897429895845, 1.0707881, 2.0781665, 9.98166, -0.38351822, -0.19868183, 10.242671
180897439535116, 1.4524434, 2.8055844, 9.726824, 0.36916637, 0.2171433, 10.218052
180897449174282, 1.0731809, 1.7515461, 9.674182, -0.49233758, -0.42598218, 9.868412
180897458813553, 1.2454642, 2.5399811, 9.741181, 0.04300189, 0.11512315, 10.142889
180897468452824, 1.227518, 2.3389843, 9.635897, -0.05737686, -0.02822411, 9.9911995
180897478092095, 1.2323036, 2.4346972, 9.611969, 9.3984604E-4, 0.05156243, 9.991677
180897487731366, 1.2418749, 2.4035904, 9.623933, -0.012552977, 0.019028664, 9.996953
180897497370637, 1.2179468, 2.4311078, 9.5868435, -0.01613164, 0.059082985, 9.964814
180897507009907, 1.2000005, 2.4323041, 9.538987, -0.01905942, 0.07626808, 9.916763
180897516649178, 1.2107682, 2.4047868, 9.475577, -0.014844656, 0.05559373, 9.850494
180897526288449, 1.2167503, 2.3856442, 9.457631, -0.020157576, 0.03913319, 9.829376
180897535927720, 1.2107682, 2.3844478, 9.469596, -0.03216195, 0.042208314, 9.839815
180897545566887, 1.2418749, 2.3916261, 9.523434, -0.019348145, 0.02750957, 9.897312
180897555206157, 1.288535, 2.4071796, 9.61795, -0.0015389919, 0.012642264, 9.997982
180897564845428, 1.3172488, 2.382055, 9.640682, 0.0033142567, -0.026930213, 10.017551
180897574484699, 1.3674982, 2.3904297, 9.676575, 0.039031744, -0.04627514, 10.060647
180897584123970, 1.4057833, 2.4119651, 9.7399845, 0.06591797, -0.050778866, 10.131841
180897593763241, 1.4596218, 2.4478576, 9.851251, 0.10227966, -0.057088256, 10.254557
180897603402512, 1.5134603, 2.4825535, 9.962517, 0.1371665, -0.065553665, 10.377007
180897613041782, 1.442872, 2.440679, 9.988838, 0.04920864, -0.0604012, 10.3831415
180897622681053, 1.3363914, 2.353341, 9.902697, -0.07005477, -0.060616374, 10.265426
180897632320324, 1.2023934, 2.2983062, 9.783055, -0.18279576, -0.01600194, 10.119409
180897641959595, 1.1102697, 2.2564318, 9.68136, -0.25538206, 0.014079928, 9.999373
180897651598866, 1.0600204, 2.2504497, 9.5665045, -0.26932764, 0.048499346, 9.880856
180897661238137, 1.0911272, 2.248057, 9.549755, -0.2409575, 0.032718062, 9.868284
180897670877407, 1.154537, 2.268396, 9.578469, -0.18132186, 0.010732651, 9.909221
180897680516574, 1.2358929, 2.3318057, 9.658628, -0.096936226, 0.006550312, 10.012213
180897690155845, 1.2753744, 2.367698, 9.698111, -0.05343914, 0.009076357, 10.063946
180897699795116, 1.302892, 2.3916261, 9.695718, -0.022755146, 0.015362024, 10.070929
180897709434387, 1.2669996, 2.382055, 9.638289, -0.047905445, 0.037395597, 10.008618
180897719073657, 1.288535, 2.3892334, 9.613165, -0.021131754, 0.032338142, 9.989006
180897728712928, 1.294517, 2.4131618, 9.580862, -0.0026054382, 0.05208862, 9.964405
180897738352199, 1.3280165, 2.4239295, 9.523434, 0.032494307, 0.049564958, 9.916216
180897747991470, 1.3579268, 2.4346972, 9.529416, 0.056246042, 0.042515397, 9.928573
180897757630741, 1.3615161, 2.457429, 9.533006, 0.06678152, 0.061852813, 9.937936
180897767270012, 1.442872, 2.481357, 9.583255, 0.13229132, 0.029277205, 10.002971
180897776909282, 1.4955142, 2.495714, 9.5964155, 0.17038679, 0.019474387, 10.026313
180897786548553, 1.5194423, 2.5052853, 9.59163, 0.19585323, 0.017894387, 10.027255
180897796187824, 1.5158532, 2.4969103, 9.57488, 0.18255615, 0.019251943, 10.008845
180897805827095, 1.4715859, 2.469393, 9.5665045, 0.13436127, 0.020848393, 9.988142
180897815466366, 1.4141582, 2.4143581, 9.5665045, 0.05001664, 0.018550158, 9.967154
180897825105637, 1.3722838, 2.376073, 9.552148, -4.4178963E-4, 0.012025952, 9.938423
180897834744907, 1.4117653, 2.3724837, 9.615558, 0.011581898, -0.015787601, 10.004017
180897844384178, 1.4560326, 2.3688943, 9.694521, 0.024054289, -0.040793657, 10.085296
180897854023449, 1.5014962, 2.3688943, 9.762716, 0.043368816, -0.06817722, 10.157277
180897863662720, 1.4991034, 2.359323, 9.802198, 0.027050972, -0.07259619, 10.192684
180897873301991, 1.5038891, 2.333002, 9.795019, 0.020103693, -0.09032369, 10.180295
180897882941262, 1.4871392, 2.333002, 9.722038, 0.024560928, -0.072309256, 10.107754
180897892580532, 1.4835501, 2.300699, 9.682557, 0.012853146, -0.08367455, 10.061754
180897902219803, 1.4392828, 2.3282163, 9.662218, -0.0033566952, -0.033729672, 10.042382
180897911859074, 1.4261223, 2.3389843, 9.629914, -0.0011119843, -0.0097978115, 10.011983
180897921498345, 1.402194, 2.3485553, 9.62154, -0.014152527, 0.01883614, 10.0027685
180897931137616, 1.4153546, 2.353341, 9.61795, -1.9359589E-4, 0.018599272, 10.002304
180897940776887, 1.4153546, 2.3365912, 9.611969, -0.008673906, 0.00893271, 9.992632
180897950416157, 1.410569, 2.3557339, 9.579665, 0.004896641, 0.03405583, 9.96534
180897960055428, 1.3710874, 2.341377, 9.521041, -0.019261122, 0.052170515, 9.899954
180897969694699, 1.3986049, 2.3389843, 9.585648, -0.01954627, 0.033690095, 9.9654455
180897979333970, 1.3782659, 2.3509483, 9.595219, -0.032109976, 0.05807638, 9.974488
180897988973241, 1.3591232, 2.3449662, 9.638289, -0.061435938, 0.060158968, 10.01176
180897998612512, 1.3998013, 2.3437698, 9.680164, -0.038604498, 0.03498602, 10.057613
180898008251782, 1.4057833, 2.3102703, 9.700503, -0.050006628, 0.0111835, 10.07029
180898017891053, 1.4273187, 2.268396, 9.707682, -0.053533554, -0.03093195, 10.070657
180898027530324, 1.4249259, 2.2301106, 9.701699, -0.07486677, -0.059844375, 10.055724
180898037169595, 1.4500505, 2.2265215, 9.686146, -0.04738331, -0.06503332, 10.0436535
180898046808866, 1.451247, 2.2002003, 9.688539, -0.061070204, -0.08741754, 10.04009
180898056448137, 1.4404793, 2.2061825, 9.71486, -0.07572842, -0.067080975, 10.065311
180898066087407, 1.4321043, 2.2169502, 9.747163, -0.085217714, -0.052467525, 10.097673
180898075726678, 1.4452649, 2.239682, 9.760324, -0.0655942, -0.043139815, 10.117449
180898085365949, 1.4739788, 2.2731814, 9.790234, -0.032314062, -0.02630508, 10.158095
180898095005220, 1.5278172, 2.2935205, 9.799805, 0.019679785, -0.040003777, 10.179815
180898104644491, 1.5337993, 2.2995026, 9.779466, 0.032702923, -0.03406298, 10.162479
180898114283762, 1.5397813, 2.3114667, 9.755538, 0.050020695, -0.026327014, 10.143033
180898123923137, 1.5553347, 2.3030918, 9.720842, 0.06476498, -0.037315488, 10.110019
180898133562407, 1.5254245, 2.271985, 9.68495, 0.030205727, -0.03929043, 10.064026
180898143201678, 1.4883357, 2.248057, 9.671789, -0.012267351, -0.03333819, 10.040476
180898152840949, 1.4931214, 2.2456641, 9.713663, -0.023792505, -0.04008442, 10.080947
180898162480220, 1.4691931, 2.251646, 9.701699, -0.035304308, -0.020127118, 10.067261
180898172119491, 1.4213367, 2.2360928, 9.695718, -0.080464125, -0.0025063157, 10.050909
180898181758762, 1.4153546, 2.2217357, 9.680164, -0.09063697, -0.00934881, 10.03178
180898191398032, 1.4141582, 2.2229323, 9.650253, -0.08497977, -0.0045830607, 10.00307
180898201037303, 1.4584254, 2.2073789, 9.632308, -0.056106567, -0.041309953, 9.988794
180898210676574, 1.4488541, 2.2552354, 9.65145, -0.04199648, 6.605983E-4, 10.0166855
180898220315845, 1.4668003, 2.2959132, 9.68136, -0.015699148, 0.021118402, 10.057374
180898229955116, 1.4859428, 2.3425734, 9.716056, 0.00919199, 0.04404813, 10.104226
180898239594387, 1.5122639, 2.3545375, 9.6993065, 0.037365198, 0.039085746, 10.094772
180898249233657, 1.5266209, 2.3557339, 9.658628, 0.060329676, 0.035197735, 10.058046
180898258872928, 1.5266209, 2.3629124, 9.616755, 0.06991291, 0.042030215, 10.019443
180898268512199, 1.5290136, 2.3521447, 9.590433, 0.070596695, 0.032699227, 9.992038
180898278151470, 1.5254245, 2.3784657, 9.6071825, 0.07850146, 0.053684235, 10.013637
180898287790845, 1.5134603, 2.3401806, 9.59163, 0.049275637, 0.031282425, 9.988142
180898297430116, 1.5086746, 2.3054845, 9.579665, 0.027113914, 0.006926179, 9.9679785
180898307069387, 1.5086746, 2.3186452, 9.580862, 0.032238245, 0.016961694, 9.972152
180898316708657, 1.5122639, 2.3054845, 9.603594, 0.020005941, 0.0023730993, 9.991538
180898326347928, 1.5086746, 2.3114667, 9.631111, 0.010656118, 0.007495582, 10.018839
180898335987199, 1.5218352, 2.2959132, 9.632308, 0.009806871, -0.011612594, 10.018399
180898345626470, 1.5421742, 2.306681, 9.686146, 0.012938261, -0.017657936, 10.075714
180898355265741, 1.5481563, 2.3306093, 9.728021, 0.01777196, -0.004931569, 10.122379
180898364905012, 1.5433706, 2.3138595, 9.732806, 0.0020167828, -0.016037524, 10.122411
180898374544282, 1.544567, 2.2983062, 9.737592, -0.0068252087, -0.02980423, 10.123619
180898384183553, 1.5349957, 2.271985, 9.702896, -0.021024227, -0.0425542, 10.08276
180898393822928, 1.5194423, 2.2588246, 9.677772, -0.033610344, -0.042003274, 10.053227
180898403462199, 1.5361922, 2.2755744, 9.649057, -0.0017044544, -0.035746813, 10.032007
180898413101470, 1.5134603, 2.306681, 9.625129, 0.0025494099, 0.005076885, 10.0127125
180898422740741, 1.5194423, 2.2983062, 9.609575, 0.008285284, -0.0038597584, 9.996738
