timestamp_acc,device_acc_x,device_acc_y,device_acc_z,earth_acc_x,earth_acc_y,earth_acc_z
97244737347802, 8.281559, -0.24765715, 5.682954, 0.0098809, -0.053118706, 10.046821
97244746986448, 8.29472, -0.23449662, 5.7140603, -0.008034885, -0.06801748, 10.074878
97244756625094, 8.304291, -0.22971097, 5.6949177, -0.0077167153, -0.044543266, 10.071944
97244766263740, 8.309076, -0.25124636, 5.6817575, 0.016078293, -0.035324574, 10.068999
97244775902386, 8.305488, -0.23569304, 5.6530433, 0.007545769, -0.0110292435, 10.049547
97244785541032, 8.293523, -0.23928227, 5.633901, 0.013213038, -0.0026550293, 10.028979
97244795179573, 8.297112, -0.24765715, 5.6171513, 0.024900138, 0.010951519, 10.022727
97244804818219, 8.299505, -0.23449662, 5.611169, 0.013089955, 0.018512726, 10.021051
97244814456865, 8.309076, -0.22851457, 5.6207404, 0.005622506, 0.015898705, 10.034213
97244824095511, 8.310273, -0.21415763, 5.6099725, -0.008231342, 0.025176525, 10.028839
97244833734157, 8.282756, -0.2117648, 5.6303115, -0.016364157, -0.008477688, 10.017432
97244843372802, 8.286345, -0.20817557, 5.605187, -0.01557374, 0.014642715, 10.006224
97244853011448, 8.299505, -0.19142582, 5.593223, -0.029389262, 0.032145023, 10.010028
97244862650094, 8.29472, -0.17826529, 5.572884, -0.03892553, 0.04878664, 9.994364
97244872288740, 8.289934, -0.19980069, 5.5453663, -0.012844682, 0.063632965, 9.97546
97244881927386, 8.299505, -0.20937198, 5.5740805, -0.0062209964, 0.043393135, 9.999703
97244891566032, 8.285149, -0.20338993, 5.5908303, -0.015926123, 0.022651196, 9.997084
97244901204677, 8.29472, -0.2117648, 5.6075797, -0.009768486, 0.012939453, 10.014585
97244910843323, 8.293523, -0.22851457, 5.656633, -6.445646E-4, -0.02942133, 10.041483
97244920481969, 8.333005, -0.24646074, 5.6757755, 0.017553985, -0.02470541, 10.085298
97244930120615, 8.344969, -0.24047868, 5.7188463, 0.005898595, -0.050462246, 10.119238
97244939758770, 8.35454, -0.2428715, 5.7188463, 0.00900054, -0.044681072, 10.127213
97244949398353, 8.349754, -0.24047868, 5.704489, 0.009064257, -0.034677982, 10.115144
97244959036998, 8.311469, -0.24765715, 5.68415, 0.016526401, -0.040584087, 10.072214
97244968675644, 8.301898, -0.23090738, 5.639883, 0.006311536, -0.0077910423, 10.039073
97244978314290, 8.292327, -0.21535404, 5.605187, -0.004365444, 0.014587879, 10.011341
97244987952936, 8.30788, -0.21296121, 5.588437, -0.0028448105, 0.034771442, 10.0147705
97244997591582, 8.321041, -0.20697916, 5.5776696, -0.0062966347, 0.04939747, 10.019506
97245007230228, 8.293523, -0.18424734, 5.572884, -0.030402362, 0.040328026, 9.9935465
97245016868873, 8.311469, -0.18544376, 5.5597234, -0.025224745, 0.060662746, 10.001057
97245026507519, 8.312666, -0.21655045, 5.558527, 0.005654216, 0.052490234, 10.002088
97245036146165, 8.318648, -0.22013968, 5.572884, 0.0074889064, 0.042261124, 10.015166
97245045784811, 8.304291, -0.22731815, 5.5513487, 0.017681181, 0.049670696, 9.991378
97245055423457, 8.29113, -0.21535404, 5.572884, 0.0016764998, 0.026535034, 9.992275
97245065062103, 8.329415, -0.19381863, 5.483153, -0.0011315346, 0.12458849, 9.973272
97245074700748, 8.288737, -0.2213361, 5.621937, 3.6239624E-5, -0.015550137, 10.017889
97245084339394, 8.285149, -0.2213361, 5.6147585, 0.0021029115, -0.014018059, 10.010894
97245093978040, 8.29472, -0.17228323, 5.6685967, -0.052553654, -0.039530277, 10.04792
97245103616582, 8.330612, -0.16630118, 5.65424, -0.050589263, -0.0047540665, 10.0694895
97245113255228, 8.323434, -0.19980069, 5.669793, -0.02101636, -0.027733803, 10.072975
97245122893873, 8.3377905, -0.19501504, 5.6997037, -0.02744621, -0.04075384, 10.101534
97245132532519, 8.335398, -0.2117648, 5.7080784, -0.012230217, -0.05230236, 10.104601
97245142171165, 8.329415, -0.22372891, 5.6937213, 0.0013380051, -0.045170784, 10.091859
97245151809811, 8.342576, -0.21655045, 5.676972, -0.0017237067, -0.022931099, 10.093214
97245161448457, 8.306684, -0.22731815, 5.662615, 0.0064864755, -0.034402847, 10.055677
97245171087103, 8.293523, -0.23330021, 5.6207404, 0.018170416, -0.008889198, 10.0214405
97245180725748, 8.280363, -0.22372891, 5.6171513, 0.0071361065, -0.012307167, 10.008329
97245190364394, 8.286345, -0.2416751, 5.595616, 0.027717888, 0.0037851334, 10.001603
97245200003040, 8.304291, -0.24765715, 5.5920267, 0.03499323, 0.014663696, 10.0145855
97245209641686, 8.328219, -0.25603202, 5.5908303, 0.04456091, 0.026192665, 10.033917
97245219280332, 8.333005, -0.23688944, 5.578866, 0.025685549, 0.039560795, 10.030783
97245228918978, 8.328219, -0.2321038, 5.5776696, 0.020535529, 0.038885117, 10.026045
97245238557623, 8.335398, -0.22731815, 5.572884, 0.016621888, 0.046055794, 10.029216
97245248196269, 8.3174515, -0.22013968, 5.558527, 0.010765076, 0.04801941, 10.006161
97245257834915, 8.310273, -0.19621146, 5.5202417, -0.004991472, 0.079025745, 9.978273
97245267473561, 8.286345, -0.18305093, 5.505885, -0.01621139, 0.07943106, 9.950136
97245277112207, 8.273184, -0.1902294, 5.5166526, -0.01196903, 0.06210041, 9.945412
97245286750853, 8.257631, -0.1591227, 5.5334024, -0.045091927, 0.04484272, 9.941243
97245296389498, 8.287541, -0.16630118, 5.56092, -0.039188445, 0.037240982, 9.981579
97245306028144, 8.32463, -0.18664017, 5.608776, -0.022228122, 0.016189575, 10.039517
97245315666790, 8.352147, -0.18664017, 5.6350975, -0.023135245, 0.011127472, 10.077045
97245325305436, 8.340183, -0.21535404, 5.660222, 0.0010001063, -0.019681454, 10.081804
97245334944082, 8.346166, -0.2213361, 5.682954, 0.004825473, -0.034543514, 10.099615
97245344582728, 8.322237, -0.22851457, 5.6997037, 0.0093868375, -0.059355736, 10.089344
97245354221269, 8.325827, -0.2213361, 5.710471, 0.0019900799, -0.0630002, 10.098213
97245363859915, 8.316256, -0.2213361, 5.68415, 0.0054113865, -0.046943665, 10.075537
97245373498561, 8.30788, -0.23569304, 5.6781683, 0.02020812, -0.048431396, 10.06555
97245383137207, 8.327023, -0.22372891, 5.6913285, 0.0073304176, -0.047119617, 10.088524
97245392775853, 8.334201, -0.22851457, 5.6674004, 0.016463995, -0.024768353, 10.081154
97245402414498, 8.335398, -0.21655045, 5.6267223, 0.0109350085, 0.010186195, 10.059103
97245412053144, 8.334201, -0.2009971, 5.613562, -0.003465891, 0.02173233, 10.050418
97245421691790, 8.315059, -0.20578274, 5.5896335, 0.0022484064, 0.027277946, 10.021269
97245431330436, 8.300702, -0.19860429, 5.581259, -0.005384207, 0.02483654, 10.004545
97245440969082, 8.306684, -0.1902294, 5.564509, -0.010756075, 0.039703846, 9.999962
97245450607728, 8.293523, -0.18185452, 5.541777, -0.016224623, 0.05250597, 9.976166
97245460246373, 8.271988, -0.19501504, 5.5453663, -0.004470587, 0.03298855, 9.960611
97245469885019, 8.269595, -0.2009971, 5.558527, -2.3460388E-4, 0.0189991, 9.966116
97245479523665, 8.301898, -0.22731815, 5.5537415, 0.029910505, 0.035068035, 9.990751
97245489162311, 8.322237, -0.23090738, 5.56092, 0.033923984, 0.039069176, 10.011698
97245498800957, 8.329415, -0.23449662, 5.5633125, 0.037620127, 0.039577484, 10.019063
97245508439603, 8.331808, -0.23569304, 5.575277, 0.037007272, 0.030958176, 10.0277605
97245518078248, 8.338987, -0.2105684, 5.6039906, 0.0080474615, 0.016207695, 10.049251
97245527716894, 8.30788, -0.2105684, 5.621937, 0.0024799109, -0.015595436, 10.033501
97245537355436, 8.29472, -0.19262223, 5.636294, -0.016545594, -0.030301094, 10.030259
97245546994082, 8.292327, -0.19980069, 5.623133, -0.0073666573, -0.022274494, 10.021062
97245556632728, 8.312666, -0.20338993, 5.601598, 0.0037774444, 0.006700039, 10.025948
97245566271373, 8.327023, -0.17587246, 5.5980086, -0.021548927, 0.022388935, 10.035287
97245575910019, 8.318648, -0.18544376, 5.588437, -0.009034574, 0.022650719, 10.02319
97245585548665, 8.298309, -0.18903299, 5.6099725, -0.009347081, -0.0072631836, 10.01845
97245595187311, 8.304291, -0.19381863, 5.6004014, -0.0027205348, 0.003045559, 10.018148
97245604825957, 8.333005, -0.2009971, 5.6004014, 0.0072458386, 0.017875671, 10.042086
97245614464603, 8.322237, -0.19142582, 5.6099725, -0.0039885044, 0.0056357384, 10.038328
97245624103248, 8.329415, -0.20338993, 5.631508, 0.0050299764, -0.010305405, 10.056554
97245633741894, 8.3377905, -0.20817557, 5.619544, 0.012256086, 0.0024881363, 10.056899
97245643380540, 8.319844, -0.19860429, 5.6147585, 0.0020176768, -0.002459526, 10.039162
97245653019186, 8.300702, -0.21415763, 5.6099725, 0.016307473, -0.01324892, 10.020922
97245662657728, 8.313862, -0.19980069, 5.578866, 0.008672833, 0.020721436, 10.014164
97245672296373, 8.30788, -0.18903299, 5.5513487, 0.0019760132, 0.041033268, 9.993618
97245681935019, 8.292327, -0.18305093, 5.5310097, -0.001585722, 0.049209595, 9.969244
97245691573665, 8.275578, -0.19621146, 5.538188, 0.008266449, 0.03091526, 9.959628
97245701212311, 8.293523, -0.18903299, 5.5513487, -2.1141768E-4, 0.03075838, 9.981723
97245710850957, 8.321041, -0.16749759, 5.5860443, -0.025342643, 0.021406174, 10.023502
97245720489603, 8.346166, -0.17706887, 5.5920267, -0.015008628, 0.028471947, 10.047864
97245730128248, 8.327023, -0.17467605, 5.6171513, -0.021017313, -9.841919E-4, 10.045982
97245739766894, 8.300702, -0.16869399, 5.65424, -0.03505081, -0.04448557, 10.044767
97245749405540, 8.313862, -0.16869399, 5.649454, -0.029873371, -0.032084942, 10.053018
97245759044186, 8.327023, -0.17706887, 5.651847, -0.019459486, -0.028802395, 10.065428
97245768682832, 8.333005, -0.19142582, 5.6099725, 0.0035585165, 0.0054483414, 10.047256
97245778321373, 8.3174515, -0.17108682, 5.575277, -0.012038648, 0.028877735, 10.014589
97245787960019, 8.281559, -0.54675996, 5.5022955, 0.3675173, -0.0011258125, 9.951048
97245797598665, 8.338987, 0.36131623, 5.703293, -0.5514276, 0.049271107, 10.094074
97245807237311, 8.336594, -0.6735796, 5.54417, 0.4916463, -0.042116165, 10.022316
97245816875957, 8.249256, 0.12203395, 5.680561, -0.32843924, -0.033147335, 10.011239
97245826514603, 8.441878, -0.33020952, 5.7260246, 0.12414968, -0.060681343, 10.205029
97245836153248, 8.152347, -0.35533416, 5.4867425, 0.16800976, -0.03170204, 9.831691
97245845791894, 8.519645, 0.1363909, 5.753542, -0.3294428, 0.061920643, 10.275887
97245855430540, 8.152347, -0.7501499, 5.3359947, 0.5761093, -0.0020785332, 9.755226
97245865069186, 8.487342, 0.46660042, 5.77747, -0.66287947, 0.10332203, 10.255816
97245874707728, 8.2049885, -0.8853444, 5.298906, 0.7164515, 0.0104317665, 9.781138
97245884346373, 8.365308, 0.50129634, 5.5944195, -0.6621022, 0.18527746, 10.052587
97245893985019, 8.298309, -0.6759724, 5.3204412, 0.52864313, 0.08947849, 9.866028
97245903623665, 8.219346, 0.25004998, 5.515456, -0.41985285, 0.10756731, 9.892046
97245913262311, 8.390432, -0.26081768, 5.605187, 0.06914246, 0.0072603226, 10.0935955
97245922900957, 8.114061, -0.23090738, 5.454439, 0.04603529, -0.015453815, 9.779564
97245932539603, 8.5112705, 0.19381863, 5.741578, -0.38095587, 0.06468916, 10.261369
97245942178248, 8.139186, -0.71665037, 5.367101, 0.54716146, -0.030379772, 9.7604
97245951816790, 8.506484, 0.4354937, 5.8624153, -0.6415652, 0.018684864, 10.320169
97245961455436, 8.221739, -0.9200403, 5.426922, 0.74726886, -0.050536633, 9.865797
97245971094082, 8.427522, 0.46181476, 5.7894344, -0.66424775, 0.039558887, 10.213284
97245980732728, 8.34138, -0.7932207, 5.4819565, 0.61093014, -0.014187336, 9.99431
97245990371373, 8.262417, 0.2009971, 5.682954, -0.3960635, -0.022427559, 10.022301
97246000010019, 8.423932, -0.36370903, 5.7320065, 0.15374243, -0.08257532, 10.194134
97246009648665, 8.142776, -0.2656033, 5.5657053, 0.062171757, -0.08082819, 9.866206
97246019287311, 8.496913, 0.062213387, 5.8265233, -0.2711603, -0.03708601, 10.299266
97246028925853, 8.141579, -0.73459655, 5.389833, 0.5488063, -0.034630775, 9.776136
97246038564498, 8.513663, 0.40558344, 5.861219, -0.61058295, 0.018222332, 10.32607
97246048203144, 8.199007, -0.951147, 5.4089756, 0.7589317, -0.052173138, 9.839041
97246057841790, 8.413164, 0.45702913, 5.76431, -0.6533736, 0.030525684, 10.18772
97246067480436, 8.315059, -0.8003992, 5.375476, 0.63599163, 0.06754732, 9.912998
97246077119082, 8.239685, 0.24765715, 5.5633125, -0.4311861, 0.0642643, 9.935499
97246086757728, 8.365308, -0.40438703, 5.569295, 0.20960855, 0.0062832832, 10.055595
97246096396269, 8.127222, -0.15314065, 5.430511, -0.03150469, 0.033443928, 9.77566
97246106034915, 8.486146, 0.10049855, 5.6410794, -0.2835542, 0.11132717, 10.185958
97246115673561, 8.128419, -0.6305088, 5.2642097, 0.46443552, 0.070085526, 9.693298
97246125312207, 8.544769, 0.45224348, 5.7667027, -0.64881706, 0.11431265, 10.297498
97246134950853, 8.189436, -0.85902333, 5.3623157, 0.68354726, -0.027938366, 9.802612
97246144589498, 8.416754, 0.54675996, 5.7870417, -0.74555606, 0.05292225, 10.201563
97246154228144, 8.269595, -0.79800636, 5.419743, 0.61076677, -0.02270174, 9.9006605
97246163866686, 8.268398, 0.3074777, 5.6327047, -0.49490649, 0.051914215, 9.997034
97246173505332, 8.385647, -0.4211368, 5.633901, 0.21795082, -0.04818535, 10.108781
97246183143978, 8.1679, -0.14476576, 5.5501523, -0.050221086, -0.036106586, 9.876027
97246192782623, 8.514859, 0.008374879, 5.761917, -0.2072658, 0.01736784, 10.279072
97246202421269, 8.177471, -0.62452674, 5.4149575, 0.4397058, -0.017094135, 9.8178
97246212059915, 8.53161, 0.36729828, 5.8935223, -0.5903888, 0.0068035126, 10.358971
97246221698457, 8.176275, -0.930808, 5.4843497, 0.7167258, -0.14864731, 9.862058
97246231337103, 8.4347, 0.45822555, 5.8971114, -0.69610626, -0.028947353, 10.27836
97246240975748, 8.301898, -0.9056834, 5.4783673, 0.70040894, -0.07470608, 9.962837
97246250614394, 8.300702, 0.25962126, 5.662615, -0.460599, 0.045078754, 10.04092
97246260253040, 8.374879, -0.5587241, 5.5465627, 0.35462487, -0.011765003, 10.054313
97246269892311, 8.135597, -0.15433706, 5.4640107, -0.048222423, 0.016251564, 9.801255
97246279530228, 8.459825, -0.043070808, 5.6267223, -0.151142, 0.09171295, 10.158703
97246289168873, 8.126026, -0.57906306, 5.2438707, 0.40788984, 0.08616257, 9.679463
97246298807519, 8.523234, 0.36251262, 5.706882, -0.56378603, 0.1500597, 10.247199
97246308446165, 8.159525, -0.89491564, 5.296513, 0.7005328, -0.03481579, 9.743708
97246318084811, 8.440681, 0.5288138, 5.800202, -0.74460834, 0.06485891, 10.227827
97246327723353, 8.27797, -0.85184485, 5.40419, 0.6485404, -0.029396057, 9.901225
97246337361998, 8.318648, 0.38285163, 5.649454, -0.5836592, 0.08896923, 10.0456085
97246347000644, 8.366505, -0.526421, 5.5657053, 0.32298815, -0.036824703, 10.057182
97246356639290, 8.17149, -0.019142581, 5.5704913, -0.19618022, -0.02184534, 9.88762
97246366277936, 8.475378, -0.03708875, 5.7224355, -0.17229784, 0.02523613, 10.224938
97246375916478, 8.111669, -0.54317075, 5.3910294, 0.34511817, -0.03563738, 9.748694
97246385555123, 8.502895, 0.3505485, 5.851648, -0.56939113, 0.025258541, 10.312083
97246395193769, 8.165507, -0.8805587, 5.473582, 0.65859365, -0.14322662, 9.846661
97246404832415, 8.489735, 0.48215377, 5.960521, -0.73335516, -0.036672115, 10.358414
97246414471061, 8.276773, -0.9272188, 5.5190454, 0.7144898, -0.124270916, 9.96487
97246424109603, 8.350951, 0.3505485, 5.7427745, -0.57906425, 0.02625513, 10.124462
97246433748248, 8.398808, -0.6053841, 5.5860443, 0.3887192, -0.031424522, 10.097439
97246443386894, 8.19781, -0.03708875, 5.564509, -0.17512941, 0.0022358894, 9.90649
97246453025540, 8.486146, -0.14596218, 5.676972, -0.06824422, 0.03699684, 10.210679
97246462664186, 8.120044, -0.51445687, 5.3180485, 0.32303417, 0.042416096, 9.714694
97246472302728, 8.5112705, 0.28115666, 5.706882, -0.49652493, 0.11594963, 10.238619
97246481941373, 8.116454, -0.8745767, 5.2773705, 0.67989326, -0.015399456, 9.6969
97246491580019, 8.426325, 0.49172506, 5.779863, -0.73080826, 0.055915356, 10.203644
97246501218665, 8.216953, -0.9200403, 5.343173, 0.7088659, -0.031905174, 9.818899
97246510857311, 8.323434, 0.36729828, 5.625526, -0.5900334, 0.09650898, 10.035116
97246520495853, 8.346166, -0.67118675, 5.4891353, 0.45185816, -0.002860546, 10.00177
97246530134498, 8.208578, -0.016749758, 5.5872407, -0.20966989, -0.020712852, 9.927433
97246539773144, 8.462217, -0.21655045, 5.703293, -0.016328335, -0.01742506, 10.207006
97246549411790, 8.149954, -0.5180461, 5.4221363, 0.30415976, -0.023658752, 9.797787
97246559050332, 8.549556, 0.21296121, 5.8013983, -0.44462848, 0.04663706, 10.324564
97246568688978, 8.181061, -0.86859465, 5.4089756, 0.6494639, -0.06361866, 9.824224
97246578327623, 8.478967, 0.46181476, 5.9342003, -0.7108345, -0.056949615, 10.335005
97246587966269, 8.222935, -0.94755775, 5.4963136, 0.7239623, -0.12207842, 9.908833
97246597604811, 8.347362, 0.40438703, 5.7750773, -0.63818777, -0.008877754, 10.13835
97246607243457, 8.340183, -0.67836523, 5.5405807, 0.4512242, -0.03843832, 10.025557
97246616882103, 8.185846, 0.069391854, 5.6075797, -0.29666346, -0.032495975, 9.918104
97246626520748, 8.445468, -0.21535404, 5.6889358, -0.01167047, -0.009001732, 10.185091
97246636159394, 8.143971, -0.45224348, 5.377869, 0.24815446, 0.02880621, 9.76667
97246645797936, 8.53161, 0.21535404, 5.697311, -0.4307385, 0.11917734, 10.251553
97246655436582, 8.142776, -0.82313097, 5.2953167, 0.62105054, 0.014172554, 9.728146
97246665075228, 8.49811, 0.4881358, 5.8265233, -0.7174525, 0.04067087, 10.290195
97246674713873, 8.202596, -0.9523434, 5.386244, 0.73307323, -0.060450077, 9.831588
97246684352415, 8.355737, 0.424726, 5.7080784, -0.6558288, 0.056325912, 10.106812
97246693991061, 8.338987, -0.70947194, 5.4125648, 0.51826787, 0.035330772, 9.953294
97246703629707, 8.216953, 0.10887343, 5.5202417, -0.3140533, 0.06382036, 9.894469
97246713268353, 8.447861, -0.25722843, 5.6075797, 0.04396093, 0.039497375, 10.142681
97246722906894, 8.149954, -0.3684947, 5.389833, 0.16839999, 0.031971455, 9.7764225
97246732545540, 8.526823, 0.17826529, 5.727221, -0.39170963, 0.07313824, 10.265513
97246742184186, 8.128419, -0.81834537, 5.349155, 0.6121139, -0.02675724, 9.745715
97246751822832, 8.488539, 0.44985065, 5.8935223, -0.68490905, -0.038977146, 10.320883
97246761461373, 8.215756, -0.93559366, 5.473582, 0.71181726, -0.10349941, 9.890232
97246771100019, 8.390432, 0.4438686, 5.7786665, -0.67698574, 0.0060982704, 10.175018
97246780738665, 8.343773, -0.7609176, 5.483153, 0.55134606, -0.018724918, 9.997908
97246790377311, 8.243274, 0.16151553, 5.601598, -0.37043595, 0.020756245, 9.960817
97246800015853, 8.445468, -0.2835495, 5.6554365, 0.06710482, -0.0033988953, 10.167879
97246809654498, 8.120044, -0.31106696, 5.4460645, 0.106530786, -0.019015789, 9.781603
97246819293144, 8.5112705, 0.15792629, 5.7391853, -0.3674245, 0.07119036, 10.259866
97246828931790, 8.126026, -0.74416786, 5.3443694, 0.5461241, -0.037139893, 9.739032
97246838570332, 8.5016985, 0.46779683, 5.8672013, -0.68989587, 0.035390854, 10.317197
97246848208978, 8.1942215, -0.9499506, 5.45085, 0.7390326, -0.13968325, 9.85869
97246857847623, 8.409575, 0.4642076, 5.7930236, -0.6935098, 0.02737856, 10.198719
97246867486269, 8.321041, -0.76570326, 5.483153, 0.55724657, -0.0349555, 9.978941
97246877124811, 8.262417, 0.18305093, 5.6171513, -0.3978368, 0.018492222, 9.98473
97246886763457, 8.443074, -0.3684947, 5.619544, 0.15906793, 0.00614357, 10.147672
97246896402103, 8.175078, -0.24765715, 5.4233327, 0.054509997, 0.040462017, 9.813315
97246906040748, 8.518449, 0.12323037, 5.6745787, -0.3229891, 0.0942173, 10.230679
97246915679290, 8.109276, -0.74536425, 5.2833524, 0.55938697, 0.022509575, 9.691043
97246925317936, 8.483752, 0.43429732, 5.8097734, -0.64834917, 0.017288685, 10.2711
97246934956582, 8.202596, -0.9451649, 5.42094, 0.7468524, -0.07553053, 9.848808
97246944595228, 8.394022, 0.45224348, 5.81097, -0.67358327, -0.027181149, 10.196915
97246954233769, 8.304291, -0.82672024, 5.465207, 0.6196554, -0.02671671, 9.95633
97246963872415, 8.273184, 0.22971097, 5.6470613, -0.43959635, 0.00252676, 10.009714
97246973511061, 8.425129, -0.3924229, 5.6590257, 0.18177539, -0.041778088, 10.155127
97246983149603, 8.142776, -0.20937198, 5.5106707, 0.0018808246, -0.0415349, 9.834348
97246992788248, 8.512466, 0.069391854, 5.727221, -0.2759403, 0.03632021, 10.256243
97247002426894, 8.1344, -0.6843473, 5.3276196, 0.49878222, 0.019099236, 9.735049
97247012065540, 8.517252, 0.40079778, 5.8360944, -0.61892796, 0.01449585, 10.314115
97247021704082, 8.200203, -0.95712906, 5.4412785, 0.7531947, -0.08957863, 9.858581
97247031342728, 8.445468, 0.47018966, 5.8540406, -0.69762605, -0.016388893, 10.263033
97247040981373, 8.299505, -0.84347, 5.4927244, 0.6516853, -0.06401014, 9.966667
97247050620019, 8.271988, 0.2632105, 5.6733823, -0.4674434, -0.0032258034, 10.023164
97247060258561, 8.415557, -0.44147578, 5.629115, 0.23390889, -0.03602791, 10.131507
97247069897207, 8.158329, -0.14356937, 5.495117, -0.05375004, -0.00912714, 9.83729
97247079535853, 8.482556, 0.069391854, 5.6817575, -0.26281005, 0.064220905, 10.20626
97247089174498, 8.110473, -0.58504516, 5.2809596, 0.4146315, 0.03639841, 9.686969
97247098813040, 8.483752, 0.44865423, 5.712864, -0.63122296, 0.117907524, 10.217623
97247108451686, 8.166703, -0.8709874, 5.2845488, 0.7100051, 0.0040807724, 9.740431
97247118090332, 8.402397, 0.55393845, 5.733203, -0.7533557, 0.06992912, 10.158953
97247127728873, 8.251649, -0.82313097, 5.3718867, 0.6568644, -0.0051221848, 9.858647
97247137367519, 8.30788, 0.31226337, 5.6327047, -0.49542165, 0.049668312, 10.029846
97247147006165, 8.429914, -0.50129634, 5.6171513, 0.30431962, -0.041161537, 10.137695
97247156644811, 8.2014, -0.10289137, 5.576473, -0.09244162, -0.04871273, 9.9176445
97247166283353, 8.526823, 0.013160525, 5.7786665, -0.21353555, -0.0075507164, 10.298263
97247175921998, 8.142776, -0.59700924, 5.416154, 0.41824818, -0.053809643, 9.788673
97247185560644, 8.523234, 0.38285163, 5.8731833, -0.5908149, 0.0020656586, 10.341051
97247195199186, 8.155936, -0.849452, 5.426922, 0.6586927, -0.103807926, 9.810591
97247204837832, 8.425129, 0.54436713, 5.864808, -0.7456749, -0.004228592, 10.252758
97247214476478, 8.282756, -0.85064846, 5.4664035, 0.6781752, -0.061058998, 9.93708
97247224115123, 8.335398, 0.37088752, 5.672186, -0.56141603, 0.04932785, 10.073357
97247233753665, 8.414361, -0.5288138, 5.569295, 0.35317212, -0.008004665, 10.098187
97247243392311, 8.2014, -0.0741775, 5.5453663, -0.10863423, -0.0150613785, 9.899875
97247253030957, 8.49452, -0.083748795, 5.7260246, -0.1086247, -0.0036406517, 10.243996
97247262669603, 8.127222, -0.5623133, 5.359923, 0.3916474, -0.0016918182, 9.743886
97247272308144, 8.508878, 0.34217364, 5.784649, -0.53231376, 0.042063713, 10.280813
97247281946790, 8.145168, -0.90448695, 5.3682976, 0.7198627, -0.07309437, 9.770206
97247291585436, 8.441878, 0.5024927, 5.8073807, -0.6969513, 0.0179348, 10.235107
97247301223978, 8.276773, -0.8925229, 5.3587265, 0.720736, -0.0051546097, 9.874109
97247310862623, 8.348558, 0.36370903, 5.582455, -0.539148, 0.12187338, 10.0343895
97247320501269, 8.386844, -0.58265233, 5.477171, 0.41925728, 0.025211334, 10.025051
97247330139915, 8.19781, 0.013160525, 5.503492, -0.1918714, 0.02691412, 9.871939
97247339778457, 8.467003, -0.05742774, 5.680561, -0.12344855, 0.01666689, 10.195426
97247349417103, 8.105687, -0.47736812, 5.3814583, 0.30969918, -0.030350208, 9.736186
97247359055748, 8.49811, 0.32422748, 5.8157554, -0.5168986, 0.0054121017, 10.289742
97247368694394, 8.151151, -0.8673982, 5.4173503, 0.6966032, -0.1095891, 9.800207
97247378332936, 8.478967, 0.506082, 5.918647, -0.71481055, -0.041487694, 10.327957
97247387971582, 8.293523, -0.93320084, 5.4783673, 0.7675185, -0.09015036, 9.953326
97247397610228, 8.405986, 0.39960137, 5.736792, -0.5718036, 0.03150606, 10.168733
97247407248873, 8.4012, -0.59700924, 5.5800624, 0.4295218, -0.046119213, 10.093914
97247416887415, 8.219346, 0.06699903, 5.6171513, -0.24971247, -0.040173054, 9.9524145
97247426526061, 8.474181, -0.09571291, 5.73081, -0.08137208, -0.023168564, 10.230148
97247436164707, 8.115258, -0.37208393, 5.395815, 0.2126211, -0.002199173, 9.750153
97247445803248, 8.486146, 0.357727, 5.751149, -0.52523386, 0.05874443, 10.243977
97247455441894, 8.10808, -0.74416786, 5.3072805, 0.5907642, -0.016587257, 9.70117
97247465080540, 8.4502535, 0.58983076, 5.7894344, -0.75766575, 0.050121307, 10.23209
97247474719186, 8.233703, -0.8350951, 5.363512, 0.6910927, -0.023518085, 9.837701
97247484357728, 8.362915, 0.4749753, 5.662615, -0.6416286, 0.10063076, 10.089963
97247493996373, 8.383254, -0.6329016, 5.4795637, 0.4751271, 0.009714603, 10.023936
97247503635019, 8.2348995, 0.09451649, 5.602794, -0.2650631, -0.01078558, 9.957079
97247513273561, 8.489735, -0.18544376, 5.7343993, 0.0030076504, -0.041534424, 10.246538
97247522912207, 8.141579, -0.3924229, 5.4293146, 0.2293793, -0.028215885, 9.790982
97247532550853, 8.516056, 0.2620141, 5.7726846, -0.43339497, 0.03399563, 10.282352
97247542189498, 8.155936, -0.8135597, 5.3419766, 0.6557318, -0.046549797, 9.761442
97247551828040, 8.476574, 0.4941179, 5.852844, -0.68416756, -0.01226902, 10.289996
97247561466686, 8.220542, -0.93320084, 5.3994045, 0.7679655, -0.072463036, 9.849199
97247571105332, 8.403593, 0.43070808, 5.7200427, -0.6059468, 0.05175972, 10.156522
97247580743978, 8.362915, -0.72263247, 5.517849, 0.56550586, -0.046329975, 10.029221
97247590382519, 8.220542, 0.09451649, 5.623133, -0.26737845, -0.037777424, 9.9565525
97247600021165, 8.456235, -0.24885355, 5.704489, 0.069707036, -0.046168804, 10.203139
97247609659811, 8.148758, -0.36370903, 5.432904, 0.2059058, -0.021082878, 9.798374
97247619298457, 8.5112705, 0.21296121, 5.753542, -0.37581068, 0.049821854, 10.26872
97247628936998, 8.128419, -0.7645068, 5.345566, 0.6210818, -0.050151825, 9.73871
97247638575644, 8.4705925, 0.5084748, 5.8672013, -0.6820409, 3.6907196E-4, 10.294092
97247648214290, 8.1942215, -0.8961121, 5.447261, 0.7452328, -0.1112237, 9.851558
97247657852936, 8.377272, 0.51086766, 5.784649, -0.6727006, 0.008575916, 10.171
97247667491478, 8.353344, -0.66041905, 5.4963136, 0.52499545, -0.013781548, 10.007406
97247677130123, 8.252846, 0.24765715, 5.6171513, -0.40237707, 0.020033836, 9.97802
97247686768769, 8.4502535, -0.2009971, 5.662615, 0.055365086, -0.0017819405, 10.173952
97247696407311, 8.147561, -0.19501504, 5.4293146, 0.059488654, 0.022647858, 9.792558
97247706045957, 8.52443, 0.2943172, 5.712864, -0.43415785, 0.09433603, 10.256313
97247715684603, 8.124829, -0.64965135, 5.300102, 0.52284175, 0.023495197, 9.708351
97247725323248, 8.495717, 0.57547385, 5.837291, -0.72710663, 0.024760246, 10.298206
97247734961790, 8.187042, -0.8255238, 5.406583, 0.6790885, -0.07001686, 9.822131
97247744600436, 8.374879, 0.567099, 5.7607207, -0.71547174, 0.039259434, 10.155427
97247754239082, 8.301898, -0.6999006, 5.456832, 0.558004, -0.030817509, 9.9436455
97247763877728, 8.243274, 0.2620141, 5.602794, -0.40380293, 0.02225399, 9.962328
97247773516269, 8.453842, -0.3062813, 5.631508, 0.15940201, -0.0044369698, 10.161187
97247783154915, 8.177471, -0.2416751, 5.45085, 0.10609698, 0.0072717667, 9.830051
97247792793561, 8.530413, 0.14117654, 5.7284174, -0.28401417, 0.05721283, 10.27223
97247802432207, 8.139186, -0.701097, 5.3443694, 0.56556916, -0.019041538, 9.745766
97247812070748, 8.505288, 0.45702913, 5.9090757, -0.63677603, -0.030123234, 10.34696
97247821709394, 8.181061, -0.92602235, 5.4999027, 0.76782, -0.1647973, 9.8701315
97247831348040, 8.420342, 0.47258246, 5.8767724, -0.64251196, -0.062408924, 10.258909
97247840986686, 8.327023, -0.81236327, 5.558527, 0.6610231, -0.09997511, 10.02245
97247850625228, 8.263613, 0.22851457, 5.6961145, -0.38828987, -0.04865837, 10.031556
97247860263873, 8.419147, -0.3804588, 5.686543, 0.21512419, -0.06699085, 10.16429
97247869902519, 8.178668, -0.18664017, 5.5070815, 0.039184034, -0.016774178, 9.861621
97247879541165, 8.5016985, 0.13160525, 5.7020965, -0.27602232, 0.0668869, 10.233741
97247889179707, 8.1344, -0.62093747, 5.2845488, 0.5016219, 0.052021027, 9.707016
97247898818353, 8.502895, 0.50488555, 5.7690954, -0.64643794, 0.09536314, 10.266918
97247908456998, 8.17149, -0.83030945, 5.345566, 0.6914468, -0.037149906, 9.775391
97247918095644, 8.402397, 0.613759, 5.7750773, -0.7737288, 0.050041676, 10.184664
97247927734290, 8.287541, -0.73100734, 5.4089756, 0.5955447, -0.002960205, 9.905558
97247937372832, 8.298309, 0.3684947, 5.605187, -0.5004023, 0.07863474, 10.007961
97247947011478, 8.435896, -0.3278167, 5.6171513, 0.1829288, -0.004094124, 10.1385765
97247956650123, 8.161918, -0.05503492, 5.5094743, -0.08670813, -0.010511875, 9.847163
97247966288769, 8.506484, 0.16151553, 5.709275, -0.29719692, 0.06505442, 10.241564
97247975927311, 8.136793, -0.56590253, 5.326423, 0.44958073, 0.019624233, 9.731182
97247985565957, 8.505288, 0.46660042, 5.812166, -0.60898876, 0.04129553, 10.293995
97247995204603, 8.16431, -0.8554341, 5.4089756, 0.7203474, -0.1012311, 9.803858
97248004843248, 8.423932, 0.5288138, 5.851648, -0.68474704, -0.010512352, 10.247686
97248014481790, 8.292327, -0.86141616, 5.4927244, 0.71240044, -0.08591938, 9.957904
97248024120436, 8.315059, 0.25962126, 5.7224355, -0.4131235, -0.029078007, 10.088722
97248033759082, 8.437093, -0.5204389, 5.6793647, 0.35693538, -0.08584499, 10.177219
97248043397728, 8.19781, -0.14596218, 5.6183476, -0.018994689, -0.08826065, 9.938969
97248053036269, 8.53161, -0.02751746, 5.7990055, -0.136576, -0.024388313, 10.314957
97248062674915, 8.165507, -0.58504516, 5.410172, 0.44563282, -0.02658844, 9.802471
97248072313561, 8.517252, 0.40917268, 5.81097, -0.5690088, 0.053687096, 10.302998
97248081952207, 8.128419, -0.8566305, 5.355137, 0.72026885, -0.069704056, 9.744684
97248091590853, 8.411968, 0.5886344, 5.7954164, -0.7418548, 0.04734087, 10.204997
97248101229394, 8.281559, -0.7860422, 5.3563333, 0.6672913, 0.016668797, 9.871516
97248110868040, 8.282756, 0.41156548, 5.613562, -0.54760444, 0.09367132, 9.998844
97248120506686, 8.372486, -0.47018966, 5.5453663, 0.3212371, -0.010213852, 10.048254
97248130145332, 8.181061, 0.0071784677, 5.548956, -0.16479343, -0.011650562, 9.883999
97248139783873, 8.520842, 0.029910283, 5.733203, -0.18435204, 0.029602528, 10.268417
97248149422519, 8.155936, -0.50129634, 5.38744, 0.3648646, -0.011425972, 9.780687
97248159061165, 8.525627, 0.43669012, 5.825327, -0.592822, 0.042108536, 10.317862
97248168699811, 8.154739, -0.79920274, 5.3994045, 0.65813065, -0.09185982, 9.790328
97248178338457, 8.427522, 0.6149554, 5.845666, -0.78503674, 0.02131319, 10.244822
97248187976998, 8.242078, -0.81595254, 5.4113684, 0.6734517, -0.04116392, 9.870426
97248197615644, 8.318648, 0.43908295, 5.6530433, -0.5745932, 0.07922745, 10.050531
97248207254290, 8.411968, -0.51206404, 5.554938, 0.36947763, -0.008104324, 10.086832
97248216892936, 8.215756, 0.029910283, 5.576473, -0.1850754, -0.007379055, 9.9278555
97248226531582, 8.516056, -0.061016977, 5.7547383, -0.09700167, -0.007855892, 10.277863
97248236170123, 8.158329, -0.47018966, 5.4221363, 0.3257935, -0.034811497, 9.801613
97248245808769, 8.52443, 0.35294133, 5.8265233, -0.5204357, 0.033700943, 10.318277
97248255447415, 8.109276, -0.8219346, 5.416154, 0.66462505, -0.13120174, 9.762773
97248265086061, 8.43111, 0.53599226, 5.8863435, -0.7127072, -0.019928932, 10.271885
97248274724707, 8.233703, -0.8769695, 5.4233327, 0.7299713, -0.08068752, 9.870974
97248284363248, 8.343773, 0.4103691, 5.68415, -0.5744895, 0.07182789, 10.087682
97248294001894, 8.420342, -0.6041877, 5.5298133, 0.45208585, 0.0052080154, 10.081747
97248303640540, 8.260024, 0.013160525, 5.601598, -0.17359006, -0.0035419464, 9.978772
97248313279186, 8.508878, -0.148355, 5.7547383, -0.026711822, -0.026619911, 10.273198
97248322917832, 8.1344, -0.4235296, 5.456832, 0.26011628, -0.04872608, 9.800758
97248332556373, 8.489735, 0.31345975, 5.81097, -0.48833203, 0.017347336, 10.281172
97248342195019, 8.132008, -0.802792, 5.3563333, 0.642416, -0.059937, 9.749258
97248351833665, 8.495717, 0.5599205, 5.8229337, -0.72745115, 0.06446791, 10.289021
97248361472311, 8.258827, -0.8315059, 5.337191, 0.6850395, 0.018780231, 9.844571
97248371110957, 8.34138, 0.47138608, 5.6039906, -0.62683135, 0.13079548, 10.039696
97248380749603, 8.331808, -0.5922236, 5.4376893, 0.44159412, 0.02733612, 9.95703
97248390388144, 8.187042, 0.1363909, 5.5334024, -0.29343373, 0.028660297, 9.878151
97248400026790, 8.465807, -0.15433706, 5.676972, -0.010833502, 0.0050206184, 10.194193
97248409665436, 8.146365, -0.41994038, 5.4233327, 0.26169968, -0.024625778, 9.791989
97248419304082, 8.550752, 0.24885355, 5.8097734, -0.42616618, 0.034165382, 10.331891
97248428942728, 8.199007, -0.8243274, 5.432904, 0.6546819, -0.088056564, 9.848011
97248438581269, 8.518449, 0.48454657, 5.9413786, -0.68815684, -0.030900955, 10.374209
97248448219915, 8.240881, -0.9415757, 5.49751, 0.75751066, -0.14370966, 9.921029
97248457858561, 8.364112, 0.44626144, 5.802595, -0.6393311, -0.010164261, 10.169502
97248467497207, 8.349754, -0.6891329, 5.5405807, 0.52952844, -0.04673195, 10.030393
97248477135853, 8.23131, 0.11365908, 5.6243296, -0.28332812, -0.021184444, 9.965929
97248486774498, 8.458628, -0.20338993, 5.6793647, 0.03646767, -0.004961014, 10.190367
97248496413040, 8.129615, -0.3182454, 5.406583, 0.16410416, 0.0113482475, 9.767088
97248506051686, 8.534002, 0.26799613, 5.716453, -0.42470384, 0.099226, 10.265897
97248515690332, 8.146365, -0.7393822, 5.291727, 0.60068923, 0.027199268, 9.7237215
97248525328978, 8.49811, 0.56350976, 5.818148, -0.7448042, 0.050808907, 10.287321
97248534967623, 8.2253275, -0.86859465, 5.3706903, 0.7099385, -0.026721478, 9.836162
97248544606269, 8.377272, 0.48933223, 5.7140603, -0.6526481, 0.06071186, 10.13109
97248554244811, 8.309076, -0.6879365, 5.4484572, 0.52787757, -0.0074954033, 9.945903
97248563883457, 8.209774, 0.18903299, 5.588437, -0.35432696, 0.014099598, 9.926783
97248573522103, 8.444271, -0.2632105, 5.6614184, 0.09030676, -0.014372826, 10.169478
97248583160748, 8.141579, -0.31106696, 5.4484572, 0.14933896, -0.017796993, 9.800262
97248592799394, 8.536395, 0.18783657, 5.771488, -0.35995257, 0.043781757, 10.299704
97248602438040, 8.179864, -0.73459655, 5.3826547, 0.58293855, -0.03701973, 9.802123
97248612076686, 8.526823, 0.4953143, 5.919843, -0.6911062, -0.013182163, 10.369127
97248621715332, 8.185846, -0.8961121, 5.4640107, 0.7293968, -0.12780952, 9.854855
97248631353873, 8.395218, 0.4989035, 5.8193445, -0.6884746, 0.004214287, 10.203888
97248640992519, 8.318648, -0.7537391, 5.495117, 0.586764, -0.054400444, 9.980836
97248650631165, 8.255239, 0.2009971, 5.629115, -0.36471045, 0.019880295, 9.987137
97248660269811, 8.446664, -0.3493521, 5.6650076, 0.17659199, -0.026744843, 10.1749
97248669908457, 8.160722, -0.27996024, 5.4963136, 0.1118561, -0.033023357, 9.842339
97248679547103, 8.532805, 0.11365908, 5.779863, -0.28429687, 0.037364483, 10.302732
97248689185644, 8.135597, -0.72023964, 5.400601, 0.55863726, -0.076443195, 9.775237
97248698824290, 8.513663, 0.47736812, 5.925825, -0.6770283, -0.0010275841, 10.361825
97248708462936, 8.2049885, -0.8913264, 5.491528, 0.71764517, -0.15008545, 9.886133
97248718101582, 8.408379, 0.55034924, 5.8133626, -0.73637205, 0.03666973, 10.210549
97248727740228, 8.303095, -0.72741807, 5.42094, 0.58615017, 0.007536888, 9.925397
97248737378873, 8.263613, 0.31345975, 5.5657053, -0.47063887, 0.09689951, 9.956493
97248747017519, 8.4012, -0.30987054, 5.575277, 0.15071523, 0.029115677, 10.086444
97248756656165, 8.129615, -0.09451649, 5.4352965, -0.059674382, 0.035565853, 9.779428
97248766294707, 8.364112, -0.18185452, 5.5669017, 0.025894344, 0.040081024, 10.048859
97248775933353, 8.323434, -0.16869399, 5.578866, 0.0040076375, 0.0093250275, 10.021559
97248785571998, 8.349754, -0.1902294, 5.608776, 0.022574186, -0.0046339035, 10.060438
97248795210644, 8.3377905, -0.1591227, 5.6123657, -0.010495007, -0.007903576, 10.051992
97248804849290, 8.342576, -0.19501504, 5.613562, 0.024609149, -0.012268543, 10.057233
97248814487936, 8.338987, -0.15194423, 5.6183476, -0.01805973, -0.009324551, 10.056204
97248824126582, 8.330612, -0.17587246, 5.6147585, 0.0058619976, -0.014743328, 10.047652
97248833765228, 8.310273, -0.1591227, 5.605187, -0.009345651, -0.013825893, 10.025158
97248843403769, 8.323434, -0.19381863, 5.6039906, 0.027337253, -0.011204243, 10.035982
97248853042415, 8.3174515, -0.18544376, 5.621937, 0.016554236, -0.026535988, 10.040896
97248862681061, 8.342576, -0.19381863, 5.629115, 0.025428534, -0.019361973, 10.065886
97248872319707, 8.334201, -0.17467605, 5.6243296, 0.005834818, -0.015449047, 10.055954
97248881958353, 8.348558, -0.15433706, 5.6446686, -0.017348886, -0.01991129, 10.078881
97248891596998, 8.32463, -0.12921242, 5.6446686, -0.044979393, -0.028579235, 10.058608
97248901235644, 8.301898, -0.12323037, 5.633901, -0.049007356, -0.031887054, 10.03365
97248910874290, 8.297112, -0.11724831, 5.6147585, -0.052205443, -0.017837048, 10.018896
97248920512936, 8.323434, -0.104087785, 5.595616, -0.057600617, 0.015124321, 10.029842
97248930151582, 8.30788, -0.13280165, 5.5860443, -0.026824415, 0.009830475, 10.012072
97248939790123, 8.297112, -0.17467605, 5.6039906, 0.012684226, -0.018210411, 10.013831
97248949428769, 8.318648, -0.18903299, 5.6207404, 0.02733773, -0.02195263, 10.041271
97248959067415, 8.323434, -0.16390835, 5.660222, -0.0047568083, -0.045294285, 10.066899
97248968706061, 8.355737, -0.17467605, 5.6781683, 0.0048455596, -0.044010162, 10.103886
97248978344707, 8.360522, -0.18783657, 5.6781683, 0.018211007, -0.043981552, 10.108064
97248987983353, 8.330612, -0.18065812, 5.6374903, 0.0145744085, -0.026385784, 10.060423
97248997621998, 8.323434, -0.14596218, 5.6004014, -0.014856577, 0.005838394, 10.0332
97249007260644, 8.323434, -0.11964113, 5.5537415, -0.034451306, 0.047284603, 10.0067215
97249016899290, 8.306684, -0.1268196, 5.532206, -0.025928736, 0.05018568, 9.980941
97249026537936, 8.280363, -0.12562318, 5.521438, -0.027455091, 0.04339266, 9.953082
97249036176582, 8.280363, -0.13998012, 5.521438, -0.013288677, 0.04079485, 9.953314
97249045815228, 8.301898, -0.15194423, 5.534599, -0.0015292764, 0.039982796, 9.978718
97249055453769, 8.316256, -0.17108682, 5.5537415, 0.015263796, 0.029608727, 10.001616
97249065092415, 8.323434, -0.18903299, 5.584848, 0.02837193, 0.006324291, 10.025218
97249074731061, 8.334201, -0.20219351, 5.629115, 0.034878433, -0.024569035, 10.059071
97249084369707, 8.348558, -0.1902294, 5.6757755, 0.016550183, -0.050371647, 10.096842
97249094008353, 8.359326, -0.20219351, 5.712864, 0.024528503, -0.07178116, 10.126711
97249103646998, 8.338987, -0.19621146, 5.7224355, 0.015833974, -0.0874095, 10.115118
97249113285644, 8.319844, -0.19740787, 5.6985073, 0.019270837, -0.078794, 10.085892
97249122924290, 8.3174515, -0.20817557, 5.680561, 0.03429693, -0.06611204, 10.074055
97249132562936, 8.3174515, -0.19740787, 5.6685967, 0.02689308, -0.053887367, 10.067192
97249142201582, 8.3174515, -0.19142582, 5.636294, 0.026275218, -0.026908398, 10.049032
97249151840228, 8.333005, -0.17706887, 5.601598, 0.016646266, 0.011401653, 10.042301
97249161478873, 8.333005, -0.148355, 5.5908303, -0.009771347, 0.02556324, 10.035817
97249171117519, 8.330612, -0.14955142, 5.599205, -0.012706518, 0.01387167, 10.038538
97249180756165, 8.304291, -0.1160519, 5.569295, -0.04332882, 0.028764248, 9.999453
97249190394811, 8.280363, -0.10887343, 5.54417, -0.048515916, 0.037189484, 9.965457
97249200033457, 8.295917, -0.10049855, 5.5250273, -0.0513798, 0.061454296, 9.96754
97249209671998, 8.29472, -0.104087785, 5.491528, -0.040041924, 0.08480883, 9.947929
97249219310644, 8.295917, -0.1268196, 5.49751, -0.01867354, 0.076132774, 9.952627
97249228949290, 8.313862, -0.14596218, 5.511867, 0.0019437671, 0.07026243, 9.975839
97249238587936, 8.319844, -0.16271193, 5.56092, 0.010240138, 0.03044653, 10.008451
97249248226582, 8.336594, -0.1902294, 5.625526, 0.02878356, -0.015238762, 10.058849
97249257865228, 8.318648, -0.18424734, 5.6853466, 0.011271298, -0.072455406, 10.077284
97249267503873, 8.335398, -0.1902294, 5.721239, 0.013086021, -0.09049845, 10.111343
97249277142519, 8.325827, -0.2009971, 5.7427745, 0.019494355, -0.11195421, 10.115648
97249286781165, 8.334201, -0.19381863, 5.7200427, 0.018745422, -0.08447313, 10.10979
97249296419811, 8.343773, -0.19860429, 5.6937213, 0.0294289, -0.056296825, 10.103089
97249306058457, 8.346166, -0.20697916, 5.6614184, 0.042728543, -0.029001236, 10.087135
97249315697103, 8.335398, -0.18544376, 5.6590257, 0.021088302, -0.028931618, 10.076534
97249325335748, 8.32463, -0.17706887, 5.660222, 0.01046437, -0.03510475, 10.068148
97249334974394, 8.328219, -0.1698904, 5.643472, 0.005823374, -0.01902771, 10.061635
97249344613040, 8.323434, -0.13998012, 5.6327047, -0.023151696, -0.008358955, 10.051164
97249354251686, 8.309076, -0.12083755, 5.619544, -0.04145813, -0.0035829544, 10.031595
97249363890332, 8.303095, -0.11485548, 5.584848, -0.04187864, 0.020586967, 10.007143
97249373528978, 8.304291, -0.104087785, 5.5501523, -0.045977116, 0.04971552, 9.988577
97249383167623, 8.306684, -0.13040884, 5.5310097, -0.015736997, 0.06045103, 9.9802885
97249392806269, 8.311469, -0.13040884, 5.5202417, -0.012533069, 0.07053232, 9.97825
97249402444915, 8.306684, -0.14596218, 5.528617, 0.0014955401, 0.057751656, 9.979206
97249412083561, 8.322237, -0.148355, 5.5573306, 7.9238415E-4, 0.04212284, 10.008186
97249421722207, 8.316256, -0.15672988, 5.582455, 0.0042633414, 0.016881943, 10.017393
97249431360853, 8.329415, -0.14237295, 5.6171513, -0.014277816, -0.001584053, 10.04747
97249440999498, 8.335398, -0.13998012, 5.6446686, -0.020317614, -0.018389702, 10.06777
97249450638144, 8.321041, -0.13040884, 5.645865, -0.031184852, -0.025592804, 10.056387
97249460276790, 8.335398, -0.15433706, 5.6327047, -0.0038926005, -0.009585857, 10.061309
97249469915436, 8.347362, -0.15194423, 5.615955, -0.0015746951, 0.013464928, 10.061824
97249479554082, 8.322237, -0.17108682, 5.6303115, 0.012899935, -0.015475273, 10.049324
97249489192728, 8.309076, -0.18544376, 5.636294, 0.023897171, -0.03010559, 10.0419855
97249498831269, 8.303095, -0.18783657, 5.621937, 0.027920067, -0.022346973, 10.029036
97249508469915, 8.30788, -0.16510476, 5.633901, 0.0028442144, -0.024712086, 10.039341
97249518108665, 8.319844, -0.19381863, 5.6303115, 0.031380355, -0.020375729, 10.047705
97249527747207, 8.32463, -0.18903299, 5.642276, 0.023383558, -0.02590561, 10.058292
97249537385853, 8.319844, -0.19501504, 5.6482577, 0.027168393, -0.033795357, 10.057773
97249547024498, 8.328219, -0.18424734, 5.621937, 0.0209046, -0.005138397, 10.049821
97249556663144, 8.322237, -0.18903299, 5.6123657, 0.026618779, -0.0015449524, 10.039586
97249566301790, 8.328219, -0.17706887, 5.6039906, 0.014656663, 0.010139942, 10.03967
97249575940436, 8.340183, -0.17706887, 5.5944195, 0.01592803, 0.02346325, 10.04424
97249585579082, 8.3377905, -0.16869399, 5.576473, 0.010227501, 0.03821802, 10.032085
97249595217728, 8.335398, -0.16390835, 5.5776696, 0.0040480494, 0.035624504, 10.030695
97249604856373, 8.297112, -0.1471586, 5.5800624, -0.017688453, 0.014609337, 10.000015
97249614495019, 8.301898, -0.1268196, 5.575277, -0.036689162, 0.024537563, 10.000967
97249624133665, 8.312666, -0.11246266, 5.5836515, -0.05000049, 0.026242256, 10.014341
97249633772311, 8.280363, -0.11724831, 5.5896335, -0.04868102, 0.0032629967, 9.990984
97249643410957, 8.292327, -0.09930214, 5.5896335, -0.063943446, 0.012329102, 10.000615
97249653049603, 8.309076, -0.09571291, 5.5908303, -0.063412786, 0.02192545, 10.015128
97249662688248, 8.322237, -0.101694964, 5.5800624, -0.05458027, 0.037069798, 10.020116
97249672326894, 8.321041, -0.13399807, 5.578866, -0.020841122, 0.03354311, 10.018976
97249681965540, 8.322237, -0.15194423, 5.613562, -0.00921905, 0.004640579, 10.039657
97249691604186, 8.322237, -0.17467605, 5.6279187, 0.010481238, -0.011564255, 10.048053
97249701242832, 8.313862, -0.18664017, 5.669793, 0.011008859, -0.047929764, 10.064754
97249710881478, 8.323434, -0.2009971, 5.704489, 0.020538867, -0.07348013, 10.09234
97249720520123, 8.342576, -0.2213361, 5.71765, 0.03603977, -0.07348585, 10.115947
97249730158769, 8.343773, -0.20338993, 5.7116675, 0.018478155, -0.06478262, 10.113285