timestamp_acc,device_acc_x,device_acc_y,device_acc_z,earth_acc_x,earth_acc_y,earth_acc_z
97234684269782, 8.34138, -0.06819545, 5.6937213, 0.0128157735, -0.003025055, 10.099582
97234693908427, 8.309076, -0.059820566, 5.7140603, -0.001072824, -0.034401417, 10.084326
97234703547073, 8.285149, -0.032303106, 5.729614, -0.027960658, -0.052241325, 10.073216
97234713185719, 8.263613, -0.04546363, 5.721239, -0.015942454, -0.05980587, 10.050776
97234722824261, 8.258827, -0.05623133, 5.690132, 0.0025764108, -0.038130283, 10.029335
97234732462907, 8.281559, -0.04426722, 5.6470613, 0.00214535, 0.012383938, 10.023738
97234742101552, 8.292327, -0.04546363, 5.619544, 0.009575427, 0.040895462, 10.017099
97234751740094, 8.309076, -0.0526421, 5.6183476, 0.016869843, 0.048819542, 10.030289
97234761378740, 8.30788, -0.04546363, 5.6578293, 0.0016614795, 0.016844273, 10.051551
97234771017386, 8.303095, -0.046660043, 5.710471, -0.0072470307, -0.028950691, 10.077309
97234780655927, 8.279166, -0.038285162, 5.7320065, -0.02158773, -0.05800438, 10.069663
97234790294573, 8.318648, -0.019142581, 5.73081, -0.035147488, -0.0315156, 10.101496
97234799933219, 8.29472, -0.008374879, 5.6961145, -0.040517688, -0.015904427, 10.062121
97234809571865, 8.2660055, -0.016749758, 5.662615, -0.029908478, -0.0063052177, 10.019551
97234819210407, 8.260024, -0.016749758, 5.619544, -0.019192994, 0.021404743, 9.990332
97234828849052, 8.26122, -0.031106694, 5.576473, 0.0017330647, 0.054085255, 9.967088
97234838487698, 8.285149, -0.019142581, 5.5740805, -0.0058570504, 0.06962824, 9.985467
97234848126240, 8.293523, -0.022731815, 5.6075797, -0.007704854, 0.044733047, 10.01129
97234857764886, 8.312666, -0.011964113, 5.6578293, -0.0255754, 0.015185833, 10.055382
97234867403532, 8.303095, 0.0059820567, 5.704489, -0.052785933, -0.025989056, 10.073688
97234877042073, 8.29113, 0.02871387, 5.7224355, -0.07911128, -0.042985916, 10.07382
97234886680719, 8.301898, 0.022731815, 5.703293, -0.06613392, -0.023625374, 10.071973
97234896319365, 8.323434, -0.010767702, 5.6446686, -0.019801497, 0.028684616, 10.056875
97234905958011, 8.282756, -0.040677983, 5.5944195, 0.012848139, 0.04161167, 9.995066
97234915596552, 8.282756, -0.043070808, 5.54417, 0.024124324, 0.08032465, 9.96678
97234925235198, 8.295917, -0.0634098, 5.5369916, 0.046314895, 0.08867216, 9.973691
97234934873844, 8.293523, -0.0741775, 5.5704913, 0.050852537, 0.05683613, 9.990625
97234944512386, 8.273184, -0.07776674, 5.619544, 0.04265082, 0.0047883987, 10.001452
97234954151032, 8.269595, -0.07537391, 5.672186, 0.0295946, -0.039109707, 10.028118
97234963789677, 8.300702, -0.06699903, 5.6997037, 0.018047988, -0.041706562, 10.069295
97234973428219, 8.292327, -0.083748795, 5.692525, 0.033145845, -0.04216814, 10.058413
97234983066865, 8.318648, -0.08853444, 5.663811, 0.04298389, -0.0033946037, 10.064028
97234992705511, 8.329415, -0.06819545, 5.643472, 0.026648879, 0.022645473, 10.061381
97235002344157, 8.334201, -0.0849452, 5.6267223, 0.045858204, 0.036771774, 10.055978
97235011982698, 8.319844, -0.07776674, 5.6470613, 0.036886573, 0.013869762, 10.055527
97235021621344, 8.293523, -0.05623133, 5.676972, 0.009804785, -0.02208662, 10.050528
97235031259990, 8.279166, -0.011964113, 5.6997037, -0.037655056, -0.041041374, 10.051281
97235040898532, 8.289934, -0.014356935, 5.7140603, -0.034511805, -0.04595232, 10.068287
97235050537177, 8.282756, -0.011964113, 5.704489, -0.036063254, -0.04184723, 10.056954
97235060175823, 8.281559, 0.0071784677, 5.6674004, -0.04920554, -0.010265827, 10.034998
97235069814469, 8.323434, 0.02632105, 5.625526, -0.05876857, 0.049918175, 10.045937
97235079453011, 8.327023, 0.02632105, 5.5980086, -0.054749966, 0.07312822, 10.033412
97235089091657, 8.301898, 0.016749758, 5.5896335, -0.047857642, 0.061451912, 10.007984
97235098730302, 8.285149, 0.009571291, 5.6123657, -0.049683392, 0.027721882, 10.006958
97235108368948, 8.275578, 0.0035892338, 5.6183476, -0.04543495, 0.016716003, 10.002435
97235118007490, 8.281559, -0.033499517, 5.631508, -0.013555586, 0.0021810532, 10.014941
97235127646136, 8.289934, -0.058624156, 5.602794, 0.015761256, 0.025228024, 10.005842
97235137284782, 8.268398, -0.08135597, 5.593223, 0.037355244, 0.01667881, 9.982761
97235146923323, 8.271988, -0.08255238, 5.5908303, 0.038642168, 0.019049644, 9.984395
97235156561969, 8.297112, -0.09930214, 5.5872407, 0.057586133, 0.03147602, 10.003243
97235166200615, 8.30788, -0.09212367, 5.595616, 0.04925847, 0.0321517, 10.016828
97235175839157, 8.321041, -0.09571291, 5.6243296, 0.04863, 0.015499592, 10.043872
97235185477802, 8.323434, -0.10767702, 5.642276, 0.057095468, 0.0019807816, 10.056001
97235195116448, 8.313862, -0.12203395, 5.6685967, 0.06598461, -0.025897503, 10.062959
97235204755094, 8.29113, -0.1363909, 5.682954, 0.0761379, -0.05171442, 10.052309
97235214393636, 8.285149, -0.11246266, 5.6913285, 0.05055654, -0.056123734, 10.051958
97235224032282, 8.301898, -0.06699903, 5.6961145, 0.0065525174, -0.041344643, 10.068266
97235233670927, 8.3174515, -0.051445685, 5.6817575, -0.0052499175, -0.01817894, 10.072968
97235243309469, 8.287541, -0.033499517, 5.6530433, -0.020278275, -0.008367062, 10.031993
97235252948115, 8.312666, -0.022731815, 5.6374903, -0.024221957, 0.018942356, 10.043969
97235262586761, 8.298309, -0.016749758, 5.6075797, -0.025192201, 0.034838676, 10.015255
97235272225407, 8.299505, 0.0, 5.5872407, -0.03611487, 0.05215454, 10.004751
97235281863948, 8.29113, 0.031106694, 5.572884, -0.06465888, 0.065898895, 9.989611
97235291502594, 8.289934, 0.02871387, 5.5740805, -0.06275725, 0.06199646, 9.989317
97235301141240, 8.286345, 0.03589234, 5.588437, -0.07160002, 0.04894972, 9.994394
97235310779782, 8.306684, 0.008374879, 5.623133, -0.045645, 0.02644062, 10.030848
97235320418427, 8.306684, -0.009571291, 5.629115, -0.028957307, 0.018218994, 10.034285
97235330057073, 8.252846, -0.034695927, 5.6099725, -0.005396247, 4.1770935E-4, 9.979099
97235339695615, 8.263613, -0.047856454, 5.601598, 0.010755599, 0.01211977, 9.983347
97235349334261, 8.29113, -0.034695927, 5.6075797, -0.0019731522, 0.026629448, 10.009411
97235358972907, 8.298309, -0.038285162, 5.6183476, 5.469322E-4, 0.021188736, 10.021417
97235368611552, 8.312666, -0.049052864, 5.649454, 0.0065898895, 0.0022640228, 10.050825
97235378250094, 8.299505, -0.05623133, 5.645865, 0.011960626, -0.002538681, 10.037957
97235387888740, 8.301898, -0.07178468, 5.6650076, 0.02404666, -0.017915249, 10.050776
97235397527386, 8.289934, -0.111266255, 5.680561, 0.058353186, -0.040245056, 10.049833
97235407165927, 8.281559, -0.11006984, 5.676972, 0.05578667, -0.039881706, 10.040898
97235416804573, 8.299505, -0.12203395, 5.6745787, 0.068870604, -0.028699398, 10.05445
97235426443219, 8.310273, -0.10049855, 5.6650076, 0.05011809, -0.011043549, 10.057854
97235436081761, 8.312666, -0.09212367, 5.6781683, 0.03966868, -0.018255234, 10.0672035
97235445720407, 8.300702, -0.0849452, 5.692525, 0.029530048, -0.03591299, 10.065365
97235455359052, 8.300702, -0.08733802, 5.676972, 0.033667743, -0.025574684, 10.056615
97235464997698, 8.289934, -0.08135597, 5.639883, 0.03247559, -3.2901764E-4, 10.026806
97235474636240, 8.29113, -0.07537391, 5.6207404, 0.029094517, 0.016304016, 10.016992
97235484274886, 8.318648, -0.058624156, 5.625526, 0.013700128, 0.0300169, 10.042351
97235493913532, 8.309076, -0.049052864, 5.6123657, 0.0041309, 0.03562641, 10.02699
97235503552073, 8.273184, -0.03708875, 5.625526, -0.01344049, 0.007350445, 10.0046625
97235513190719, 8.275578, -0.015553347, 5.6207404, -0.032888174, 0.015323162, 10.003842
97235522829365, 8.30788, -0.0047856453, 5.6279187, -0.041098177, 0.029606342, 10.034532
97235532467907, 8.309076, 0.016749758, 5.6147585, -0.05791527, 0.043243885, 10.028026
97235542106552, 8.310273, 0.013160525, 5.5800624, -0.04663855, 0.0701313, 10.009537
97235551745198, 8.270791, 0.0071784677, 5.564509, -0.041677415, 0.057777405, 9.968184
97235561383740, 8.273184, -0.03589234, 5.556134, 0.0022131205, 0.057375908, 9.96565
97235571022386, 8.275578, -0.038285162, 5.5537415, 0.0058297515, 0.05974245, 9.966297
97235580661032, 8.293523, -0.038285162, 5.5836515, 0.0022189617, 0.046479225, 9.997951
97235590299677, 8.316256, -0.04546363, 5.6147585, 0.005529046, 0.03400135, 10.034267
97235599938219, 8.301898, -0.05623133, 5.6685967, 0.0037465096, -0.019585133, 10.052725
97235609576865, 8.300702, -0.08015956, 5.697311, 0.020457983, -0.043692112, 10.068024
97235619215511, 8.297112, -0.078963146, 5.727221, 0.013348222, -0.069505215, 10.081882
97235628854052, 8.287541, -0.09930214, 5.7260246, 0.03206253, -0.07533741, 10.073423
97235638492698, 8.295917, -0.09930214, 5.7116675, 0.036026955, -0.053970814, 10.07229
97235648131344, 8.288737, -0.104087785, 5.692525, 0.04330504, -0.043515205, 10.055599
97235657769886, 8.298309, -0.10289137, 5.6793647, 0.044739544, -0.025100708, 10.056096
97235667408532, 8.285149, -0.11844472, 5.6853466, 0.056725085, -0.03930092, 10.048688
97235677047177, 8.30788, -0.10289137, 5.690132, 0.04014337, -0.02810049, 10.070087
97235686685719, 8.316256, -0.07298109, 5.6889358, 0.009286702, -0.017849445, 10.07616
97235696324365, 8.300702, -0.041874398, 5.682954, -0.021930039, -0.016586304, 10.0597515
97235705963011, 8.286345, -0.051445685, 5.6614184, -0.012628257, -0.0100159645, 10.035812
97235715601552, 8.285149, -0.051445685, 5.633901, -0.010079622, 0.007461548, 10.019332
97235725240198, 8.285149, -0.032303106, 5.5836515, -0.021376312, 0.051777363, 9.990933
97235734878844, 8.237292, -0.19142582, 5.4999027, 0.14404827, 0.059766293, 9.905263
97235744517386, 8.396415, 0.31465617, 5.629115, -0.35878715, 0.13198471, 10.106413
97235754156032, 8.093722, -0.4953143, 5.3132625, 0.45481688, 0.076741695, 9.6835785
97235763794677, 8.397611, 0.6556334, 5.721239, -0.70107913, 0.12713957, 10.157492
97235773433219, 8.154739, -0.6963114, 5.3994045, 0.65477914, -0.02643776, 9.783085
97235783071865, 8.370093, 0.6556334, 5.710471, -0.70951235, 0.12607527, 10.128105
97235792710511, 8.328219, -0.567099, 5.5130634, 0.52808964, 0.0055480003, 9.989785
97235802349052, 8.254042, 0.32662028, 5.615955, -0.37249738, 0.07157707, 9.981531
97235811987698, 8.421539, -0.18783657, 5.697311, 0.13258386, -0.0067682266, 10.168545
97235821626344, 8.13799, -0.17347965, 5.508278, 0.11976558, -0.007205963, 9.827701
97235831264886, 8.459825, 0.24885355, 5.7810597, -0.3060273, 0.040982246, 10.244798
97235840903532, 8.115258, -0.6161518, 5.4125648, 0.5683378, -0.03768015, 9.757484
97235850542177, 8.477771, 0.58624154, 5.898308, -0.6618298, 0.03187132, 10.323144
97235860180719, 8.202596, -0.7728817, 5.5597234, 0.69450593, -0.14049292, 9.914049
97235869819365, 8.396415, 0.6221339, 5.8911295, -0.70487165, -0.0037140846, 10.251602
97235879458011, 8.322237, -0.6376872, 5.631508, 0.56429803, -0.09681368, 10.052479
97235889096552, 8.2660055, 0.32662028, 5.723632, -0.3889109, 6.9761276E-4, 10.051977
97235898735198, 8.40479, -0.26799613, 5.749953, 0.1985321, -0.0777607, 10.184734
97235908373740, 8.116454, -0.1268196, 5.4987063, 0.07049751, -0.0021305084, 9.80427
97235918012386, 8.477771, 0.2440679, 5.7009, -0.28757572, 0.11800814, 10.214489
97235927651032, 8.117651, -0.55752766, 5.2869415, 0.53013915, 0.07238293, 9.688786
97235937289573, 8.437093, 0.6149554, 5.7631135, -0.67435205, 0.11780071, 10.213106
97235946928219, 8.123632, -0.7262217, 5.400601, 0.6744686, -0.056725502, 9.758542
97235956566865, 8.343773, 0.66041905, 5.7391853, -0.7156856, 0.08674765, 10.122905
97235966205407, 8.267202, -0.64247286, 5.453243, 0.5990197, 0.0022583008, 9.906485
97235975844052, 8.263613, 0.4127619, 5.578866, -0.4653737, 0.114439964, 9.967535
97235985482698, 8.40479, -0.25004998, 5.6207404, 0.198919, 0.023274422, 10.112152
97235995121240, 8.142776, -0.09571291, 5.45085, 0.04899758, 0.04527235, 9.799045
97236004759886, 8.459825, 0.17826529, 5.6913285, -0.22894365, 0.07926512, 10.194751
97236014398427, 8.093722, -0.55513483, 5.352744, 0.5078091, 0.008301258, 9.706207
97236024037073, 8.483752, 0.5407779, 5.8624153, -0.6134454, 0.03676939, 10.308092
97236033675719, 8.179864, -0.7956135, 5.538188, 0.71485186, -0.15384436, 9.883322
97236043314261, 8.4347, 0.6257231, 5.9294147, -0.71355784, -0.005549431, 10.304585
97236052952907, 8.306684, -0.7082755, 5.629115, 0.6412089, -0.1315937, 10.037984
97236062591552, 8.279166, 0.38524446, 5.76431, -0.4535601, -0.0028066635, 10.085363
97236072230094, 8.392825, -0.35413775, 5.759524, 0.28033566, -0.10782194, 10.18071
97236081868740, 8.147561, -0.02751746, 5.581259, -0.03423071, -0.026163101, 9.875835
97236091507282, 8.483752, 0.18903299, 5.7667027, -0.24521208, 0.05660534, 10.25677
97236101145927, 8.092526, -0.48933223, 5.3766723, 0.44214845, 0.007966042, 9.7181015
97236110784573, 8.457432, 0.5407779, 5.820541, -0.60782796, 0.06688166, 10.262814
97236120423115, 8.146365, -0.72502524, 5.4424753, 0.6708317, -0.06963968, 9.800746
97236130061761, 8.405986, 0.6867401, 5.8097734, -0.7438348, 0.083064556, 10.2139845
97236139700407, 8.221739, -0.6855437, 5.447261, 0.6401607, -0.015960217, 9.865575
97236149338948, 8.26481, 0.48095736, 5.613562, -0.535107, 0.11237097, 9.987569
97236158977594, 8.3581295, -0.33499518, 5.5800624, 0.28686702, 0.012176514, 10.05113
97236168616136, 8.128419, 0.050249275, 5.473582, -0.10036641, 0.055572987, 9.799013
97236178254782, 8.455039, 0.14117654, 5.6674004, -0.18577915, 0.097640514, 10.177572
97236187893427, 8.093722, -0.44626144, 5.306084, 0.41086382, 0.06267452, 9.679323
97236197532073, 8.465807, 0.506082, 5.7583275, -0.56274605, 0.10979843, 10.23502
97236207170615, 8.123632, -0.762114, 5.4017973, 0.7098838, -0.055379868, 9.759438
97236216809261, 8.409575, 0.6628119, 5.818148, -0.7382868, 0.06265879, 10.220673
97236226447802, 8.26122, -0.7465607, 5.471189, 0.6841212, -0.041586876, 9.913086
97236236086448, 8.316256, 0.47018966, 5.6853466, -0.5363544, 0.08246946, 10.070248
97236245725094, 8.380861, -0.41515473, 5.651847, 0.35006166, -0.04728031, 10.110875
97236255363636, 8.181061, 0.07776674, 5.645865, -0.15850818, -0.040756702, 9.9390545
97236265002282, 8.452646, 0.07537391, 5.851648, -0.16250324, -0.05802059, 10.279344
97236274640823, 8.103293, -0.41754755, 5.5046883, 0.35067105, -0.07194376, 9.79853
97236284279469, 8.482556, 0.47856453, 5.9138613, -0.56076634, 0.00350523, 10.336443
97236293918115, 8.147561, -0.7573284, 5.5166526, 0.6904263, -0.13117313, 9.843569
97236303556657, 8.426325, 0.6436693, 5.901897, -0.71530384, 8.2683563E-4, 10.282898
97236313195302, 8.230113, -0.7513463, 5.4795637, 0.68996495, -0.042081833, 9.891769
97236322833844, 8.282756, 0.4953143, 5.6506505, -0.55717576, 0.09197378, 10.022989
97236332472490, 8.344969, -0.48095736, 5.5501523, 0.4233287, 0.015458107, 10.024698
97236342111136, 8.1738825, 0.11964113, 5.5262237, -0.17446154, 0.053967953, 9.865723
97236351749677, 8.437093, 0.039481573, 5.6961145, -0.10543567, 0.049862385, 10.179304
97236361388323, 8.092526, -0.40677986, 5.3790655, 0.3483624, 0.029211521, 9.719393
97236371026865, 8.469396, 0.39960137, 5.779863, -0.46889633, 0.07225561, 10.250467
97236380665511, 8.106883, -0.7405786, 5.413761, 0.6702712, -0.06404114, 9.753227
97236390304052, 8.403593, 0.5946164, 5.828916, -0.6883884, 0.041190147, 10.221283
97236399942698, 8.202596, -0.8171489, 5.428118, 0.74112594, -0.040841103, 9.841944
97236409581344, 8.310273, 0.4953143, 5.6590257, -0.5724075, 0.10783625, 10.049441
97236419219886, 8.34138, -0.5024927, 5.548956, 0.43593234, 0.0048360825, 10.021576
97236428858532, 8.191829, 0.1268196, 5.601598, -0.21166283, 0.011704445, 9.922455
97236438497073, 8.440681, -0.025124637, 5.7786665, -0.06323314, -0.020742893, 10.229092
97236448135719, 8.105687, -0.30867413, 5.5022955, 0.22862315, -0.037203312, 9.798932
97236457774261, 8.495717, 0.42711884, 5.9007006, -0.5182933, 0.011060238, 10.339689
97236467412907, 8.1344, -0.6735796, 5.5633125, 0.58290946, -0.14934587, 9.859541
97236477051552, 8.455039, 0.64965135, 6.026324, -0.75646305, -0.05978775, 10.375477
97236486690094, 8.2145605, -0.7692925, 5.588437, 0.68542206, -0.14303017, 9.940382
97236496328740, 8.323434, 0.52283174, 5.797809, -0.6015834, 0.028245926, 10.139271
97236505967282, 8.330612, -0.6041877, 5.599205, 0.5345841, -0.04241371, 10.041298
97236515605927, 8.187042, 0.1471586, 5.6075797, -0.2285167, 0.018535614, 9.92178
97236525244469, 8.443074, -0.083748795, 5.7224355, 0.0061255097, 0.02050209, 10.199918
97236534883115, 8.127222, -0.29312077, 5.4424753, 0.22330028, 0.03416443, 9.783004
97236544521761, 8.487342, 0.37328035, 5.7607207, -0.44718078, 0.09196329, 10.2543545
97236554160302, 8.086544, -0.6879365, 5.3503513, 0.616483, 0.008003235, 9.701113
97236563798948, 8.390432, 0.62093747, 5.7990055, -0.7032343, 0.05529356, 10.193909
97236573437490, 8.1344, -0.81595254, 5.4017973, 0.7461597, -0.031933784, 9.770153
97236583076136, 8.312666, 0.55393845, 5.6614184, -0.6219188, 0.11642218, 10.05279
97236592714677, 8.295917, -0.5946164, 5.4819565, 0.52880216, 0.022176266, 9.947237
97236602353323, 8.2049885, 0.22253251, 5.595616, -0.29989886, 0.04911518, 9.929247
97236611991969, 8.439486, -0.13878371, 5.7523456, 0.048600376, -0.02489233, 10.214239
97236621630511, 8.13799, -0.25004998, 5.5226345, 0.1655469, -0.030165195, 9.836697
97236631269157, 8.500503, 0.3278167, 5.8564334, -0.4202522, 0.023678303, 10.319237
97236640907698, 8.122437, -0.65922266, 5.473582, 0.58065635, -0.07396841, 9.799288
97236650546344, 8.458628, 0.6029913, 5.9270215, -0.6972224, -0.0041213036, 10.32257
97236660184886, 8.166703, -0.81595254, 5.4987063, 0.7245348, -0.102226734, 9.851964
97236669823532, 8.348558, 0.5515456, 5.770292, -0.64457, 0.04944229, 10.143026
97236679462073, 8.297112, -0.6664011, 5.54417, 0.58269805, -0.026065826, 9.984175
97236689100719, 8.237292, 0.23808585, 5.6506505, -0.31989688, 0.025666714, 9.986818
97236698739261, 8.429914, -0.21894327, 5.7726846, 0.12004733, -0.055684566, 10.2185
97236708377907, 8.146365, -0.21894327, 5.576473, 0.12335253, -0.05410385, 9.873708
97236718016552, 8.49452, 0.2644069, 5.844469, -0.36324835, 0.021871567, 10.30787
97236727655094, 8.070991, -0.6664011, 5.424529, 0.5814493, -0.07627106, 9.729676
97236737293740, 8.425129, 0.5694918, 5.869594, -0.6756381, 0.034199238, 10.261656
97236746932282, 8.149954, -0.8111669, 5.40419, 0.7370759, -0.058124542, 9.784598
97236756570927, 8.34138, 0.5694918, 5.6757755, -0.6465783, 0.15566206, 10.083406
97236766209469, 8.276773, -0.65084773, 5.4352965, 0.5784781, 0.017363548, 9.906366
97236775848115, 8.226524, 0.33140594, 5.582455, -0.41208684, 0.10771608, 9.938205
97236785486657, 8.400003, -0.2105684, 5.6985073, 0.1121254, -0.021769524, 10.15206
97236795125302, 8.117651, -0.12203395, 5.534599, 0.028568864, -0.024130821, 9.825554
97236804763844, 8.478967, 0.26799613, 5.8265233, -0.36691827, 0.0356946, 10.284802
97236814402490, 8.129615, -0.57547385, 5.4436717, 0.48596013, -0.044781685, 9.788627
97236824041136, 8.493324, 0.56829536, 5.9090757, -0.67505836, 0.037303925, 10.340195
97236833679677, 8.165507, -0.8207382, 5.4963136, 0.71809936, -0.12261343, 9.850274
97236843318323, 8.364112, 0.59581286, 5.7870417, -0.6823606, 0.057349205, 10.165348
97236852956865, 8.268398, -0.6735796, 5.473582, 0.59259295, -0.010782719, 9.921136
97236862595511, 8.238488, 0.35294133, 5.619544, -0.429335, 0.07475996, 9.969283
97236872234052, 8.365308, -0.24765715, 5.680561, 0.15084052, -0.03011179, 10.113596
97236881872698, 8.111669, -0.06699903, 5.523831, -0.020367086, -0.006693363, 9.814067
97236891511240, 8.455039, 0.22372891, 5.773881, -0.31498724, 0.042189598, 10.235938
97236901149886, 8.092526, -0.59700924, 5.4125648, 0.5102718, -0.03097868, 9.740633
97236910788427, 8.480164, 0.50488555, 5.8863435, -0.61511064, 0.016778946, 10.316903
97236920427073, 8.177471, -0.8554341, 5.487939, 0.7533492, -0.10448456, 9.856056
97236930065719, 8.395218, 0.54436713, 5.8468623, -0.64510936, 0.010941982, 10.224751
97236939704261, 8.279166, -0.7896315, 5.5310097, 0.69043416, -0.0649662, 9.963899
97236949342907, 8.273184, 0.3074777, 5.706882, -0.41469067, 0.012077332, 10.046715
97236958981448, 8.395218, -0.35294133, 5.697311, 0.24559557, -0.049900055, 10.148931
97236968620094, 8.159525, -0.07178468, 5.578866, -0.029031992, -0.022636414, 9.8846035
97236978258636, 8.480164, 0.15672988, 5.81097, -0.2595027, 0.009206295, 10.278019
97236987897282, 8.094919, -0.5371887, 5.4113684, 0.45342493, -0.020349026, 9.741314
97236997535823, 8.463413, 0.5168497, 5.825327, -0.6107034, 0.06480837, 10.269069
97237007174469, 8.124829, -0.79800636, 5.400601, 0.7063834, -0.037922382, 9.762979
97237016813011, 8.386844, 0.654437, 5.7726846, -0.7556421, 0.09156561, 10.174082
97237026451657, 8.257631, -0.7106683, 5.45085, 0.63472444, 0.0070638657, 9.899615
97237036090198, 8.276773, 0.42592242, 5.6614184, -0.5242197, 0.05747223, 10.02297
97237045728844, 8.359326, -0.36729828, 5.6614184, 0.26376522, -0.038876534, 10.099199
97237055367490, 8.110473, -0.015553347, 5.581259, -0.08567792, -0.046938896, 9.844843
97237065006032, 8.451449, 0.11365908, 5.804988, -0.21729785, -0.014306068, 10.25136
97237074644677, 8.106883, -0.5024927, 5.436493, 0.41313165, -0.026637554, 9.765148
97237084283219, 8.486146, 0.46301118, 5.858826, -0.560887, 0.033560276, 10.307239
97237093921865, 8.142776, -0.8207382, 5.4616175, 0.729889, -0.097997665, 9.81149
97237103560407, 8.40479, 0.60658056, 5.866005, -0.7088091, 0.020327091, 10.242833
97237113199052, 8.23131, -0.77647096, 5.4891353, 0.679018, -0.06072998, 9.900669
97237122837594, 8.300702, 0.42951167, 5.709275, -0.5196742, 0.059451103, 10.070173
97237132476240, 8.380861, -0.46301118, 5.697311, 0.357934, -0.08501673, 10.137909
97237142114782, 8.2014, 0.0, 5.633901, -0.10301387, -0.033320427, 9.949475
97237151753427, 8.480164, 0.03708875, 5.784649, -0.14119792, 0.0062594414, 10.264344
97237161391969, 8.109276, -0.4941179, 5.3970113, 0.4077387, 7.8201294E-5, 9.7450485
97237171030615, 8.467003, 0.4319045, 5.784649, -0.5303985, 0.08387947, 10.249415
97237180669157, 8.098508, -0.7645068, 5.3814583, 0.68040085, -0.044070244, 9.72962
97237190307802, 8.397611, 0.63170516, 5.7966127, -0.7242821, 0.089114666, 10.197407
97237199946344, 8.212168, -0.7585248, 5.3970113, 0.6842649, -0.007909298, 9.832321
97237209584990, 8.282756, 0.5096712, 5.625526, -0.59942186, 0.12147331, 10.006812
97237219223636, 8.356933, -0.41635114, 5.5633125, 0.33373892, 0.014483452, 10.042435
97237228862177, 8.189436, 0.09571291, 5.6004014, -0.19659352, 0.0026593208, 9.919771
97237238500823, 8.484949, 0.0011964113, 5.800202, -0.10749632, -0.01921606, 10.277392
97237248139365, 8.163115, -0.3924229, 5.493921, 0.3025961, -0.031789303, 9.842817
97237257778011, 8.526823, 0.4354937, 5.8803616, -0.5351501, 0.03772354, 10.353127
97237267416552, 8.117651, -0.7585248, 5.483153, 0.6648882, -0.11682463, 9.802084
97237277055198, 8.403593, 0.6149554, 5.9234324, -0.7370996, -0.02189207, 10.273355
97237286693740, 8.200203, -0.78723866, 5.4891353, 0.6878911, -0.09883261, 9.874752
97237296332386, 8.313862, 0.5096712, 5.6937213, -0.5889441, 0.090620995, 10.071915
97237305970927, 8.343773, -0.50488555, 5.56092, 0.41606653, -0.009273529, 10.031157
97237315609573, 8.193025, 0.18424734, 5.578866, -0.27768135, 0.040816307, 9.909822
97237325248115, 8.455039, 0.02751746, 5.7463636, -0.12534165, 0.018967628, 10.222186
97237334886761, 8.12124, -0.33379877, 5.453243, 0.24520755, -0.010374069, 9.784865
97237344525302, 8.506484, 0.38763726, 5.81097, -0.47850275, 0.07487774, 10.297733
97237354163948, 8.116454, -0.77647096, 5.380262, 0.6860261, -0.057390213, 9.744384
97237363802490, 8.455039, 0.54317075, 5.8420763, -0.6518028, 0.056121826, 10.270569
97237373441136, 8.224132, -0.8709874, 5.447261, 0.7755354, -0.05833912, 9.872324
97237383079677, 8.338987, 0.44985065, 5.721239, -0.55525976, 0.05590391, 10.1075325
97237392718323, 8.32463, -0.58983076, 5.595616, 0.49164522, -0.06826544, 10.035534
97237402356969, 8.169097, 0.15074782, 5.669793, -0.26803988, -0.0586977, 9.941235
97237411995511, 8.407183, -0.07776674, 5.79422, -0.04200548, -0.07061911, 10.210436
97237421634157, 8.116454, -0.33140594, 5.48076, 0.23637515, -0.028148651, 9.796364
97237431272698, 8.5112705, 0.3385844, 5.8037915, -0.43320405, 0.067462444, 10.297968
97237440911344, 8.145168, -0.74536425, 5.3970113, 0.6624827, -0.029632092, 9.7768755
97237450549886, 8.484949, 0.5802595, 5.8683977, -0.68067914, 0.048963547, 10.310355
97237460188532, 8.212168, -0.8362915, 5.477171, 0.74401075, -0.083367825, 9.878158
97237469827073, 8.319844, 0.5300102, 5.773881, -0.6330491, 0.014075279, 10.121141
97237479465719, 8.312666, -0.5910272, 5.5740805, 0.4853673, -0.054608822, 10.014067
97237489104261, 8.206185, 0.21655045, 5.662615, -0.32969457, -0.011498451, 9.967184
97237498742907, 8.452646, -0.1268196, 5.7379885, 0.023887157, -0.011194706, 10.217002
97237508381552, 8.133204, -0.25962126, 5.45085, 0.17013586, 0.01679039, 9.792801
97237518020094, 8.4909315, 0.32183465, 5.736792, -0.41469288, 0.103682995, 10.243416
97237527658740, 8.09133, -0.70588267, 5.337191, 0.62539417, -0.007053852, 9.698573
97237537297282, 8.408379, 0.5886344, 5.8301125, -0.6932628, 0.043818474, 10.225214
97237546935927, 8.154739, -0.81834537, 5.426922, 0.7239405, -0.095710754, 9.802434
97237556574469, 8.342576, 0.53599226, 5.741578, -0.6302339, 0.0855546, 10.121614
97237566213115, 8.316256, -0.6580262, 5.517849, 0.5589074, -0.037695885, 9.986289
97237575851657, 8.22772, 0.2105684, 5.631508, -0.31713295, 0.02952385, 9.967555
97237585490302, 8.428718, -0.2428715, 5.7355957, 0.1276865, -0.04668522, 10.1971
97237595128948, 8.126026, -0.3062813, 5.5046883, 0.2026447, -0.04139614, 9.817583
97237604767490, 8.49452, 0.20697916, 5.84088, -0.31942832, 0.014317036, 10.305986
97237614406136, 8.13799, -0.6903293, 5.4843497, 0.57616115, -0.09837103, 9.820381
97237624044677, 8.480164, 0.54436713, 5.966503, -0.673436, -0.01291275, 10.361225
97237633683323, 8.196614, -0.8315059, 5.5944195, 0.69365823, -0.18808699, 9.932617
97237643321865, 8.374879, 0.6089734, 5.8875403, -0.7319707, 9.3364716E-4, 10.229214
97237652960511, 8.312666, -0.5910272, 5.582455, 0.47684324, -0.056924343, 10.019128
97237662599157, 8.243274, 0.3481557, 5.663811, -0.45464373, 0.060591698, 9.997057
97237672237698, 8.38804, -0.19860429, 5.6793647, 0.097852826, -0.008351803, 10.131348
97237681876344, 8.090134, -0.1268196, 5.4484572, 0.035518527, 0.028855324, 9.754483
97237691514886, 8.444271, 0.2428715, 5.692525, -0.33220565, 0.11226368, 10.1806965
97237701153532, 8.07458, -0.65084773, 5.300102, 0.5692936, 0.021109581, 9.663797
97237710792073, 8.471788, 0.53240305, 5.8073807, -0.6445571, 0.086884975, 10.264372
97237720430719, 8.179864, -0.8362915, 5.45085, 0.7347787, -0.07559824, 9.837465
97237730069261, 8.389236, 0.5766702, 5.818148, -0.702445, 0.04806614, 10.201321
97237739707907, 8.293523, -0.6963114, 5.556134, 0.59040666, -0.06951046, 9.9892235
97237749346552, 8.233703, 0.30867413, 5.6781683, -0.41986442, 0.021119595, 9.9977
97237758985094, 8.353344, -0.33260235, 5.625526, 0.22159362, -0.011797905, 10.074039
97237768623740, 8.160722, -0.16869399, 5.454439, 0.07879716, 0.055966377, 9.81669
97237778262282, 8.500503, 0.20817557, 5.7726846, -0.318447, 0.06540966, 10.272297
97237787900927, 8.147561, -0.6125626, 5.4412785, 0.5058338, -0.028448105, 9.803511
97237797539573, 8.496913, 0.4977071, 5.942575, -0.6382748, -0.014665604, 10.361074
97237807178115, 8.169097, -0.81236327, 5.548956, 0.6788647, -0.14393139, 9.884505
97237816816761, 8.395218, 0.6149554, 5.889933, -0.744097, -0.0130672455, 10.246722
97237826455302, 8.281559, -0.6975078, 5.5262237, 0.5935562, -0.0141301155, 9.962801
97237836093948, 8.252846, 0.3792624, 5.6674004, -0.49072635, 0.036945343, 10.006526
97237845732490, 8.37129, -0.31944183, 5.6446686, 0.20211822, 0.002872467, 10.099602
97237855371136, 8.109276, -0.059820566, 5.491528, -0.045972407, 0.026614666, 9.793774
97237865009782, 8.4347, 0.16869399, 5.709275, -0.27771723, 0.07590103, 10.1826105
97237874648323, 8.082955, -0.56470615, 5.3312087, 0.47014403, 0.042920113, 9.687722
97237884286969, 8.425129, 0.4881358, 5.770292, -0.59828734, 0.08120251, 10.205528
97237893925511, 8.0817585, -0.85064846, 5.288138, 0.75870615, 0.013530254, 9.665764
97237903564157, 8.421539, 0.5838487, 5.7009, -0.68149024, 0.17008543, 10.1621895
97237913202802, 8.303095, -0.74177504, 5.5657053, 0.60696495, -0.05900097, 10.004839
97237922841344, 8.29472, 0.33260235, 5.910272, -0.5183785, -0.10730553, 10.176645
97237932479990, 8.376076, -0.47856453, 5.9353967, 0.2742312, -0.2575388, 10.270107
97237942118532, 8.043473, -0.1363909, 5.6793647, -0.04593432, -0.14867783, 9.8461685
97237951757177, 8.536395, 0.019142581, 5.8301125, -0.17670608, 0.041339397, 10.335748
97237961395823, 8.16431, -0.56350976, 5.491528, 0.41448987, -0.022783756, 9.846728
97237971034365, 8.507681, 0.40438703, 5.9712887, -0.59281564, -0.010838985, 10.385034
97237980673011, 8.12124, -0.90807617, 5.5513487, 0.7342578, -0.16903687, 9.850325
97237990311552, 8.370093, 0.50488555, 5.9246287, -0.6879244, -0.022192001, 10.244066
97237999950198, 8.230113, -0.8650054, 5.528617, 0.6938176, -0.08890915, 9.927705
97238009588844, 8.299505, 0.33738798, 5.6578293, -0.4863413, 0.1076684, 10.037855
97238019227386, 8.384451, -0.50488555, 5.595616, 0.352764, 0.022746563, 10.08662
97238028866032, 8.1738825, -0.08853444, 5.5405807, -0.07244402, 0.041430473, 9.87478
97238038504573, 8.444271, -0.039481573, 5.751149, -0.13087356, 0.030991554, 10.215914
97238048143219, 8.09133, -0.54675996, 5.4089756, 0.39059943, 0.005545616, 9.740276
97238057781865, 8.46461, 0.3696911, 5.8073807, -0.54342085, 0.085398674, 10.257162
97238067420407, 8.103293, -0.8315059, 5.4376893, 0.6595068, -0.07947016, 9.771488
97238077059052, 8.405986, 0.6041877, 5.871987, -0.7934603, 0.04574728, 10.24081
97238086697594, 8.216953, -0.80757767, 5.501099, 0.6483762, -0.059830666, 9.899931
97238096336240, 8.298309, 0.40079778, 5.7080784, -0.56244427, 0.06998634, 10.063971
97238105974886, 8.352147, -0.5240282, 5.6303115, 0.3626058, -0.026786804, 10.0797415
97238115613427, 8.187042, 0.0011964113, 5.633901, -0.17322809, -0.012032032, 9.936716
97238125252073, 8.475378, -0.046660043, 5.79422, -0.12545037, 0.008017063, 10.266031
97238134890719, 8.098508, -0.50488555, 5.453243, 0.35136366, -0.027938843, 9.770073
97238144529261, 8.469396, 0.36490545, 5.8301125, -0.52809703, 0.06256962, 10.274785
97238154167907, 8.135597, -0.83748794, 5.453243, 0.6736548, -0.07300234, 9.806532
97238163806448, 8.419147, 0.5455636, 5.898308, -0.72083586, 0.030209064, 10.268845
97238173445094, 8.2253275, -0.87936234, 5.5369916, 0.71370375, -0.10296106, 9.928121
97238183083740, 8.312666, 0.43908295, 5.7667027, -0.6073445, 0.040209293, 10.108293
97238192722282, 8.35454, -0.5276174, 5.676972, 0.35539496, -0.06605196, 10.108119
97238202360927, 8.188239, 0.07058827, 5.6650076, -0.24468893, -0.019163609, 9.954111
97238211999573, 8.426325, -0.086141616, 5.820541, -0.093149185, -0.04600382, 10.24101
97238221638115, 8.078169, -0.47018966, 5.447261, 0.3141073, -0.019052505, 9.749437
97238231276761, 8.43111, 0.27876383, 5.7690954, -0.43239772, 0.088757515, 10.210238
97238240915407, 8.097312, -0.8913264, 5.3682976, 0.7498486, -0.03626728, 9.727074
97238250553948, 8.46102, 0.47377887, 5.8229337, -0.628252, 0.093242645, 10.2623825
97238260192594, 8.228917, -0.95473623, 5.4891353, 0.7878823, -0.092796326, 9.905951
97238269831240, 8.330612, 0.4103691, 5.782256, -0.5908259, 0.052642822, 10.131641
97238279469782, 8.310273, -0.613759, 5.660222, 0.42865658, -0.09354162, 10.063944
97238289108427, 8.183454, 0.11724831, 5.7260246, -0.30258423, -0.05653429, 9.983749
97238298747073, 8.429914, -0.12203395, 5.8337016, -0.069215894, -0.059578896, 10.251932
97238308385615, 8.100901, -0.36610186, 5.4759746, 0.20882231, -0.0060095787, 9.782703
97238318024261, 8.500503, 0.30388847, 5.76431, -0.4592129, 0.12534904, 10.2640915
97238327662802, 8.123632, -0.78843504, 5.3419766, 0.6543101, 0.014796734, 9.732595
97238337301448, 8.423932, 0.55393845, 5.79422, -0.7188901, 0.11348724, 10.213363
97238346940094, 8.159525, -0.86859465, 5.410172, 0.71261954, -0.03779173, 9.802704
97238356578636, 8.29113, 0.48215377, 5.7200427, -0.6377598, 0.08199215, 10.063832
97238366217282, 8.304291, -0.64606214, 5.582455, 0.48652565, -0.045350075, 10.015173
97238375855927, 8.226524, 0.14356937, 5.7116675, -0.31703478, -0.0222435, 10.010917
97238385494469, 8.457432, -0.2009971, 5.8432727, 0.010916591, -0.0733037, 10.281386
97238395133115, 8.149954, -0.37806597, 5.5633125, 0.20764625, -0.055716038, 9.872634
97238404771761, 8.506484, 0.21655045, 5.8564334, -0.3910824, 0.03499174, 10.322346
97238414410302, 8.117651, -0.79920274, 5.410172, 0.64269614, -0.032494545, 9.766823
97238424048948, 8.429914, 0.4881358, 5.845666, -0.6643839, 0.06308651, 10.248325
97238433687594, 8.165507, -0.90807617, 5.432904, 0.7474705, -0.053726196, 9.821149
97238443326240, 8.349754, 0.4881358, 5.709275, -0.637563, 0.11701441, 10.106053
97238452964782, 8.287541, -0.68075806, 5.5310097, 0.5168376, -0.031528473, 9.973501
97238462603427, 8.195417, 0.16749759, 5.666204, -0.33670974, 0.009315491, 9.959184
97238472242073, 8.408379, -0.2656033, 5.791827, 0.07416344, -0.07475567, 10.213009
97238481880615, 8.140383, -0.30029923, 5.5669017, 0.12639832, -0.048953533, 9.865499
97238491519261, 8.523234, 0.2009971, 5.8683977, -0.3795557, 0.03954363, 10.343037
97238501157907, 8.13799, -0.7692925, 5.45085, 0.60319173, -0.06203842, 9.806262
97238510796448, 8.443074, 0.48215377, 5.881558, -0.6559835, 0.04412222, 10.280002
97238520435094, 8.135597, -0.87936234, 5.4616175, 0.7220787, -0.099273205, 9.811178
97238530073740, 8.312666, 0.5192425, 5.7284174, -0.6740044, 0.085709095, 10.085789
97238539712282, 8.263613, -0.71665037, 5.4843497, 0.56350607, 0.0019516945, 9.927811
97238549350927, 8.221739, 0.23449662, 5.6207404, -0.38426661, 0.06555605, 9.954535
97238558989573, 8.421539, -0.26679972, 5.7188463, 0.0991292, -0.009144783, 10.18277
97238568628115, 8.127222, -0.25124636, 5.538188, 0.09053826, -0.023304462, 9.837564
97238578266761, 8.475378, 0.19142582, 5.832505, -0.36427617, 0.035476685, 10.28362
97238587905407, 8.099705, -0.6723832, 5.4628143, 0.5131835, -0.06502485, 9.779165
97238597544052, 8.4502535, 0.51565325, 5.942575, -0.69861925, 0.0067105293, 10.319825
97238607182594, 8.152347, -0.86141616, 5.5202417, 0.6962935, -0.121020794, 9.857809
97238616821240, 8.398808, 0.552742, 5.7990055, -0.71177626, 0.08094883, 10.196116
97238626459886, 8.327023, -0.7477571, 5.477171, 0.6131802, 0.038645267, 9.97599
97238636098427, 8.27797, 0.25004998, 5.6099725, -0.39982402, 0.11081314, 9.994349
97238645737073, 8.415557, -0.3589234, 5.676972, 0.20359325, 0.0016226768, 10.155638
97238655375719, 8.153543, -0.2009971, 5.5633125, 0.03938496, -0.016900063, 9.872653
97238665014261, 8.4909315, 0.14356937, 5.851648, -0.31619847, 0.014882565, 10.308159
97238674652907, 8.099705, -0.6412765, 5.4867425, 0.4805267, -0.08633804, 9.791958
97238684291552, 8.446664, 0.48454657, 5.9413786, -0.6648894, 0.0062704086, 10.316917
97238693930198, 8.136793, -0.8817552, 5.4927244, 0.7167928, -0.1454916, 9.829543
97238703568740, 8.376076, 0.5455636, 5.7894344, -0.6958307, 0.11891127, 10.172292
97238713207386, 8.220542, -0.6879365, 5.4149575, 0.54472923, 0.016979694, 9.852682
97238722846032, 8.312666, 0.0059820567, 5.5405807, -0.13241994, 0.1359353, 9.988117
97238732484677, 8.293523, -0.20219351, 5.568098, 0.05170691, 0.05212593, 9.991082
97238742123219, 8.30788, -0.13758731, 5.642276, -0.024333358, 0.014514446, 10.043619
97238751761865, 8.300702, -0.17587246, 5.6949177, 0.002733767, -0.0357728, 10.067938
97238761400511, 8.316256, -0.16031912, 5.741578, -0.017599285, -0.059136868, 10.106816
97238771039157, 8.313862, -0.20578274, 5.7858453, 0.020053506, -0.10496664, 10.13051
97238780677698, 8.299505, -0.19980069, 5.7750773, 0.018903434, -0.09900665, 10.112521
97238790316344, 8.269595, -0.20817557, 5.68415, 0.04111749, -0.042363644, 10.036715
97238799954990, 8.279166, -0.2105684, 5.599205, 0.057881057, 0.030813217, 9.996786
97238809593636, 8.29113, -0.17706887, 5.54417, 0.033780336, 0.08619547, 9.975142
97238819232177, 8.30788, -0.14476576, 5.5369916, 0.0058000684, 0.10745573, 9.984414
97238828870823, 8.321041, -0.106480606, 5.5716877, -0.04222995, 0.092087746, 10.014215
97238838509469, 8.298309, -0.09332009, 5.639883, -0.06915665, 0.02636385, 10.033616
97238848148011, 8.262417, -0.07298109, 5.729614, -0.10950005, -0.059559822, 10.054144
97238857786657, 8.246863, -0.047856454, 5.81097, -0.14758247, -0.12607145, 10.086761
97238867425302, 8.244471, -0.10289137, 5.820541, -0.09404963, -0.14565563, 10.09111
97238877063948, 8.22772, -0.15314065, 5.7810597, -0.038553894, -0.12761688, 10.05593
97238886702594, 8.244471, -0.19501504, 5.729614, 0.014340043, -0.08094025, 10.041467
97238896341136, 8.286345, -0.19262223, 5.643472, 0.028688312, 0.016450882, 10.027376
97238905979782, 8.3174515, -0.18305093, 5.6123657, 0.02474171, 0.05993414, 10.035336
97238915618427, 8.350951, -0.2009971, 5.639883, 0.041004002, 0.053128242, 10.078817
97238925257073, 8.333005, -0.20697916, 5.6949177, 0.0332191, -0.0038342476, 10.095187
97238934895615, 8.310273, -0.1794617, 5.7379885, -0.012035966, -0.044645786, 10.10026
97238944534261, 8.279166, -0.2105684, 5.7583275, 0.012683511, -0.084275246, 10.086626
97238954172907, 8.270791, -0.22731815, 5.7451673, 0.023797333, -0.07864237, 10.072629
97238963811552, 8.276773, -0.24047868, 5.6877394, 0.043608785, -0.03187847, 10.04541
97238973450094, 8.273184, -0.21774685, 5.649454, 0.0252918, -4.248619E-4, 10.020412
97238983088740, 8.280363, -0.21774685, 5.593223, 0.034989, 0.049363613, 9.994615
97238992727386, 8.271988, -0.18903299, 5.564509, 0.009432793, 0.07104683, 9.970964
97239002366032, 8.255239, -0.15194423, 5.5477595, -0.026241302, 0.0798502, 9.946992
97239012004573, 8.250452, -0.13040884, 5.575277, -0.05220455, 0.058597088, 9.958139
97239021643219, 8.239685, -0.18424734, 5.613562, -0.0046569705, 0.013355732, 9.971874
97239031281865, 8.242078, -0.23928227, 5.642276, 0.044195414, -0.01701212, 9.991102
97239040920511, 8.288737, -0.27996024, 5.666204, 0.082342625, -0.015875816, 10.043922
97239050559157, 8.333005, -0.27996024, 5.680561, 0.08385217, -0.0018715858, 10.088561
97239060197698, 8.340183, -0.276371, 5.6877394, 0.07633656, -0.0010962486, 10.0984955
97239069836344, 8.338987, -0.25722843, 5.7116675, 0.053569973, -0.017735481, 10.110631
97239079474990, 8.297112, -0.1902294, 5.7248282, -0.016286492, -0.037653923, 10.082176
97239089113636, 8.273184, -0.1363909, 5.7200427, -0.07075608, -0.036889553, 10.058663
97239098752282, 8.2348995, -0.09810573, 5.710471, -0.10337579, -0.041535854, 10.02099
97239108390823, 8.220542, -0.101694964, 5.643472, -0.089892685, 0.003601551, 9.971376
97239118029469, 8.212168, -0.11365908, 5.608776, -0.06746328, 0.026100159, 9.945138
97239127668115, 8.255239, -0.12083755, 5.605187, -0.055333316, 0.052661896, 9.978771
97239137306761, 8.305488, -0.1363909, 5.6350975, -0.04069972, 0.0534091, 10.037407
97239146945407, 8.319844, -0.14476576, 5.7009, -0.042310297, 0.007663727, 10.086584
97239156583948, 8.3174515, -0.15194423, 5.791827, -0.051406503, -0.0656867, 10.136144
97239166222594, 8.3174515, -0.14596218, 5.8540406, -0.06688362, -0.11505747, 10.171205
97239175861240, 8.288737, -0.13399807, 5.852844, -0.07911134, -0.12417889, 10.146686
97239185499886, 8.293523, -0.12203395, 5.800202, -0.08273637, -0.076798916, 10.120623
97239195138532, 8.250452, -0.1160519, 5.7140603, -0.077888966, -0.028094769, 10.036287
97239204777073, 8.237292, -0.1471586, 5.6243296, -0.032809377, 0.030319214, 9.975257
97239214415719, 8.243274, -0.16749759, 5.5573306, -0.0015621185, 0.0841651, 9.942659
97239224054365, 8.249256, -0.17587246, 5.51426, 0.012293577, 0.11859417, 9.923408
97239233693011, 8.288737, -0.20817557, 5.5298133, 0.041693807, 0.12005901, 9.965399
97239243331657, 8.322237, -0.24646074, 5.5908303, 0.06773108, 0.0807004, 10.028294
97239252970198, 8.306684, -0.25124636, 5.636294, 0.05317861, 0.03481865, 10.041309
97239262608844, 8.289934, -0.25124636, 5.7152567, 0.034560382, -0.03679943, 10.072126
97239272247490, 8.29472, -0.276371, 5.7583275, 0.05023837, -0.07116461, 10.1009655
97239281886136, 8.315059, -0.2847459, 5.7631135, 0.0582968, -0.06298113, 10.120642
97239291524782, 8.300702, -0.28235307, 5.7583275, 0.05530083, -0.06675434, 10.106049
97239301163427, 8.300702, -0.3062813, 5.753542, 0.07977879, -0.06616068, 10.103859
97239310801969, 8.288737, -0.30029923, 5.7427745, 0.07622063, -0.060923576, 10.08778
97239320440615, 8.27797, -0.2943172, 5.7547383, 0.06725502, -0.07516813, 10.0855465
97239330079261, 8.285149, -0.29790643, 5.7343993, 0.075296044, -0.055014133, 10.080033
97239339717907, 8.281559, -0.29790643, 5.7260246, 0.07614559, -0.049218178, 10.072345
97239349356552, 8.286345, -0.26081768, 5.7188463, 0.036041737, -0.03454542, 10.071457
97239358995198, 8.299505, -0.24047868, 5.6961145, 0.021362185, -0.0047802925, 10.069004
97239368633844, 8.292327, -0.22612174, 5.6446686, 0.009539425, 0.03187704, 10.033693
97239378272386, 8.26122, -0.19980069, 5.6327047, -0.017057061, 0.029170513, 10.000695
97239387911032, 8.268398, -0.16271193, 5.6243296, -0.053833067, 0.043762207, 10.001059
97239397549677, 8.2660055, -0.12921242, 5.602794, -0.08347398, 0.06173849, 9.986194
97239407188323, 8.281559, -0.124426775, 5.5944195, -0.08187789, 0.07730198, 9.994226
97239416826969, 8.271988, -0.12203395, 5.599205, -0.08202064, 0.067094326, 9.989021
97239426465615, 8.27797, -0.13998012, 5.578866, -0.05551684, 0.08273792, 9.982896
97239436104157, 8.257631, -0.14117654, 5.575277, -0.05212927, 0.07353115, 9.964135
97239445742802, 8.2348995, -0.16031912, 5.556134, -0.031288743, 0.07290506, 9.934969
97239455381448, 8.244471, -0.16749759, 5.572884, -0.023944855, 0.063913345, 9.952474
97239465020094, 8.285149, -0.20338993, 5.611169, 0.008470178, 0.05163431, 10.008373
97239474658740, 8.270791, -0.21655045, 5.6674004, 0.0095306635, -0.004333496, 10.028569
97239484297386, 8.280363, -0.22731815, 5.7463636, 0.0062300563, -0.062078953, 10.081314
97239493936032, 8.306684, -0.23928227, 5.8193445, 0.006805539, -0.10509539, 10.144552
97239503574573, 8.330612, -0.23569304, 5.8468623, -2.2417307E-4, -0.10956478, 10.179807
97239513213219, 8.30788, -0.23449662, 5.832505, -0.0015666485, -0.1047225, 10.152981
97239522851865, 8.318648, -0.25004998, 5.8133626, 0.018348217, -0.08575106, 10.151352
97239532490511, 8.305488, -0.25722843, 5.7547383, 0.03391725, -0.046440125, 10.107473
97239542129157, 8.301898, -0.2536392, 5.6913285, 0.039301872, 0.0033154488, 10.068541
97239551767802, 8.293523, -0.25842485, 5.651847, 0.048858106, 0.028671741, 10.039396
97239561406448, 8.275578, -0.24765715, 5.601598, 0.044504106, 0.05850458, 9.995951
97239571044990, 8.254042, -0.23928227, 5.6183476, 0.02966857, 0.032464504, 9.987511
97239580683636, 8.26122, -0.21774685, 5.6614184, -0.0034154654, 0.0020976067, 10.017325
97239590322282, 8.268398, -0.2009971, 5.6781683, -0.023266912, -0.005141735, 10.032339
97239599960927, 8.274381, -0.18903299, 5.6949177, -0.03732145, -0.013082981, 10.0464735
97239609599573, 8.269595, -0.19740787, 5.6685967, -0.023009062, 0.0017037392, 10.027842
97239619238219, 8.254042, -0.19381863, 5.645865, -0.02411294, 0.012056828, 10.002091
97239628876865, 8.256434, -0.18424734, 5.6099725, -0.024978697, 0.043091297, 9.983585
97239638515407, 8.260024, -0.19381863, 5.584848, -0.008527815, 0.06279564, 9.972566
97239648154052, 8.280363, -0.20338993, 5.5896335, 0.0046803355, 0.06798029, 9.992253
97239657792698, 8.276773, -0.2117648, 5.6327047, 0.008425295, 0.030129433, 10.013801
97239667431344, 8.282756, -0.2117648, 5.6674004, 0.004381597, 0.0069026947, 10.03834
97239677069990, 8.274381, -0.22492532, 5.7009, 0.011755645, -0.02527237, 10.050644
97239686708636, 8.29113, -0.23090738, 5.741578, 0.012142062, -0.049986362, 10.087578
