timestamp_acc,device_acc_x,device_acc_y,device_acc_z,earth_acc_x,earth_acc_y,earth_acc_z
773655550665851, 0.20219351, 4.0881376, 9.102298, -0.018414497, -0.061178267, 9.980056
773655560306059, 0.22971097, 4.0701914, 9.15135, 0.018035173, -0.03414827, 10.01823
773655569946267, 0.27038896, 4.037888, 9.147761, 0.04772854, 0.006250346, 10.002845
773655579586371, 0.26799613, 4.017549, 9.0747795, 0.036575317, 0.0050252005, 9.92788
773655589226580, 0.2656033, 3.987639, 9.041281, 0.05153942, 0.00306952, 9.885033
773655598866684, 0.24765715, 3.9840498, 9.056833, 0.06272936, -0.01625982, 9.897274
773655608506892, 0.26919255, 4.011567, 9.093923, 0.05144167, 0.001825735, 9.942934
773655618146996, 0.29671, 4.0797625, 9.102298, -0.012035131, 0.021577876, 9.979165
773655627787205, 0.3062813, 4.1144586, 9.127422, -0.034026623, 0.028756537, 10.016508
773655637427413, 0.3182454, 4.1443686, 9.174082, -0.043581963, 0.036078077, 10.071626
773655647067517, 0.3062813, 4.130012, 9.219545, -0.01018095, 0.022080988, 10.106941
773655656707726, 0.31226337, 4.1228333, 9.163314, -0.021892786, 0.024094032, 10.052888
773655666347830, 0.3062813, 4.0905304, 9.0747795, -0.024988174, 0.019812766, 9.958758
773655675988038, 0.31944183, 4.085745, 9.030513, -0.039381504, 0.033513427, 9.916796
773655685628142, 0.34097722, 4.0558343, 8.991031, -0.026223421, 0.055763423, 9.86919
773655695268351, 0.36729828, 4.0677986, 8.976674, -0.04413867, 0.08149327, 9.861744
773655704908455, 0.35653058, 4.080959, 8.997013, -0.046796083, 0.0691037, 9.885374
773655714548663, 0.3397808, 4.0677986, 9.066405, -0.005706787, 0.05107039, 9.942814
773655724188871, 0.31465617, 4.072584, 9.142975, 0.02187109, 0.023331605, 10.013886
773655733828976, 0.27517462, 4.0833516, 9.229117, 0.04681015, -0.019338071, 10.095718
773655743469184, 0.23330021, 4.0701914, 9.254242, 0.07123375, -0.05993181, 10.112032
773655753109288, 0.24047868, 4.054638, 9.203992, 0.063310385, -0.052905783, 10.060049
773655762749496, 0.27038896, 4.063013, 9.093923, 0.010808229, -0.01956515, 9.963941
773655772389601, 0.2883351, 4.0869412, 8.999406, -0.050561666, -0.0014438182, 9.888021
773655782029809, 0.31226337, 4.095316, 8.945567, -0.079226494, 0.023133144, 9.843041
773655791670017, 0.32542387, 4.104887, 8.922835, -0.095596075, 0.036760867, 9.826623
773655801310121, 0.33020952, 4.0881376, 8.983852, -0.054055452, 0.03984095, 9.875578
773655810950330, 0.32303107, 4.078566, 9.077172, -0.0082371235, 0.030751005, 9.95656
773655820590434, 0.2883351, 4.0737805, 9.136993, 0.01954031, -0.0056185722, 10.00815
773655830230642, 0.2428715, 4.06062, 9.213564, 0.061739206, -0.052622706, 10.071287
773655839870746, 0.21894327, 4.0414777, 9.254242, 0.09619999, -0.076915964, 10.099867
773655849510955, 0.22731815, 4.046263, 9.237492, 0.08420372, -0.06681294, 10.086804
773655859151163, 0.23449662, 4.080959, 9.142975, 0.01260829, -0.053960748, 10.014997
773655868791267, 0.2428715, 4.1168513, 9.004191, -0.07583451, -0.04143919, 9.903303
773655878431476, 0.2883351, 4.1347976, 8.935996, -0.11938262, 0.0061593726, 9.849743
773655888071580, 0.30987054, 4.1347976, 8.915657, -0.12599134, 0.027921401, 9.831829
773655897711788, 0.317049, 4.1312084, 8.919247, -0.121946335, 0.033550188, 9.833837
773655907351892, 0.30149564, 4.1036906, 8.961121, -0.076090574, 0.017839178, 9.860363
773655916992101, 0.2955136, 4.0833516, 9.044869, -0.022993326, 0.012218602, 9.928247
773655926632309, 0.3074777, 4.0594234, 9.171689, 0.04921651, 0.023559734, 10.03446
773655936272413, 0.2943172, 4.0510488, 9.256635, 0.08960247, 0.010297516, 10.108154
773655945912621, 0.30269206, 4.028317, 9.233903, 0.09729099, 0.019297756, 10.078398
773655955552726, 0.27038896, 4.019942, 9.19801, 0.08825278, -0.012512334, 10.04134
773655965192934, 0.23090738, 3.993621, 9.202796, 0.115642786, -0.051516473, 10.033833
773655974833038, 0.21774685, 4.0091743, 9.148957, 0.07932711, -0.0664175, 9.990676
773655984473246, 0.21894327, 4.0295134, 9.040084, 0.01710391, -0.06301702, 9.899685
773655994113455, 0.21774685, 4.068995, 8.99821, -0.035126686, -0.06505551, 9.877574
773656003753559, 0.21894327, 4.085745, 9.013762, -0.042980194, -0.06424763, 9.898646
773656013393767, 0.26799613, 4.104887, 9.035298, -0.05180645, -0.01619564, 9.927517
773656023033871, 0.31226337, 4.109673, 9.007781, -0.067055225, 0.027567476, 9.905645
773656032674080, 0.3385844, 4.1288157, 8.958728, -0.1018517, 0.050474487, 9.869533
773656042314184, 0.40558344, 4.1407795, 8.971889, -0.10974026, 0.11656902, 9.888363
773656051954392, 0.4534399, 4.1407795, 9.059227, -0.07623124, 0.16101545, 9.96943
773656061594496, 0.44506502, 4.1144586, 9.127422, -0.026487589, 0.14843051, 10.020677
773656071234705, 0.4019942, 4.132405, 9.136993, -0.037621975, 0.10426361, 10.035475
773656080874913, 0.35413775, 4.080959, 9.152547, 0.01588583, 0.056914434, 10.027226
773656090515017, 0.2955136, 4.0558343, 9.1669035, 0.0461123, -0.001045391, 10.0283165
773656100155226, 0.21535404, 4.068995, 9.136993, 0.020803928, -0.0791589, 10.004051
773656109795330, 0.18783657, 4.0438704, 9.150154, 0.049518824, -0.10615635, 10.004986
773656119435538, 0.21535404, 4.0187454, 9.122637, 0.05976057, -0.075202584, 9.970455
773656129075642, 0.20937198, 4.025924, 9.047262, 0.022168875, -0.07746101, 9.904463
773656138715851, 0.2213361, 4.024728, 8.993423, 9.095669E-4, -0.062592015, 9.85521
773656148355955, 0.2428715, 4.0163527, 8.975478, 0.0010852814, -0.037956253, 9.836048
773656157996163, 0.22971097, 4.0187454, 9.020942, 0.016699553, -0.05171603, 9.878134
773656167636371, 0.23688944, 4.045067, 9.09153, 0.01913762, -0.0464717, 9.953495
773656177276476, 0.26679972, 4.0701914, 9.152547, 0.017624617, -0.018467009, 10.020285
773656186916684, 0.2632105, 4.0965123, 9.156136, -0.0067076683, -0.022752836, 10.034189
773656196556788, 0.26919255, 4.0941195, 9.164511, -0.0011541843, -0.016870588, 10.041029
773656206196996, 0.28235307, 4.0797625, 9.165708, 0.01182723, -0.003696695, 10.036644
773656215837101, 0.30508488, 4.089334, 9.099904, -0.023270369, 0.019188896, 9.981135
773656225477309, 0.30269206, 4.0797625, 9.008977, -0.05023408, 0.018502831, 9.894183
773656235117413, 0.28713873, 4.0833516, 8.967103, -0.06768942, 0.0035407394, 9.857007
773656244757621, 0.32063824, 4.0534415, 8.961121, -0.043332815, 0.03789781, 9.840305
773656254397830, 0.32183465, 4.0797625, 8.995817, -0.05604124, 0.035039894, 9.8827305
773656264037934, 0.33379877, 4.0881376, 9.067601, -0.036500692, 0.04474383, 9.952003
773656273678142, 0.30867413, 4.0558343, 9.110672, 0.011805296, 0.021034889, 9.977417
773656283318246, 0.2943172, 4.0534415, 9.158528, 0.03143096, 0.003505228, 10.019715
773656292958455, 0.2835495, 4.0677986, 9.206385, 0.03862691, -0.008019576, 10.068932
773656302598559, 0.3182454, 4.052245, 9.212367, 0.050587654, 0.026904713, 10.069081
773656312238767, 0.317049, 4.085745, 9.193225, 0.012647152, 0.023044907, 10.065215
773656321878871, 0.3361916, 4.0977087, 9.135797, -0.023615837, 0.042076074, 10.018217
773656331519080, 0.31226337, 4.095316, 9.086744, -0.03966117, 0.019922167, 9.971765
773656341159184, 0.2835495, 4.065406, 9.016156, -0.038416862, -0.0054650903, 9.894317
773656350799392, 0.24646074, 4.063013, 8.970692, -0.051089287, -0.040618263, 9.8507805
773656360439601, 0.2548356, 4.063013, 8.965906, -0.051492214, -0.029837903, 9.846672
773656370079705, 0.26081768, 4.0498524, 9.064013, -2.7418137E-4, -0.02320715, 9.931017
773656379719913, 0.2620141, 4.0271206, 9.0951185, 0.031868458, -0.02106525, 9.950181
773656389360017, 0.27756742, 4.011567, 9.111869, 0.051400423, -0.005194515, 9.9595785
773656399000226, 0.28115666, 4.0235314, 9.142975, 0.05237055, -0.0037052631, 9.992951
773656408640330, 0.29312077, 4.040281, 9.163314, 0.04489398, 0.007272221, 10.018684
773656418280538, 0.34456646, 4.0594234, 9.203992, 0.041823864, 0.055477098, 10.065103
773656427920642, 0.36729828, 4.06062, 9.139386, 0.01538372, 0.07701066, 10.007285
773656437560851, 0.3469593, 4.085745, 9.052048, -0.042580605, 0.056945458, 9.937214
773656447200955, 0.35174492, 4.119244, 8.99462, -0.09434438, 0.06197162, 9.898603
773656456841163, 0.3469593, 4.113262, 8.992228, -0.09046745, 0.056288436, 9.893841
773656466481267, 0.28953153, 4.125226, 9.016156, -0.08899784, -8.9250505E-5, 9.918896
773656476121476, 0.2548356, 4.130012, 9.017352, -0.0919919, -0.031846903, 9.920942
773656485761580, 0.2213361, 4.0941195, 9.006584, -0.062376976, -0.061307073, 9.89554
773656495401788, 0.20219351, 4.068995, 9.059227, -0.018343687, -0.07777552, 9.932816
773656505041892, 0.22253251, 4.045067, 9.098708, 0.01905346, -0.057148844, 9.959667
773656514682101, 0.2727818, 4.0163527, 9.157332, 0.06706381, -0.004531309, 10.002886
773656524322309, 0.25603202, 4.0151563, 9.201599, 0.08398795, -0.020597957, 10.04236
773656533962413, 0.27038896, 4.0127635, 9.186047, 0.07821798, -0.006888628, 10.027595
773656543602621, 0.26919255, 4.007978, 9.123833, 0.05697584, -0.0069203824, 9.96882
773656553242726, 0.25722843, 3.9972103, 9.072387, 0.046382904, -0.01620987, 9.917139
773656562882934, 0.23808585, 4.017549, 9.018549, 0.0061831474, -0.03497289, 9.875746
773656572523038, 0.25722843, 4.0390844, 9.032906, -0.008002281, -0.016084895, 9.898154
773656582163246, 0.28115666, 4.085745, 9.050852, -0.044266462, 0.005117286, 9.934198
773656591803351, 0.19501504, 3.6789649, 8.956335, 0.2923329, -0.05646759, 9.679881
773656601443559, 0.4211368, 4.7007003, 9.157332, -0.5749471, 0.10516835, 10.285381
773656611083663, 0.19142582, 3.3523445, 8.898908, 0.5614867, -0.039972354, 9.49466
773656620723871, 0.4642076, 4.9806604, 9.3104725, -0.77458525, 0.10951598, 10.54018
773656630363976, 0.27996024, 3.379862, 8.8905325, 0.52381516, 0.068448156, 9.500755
773656640004184, 0.30388847, 4.712664, 9.285348, -0.514369, -0.04125075, 10.4044695
773656649644288, 0.30269206, 3.6933217, 9.007781, 0.2887528, 0.056681946, 9.7358
773656659284496, 0.18903299, 4.1694937, 9.18485, -0.04925084, -0.104138345, 10.088042
773656668924601, 0.3900301, 4.15394, 9.101101, -0.09282541, 0.097427815, 10.010957
773656678564809, 0.09212367, 3.5246277, 8.9826565, 0.45782375, -0.14123818, 9.637947
773656688204913, 0.39601216, 4.633701, 9.225528, -0.47600222, 0.059981726, 10.32028
773656697845121, 0.13758731, 3.2207394, 8.930014, 0.70890975, -0.0757702, 9.467257
773656707485226, 0.40558344, 4.867001, 9.298509, -0.66987634, 0.07363954, 10.481426
773656717125434, 0.18544376, 3.2673993, 8.847462, 0.617177, -0.037164062, 9.413053
773656726765538, 0.3062813, 4.738985, 9.238688, -0.5603733, -0.02313783, 10.372591
773656736405746, 0.31345975, 3.6681972, 8.962317, 0.2918687, 0.056606125, 9.684454
773656746045851, 0.19262223, 4.2723846, 9.159725, -0.16184258, -0.102846414, 10.107134
773656755686059, 0.38404804, 4.182654, 9.037691, -0.14399481, 0.09363395, 9.96456
773656765326163, 0.148355, 3.7172499, 8.995817, 0.27862263, -0.10698928, 9.730139
773656774966371, 0.4426722, 4.6899323, 9.241081, -0.5237684, 0.11795516, 10.358607
773656784606476, 0.12562318, 3.2769706, 8.968299, 0.6668551, -0.10008336, 9.5252285
773656794246580, 0.38165522, 4.861019, 9.329616, -0.64619637, 0.046158083, 10.507008
773656803886788, 0.19501504, 3.2135608, 8.865408, 0.6766536, -0.029106393, 9.407537
773656813526892, 0.32422748, 4.7042894, 9.262616, -0.51530886, -0.0036535254, 10.381039
773656823167101, 0.27756742, 3.5581272, 8.915657, 0.38741565, 0.030146005, 9.595585
773656832807205, 0.20578274, 4.284349, 9.138189, -0.18501472, -0.09148484, 10.092666
773656842447413, 0.37567315, 4.101298, 9.000603, -0.084144115, 0.09010627, 9.897345
773656852087517, 0.11844472, 3.723232, 8.977871, 0.26906037, -0.1431123, 9.715234
773656861727726, 0.41515473, 4.60738, 9.188439, -0.4668939, 0.083913654, 10.276317
773656871367830, 0.12801601, 3.3164523, 8.967103, 0.63473344, -0.09750057, 9.540009
773656881008038, 0.39601216, 4.8909297, 9.355937, -0.651361, 0.03936631, 10.544466
773656890648142, 0.18783657, 3.2817562, 8.914461, 0.6364906, -0.036337875, 9.47979
773656900288351, 0.3804588, 4.802395, 9.239884, -0.6291263, 0.03237981, 10.401267
773656909928455, 0.3361916, 3.5389848, 8.8701935, 0.37389898, 0.08672954, 9.548322
773656919568663, 0.23688944, 4.398008, 9.141779, -0.28499722, -0.08023356, 10.143128
773656929208767, 0.3912265, 4.0498524, 9.032906, -0.021294117, 0.102028005, 9.906407
773656938848976, 0.12801601, 3.7818563, 9.084352, 0.26324344, -0.14109737, 9.836416
773656948489080, 0.41635114, 4.54397, 9.195618, -0.41012263, 0.090071246, 10.256904
773656958129184, 0.12921242, 3.333202, 8.961121, 0.62377095, -0.09886235, 9.540951
773656967769392, 0.41156548, 4.853841, 9.35833, -0.6183996, 0.0602433, 10.531925
773656977409496, 0.19381863, 3.1956146, 8.95155, 0.7298746, -0.028247999, 9.478725
773656987049705, 0.3493521, 4.786842, 9.287741, -0.58076453, -0.0011655279, 10.438425
773656996689809, 0.30508488, 3.4672, 8.8701935, 0.4417944, 0.057188533, 9.518216
773657006330017, 0.25842485, 4.4398823, 9.199206, -0.30146694, -0.05999974, 10.213239
773657015970121, 0.37208393, 3.993621, 9.012567, 0.022109985, 0.08226526, 9.864409
773657025610330, 0.17108682, 3.8500516, 8.993423, 0.16469789, -0.10914735, 9.7823715
773657035250434, 0.44626144, 4.499703, 9.0951185, -0.4016993, 0.11626933, 10.148536
773657044890642, 0.16151553, 3.4169507, 8.906086, 0.52222013, -0.09380755, 9.525677
773657054530746, 0.44865423, 4.901697, 9.311669, -0.67434883, 0.09478961, 10.510536
773657064170851, 0.20338993, 3.2793634, 8.925228, 0.6477668, -0.046322335, 9.488602
773657073811059, 0.40438703, 4.8885365, 9.286545, -0.68347526, 0.060570993, 10.480002
773657083451163, 0.26919255, 3.487539, 8.864211, 0.43866038, 0.015709661, 9.519294
773657093091371, 0.26919255, 4.536792, 9.209974, -0.37387514, -0.064668104, 10.263267
773657102731476, 0.37088752, 3.9158542, 9.036494, 0.105706215, 0.085741654, 9.854501
773657112371684, 0.17228323, 3.8991046, 9.073584, 0.15752935, -0.11041053, 9.875506
773657122011788, 0.4438686, 4.4111686, 9.097511, -0.32014847, 0.120062985, 10.114505
773657131651892, 0.1363909, 3.4025939, 8.975478, 0.5692148, -0.114868484, 9.582183
773657141292101, 0.4235296, 4.761717, 9.364311, -0.52588725, 0.080768906, 10.500504
773657150932205, 0.12562318, 3.1322048, 8.944371, 0.79419875, -0.10776542, 9.443829
773657160572413, 0.30388847, 4.7916274, 9.2997055, -0.58397436, -0.040037658, 10.449593
773657170212517, 0.18305093, 3.3260236, 8.876176, 0.5845134, -0.06710658, 9.462361
773657179852726, 0.19740787, 4.490132, 9.23151, -0.3205223, -0.121881895, 10.261746
773657189492830, 0.32303107, 3.8404803, 8.993423, 0.15952182, 0.042036936, 9.783051
773657199132934, 0.22971097, 4.066602, 9.046066, -0.015551329, -0.065431975, 9.920525
773657208773142, 0.52283174, 4.5020957, 9.0341015, -0.43190598, 0.20235455, 10.096025
773657218413246, 0.27158538, 3.5976088, 8.834301, 0.32347822, 0.009789508, 9.537122
773657228053455, 0.587438, 4.922036, 9.1872425, -0.7527671, 0.2174528, 10.409757
773657237693559, 0.29910284, 3.3212378, 8.82473, 0.5812726, 0.054704987, 9.415682
773657247333663, 0.4869394, 4.924429, 9.284152, -0.7017455, 0.10940216, 10.496578
773657256973871, 0.29910284, 3.3260236, 8.91805, 0.6050887, 0.05302842, 9.503397
773657266613976, 0.29671, 4.549952, 9.3200445, -0.34237695, -0.054254293, 10.369821
773657276254184, 0.31345975, 3.743571, 9.083155, 0.29710007, 0.036019996, 9.824801
773657285894288, 0.106480606, 4.0271206, 9.164511, 0.09380317, -0.19547856, 10.008512
773657295534496, 0.35174492, 4.3118663, 9.105886, -0.21810484, 0.016198799, 10.078952
773657305174601, 0.08015956, 3.501896, 8.904889, 0.46063972, -0.16603684, 9.556517
773657314814705, 0.37806597, 4.7688956, 9.196814, -0.6037111, 0.0018226206, 10.34902
773657324454913, 0.1160519, 3.2757742, 8.830712, 0.6277845, -0.102889135, 9.397923
773657334095017, 0.40079778, 4.8825545, 9.24826, -0.6893773, 0.011545837, 10.442936
773657343735226, 0.2644069, 3.3236306, 8.889337, 0.6024313, 0.031055398, 9.4748535
773657353375330, 0.30388847, 4.645665, 9.286545, -0.44951487, -0.052990176, 10.378323
773657363015434, 0.33499518, 3.711268, 8.993423, 0.2834046, 0.062053993, 9.730531
773657372655642, 0.22253251, 4.1228333, 9.158528, -0.0132267475, -0.086862355, 10.045807
773657382295746, 0.44985065, 4.284349, 9.104691, -0.20611334, 0.12404014, 10.069534
773657391935851, 0.17347965, 3.6083765, 9.000603, 0.3893199, -0.08780609, 9.690307
773657401576059, 0.5168497, 4.773681, 9.253045, -0.5942583, 0.14003506, 10.40679
773657411216163, 0.21535404, 3.2793634, 8.941978, 0.65644073, -0.021468777, 9.504116
773657420856371, 0.4761717, 4.938786, 9.306884, -0.7137542, 0.09212096, 10.522287
773657430496476, 0.30269206, 3.2997024, 8.860622, 0.59625244, 0.06285718, 9.440911
773657440136580, 0.34097722, 4.6899323, 9.208778, -0.5247834, -0.02552203, 10.326532
773657449776788, 0.3361916, 3.6586258, 8.88814, 0.29051113, 0.059343662, 9.612996
773657459416892, 0.19860429, 4.197011, 9.116654, -0.100245476, -0.122915596, 10.037061
773657469057101, 0.40079778, 4.2221355, 9.079565, -0.15297484, 0.07653596, 10.019796
773657478697205, 0.14476576, 3.615555, 8.988638, 0.38147974, -0.13293068, 9.681198
773657488337309, 0.42592242, 4.6875396, 9.221938, -0.5250344, 0.06597234, 10.340144
773657497977517, 0.13280165, 3.2650065, 8.974281, 0.6973462, -0.115249574, 9.524498
773657507617621, 0.4235296, 4.871787, 9.408579, -0.6076937, 0.040426236, 10.586033
773657517257830, 0.21774685, 3.249453, 8.943174, 0.69273806, -0.028851297, 9.492419
773657526897934, 0.32303107, 4.752146, 9.298509, -0.5458865, -0.05408606, 10.433054
773657536538038, 0.33499518, 3.609573, 8.986245, 0.36388397, 0.05923194, 9.682867
773657546178246, 0.24646074, 4.2664027, 9.208778, -0.12926745, -0.08563574, 10.150887
773657555818351, 0.43669012, 4.1551366, 9.037691, -0.10964775, 0.113360256, 9.955444
773657565458455, 0.1902294, 3.7016966, 8.9312105, 0.28358603, -0.090237975, 9.665232
773657575098663, 0.50129634, 4.642076, 9.134601, -0.51955914, 0.12593338, 10.24477
773657584738767, 0.20338993, 3.3032916, 8.908479, 0.6395819, -0.050428748, 9.481691
773657594378976, 0.5024927, 4.9112687, 9.267402, -0.69767046, 0.110247165, 10.476587
773657604019080, 0.2656033, 3.2757742, 8.836694, 0.6207943, 0.0076573347, 9.4076
773657613659184, 0.38285163, 4.7952166, 9.276974, -0.57680845, 0.007882709, 10.434085
773657623299392, 0.35653058, 3.5676985, 8.974281, 0.4150889, 0.070857, 9.654844
773657632939496, 0.28235307, 4.3669014, 9.288938, -0.1856072, -0.06187975, 10.266239
773657642579601, 0.4319045, 4.1276193, 9.111869, -0.048719168, 0.103992596, 10.011832
773657652219809, 0.1698904, 3.790231, 8.955139, 0.21276021, -0.13267925, 9.722468
773657661859913, 0.4103691, 4.595416, 9.093923, -0.4757073, 0.058371834, 10.186069
773657671500017, 0.11844472, 3.3511481, 8.852247, 0.571965, -0.14632328, 9.447643
773657681140226, 0.39840496, 4.8646083, 9.199206, -0.67275715, 0.018373467, 10.392093
773657690780330, 0.16031912, 3.2362926, 8.807981, 0.664351, -0.08926658, 9.361116
773657700420538, 0.33738798, 4.776074, 9.293723, -0.5476663, -0.042070054, 10.440128
773657710060642, 0.3361916, 3.5066817, 9.053245, 0.49362135, 0.07401274, 9.701646
773657719700746, 0.27756742, 4.4051867, 9.390633, -0.17038059, -0.06604007, 10.374645
773657729340955, 0.4211368, 4.0103707, 9.18126, 0.08171153, 0.11019804, 10.026821
773657738981059, 0.17706887, 3.81057, 9.097511, 0.2552309, -0.11332176, 9.86096
773657748621163, 0.43429732, 4.5224347, 9.09153, -0.41578937, 0.08211097, 10.154669
773657758261371, 0.13040884, 3.3415768, 8.8187475, 0.56997585, -0.118418425, 9.413528
773657767901476, 0.38285163, 4.851448, 9.18485, -0.66311884, -0.018555552, 10.37326
773657777541580, 0.13998012, 3.211168, 8.739784, 0.65573025, -0.09361052, 9.288503
773657787181788, 0.33260235, 4.84068, 9.165708, -0.654382, -0.052136898, 10.349979
773657796821892, 0.25603202, 3.4791641, 8.846265, 0.45601702, 0.0019110441, 9.498346
773657806461996, 0.25962126, 4.493721, 9.257831, -0.29445457, -0.09891637, 10.289408
773657816102205, 0.39361933, 4.011567, 9.132208, 0.07521796, 0.07874935, 9.981629
773657825742309, 0.2321038, 3.9361932, 9.162118, 0.17026758, -0.07549199, 9.972823
773657835382517, 0.5300102, 4.5188456, 9.235099, -0.3574381, 0.16508707, 10.287513
773657845022621, 0.26081768, 3.4205399, 8.952746, 0.547071, -0.0027410537, 9.57186
773657854662726, 0.57427746, 4.8646083, 9.226724, -0.66991377, 0.17974535, 10.423315
773657864302934, 0.35533416, 3.2530425, 8.792427, 0.62376714, 0.104166076, 9.36031
773657873943038, 0.5778667, 4.889733, 9.18126, -0.7105913, 0.17691296, 10.392435
773657883583142, 0.424726, 3.463611, 8.82473, 0.4473672, 0.14477237, 9.4779625
773657893223351, 0.3684947, 4.615755, 9.254242, -0.41901398, -0.005798191, 10.339555
773657902863455, 0.4103691, 3.9625144, 9.109476, 0.1014812, 0.089348964, 9.94154
773657912503559, 0.15792629, 4.0211387, 9.182457, 0.10328245, -0.1665521, 10.023655
773657922143767, 0.38644084, 4.4518466, 9.215957, -0.29482985, 0.028708829, 10.237889
773657931783871, 0.07537391, 3.458825, 9.044869, 0.566586, -0.20264532, 9.665233
773657941423976, 0.34576288, 4.7629137, 9.3511505, -0.52029324, -0.028423693, 10.487011
773657951064184, 0.07298109, 3.1489546, 8.926425, 0.78874874, -0.1948472, 9.430918
773657960704288, 0.30269206, 4.79402, 9.269794, -0.5687578, -0.066294596, 10.424751
773657970344392, 0.21296121, 3.2997024, 8.809176, 0.5956936, -0.057080947, 9.390255
773657979984601, 0.2955136, 4.537988, 9.12144, -0.39688683, -0.051872917, 10.184357
773657989624705, 0.4103691, 3.7974095, 8.877372, 0.1602447, 0.11378125, 9.662186
773657999264809, 0.2943172, 4.061816, 9.012567, -0.010964155, -0.021150222, 9.889932
773658008905017, 0.5395815, 4.4231324, 9.056833, -0.34088087, 0.19598994, 10.085974
773658018545121, 0.27038896, 3.5605202, 8.974281, 0.42511702, -0.01179608, 9.649211
773658028185226, 0.56350976, 4.8502517, 9.352347, -0.61965036, 0.18109255, 10.530535
773658037825434, 0.24526432, 3.3164523, 9.02453, 0.6630299, -0.020433536, 9.594849
773658047465538, 0.42592242, 4.9567323, 9.387043, -0.6841979, 0.028039014, 10.601806
773658057105746, 0.2440679, 3.3320055, 8.885747, 0.5890057, -0.01707732, 9.474762
773658066745851, 0.25722843, 4.62413, 9.251849, -0.42540956, -0.10790244, 10.336966
773658076385955, 0.31226337, 3.7447674, 8.986245, 0.25147915, 0.017660819, 9.737036
773658086026163, 0.17347965, 4.0761733, 9.107083, 0.014796257, -0.14308068, 9.978154
773658095666267, 0.40797627, 4.261617, 9.062816, -0.19301915, 0.069545045, 10.020997
773658105306371, 0.13040884, 3.5102708, 8.940782, 0.46988487, -0.12311192, 9.593781
773658114946580, 0.4031906, 4.729414, 9.247063, -0.54701877, 0.021397635, 10.379712
773658124586684, 0.11485548, 3.2147572, 8.94796, 0.73349905, -0.10870739, 9.479664
773658134226788, 0.35294133, 4.877769, 9.336794, -0.64507556, -0.03555791, 10.520245
773658143866996, 0.19740787, 3.3020952, 8.902496, 0.6224294, -0.041207053, 9.476716
773658153507101, 0.28594232, 4.682754, 9.270991, -0.47821355, -0.081885755, 10.379106
773658163147205, 0.34576288, 3.6921253, 8.995817, 0.302248, 0.066760644, 9.725238
773658172787413, 0.2440679, 4.1790648, 9.164511, -0.06742334, -0.078673884, 10.074805
773658182427517, 0.47258246, 4.2664027, 9.065208, -0.20126176, 0.14404792, 10.027078
773658192067621, 0.24047868, 3.6370904, 8.963513, 0.3469615, -0.042909306, 9.669986
773658201707830, 0.56829536, 4.7377887, 9.226724, -0.5701773, 0.19710818, 10.370058
773658211347934, 0.25842485, 3.2925239, 8.900104, 0.6401086, -0.009105206, 9.471512
773658220988038, 0.5024927, 4.9531426, 9.297313, -0.7247324, 0.1050861, 10.520925
773658230628246, 0.30508488, 3.3343983, 8.908479, 0.59065557, 0.041829787, 9.4985075
773658240268351, 0.3900301, 4.792824, 9.296116, -0.5721786, 0.0035073273, 10.450533
773658249908559, 0.3290131, 3.7076788, 8.932407, 0.26681542, 0.039978247, 9.673172
773658259548663, 0.18185452, 4.314259, 9.153743, -0.18192768, -0.15727685, 10.118255
773658269188767, 0.37567315, 4.2364926, 9.068798, -0.16563153, 0.048148103, 10.015106
773658278828976, 0.13878371, 3.7016966, 8.979067, 0.30379915, -0.14058158, 9.707388
773658288469080, 0.43669012, 4.662415, 9.144172, -0.52504086, 0.07411578, 10.259802
773658298109184, 0.11724831, 3.2841492, 8.872586, 0.63633466, -0.12126529, 9.439414
773658307749392, 0.36729828, 4.8191447, 9.268599, -0.62067103, -0.0022471435, 10.434594
773658317389496, 0.14356937, 3.17049, 8.88814, 0.7412052, -0.076939404, 9.408313
773658327029601, 0.276371, 4.664808, 9.314062, -0.44422126, -0.08205915, 10.410789
773658336669809, 0.2656033, 3.5006995, 9.016156, 0.4781072, 0.016942449, 9.663728
773658346309913, 0.19142582, 4.241278, 9.329616, -0.053593397, -0.12577483, 10.2493
773658355950017, 0.3924229, 4.052245, 9.18485, 0.032632828, 0.09067455, 10.046236
773658365590226, 0.1902294, 3.7196429, 9.096315, 0.31818485, -0.080315605, 9.823808
773658375230330, 0.50368917, 4.6205406, 9.189635, -0.49444294, 0.1474681, 10.285247
773658384870434, 0.2117648, 3.3200414, 8.898908, 0.60318327, -0.025628597, 9.481224
773658394510642, 0.4977071, 4.9363933, 9.250652, -0.74696255, 0.10741924, 10.469993
773658404150746, 0.2943172, 3.2973096, 8.769695, 0.56567025, 0.05262709, 9.356479
773658413790851, 0.4211368, 4.846662, 9.183653, -0.68325806, 0.049815074, 10.370037
773658423431059, 0.38644084, 3.5724843, 8.860622, 0.33464146, 0.12022047, 9.554905
773658433071163, 0.2943172, 4.402794, 9.241081, -0.24791121, -0.04349525, 10.2374525
773658442711267, 0.4139583, 4.082155, 9.133404, -0.018913746, 0.1015756, 10.012179
773658452351476, 0.16151553, 3.7866418, 9.119047, 0.2682264, -0.12223501, 9.870912
773658461991580, 0.424726, 4.520042, 9.263813, -0.36863303, 0.072231054, 10.309622
773658471631788, 0.13758731, 3.2817562, 9.026923, 0.6862912, -0.095229946, 9.580924
773658481271892, 0.39361933, 4.8215375, 9.385847, -0.58375454, 0.016726263, 10.543018
773658490911996, 0.16151553, 3.1345978, 8.889337, 0.7664628, -0.04321429, 9.39589
773658500552205, 0.33379877, 4.776074, 9.2590275, -0.5887563, -0.059054345, 10.406814
773658510192309, 0.27876383, 3.4707892, 8.894122, 0.44813275, 0.040170148, 9.540811
773658519832413, 0.21894327, 4.4279184, 9.235099, -0.2740512, -0.124130204, 10.239675
773658529472621, 0.3493521, 3.9637108, 9.096315, 0.07243776, 0.055396557, 9.928126
773658539112726, 0.14955142, 3.8895333, 9.132208, 0.17716241, -0.13480017, 9.92464
773658548752830, 0.45583272, 4.53081, 9.219545, -0.40396, 0.09589556, 10.274418
773658558393038, 0.16151553, 3.4025939, 9.004191, 0.5699966, -0.067203954, 9.6098795
773658568033142, 0.44985065, 4.853841, 9.316455, -0.64990735, 0.06108272, 10.494396
773658577673351, 0.19621146, 3.2279177, 8.886943, 0.66753054, -0.033717487, 9.433397
773658587313455, 0.39361933, 4.85743, 9.243474, -0.6739869, 0.012508616, 10.4277
773658596953559, 0.31226337, 3.4492538, 8.819944, 0.43998504, 0.07158683, 9.465072
773658606593767, 0.2835495, 4.499703, 9.211171, -0.3502295, -0.062572315, 10.249236
773658616233871, 0.39481574, 3.9218364, 8.9826565, 0.068292856, 0.10452172, 9.808628
773658625873976, 0.18305093, 3.9373896, 9.042477, 0.09868765, -0.10776375, 9.863142
773658635514184, 0.465404, 4.447061, 9.152547, -0.35131407, 0.12126352, 10.1795845
773658645154288, 0.19740787, 3.4277184, 8.987442, 0.53394437, -0.037618607, 9.606031
773658654794392, 0.47736812, 4.847859, 9.327223, -0.6430752, 0.0754879, 10.502736
773658664434601, 0.19860429, 3.249453, 9.010174, 0.6985545, 9.0420246E-5, 9.554771
773658674074705, 0.37567315, 4.863412, 9.4229355, -0.6185682, -0.024592787, 10.592564
773658683714913, 0.22013968, 3.35713, 8.930014, 0.57428694, 0.0014275908, 9.525447
773658693355017, 0.19621146, 4.4985065, 9.256635, -0.33323646, -0.15104294, 10.287202
773658702995121, 0.25004998, 3.7962132, 8.965906, 0.18508124, -0.02048117, 9.737893
773658712635330, 0.076570325, 3.9338005, 8.992228, 0.08687639, -0.2068074, 9.812773
773658722275434, 0.36011982, 4.3202415, 9.065208, -0.2640593, 0.034890458, 10.044961
773658731915538, 0.10887343, 3.3990045, 8.920443, 0.53756714, -0.118446305, 9.530812
773658741555746, 0.44985065, 4.776074, 9.276974, -0.60532904, 0.08976443, 10.42598
773658751195851, 0.22013968, 3.2243285, 9.037691, 0.73648596, -0.017964236, 9.569842
773658760835955, 0.5096712, 4.918447, 9.499506, -0.637846, 0.13972378, 10.689486
773658770476163, 0.38404804, 3.3906298, 9.010174, 0.5591681, 0.13489512, 9.617496
773658780116267, 0.39601216, 4.6408796, 9.32124, -0.46020985, 0.036678556, 10.409946
773658789756476, 0.43669012, 3.7998023, 8.99821, 0.17186213, 0.14730015, 9.77475
773658799396580, 0.2644069, 4.095316, 9.05803, -0.052281857, -0.049529724, 9.9440565
773658809036684, 0.48215377, 4.3465624, 9.025727, -0.3079431, 0.15109342, 10.023532
773658818676892, 0.19142582, 3.507878, 8.9013, 0.4307258, -0.07556545, 9.559486
773658828316996, 0.47377887, 4.7688956, 9.232706, -0.6033473, 0.09720317, 10.384422
773658837957205, 0.19860429, 3.2614172, 8.988638, 0.6894686, -0.052499868, 9.539064
773658847597309, 0.41994038, 4.9375896, 9.432507, -0.68373346, 0.046157517, 10.632906
773658857237413, 0.23569304, 3.353541, 8.91805, 0.5619278, -0.017429821, 9.51406
773658866877621, 0.27517462, 4.7162533, 9.24467, -0.5356307, -0.09808371, 10.367554
773658876517726, 0.28594232, 3.749553, 8.9826565, 0.22358751, 0.010136366, 9.735448
773658886157830, 0.13998012, 4.1168513, 9.140582, -0.02079153, -0.16702609, 10.024468
773658895798038, 0.35174492, 4.2185464, 9.041281, -0.18021965, 0.037694722, 9.98152
773658905438142, 0.08853444, 3.4911282, 8.9013, 0.44745517, -0.16320324, 9.549979
773658915078351, 0.39840496, 4.6600223, 9.237492, -0.50219536, 0.052895796, 10.341701
773658924718455, 0.12921242, 3.178865, 9.010174, 0.76473856, -0.0989656, 9.524206
773658934358559, 0.38524446, 4.8358946, 9.408579, -0.60592437, 0.03757224, 10.568211
773658943998767, 0.18185452, 3.2362926, 8.989835, 0.70341945, -0.06524451, 9.530202
773658953638871, 0.29192436, 4.6767716, 9.395418, -0.46163082, -0.05129464, 10.488831
773658963279080, 0.3385844, 3.641876, 9.064013, 0.35312486, 0.066502556, 9.767554
773658972919184, 0.19740787, 4.2161536, 9.193225, -0.11348796, -0.114990234, 10.114554
773658982559288, 0.40797627, 4.229314, 9.029316, -0.20560789, 0.09119393, 9.976549
773658992199496, 0.1794617, 3.6526437, 8.8905325, 0.283499, -0.0890768, 9.608709
773659001839601, 0.4833502, 4.7198424, 9.119047, -0.6180103, 0.13090655, 10.260042
773659011479809, 0.2105684, 3.3032916, 8.812766, 0.5663519, -0.032982733, 9.396758
773659021119913, 0.47377887, 4.9196434, 9.243474, -0.7506633, 0.10927865, 10.454365
773659030760017, 0.27158538, 3.2757742, 8.834301, 0.59354115, 0.021996757, 9.407261
773659040400226, 0.38165522, 4.7485566, 9.342776, -0.5377691, 0.027920406, 10.473393
773659050040330, 0.357727, 3.595216, 9.086744, 0.39763618, 0.0817631, 9.770244
773659059680538, 0.23449662, 4.261617, 9.335598, -0.100225925, -0.09294714, 10.264067
773659069320642, 0.4127619, 4.1084766, 9.215957, -0.02117467, 0.096549414, 10.098219
773659078960746, 0.17347965, 3.641876, 9.147761, 0.39126515, -0.11651254, 9.839117
773659088600955, 0.47856453, 4.5894337, 9.309277, -0.42807102, 0.1346741, 10.380423
773659098241059, 0.20338993, 3.2841492, 8.906086, 0.61443806, -0.043975122, 9.474486
773659107881267, 0.44865423, 4.8825545, 9.218349, -0.7233224, 0.07536957, 10.415841
773659117521371, 0.21296121, 3.219543, 8.755338, 0.6225631, -0.03620957, 9.310093
773659127161476, 0.33738798, 4.7485566, 9.193225, -0.6103227, -0.023272652, 10.334647
773659136801684, 0.30029923, 3.5294135, 8.907282, 0.38686013, 0.02664388, 9.577903
773659146441788, 0.21655045, 4.336991, 9.256635, -0.19353342, -0.112734646, 10.222109
773659156081996, 0.3912265, 4.0797625, 9.152547, -0.020594835, 0.07811384, 10.0279665
773659165722101, 0.18065812, 3.804588, 9.144172, 0.2394476, -0.11052838, 9.902216
773659175362309, 0.46899325, 4.6289153, 9.286545, -0.47757506, 0.11803889, 10.375198
773659185002413, 0.14955142, 3.2877383, 8.987442, 0.6443393, -0.10244652, 9.548825
773659194642517, 0.39601216, 4.8239303, 9.35474, -0.6230228, 0.025705393, 10.514251
773659204282726, 0.13399807, 3.1573296, 8.852247, 0.7202344, -0.10882783, 9.371147
773659213922830, 0.3062813, 4.7102714, 9.238688, -0.5608392, -0.046025448, 10.3594
773659223563038, 0.25004998, 3.4049866, 8.903693, 0.49675417, -0.009059626, 9.522886
773659233203142, 0.22013968, 4.3800616, 9.237492, -0.25429654, -0.113822214, 10.221891
773659242843351, 0.40917268, 4.001996, 9.126225, 0.032615423, 0.104005516, 9.972939
773659252483455, 0.1902294, 3.824927, 9.132208, 0.21063924, -0.10387735, 9.899915
773659262123559, 0.4642076, 4.5248275, 9.245867, -0.39841318, 0.11964447, 10.2957535
773659271763767, 0.20937198, 3.3702908, 9.016156, 0.5808494, -0.050614946, 9.610089
773659281403871, 0.4761717, 4.8586264, 9.381062, -0.65309834, 0.109020576, 10.554569
773659291044080, 0.23928227, 3.211168, 8.91805, 0.67583466, -0.0123272035, 9.457462
773659300684184, 0.40797627, 4.800002, 9.268599, -0.6394224, 0.038844556, 10.426073
773659310324392, 0.29192436, 3.4109688, 8.882157, 0.4775107, 0.027184715, 9.507046
773659319964496, 0.24885355, 4.429115, 9.186047, -0.3122964, -0.09331456, 10.195892
773659329604601, 0.36131623, 3.912265, 9.02453, 0.076939344, 0.05781038, 9.8422165
773659339244809, 0.16630118, 3.8739798, 9.0747795, 0.15081024, -0.1342908, 9.86642
773659348884913, 0.43669012, 4.465007, 9.163314, -0.37422037, 0.09205514, 10.195332
773659358525121, 0.13040884, 3.394219, 8.989835, 0.55153966, -0.13401957, 9.593369
773659368165226, 0.41874397, 4.820341, 9.393025, -0.6072984, 0.034256257, 10.548459
773659377805434, 0.2009971, 3.17049, 8.904889, 0.71327543, -0.05063768, 9.427521
773659387445538, 0.40438703, 4.8323054, 9.263813, -0.6693826, 0.018750973, 10.434774
773659397085746, 0.38404804, 3.4779677, 8.944371, 0.4358182, 0.105911635, 9.593975
773659406725851, 0.34337005, 4.5116673, 9.428918, -0.29970527, -0.027211703, 10.454042
773659416365955, 0.4438686, 3.8500516, 9.086744, 0.15536356, 0.12799194, 9.876656
773659426006163, 0.27038896, 3.958925, 9.016156, 0.04808259, -0.05383028, 9.850485
773659435646267, 0.56350976, 4.4051867, 8.989835, -0.39506817, 0.1977821, 10.017244
773659445286476, 0.25962126, 3.4253256, 8.775677, 0.43830824, -0.030039147, 9.413806
773659454926580, 0.51445687, 4.82752, 9.176475, -0.7045264, 0.107771695, 10.357092
773659464566788, 0.22492532, 3.251846, 8.935996, 0.6620767, -0.05329796, 9.488727
773659474206892, 0.4211368, 4.8646083, 9.439685, -0.61519027, 0.015130719, 10.609936
773659483847101, 0.26919255, 3.367898, 9.019745, 0.5808039, -0.02028872, 9.614222
773659493487205, 0.2536392, 4.601398, 9.322437, -0.43066716, -0.13066801, 10.389538
773659503127413, 0.4354937, 3.8656049, 9.127422, 0.14813519, 0.10834203, 9.920117
773659512767517, 0.28235307, 4.112066, 9.194421, -0.03275776, -0.062029216, 10.075776
773659522407621, 0.5168497, 4.402794, 9.136993, -0.34052205, 0.14860944, 10.14881
773659532047830, 0.2536392, 3.495914, 8.935996, 0.42772388, -0.03939919, 9.589228
773659541687934, 0.5084748, 4.7222357, 9.235099, -0.5846386, 0.12414657, 10.367638
773659551328142, 0.16630118, 3.121437, 8.877372, 0.7434373, -0.100819044, 9.381679
773659560968246, 0.36490545, 4.776074, 9.285348, -0.60338235, -0.022636387, 10.430588
773659570608455, 0.21415763, 3.3200414, 8.9312105, 0.58268833, -0.07159186, 9.512646
773659580248559, 0.33379877, 4.132405, 9.189635, -0.072832346, -0.004270971, 10.081282
773659589888767, 0.30987054, 3.9338005, 9.192028, 0.110703945, -0.01755505, 10.00258
773659599528871, 0.2955136, 4.031906, 9.276974, 0.05549097, -0.03857059, 10.119351
773659609169080, 0.24765715, 3.95055, 9.249456, 0.1165905, -0.08321333, 10.059827
773659618809184, 0.25004998, 3.973282, 9.225528, 0.08422446, -0.08155835, 10.047196
773659628449392, 0.2644069, 4.005585, 9.1669035, 0.027492523, -0.06400713, 10.007092
773659638089496, 0.2739782, 4.034299, 9.145369, -0.00800395, -0.05331573, 9.999274
773659647729705, 0.28713873, 4.054638, 9.085547, -0.05099058, -0.037852228, 9.953175
773659657369809, 0.33379877, 4.0438704, 9.02812, -0.06558633, 0.009846598, 9.89782
773659667010017, 0.3278167, 4.031906, 8.992228, -0.06755829, 0.0074024945, 9.859983
773659676650121, 0.30987054, 4.019942, 9.02812, -0.04039097, -0.010850489, 9.887425
773659686290330, 0.31944183, 4.011567, 9.116654, 0.0038912296, -0.0043100566, 9.9653425
773659695930434, 0.34337005, 3.9972103, 9.142975, 0.027166843, 0.017860383, 9.984415
773659705570642, 0.35174492, 3.9924245, 9.170493, 0.041452885, 0.024306566, 10.007937
773659715210746, 0.36011982, 3.9852462, 9.170493, 0.04635167, 0.03170012, 10.005332
773659724850955, 0.3493521, 4.0103707, 9.195618, 0.030355453, 0.017503396, 10.038092
773659734491059, 0.33020952, 4.01396, 9.1872425, 0.023756266, -0.0030806363, 10.031239
773659744131267, 0.3385844, 4.0151563, 9.127422, -0.0016009808, 0.0063409954, 9.977272
773659753771371, 0.32183465, 4.025924, 9.068798, -0.034107924, -0.010472104, 9.927408
773659763411580, 0.31226337, 4.0510488, 9.090333, -0.047484398, -0.022240192, 9.9569025
773659773051684, 0.34097722, 4.0845485, 9.134601, -0.06049013, 0.0038546026, 10.011846
773659782691892, 0.37686956, 4.0833516, 9.159725, -0.04936719, 0.038521126, 10.035559
773659792331996, 0.39361933, 4.065406, 9.1465645, -0.038841248, 0.056277007, 10.016857
773659801972205, 0.357727, 4.019942, 9.105886, -0.010919809, 0.02310127, 9.960142
773659811612309, 0.35294133, 3.991228, 9.078369, 0.0052907467, 0.01950401, 9.923249
773659821252517, 0.32662028, 3.9864426, 9.0951185, 0.017262936, -0.008103639, 9.935756
773659830892621, 0.29910284, 3.970889, 9.085547, 0.027666569, -0.035292283, 9.919807
773659840532830, 0.25124636, 4.0031924, 9.1465645, 0.022502184, -0.0856916, 9.987017
773659850172934, 0.2847459, 4.004389, 9.209974, 0.044379473, -0.053765908, 10.04664
773659859813142, 0.31465617, 4.0295134, 9.196814, 0.016057014, -0.02392748, 10.045722
773659869453246, 0.32303107, 4.0498524, 9.160921, -0.018212557, -0.015213132, 10.021357
773659879093455, 0.31944183, 4.028317, 9.128618, -0.011099815, -0.016936809, 9.983018
773659888733559, 0.34576288, 4.0151563, 9.101101, -0.008925676, 0.010784984, 9.953436
773659898373767, 0.35533416, 4.007978, 9.092726, -0.0062258244, 0.020730272, 9.943206
773659908013871, 0.3469593, 4.01396, 9.075976, -0.017373562, 0.011131652, 9.930016
773659917654080, 0.35653058, 4.017549, 9.073584, -0.021162033, 0.01850444, 9.9296
773659927294184, 0.37088752, 4.019942, 9.102298, -0.012159586, 0.03227143, 9.957317
773659936934392, 0.4031906, 4.0354953, 9.171689, -0.0012543201, 0.059175357, 10.028169
773659946574496, 0.42592242, 4.0438704, 9.212367, 0.006530285, 0.08085331, 10.0695305
773659956214705, 0.38763726, 4.042674, 9.219545, 0.011365175, 0.040654697, 10.074309
773659965854913, 0.32422748, 4.0474596, 9.226724, 0.013506889, -0.025330141, 10.080607
773659975495017, 0.33379877, 4.0031924, 9.21476, 0.04863763, -0.013011396, 10.052175
773659985135226, 0.28235307, 3.9948175, 9.15494, 0.03651166, -0.06166403, 9.992302
773659994775330, 0.22971097, 4.005585, 9.052048, -0.011026144, -0.11177312, 9.900729
773660004415538, 0.2620141, 4.0235314, 8.999406, -0.049510717, -0.079925604, 9.860929
773660014055642, 0.29790643, 4.0354953, 8.975478, -0.07031345, -0.041880786, 9.845123
773660023695851, 0.34097722, 4.0438704, 9.017352, -0.060636997, -2.8423965E-4, 9.888283
773660033335955, 0.36011982, 4.0642095, 9.041281, -0.07024503, 0.015856594, 9.919026
773660042976163, 0.38285163, 4.046263, 9.067601, -0.04409337, 0.03918746, 9.936638
773660052616267, 0.37686956, 4.045067, 9.163314, -0.00365901, 0.02608496, 10.023483
773660062256476, 0.4031906, 4.028317, 9.235099, 0.03871751, 0.049926482, 10.0833025
773660071896580, 0.39960137, 4.0271206, 9.251849, 0.045393944, 0.04465227, 10.098024
773660081536788, 0.36131623, 4.017549, 9.254242, 0.056900978, 0.006870091, 10.094998
773660091176892, 0.31944183, 4.001996, 9.24826, 0.06972599, -0.03472182, 10.081779
773660100817101, 0.3062813, 4.0091743, 9.182457, 0.038811207, -0.047371417, 10.024025
773660110457309, 0.33499518, 4.0331025, 9.068798, -0.027696848, -0.01775755, 9.930769
773660120097413, 0.357727, 4.0127635, 9.0341015, -0.023833513, 0.006827429, 9.891643
773660129737621, 0.38883367, 4.0235314, 9.031709, -0.029553175, 0.035183758, 9.894931
773660139377726, 0.40677986, 4.0354953, 9.052048, -0.032862186, 0.052099645, 9.918996
773660149017934, 0.40079778, 4.054638, 9.071191, -0.040830135, 0.04338999, 9.944027
773660158658038, 0.34576288, 4.072584, 9.109476, -0.039591074, -0.015064254, 9.9843
773660168298246, 0.3493521, 4.0737805, 9.119047, -0.036985874, -0.010868862, 9.993661
773660177938351, 0.35294133, 4.048656, 9.127422, -0.010752916, -0.006449744, 9.99129
773660187578559, 0.35413775, 4.0558343, 9.144172, -0.01044035, -0.005405277, 10.009542
773660197218767, 0.357727, 4.0594234, 9.119047, -0.024114609, -7.945299E-4, 9.98816
773660206858871, 0.36131623, 4.0498524, 9.150154, -0.00233078, 0.0034368038, 10.01285
773660216499080, 0.34097722, 4.01396, 9.171689, 0.03956437, -0.01632592, 10.017296
773660226139184, 0.33020952, 3.9984066, 9.129815, 0.037531376, -0.02519609, 9.972351
773660235779392, 0.317049, 4.0067816, 9.079565, 0.010230541, -0.035368547, 9.929349
773660245419496, 0.32303107, 4.004389, 9.06162, 0.005190611, -0.028823182, 9.912193
773660255059705, 0.32063824, 4.0163527, 9.067601, -0.002461195, -0.031641543, 9.922413
773660264699809, 0.35533416, 4.019942, 9.0951185, 0.0046257973, 0.0022520125, 9.950245
773660274340017, 0.38165522, 4.011567, 9.101101, 0.013389826, 0.027212009, 9.953262
773660283980226, 0.36011982, 4.028317, 9.15494, 0.020706892, 0.0040159225, 10.008471
773660293620330, 0.3696911, 4.046263, 9.194421, 0.01872325, 0.008738905, 10.052157
773660303260538, 0.3792624, 4.0498524, 9.21476, 0.023225307, 0.017886877, 10.072541
773660312900642, 0.37806597, 4.0438704, 9.175279, 0.013032675, 0.016232282, 10.0339985
773660322540851, 0.36490545, 4.065406, 9.098708, -0.03603816, 0.0021998733, 9.972255
773660332180955, 0.37447673, 4.0498524, 9.069994, -0.031032085, 0.0126552805, 9.940081
773660341821163, 0.3696911, 4.0510488, 9.05803, -0.036705256, 0.007914558, 9.929459
773660351461371, 0.36131623, 4.0235314, 9.0029955, -0.032215357, 0.0021092892, 9.867736
773660361101476, 0.3589234, 4.0103707, 8.958728, -0.037260532, 0.0019811243, 9.821881
773660370741684, 0.34097722, 4.019942, 9.000603, -0.028219938, -0.01738865, 9.863363
773660380381788, 0.36729828, 4.0510488, 9.116654, -0.012004137, 0.0046456903, 9.982943
773660390021996, 0.4031906, 4.058227, 9.18126, 0.0040535927, 0.037391193, 10.046187
773660399662101, 0.40917268, 4.061816, 9.224331, 0.016396523, 0.04063335, 10.087227
773660409302309, 0.3804588, 4.071388, 9.260223, 0.022881031, 0.008949578, 10.12285
773660418942517, 0.39840496, 4.054638, 9.243474, 0.029370785, 0.026635095, 10.1014385
773660428582621, 0.38404804, 4.037888, 9.195618, 0.025959253, 0.013592653, 10.050402
773660438222830, 0.34337005, 4.0307097, 9.097511, -0.004132986, -0.025304418, 9.956334
773660447862934, 0.3397808, 4.0211387, 9.006584, -0.031354427, -0.026582249, 9.869241
773660457503142, 0.3481557, 4.0031924, 8.993423, -0.019438744, -0.01595847, 9.850269
773660467143351, 0.35174492, 4.011567, 9.032906, -0.0106060505, -0.013164304, 9.889868
773660476783455, 0.36490545, 4.019942, 9.105886, 0.010612726, -0.001443088, 9.96043
773660486423663, 0.37567315, 4.040281, 9.189635, 0.023470402, 0.005297303, 10.0455885
773660496063767, 0.37806597, 4.048656, 9.247063, 0.03905511, 0.006040752, 10.101542
773660505703976, 0.37447673, 4.0474596, 9.24826, 0.040195227, 0.0020863712, 10.102023
773660515344080, 0.34217364, 4.025924, 9.188439, 0.03712201, -0.028597116, 10.03745
773660524984288, 0.33140594, 4.048656, 9.150154, 0.003513813, -0.038805544, 10.011257
773660534624496, 0.3397808, 4.0677986, 9.078369, -0.040939808, -0.028446048, 9.953731
773660544264601, 0.3804588, 4.066602, 9.019745, -0.061501265, 0.014544696, 9.901203
