timestamp_acc,device_acc_x,device_acc_y,device_acc_z,earth_acc_x,earth_acc_y,earth_acc_z
189097794526872, -7.5696945, 0.05503492, 5.7690954, -0.0236997, 0.22590351, 9.514945
189097804167288, -7.539784, 0.041874398, 5.8360944, -0.04085195, 0.14737272, 9.533453
189097813807601, -7.5625157, 0.021535404, 5.942575, -0.06703389, 0.07978058, 9.6174555
189097823448018, -7.568498, 0.05742774, 6.111269, -0.045918882, -0.051034927, 9.727711
189097833088330, -7.598408, 0.09930214, 6.24766, -0.012905061, -0.14177227, 9.836598
189097842728747, -7.668997, 0.124426775, 6.3014984, 0.009641826, -0.1390295, 9.925648
189097852369059, -7.708478, 0.1363909, 6.2919273, 0.021039844, -0.10092735, 9.950726
189097862009476, -7.7443705, 0.1363909, 6.259624, 0.027045965, -0.05340147, 9.958572
189097871649788, -7.7383885, 0.13519448, 6.235696, 0.026293933, -0.03716421, 9.9389515
189097881290205, -7.7180495, 0.12921242, 6.192625, 0.021728992, -0.01762104, 9.896101
189097890930518, -7.7072816, 0.13040884, 6.1304116, 0.027201712, 0.02096653, 9.848857
189097900570934, -7.6402826, 0.1363909, 6.06102, 0.03572142, 0.032291412, 9.753264
189097910211351, -7.568498, 0.1268196, 5.977271, 0.025954187, 0.047805786, 9.644846
189097919851663, -7.542177, 0.12921242, 5.899504, 0.034252286, 0.09154844, 9.5757885
189097929492080, -7.5613194, 0.09332009, 5.877969, -0.0013074875, 0.12231016, 9.576942
189097939132393, -7.5756764, 0.029910283, 5.8073807, -0.059179544, 0.19125557, 9.543447
189097948772809, -7.623533, 0.010767702, 5.7690954, -0.07286832, 0.2510395, 9.556805
189097958413122, -7.645068, 0.04546363, 5.8600225, -0.04153639, 0.18740797, 9.630792
189097968053538, -7.6534433, 0.13519448, 6.1304116, 0.019631147, -0.028217793, 9.806846
189097977693851, -7.7240314, 0.2117648, 6.34098, 0.082750976, -0.1560731, 9.994116
189097987334268, -7.771888, 0.1471586, 6.437889, 0.016512692, -0.18658018, 10.091345
189097996974580, -7.7240314, 0.02632105, 6.442675, -0.10683435, -0.20377779, 10.05567
189098006614997, -7.6343007, 0.08135597, 6.290731, -0.03952515, -0.1481409, 9.891358
189098016255413, -7.6917286, 0.069391854, 6.1304116, -0.027275264, 0.014307022, 9.836081
189098025895726, -7.6127653, 0.15792629, 5.9581285, 0.07192713, 0.08737707, 9.667763
189098035536143, -7.524231, 0.124426775, 5.9294147, 0.035136223, 0.05924034, 9.580333
189098045176455, -7.536195, 0.09810573, 5.9138613, 0.009295762, 0.08052349, 9.5797205
189098054816872, -7.5385876, 0.11724831, 5.9114685, 0.027123988, 0.079612255, 9.580315
189098064457184, -7.5792656, 0.09092726, 5.956932, -0.0029799938, 0.07202482, 9.640197
189098074097601, -7.570891, 0.11365908, 6.04427, 0.010656595, -0.0035429, 9.688364
189098083737913, -7.598408, 0.10887343, 6.1651077, -0.0036822557, -0.077950954, 9.7852
189098093378330, -7.6606216, 0.12921242, 6.283552, 0.0075075626, -0.1300273, 9.907971
189098103018643, -7.6941214, 0.15672988, 6.3720865, 0.028603792, -0.17373705, 9.989822
189098112659059, -7.7383885, 0.15314065, 6.3792653, 0.028629363, -0.15113258, 10.028833
189098122299476, -7.749156, 0.13399807, 6.3254266, 0.017474592, -0.09876633, 10.003416
189098131939788, -7.719246, 0.11246266, 6.196214, 0.006209135, -0.015499115, 9.899101
189098141580205, -7.6809607, 0.0849452, 6.053841, -0.009861946, 0.071718216, 9.779985
189098151220518, -7.635497, 0.0741775, 5.918647, -0.010290861, 0.14545822, 9.659991
189098160860934, -7.598408, 0.09451649, 5.8887367, 0.0059437156, 0.13672018, 9.612659
189098170501247, -7.5900335, 0.08733802, 5.9042897, -0.007274449, 0.118817806, 9.615754
189098180141663, -7.597212, 0.083748795, 5.9114685, -0.016282618, 0.116725445, 9.625809
189098189781976, -7.648658, 0.076570325, 5.9653068, -0.025430024, 0.10769558, 9.699508
189098199422393, -7.672586, 0.1052842, 6.056234, -0.008088946, 0.047261715, 9.775241
189098209062705, -7.7001033, 0.16749759, 6.1914287, 0.041098356, -0.04832697, 9.881771
189098218703122, -7.713264, 0.20458634, 6.283552, 0.06792998, -0.11457586, 9.949953
189098228343538, -7.706085, 0.18664017, 6.29432, 0.048484564, -0.12498951, 9.950833
189098237983851, -7.685746, 0.16031912, 6.242874, 0.02727902, -0.09334898, 9.902546
189098247624268, -7.615158, 0.14476576, 6.192625, 0.011823714, -0.09623051, 9.815845
189098257264580, -7.5960155, 0.11485548, 6.068198, -0.0066746473, -0.008331776, 9.72294
189098266904997, -7.5924263, 0.05623133, 5.814559, -0.04009229, 0.19222498, 9.56131
189098276545309, -7.5637126, 0.05383851, 5.6207404, -0.026739776, 0.32194614, 9.418121
189098286185726, -7.6223364, 0.015553347, 5.517849, -0.052975476, 0.4374776, 9.399612
189098295826038, -7.7001033, 0.013160525, 5.704489, -0.06991109, 0.3367834, 9.5767765
189098305466455, -7.685746, 0.083748795, 6.023931, -0.02791506, 0.07122803, 9.765226
189098315106768, -7.706085, 0.17347965, 6.300302, 0.034819245, -0.14132118, 9.954221
189098324747184, -7.719246, 0.20458634, 6.4498534, 0.054242074, -0.24739933, 10.058085
189098334387497, -7.661818, 0.20338993, 6.4474607, 0.054859817, -0.27376652, 10.011822
189098344027913, -7.635497, 0.18664017, 6.3194447, 0.052859068, -0.1829257, 9.911346
189098353668330, -7.564909, 0.16869399, 6.2321067, 0.042250693, -0.15310955, 9.801542
189098363308643, -7.554141, 0.1160519, 6.174679, 0.0012682676, -0.10787153, 9.756716
189098372949059, -7.5433736, 0.0741775, 6.1471615, -0.036173105, -0.08865547, 9.730695
189098382589372, -7.587641, 0.0634098, 6.081359, -0.038554966, -0.008574009, 9.724078
189098392229788, -7.5828547, 0.086141616, 5.9844494, -0.0058485866, 0.05827236, 9.660089
189098401870101, -7.59123, 0.14955142, 5.910272, 0.06431955, 0.11379194, 9.620986
189098411510518, -7.6259255, 0.17467605, 5.9210396, 0.08857781, 0.1201663, 9.655138
189098421150830, -7.6606216, 0.13878371, 6.0777693, 0.040041983, 0.024184227, 9.779646
189098430791247, -7.665407, 0.09930214, 6.196214, -0.010752618, -0.05783987, 9.856873
189098440431559, -7.6941214, 0.08973085, 6.1208405, -0.010687768, 0.019966125, 9.832179
189098450071976, -7.6749787, 0.050249275, 6.068198, -0.04519725, 0.051541805, 9.783974
189098459712288, -7.6833534, 0.059820566, 6.084948, -0.03600651, 0.040280342, 9.80108
189098469352705, -7.6594253, 0.09092726, 6.0957155, -0.0073651373, 0.011688709, 9.789413
189098478993018, -7.652247, 0.13878371, 6.1124654, 0.03807378, -0.012748718, 9.794732
189098488633434, -7.661818, 0.12801601, 6.128019, 0.02662301, -0.017642021, 9.811802
189098498273747, -7.6713896, 0.09810573, 6.0191455, 0.005151391, 0.070559025, 9.751151
189098507914163, -7.60798, 0.07058827, 6.0167527, -0.025851846, 0.036160946, 9.699778
189098517554476, -7.594819, 0.047856454, 6.1363935, -0.06113702, -0.06366825, 9.763764
189098527194893, -7.6271224, 0.033499517, 6.1698933, -0.07672465, -0.066351414, 9.809762
189098536835309, -7.6199436, 0.04426722, 6.1232333, -0.061609685, -0.033403873, 9.775203
189098546475622, -7.6199436, 0.02632105, 6.0550375, -0.07228863, 0.022206783, 9.732523
189098556116038, -7.6402826, 0.022731815, 6.040681, -0.07095176, 0.047293663, 9.739456
189098565756351, -7.6630144, 0.08853444, 6.040681, -0.0021267533, 0.053157806, 9.7579
189098575396768, -7.692925, 0.12323037, 6.0514483, 0.034715176, 0.05842018, 9.788344
189098585037080, -7.688139, 0.14596218, 6.1328044, 0.04922372, -0.01000452, 9.835525
189098594677497, -7.688139, 0.17228323, 6.1567326, 0.07311517, -0.0321908, 9.850693
189098604317809, -7.6977105, 0.19262223, 6.1268225, 0.09511328, -0.0044903755, 9.839753
189098613958226, -7.6749787, 0.22253251, 6.1244297, 0.12097335, -0.019541264, 9.820818
189098623598538, -7.7144604, 0.21655045, 6.108876, 0.11170286, 0.014523983, 9.842026
189098633238955, -7.7072816, 0.1698904, 6.1028943, 0.065561235, 0.019404411, 9.832176
189098642879268, -7.6331043, 0.09810573, 6.056234, -0.009749889, 0.01684761, 9.744307
189098652519684, -7.6067834, 0.1052842, 5.938986, 0.003489554, 0.08972025, 9.650788
189098662159997, -7.5517483, 0.14476576, 5.818148, 0.048071325, 0.13976145, 9.53304
189098671800413, -7.5457664, 0.11964113, 5.802595, 0.02479273, 0.15070677, 9.518387
189098681440726, -7.580462, 0.104087785, 5.966503, -0.0010182858, 0.04394722, 9.647356
189098691081143, -7.5936227, 0.0526421, 6.1806607, -0.070297, -0.10923481, 9.790279
189098700721455, -7.6606216, 0.06819545, 6.3050876, -0.055713534, -0.16124582, 9.9204235
189098710361872, -7.7001033, 0.04426722, 6.306284, -0.075754136, -0.13310671, 9.951851
189098720002184, -7.753942, 0.058624156, 6.3110695, -0.059045494, -0.10284233, 9.99713
189098729642601, -7.704889, 0.076570325, 6.3326054, -0.045990586, -0.15191317, 9.972357
189098739282913, -7.763513, 0.14237295, 6.227321, 0.030304909, -0.038418293, 9.953368
189098748923330, -7.792227, 0.025124637, 6.302695, -0.10026634, -0.064468384, 10.021436
189098758563643, -7.57448, 0.11006984, 6.038288, -0.008968353, -0.0053520203, 9.6874
189098768204059, -7.5732837, 0.13280165, 5.95095, 0.016729653, 0.05558777, 9.632378
189098777844372, -7.6067834, 0.148355, 5.8707905, 0.041888833, 0.1368599, 9.608896
189098787484788, -7.576873, 0.16869399, 5.845666, 0.05840063, 0.13164473, 9.570191
189098797125101, -7.5828547, 0.16151553, 5.788238, 0.054423213, 0.17615986, 9.539156
189098806765518, -7.6163545, 0.13160525, 5.814559, 0.021295428, 0.17734909, 9.581408
189098816405830, -7.6917286, 0.10767702, 5.8887367, -0.006283641, 0.16816187, 9.686237
189098826046247, -7.6809607, 0.41635114, 6.046663, 0.28226483, -9.3460083E-4, 9.780233
189098835686559, -7.708478, -0.27158538, 6.0622163, -0.39917216, 0.09355545, 9.801876
189098845326976, -7.496713, 0.91166544, 6.0933228, 0.7518426, -0.21292496, 9.672115
189098854967288, -7.8233337, -0.567099, 5.912665, -0.6656285, 0.3194213, 9.794931
189098864607601, -7.5493555, 0.77407813, 6.3110695, 0.58852667, -0.32683468, 9.847253
189098874248018, -7.5637126, -0.48095736, 6.096912, -0.6175546, 0.008633137, 9.707314
189098883888330, -7.5026956, 0.45942193, 6.3278193, 0.2920456, -0.3211832, 9.816026
189098893528747, -7.649854, -0.11365908, 6.0191455, -0.23617187, 0.07885313, 9.731459
189098903169059, -7.6307116, 0.029910283, 6.0777693, -0.10682994, 0.0074267387, 9.754819
189098912809476, -7.63789, 0.3397808, 5.898308, 0.22410285, 0.109699726, 9.653009
189098922449788, -7.7910304, -0.465404, 5.925825, -0.5678533, 0.27937746, 9.779143
189098932090205, -7.6594253, 0.8327023, 6.270392, 0.68266207, -0.23368263, 9.90744
189098941730518, -7.8592257, -0.49651068, 6.263213, -0.62198937, 0.05667782, 10.042496
189098951370934, -7.6773715, 0.9882358, 6.3864436, 0.8303443, -0.32069302, 9.995649
189098961011247, -7.813762, -0.4223332, 5.9964137, -0.52290344, 0.23175001, 9.841905
189098970651663, -7.597212, 0.5982057, 6.166304, 0.45437908, -0.15547991, 9.791227
189098980291976, -7.631908, -0.12203395, 5.8683977, -0.24070418, 0.17962599, 9.623346
189098989932393, -7.5589266, 0.10289137, 5.8875403, -0.021514773, 0.0908618, 9.581355
189098999572705, -7.487142, 0.38524446, 5.6350975, 0.2783236, 0.20853901, 9.37225
189099009213018, -7.60798, -0.3278167, 5.68415, -0.42741323, 0.3275714, 9.487275
189099018853434, -7.509874, 0.81595254, 5.973682, 0.6696749, -0.09493494, 9.60684
189099028493747, -7.7419777, -0.573081, 6.070591, -0.69612396, 0.13878536, 9.829287
189099038134163, -7.568498, 0.9068798, 6.378069, 0.720661, -0.38353062, 9.905449
189099047774476, -7.745567, -0.51565325, 6.161518, -0.65528846, 0.07246065, 9.888851
189099057414893, -7.597212, 0.65324056, 6.4259253, 0.46907508, -0.36361217, 9.954126
189099067055205, -7.7072816, -0.2321038, 6.202196, -0.37496096, -0.010362148, 9.888509
189099076695622, -7.655836, 0.07178468, 6.381658, -0.09387326, -0.2174778, 9.964258
189099086335934, -7.6127653, 0.23090738, 6.1770716, 0.09208602, -0.099377155, 9.805375
189099095976247, -7.708478, -0.3792624, 6.101698, -0.50278145, 0.080676556, 9.825268
189099105616663, -7.5792656, 0.67118675, 5.9784675, 0.5534168, -0.021204948, 9.660803
189099115256976, -7.783852, -0.6939186, 5.721239, -0.7816622, 0.43925905, 9.643574
189099124897393, -7.52782, 0.8530413, 5.8887367, 0.73023665, -0.0074706078, 9.5676365
189099134537705, -7.7156568, -0.5204389, 5.6961145, -0.5942917, 0.39727402, 9.577939
189099144178122, -7.5314093, 0.68195444, 6.1387863, 0.53427094, -0.19472027, 9.723607
189099153818434, -7.649854, -0.25603202, 6.175875, -0.39323127, -0.04129696, 9.827051
189099163458747, -7.6606216, 0.20458634, 6.567102, 0.022112727, -0.38998938, 10.0847025
189099173099163, -7.7012997, 0.30987054, 6.48096, 0.14675635, -0.29833746, 10.064709
189099182739476, -7.7946196, -0.1902294, 6.489335, -0.34437102, -0.18777609, 10.136562
189099192379893, -7.6570325, 0.7704889, 6.270392, 0.62298936, -0.21716404, 9.904865
189099202020205, -7.806584, -0.5599205, 5.9234324, -0.65498686, 0.29865217, 9.78903
189099211660622, -7.6199436, 0.8219346, 5.942575, 0.69215876, 0.008677959, 9.673374
189099221300934, -7.7682986, -0.59940207, 5.625526, -0.6731005, 0.4894147, 9.573908
189099230941247, -7.530213, 0.7046863, 5.779863, 0.5829718, 0.06579018, 9.500701
189099240581663, -7.6019974, -0.27158538, 5.493921, -0.36292067, 0.4301219, 9.366461
189099250221976, -7.5517483, 0.33738798, 5.7355957, 0.21954143, 0.14512062, 9.48528
189099259862393, -7.597212, 0.32542387, 5.6554365, 0.2183522, 0.23143387, 9.471338
189099269502705, -7.6797643, -0.083748795, 5.8863435, -0.20776233, 0.14979696, 9.67312
189099279143018, -7.5673018, 0.73459655, 6.078966, 0.5881254, -0.14992094, 9.715407
189099288783434, -7.789834, -0.48095736, 6.1591253, -0.6230223, 0.054512978, 9.922526
189099298423747, -7.629515, 0.9559326, 6.3864436, 0.7763933, -0.3721795, 9.958346
189099308064163, -7.834101, -0.52163535, 6.1842504, -0.66002226, 0.07789278, 9.972387
189099317704476, -7.6749787, 0.802792, 6.3696938, 0.64277405, -0.30862665, 9.9807
189099327344788, -7.769495, -0.30388847, 6.0825553, -0.42319497, 0.09859371, 9.862356
189099336985205, -7.6546397, 0.3278167, 6.229714, 0.1731183, -0.15348768, 9.87202
189099346625518, -7.62114, 0.11724831, 5.877969, -0.0011264086, 0.12123203, 9.624519
189099356265934, -7.623533, -0.1698904, 5.9030933, -0.28877714, 0.13515854, 9.638049
189099365906247, -7.533802, 0.567099, 5.834898, 0.4445132, 0.04656887, 9.535515
189099375546559, -7.706085, -0.6041877, 5.8564334, -0.7125721, 0.27390242, 9.667669
189099385186976, -7.5314093, 0.7920243, 6.195018, 0.6291627, -0.2608409, 9.760317
189099394827288, -7.7874413, -0.6305088, 6.1591253, -0.7635168, 0.08615589, 9.9189825
189099404467601, -7.609176, 0.8063812, 6.4259253, 0.6279363, -0.38778925, 9.964821
189099414108018, -7.756335, -0.34456646, 6.1268225, -0.4647488, 0.058149338, 9.879171
189099423748330, -7.6139617, 0.45942193, 6.3218374, 0.29984385, -0.25583458, 9.8991785
189099433388747, -7.556534, 0.09571291, 6.1232333, -0.03881097, -0.10104942, 9.725875
189099443029059, -7.6019974, -0.1471586, 6.166304, -0.2876041, -0.07184553, 9.785063
189099452669372, -7.5266237, 0.55034924, 5.9712887, 0.42181146, -0.047939777, 9.614001
189099462309788, -7.6941214, -0.49292147, 5.8360944, -0.5831746, 0.28977442, 9.647716
189099471950101, -7.5122666, 0.8566305, 5.879165, 0.7283566, -0.034017563, 9.549915
189099481590518, -7.7647095, -0.634098, 5.636294, -0.7106993, 0.49521494, 9.576548
189099491230830, -7.6271224, 0.8063812, 5.9007006, 0.6814721, 0.01598072, 9.652816
189099500871143, -7.8257265, -0.4354937, 5.8504515, -0.5144515, 0.34253597, 9.761017
189099510511559, -7.7120676, 0.47258246, 6.3625154, 0.30833316, -0.24443436, 10.001305
189099520151872, -7.698907, 0.11246266, 6.2548385, -0.025414407, -0.121311665, 9.919348
189099529792184, -7.704889, 0.07537391, 6.3792653, -0.08041245, -0.20132828, 10.000951
189099539432601, -7.5696945, 0.58504516, 6.242874, 0.43364787, -0.23800659, 9.816892
189099549072913, -7.676175, -0.47976094, 6.1363935, -0.6136213, 0.04790163, 9.819895
189099558713226, -7.4883385, 0.80997044, 6.1184473, 0.66162544, -0.22756577, 9.678694
189099568353643, -7.702496, -0.62093747, 5.84088, -0.7100551, 0.30942774, 9.655565
189099577993955, -7.5409803, 0.81954175, 5.8911295, 0.7017802, -0.026498795, 9.578636
189099587634372, -7.732406, -0.4881358, 5.6470613, -0.5535374, 0.45548964, 9.560534
189099597274684, -7.6103725, 0.49292147, 6.105287, 0.36244375, -0.10717392, 9.761784
189099606914997, -7.7096744, -0.011964113, 6.131608, -0.13869387, 0.0021190643, 9.849701
189099616555413, -7.706085, 0.047856454, 6.3254266, -0.10062516, -0.1581502, 9.968045
189099626195726, -7.6163545, 0.49172506, 6.1387863, 0.35826415, -0.12378073, 9.787322
189099635836038, -7.716853, -0.4211368, 6.142376, -0.5458509, 0.053857327, 9.85673
189099645476455, -7.548159, 0.7860422, 6.2751775, 0.6356232, -0.30041027, 9.8222275
189099655116768, -7.7742805, -0.65682983, 6.087341, -0.7640797, 0.15268326, 9.865063
189099664757080, -7.5433736, 0.8422736, 6.1639113, 0.7026827, -0.22135162, 9.750025
189099674397497, -7.739585, -0.526421, 5.749953, -0.60054696, 0.38649845, 9.629654
189099684037809, -7.63789, 0.5347959, 5.910272, 0.41692638, 0.0714097, 9.663115
189099693678122, -7.6977105, -0.09810573, 5.753542, -0.18123698, 0.2972474, 9.6045
189099703318538, -7.664211, 0.10767702, 6.0622163, -0.016593874, 0.011975288, 9.772501
189099712958851, -7.615158, 0.46899325, 6.0490556, 0.3466215, -0.053230286, 9.730296
189099722599163, -7.7180495, -0.3182454, 6.15434, -0.43881765, 0.023066998, 9.86673
189099732239580, -7.5385876, 0.8243274, 6.3158555, 0.66128767, -0.35289335, 9.840631
189099741879893, -7.732406, -0.60658056, 6.172286, -0.7223007, 0.05708742, 9.885858
189099751520205, -7.507481, 0.849452, 6.2512493, 0.6925398, -0.30966568, 9.776833
189099761160622, -7.706085, -0.567099, 5.8887367, -0.66869116, 0.2581048, 9.68859
189099770800934, -7.5936227, 0.5395815, 6.0753765, 0.40509224, -0.08466911, 9.731041
189099780441351, -7.6917286, -0.22013968, 5.907879, -0.31695396, 0.18636847, 9.694277
189099790081663, -7.6678, 0.10887343, 6.1232333, -0.016722262, -0.02909422, 9.81325
189099799721976, -7.629515, 0.34097722, 6.0251274, 0.22892737, -0.005063057, 9.724994
189099809362288, -7.7036924, -0.33379877, 6.1304116, -0.45022264, 0.034042835, 9.840548
189099819002705, -7.5385876, 0.7704889, 6.227321, 0.629534, -0.26108646, 9.78463
189099828643018, -7.7108707, -0.6053841, 6.111269, -0.7121858, 0.080608845, 9.831476
189099838283330, -7.501499, 0.8566305, 6.2404814, 0.7179823, -0.30089378, 9.764419
189099847923747, -7.7240314, -0.5982057, 5.919843, -0.68680465, 0.24106598, 9.72282
189099857564059, -7.576873, 0.65084773, 6.145965, 0.5135462, -0.15903378, 9.763015
189099867204372, -7.7108707, -0.23449662, 5.9916277, -0.3307702, 0.13696957, 9.76135
189099876844788, -7.7096744, 0.148355, 6.262017, 0.017732918, -0.11379242, 9.932808
189099886485101, -7.6893353, 0.1902294, 6.1124654, 0.078770995, -0.01666832, 9.8243475
189099896125413, -7.732406, -0.31585258, 6.178268, -0.4275423, 0.020667076, 9.893313
189099905765830, -7.5349984, 0.73100734, 6.2033925, 0.5964105, -0.2535448, 9.765893
189099915406143, -7.7156568, -0.5455636, 6.0418773, -0.6410282, 0.14218521, 9.792965
189099925046455, -7.520642, 0.90089774, 6.000003, 0.77787244, -0.13706064, 9.630568
189099934686872, -7.6941214, -0.5838487, 5.649454, -0.65740913, 0.43705845, 9.530661
189099944327184, -7.542177, 0.695115, 5.8683977, 0.5880575, 0.003871441, 9.563467
189099953967497, -7.698907, -0.26679972, 5.7451673, -0.34491217, 0.31468296, 9.59861
189099963607913, -7.6666036, 0.276371, 6.003592, 0.15943193, 0.031072617, 9.74012
189099973248226, -7.6917286, 0.23090738, 5.8935223, 0.13809562, 0.13301373, 9.690864
189099982888538, -7.746763, -0.22492532, 6.0083776, -0.32327396, 0.13015795, 9.800106
189099992528955, -7.617551, 0.72263247, 6.10768, 0.600774, -0.14212704, 9.770971
189100002169268, -7.7994056, -0.4761717, 6.1567326, -0.58347094, 0.08401775, 9.930525
189100011809580, -7.5625157, 0.9415757, 6.4175506, 0.77503103, -0.45023346, 9.922689
189100021449997, -7.7754774, -0.58265233, 6.2177496, -0.6870666, 0.037487984, 9.949095
189100031090309, -7.6259255, 0.6903293, 6.296713, 0.54044217, -0.27732515, 9.894995
189100040730622, -7.7742805, -0.39361933, 5.8827543, -0.46219212, 0.28353786, 9.742031
189100050370934, -7.617551, 0.2428715, 6.0526447, 0.12511337, -0.02979374, 9.7316
189100060011351, -7.629515, 0.10289137, 5.81097, 0.020480096, 0.1779728, 9.589336
189100069651663, -7.6749787, -0.23090738, 5.881558, -0.31945342, 0.19329119, 9.664984
189100079291976, -7.5756764, 0.56590253, 5.8839507, 0.46928012, 0.031679153, 9.597437
189100088932393, -7.7587276, -0.58624154, 5.973682, -0.6728699, 0.20365906, 9.784284
189100098572705, -7.5589266, 0.9128618, 6.3361945, 0.76064056, -0.373075, 9.86916
189100108213018, -7.7623167, -0.5491528, 6.303891, -0.6771809, -0.03844261, 9.991702
189100117853434, -7.59123, 0.86859465, 6.5575304, 0.704342, -0.4950428, 10.032012
189100127493747, -7.749156, -0.30269206, 6.242874, -0.42927203, -0.022464752, 9.946342
189100137134059, -7.648658, 0.41635114, 6.3421764, 0.27729225, -0.24510956, 9.937884
189100146774372, -7.6510506, 0.08973085, 5.9617176, -0.010234237, 0.088562965, 9.699523
189100156414788, -7.641479, -0.18424734, 5.8468623, -0.27653545, 0.19849825, 9.617489
189100166055101, -7.5110703, 0.4869394, 5.65424, 0.40353, 0.18262386, 9.403591
189100175695413, -7.665407, -0.654437, 5.6446686, -0.71112925, 0.43126965, 9.505649
189100185335830, -7.4907312, 0.715454, 5.9342003, 0.59580755, -0.08566761, 9.564275
189100194976143, -7.7108707, -0.7286145, 5.9270215, -0.8123609, 0.25668335, 9.715564
189100204616455, -7.5493555, 0.762114, 6.2679987, 0.6102845, -0.31936073, 9.817686
189100214256872, -7.7240314, -0.36251262, 6.1064835, -0.4678109, 0.07466555, 9.841585
189100223897184, -7.6271224, 0.5563313, 6.4701924, 0.3962319, -0.38904905, 10.001875
189100233537497, -7.696514, 0.104087785, 6.2811594, -0.019046783, -0.14002085, 9.933788
189100243177913, -7.753942, -0.061016977, 6.2237315, -0.17538595, -0.032360077, 9.941345
189100252818226, -7.609176, 0.5132605, 5.905486, 0.4217856, 0.043693066, 9.636282
189100262458538, -7.7347994, -0.51086766, 5.743971, -0.56387126, 0.38792324, 9.623558
189100272098851, -7.5613194, 0.7932207, 5.7894344, 0.7036349, 0.06435251, 9.530008
189100281739268, -7.7611203, -0.6879365, 5.729614, -0.72899896, 0.42942905, 9.634359
189100291379580, -7.5637126, 0.7716853, 6.148358, 0.6589761, -0.221632, 9.753163
189100301019893, -7.749156, -0.5407779, 6.0753765, -0.619251, 0.1245842, 9.841396
189100310660309, -7.63789, 0.4749753, 6.4677997, 0.3420211, -0.3685217, 10.007128
189100320300622, -7.643872, 0.034695927, 6.334998, -0.08652282, -0.19920158, 9.925474
189100329940934, -7.716853, 0.07537391, 6.437889, -0.04894936, -0.23563004, 10.047089
189100339581351, -7.643872, 0.5096712, 6.2416778, 0.39641815, -0.17905712, 9.872075
189100349221663, -7.757531, -0.4941179, 6.094519, -0.58260804, 0.12831211, 9.8595495
189100358861976, -7.5732837, 0.7429714, 6.013163, 0.64030164, -0.07832432, 9.677223
189100368502393, -7.7706914, -0.69272214, 5.727221, -0.7249099, 0.45156717, 9.640289
189100378142705, -7.560123, 0.7848458, 5.895915, 0.70746356, -0.01543951, 9.593359
189100387783018, -7.7001033, -0.56590253, 5.759524, -0.617863, 0.35029554, 9.606221
189100397423330, -7.5589266, 0.48933223, 6.1842504, 0.3721063, -0.20395422, 9.769427
189100407063747, -7.668997, -0.106480606, 6.056234, -0.19442007, 0.040224075, 9.770538
189100416704059, -7.664211, 0.111266255, 6.2213387, 0.004665673, -0.11756134, 9.871359
189100426344372, -7.5673018, 0.4833502, 6.1005015, 0.3819183, -0.12809992, 9.723762
189100435984788, -7.7682986, -0.37088752, 6.155536, -0.45997486, 0.059761524, 9.907547
189100445625101, -7.576873, 0.7322037, 6.212964, 0.6181232, -0.23200655, 9.803579
189100455265413, -7.716853, -0.71665037, 6.099305, -0.80107987, 0.106374264, 9.829136
189100464905726, -7.548159, 0.7501499, 6.2081785, 0.6226537, -0.24996805, 9.778995
189100474546143, -7.7647095, -0.65922266, 5.871987, -0.7195902, 0.33147478, 9.725113
189100484186455, -7.588837, 0.4977071, 6.068198, 0.39164364, -0.08419609, 9.721148
189100493826768, -7.676175, -0.16271193, 5.892326, -0.22620949, 0.18826008, 9.673833
189100503467184, -7.647461, 0.18185452, 6.166304, 0.07938117, -0.084952354, 9.824791
189100513107497, -7.600801, 0.44147578, 6.053841, 0.34554726, -0.056703568, 9.720775
189100522747809, -7.702496, -0.27158538, 6.101698, -0.36269876, 0.05414629, 9.823362
189100532388226, -7.5756764, 0.8386843, 6.1028943, 0.7258313, -0.15936565, 9.735879
189100542028538, -7.716853, -0.62093747, 6.0358953, -0.7016415, 0.14964819, 9.790441
189100551668851, -7.521838, 0.81595254, 6.224928, 0.7001973, -0.2701621, 9.768843
189100561309268, -7.737192, -0.64008003, 5.9114685, -0.716823, 0.27022362, 9.727921
189100570949580, -7.600801, 0.587438, 6.1471615, 0.47294527, -0.13298559, 9.780772
189100580589893, -7.743174, -0.24646074, 5.994021, -0.32613283, 0.16861105, 9.788309
189100590230205, -7.668997, 0.14476576, 6.256035, 0.037262022, -0.12942266, 9.897186
189100599870622, -7.63789, 0.24765715, 6.1040907, 0.15208828, -0.041788578, 9.779251
189100609510934, -7.6869426, -0.3397808, 6.1627145, -0.43585864, 0.0084376335, 9.84853
189100619151247, -7.5326056, 0.6664011, 6.1734824, 0.5547429, -0.20269012, 9.744091
189100628791663, -7.7108707, -0.6891329, 6.125626, -0.7831253, 0.08327818, 9.840504
189100638431976, -7.5349984, 0.7860422, 6.2380886, 0.66674227, -0.2555585, 9.787643
189100648072288, -7.749156, -0.6903293, 5.864808, -0.76061344, 0.31252432, 9.708025
189100657712705, -7.600801, 0.56590253, 6.0801625, 0.4761728, -0.075538635, 9.737986
189100667353018, -7.771888, -0.36011982, 5.962914, -0.42559406, 0.21524811, 9.7908535
189100676993330, -7.7072816, 0.20338993, 6.202196, 0.10261303, -0.06473446, 9.894244
189100686633747, -7.6606216, 0.2620141, 5.953343, 0.185108, 0.09221363, 9.703262
189100696274059, -7.6941214, -0.20338993, 5.9844494, -0.27871656, 0.13610601, 9.744657
189100705914372, -7.5517483, 0.7178468, 5.9784675, 0.6333437, -0.0624671, 9.637491
189100715554788, -7.7036924, -0.56470615, 5.99761, -0.6387423, 0.17484093, 9.756975
189100725195101, -7.496713, 0.92602235, 6.2309103, 0.80417657, -0.3125639, 9.753875
189100734835413, -7.7180495, -0.5814559, 6.020342, -0.6564513, 0.16513443, 9.782265
189100744475726, -7.60798, 0.7286145, 6.2691956, 0.61576, -0.24137497, 9.862943
189100754116143, -7.771888, -0.3074777, 6.067002, -0.38238174, 0.13069344, 9.856063
189100763756455, -7.688139, 0.3074777, 6.3565335, 0.19847637, -0.21057415, 9.976162
189100773396768, -7.68455, 0.17108682, 6.2177496, 0.082588375, -0.09026432, 9.885698
189100783037184, -7.713264, -0.23449662, 6.2033925, -0.3246892, -0.014037609, 9.895752
189100792677497, -7.517052, 0.60658056, 6.038288, 0.51686394, -0.09484577, 9.646698
189100802317809, -7.6749787, -0.56590253, 5.9748783, -0.64276505, 0.18179464, 9.720007
189100811958226, -7.4907312, 0.8386843, 6.215357, 0.71923, -0.2753687, 9.739199
189100821598538, -7.6570325, -0.67836523, 6.064609, -0.75400335, 0.11588144, 9.761551
189100831238851, -7.4679995, 0.7477571, 6.276374, 0.6162398, -0.32533026, 9.758968
189100840879268, -7.649854, -0.3912265, 5.986842, -0.47383437, 0.14390469, 9.709293
189100850519580, -7.5996046, 0.3385844, 6.1639113, 0.24227089, -0.10602474, 9.787364
189100860159893, -7.6917286, 0.08015956, 5.9724855, 0.0044643283, 0.12832594, 9.73772
189100869800309, -7.7790666, -0.21894327, 6.253642, -0.3133851, -0.0020952225, 9.978558
189100879440622, -7.6019974, 0.55034924, 6.2404814, 0.44737673, -0.1861968, 9.838801
189100889080934, -7.7611203, -0.6089734, 6.096912, -0.6938502, 0.14222813, 9.862886
189100898721351, -7.524231, 0.79920274, 6.0490556, 0.69695896, -0.115866184, 9.661505
189100908361663, -7.704889, -0.6329016, 5.7284174, -0.6919913, 0.3927803, 9.588926
189100918001976, -7.521838, 0.79800636, 5.9844494, 0.7089923, -0.07602358, 9.618735
189100927642393, -7.68455, -0.40797627, 5.899504, -0.47192183, 0.22043228, 9.682541
189100937282705, -7.59123, 0.4127619, 6.24766, 0.2948857, -0.19565296, 9.833879
189100946923018, -7.6773715, 0.040677983, 6.064609, -0.045488358, 0.043883324, 9.783617
189100956563434, -7.739585, -0.10887343, 6.2440705, -0.20569369, -0.043426037, 9.9426985
189100966203747, -7.676175, 0.48454657, 6.2919273, 0.38270074, -0.17557669, 9.928219
189100975844059, -7.786245, -0.5347959, 6.401997, -0.64216787, -0.09176731, 10.073549
189100985484476, -7.560123, 0.8422736, 6.465407, 0.7149005, -0.4061551, 9.9493885
189100995124788, -7.7216387, -0.62452674, 6.0957155, -0.72217643, 0.11277056, 9.830423
189101004765101, -7.519445, 0.8386843, 6.0717874, 0.73391616, -0.1368556, 9.672368
189101014405518, -7.6546397, -0.41515473, 5.7607207, -0.49360338, 0.31408262, 9.571283
189101024045830, -7.515856, 0.50129634, 6.056234, 0.39325023, -0.099853516, 9.656747
189101033686143, -7.62114, -0.049052864, 5.948557, -0.14383098, 0.107325554, 9.666298
189101043326559, -7.658229, -0.10289137, 6.1387863, -0.20803756, -0.013777256, 9.813271
189101052966872, -7.6067834, 0.39840496, 5.9724855, 0.30270076, 0.025780678, 9.674718
189101062607184, -7.797013, -0.5240282, 5.905486, -0.5935606, 0.30434084, 9.772299
189101072247601, -7.605587, 0.77407813, 6.087341, 0.6708361, -0.117610455, 9.748641
189101081887913, -7.795816, -0.6520442, 6.040681, -0.72902095, 0.20199919, 9.854818
189101091528226, -7.5517483, 0.8673982, 6.229714, 0.7350875, -0.26242352, 9.7970085
189101101168643, -7.7300134, -0.4546363, 5.907879, -0.5247231, 0.2483468, 9.722439
189101110808955, -7.5661054, 0.5168497, 6.135197, 0.39308947, -0.13998556, 9.7457485
189101120449372, -7.6343007, -0.09930214, 5.9437714, -0.19568855, 0.11785364, 9.673089
189101130089684, -7.6510506, 0.010767702, 6.1064835, -0.10069269, -0.010573387, 9.788646
189101139729997, -7.617551, 0.40558344, 5.9294147, 0.30986875, 0.062069416, 9.656588
189101149370413, -7.733603, -0.45822555, 5.9724855, -0.547398, 0.19187307, 9.764872
189101159010726, -7.59123, 0.74895346, 6.198607, 0.62372494, -0.20235968, 9.807164
189101168651038, -7.812566, -0.6376872, 6.1591253, -0.7290942, 0.107096195, 9.94156
189101178291455, -7.605587, 0.8578269, 6.3314085, 0.73643035, -0.29832935, 9.901324
189101187931768, -7.7742805, -0.5096712, 6.1268225, -0.61148244, 0.10806322, 9.891995
189101197572080, -7.6019974, 0.6053841, 6.3948183, 0.47342926, -0.32490492, 9.935838
189101207212497, -7.6773715, -0.09571291, 6.1040907, -0.20501119, 0.023199081, 9.806558
189101216852809, -7.631908, 0.1160519, 6.1998034, -0.002659142, -0.10313034, 9.832926
189101226493226, -7.54457, 0.3696911, 5.99761, 0.26235002, -0.026573658, 9.641525
189101236133538, -7.672586, -0.39361933, 5.9820566, -0.4880266, 0.15211964, 9.723538
189101245773851, -7.520642, 0.74895346, 6.0394845, 0.628146, -0.11453152, 9.653428
189101255414268, -7.732406, -0.68075806, 5.8863435, -0.7656745, 0.29501534, 9.707178
189101265054580, -7.5385876, 0.78364944, 6.067002, 0.65500593, -0.14995909, 9.685113
189101274694893, -7.7096744, -0.587438, 5.9234324, -0.67493916, 0.24564075, 9.713668
189101284335309, -7.585248, 0.60777694, 6.29432, 0.474083, -0.2716341, 9.860289
189101293975622, -7.7276206, -0.18544376, 6.0658054, -0.28048772, 0.08997393, 9.821291
189101303616038, -7.6797643, 0.18065812, 6.145965, 0.061965466, -0.04149103, 9.83762
189101313256351, -7.597212, 0.36011982, 5.9521465, 0.25930613, 0.038062096, 9.654362
189101322896663, -7.7144604, -0.2644069, 6.04427, -0.36118898, 0.11565924, 9.796539
189101332537080, -7.556534, 0.8135597, 6.242874, 0.6826557, -0.27242994, 9.807974
189101342177393, -7.732406, -0.573081, 6.1268225, -0.6704282, 0.0870409, 9.858977
189101351817705, -7.542177, 0.8279166, 6.1208405, 0.71292603, -0.18097448, 9.72078
189101361458122, -7.728817, -0.62811595, 5.749953, -0.68529963, 0.3896308, 9.621313
189101371098434, -7.6199436, 0.6376872, 6.0155563, 0.52590555, -0.038825512, 9.714888
189101380738851, -7.732406, -0.2536392, 5.9557357, -0.3441701, 0.18338203, 9.755672
189101390379163, -7.688139, 0.2321038, 6.32423, 0.105294764, -0.18867302, 9.955427
189101400019476, -7.6893353, 0.25722843, 6.1124654, 0.14882797, -0.023953915, 9.825047
189101409659893, -7.737192, -0.25842485, 6.108876, -0.35966372, 0.06963158, 9.854697
189101419300205, -7.578069, 0.6891329, 6.108876, 0.5766584, -0.13663912, 9.740083
189101428940518, -7.7503524, -0.56590253, 6.151947, -0.6645752, 0.0737772, 9.888759
189101438580934, -7.5266237, 0.8877372, 6.2727847, 0.75769687, -0.32156372, 9.803493
189101448221247, -7.688139, -0.66759753, 5.928218, -0.7452642, 0.22093487, 9.700139
189101457861663, -7.5254273, 0.63888365, 6.1064835, 0.52435374, -0.16934729, 9.696688
189101467501976, -7.6953177, -0.38404804, 5.864808, -0.4630694, 0.2545886, 9.668615
189101477142393, -7.6678, 0.21655045, 6.1878395, 0.09810513, -0.087094784, 9.854654
189101486782705, -7.6606216, 0.19142582, 6.0634127, 0.09142125, 0.005707264, 9.771303
189101496423018, -7.759924, -0.18903299, 6.1363935, -0.2944271, 0.062183857, 9.890245
189101506063434, -7.6331043, 0.7046863, 6.1005015, 0.5888279, -0.10379839, 9.778521
189101515703747, -7.789834, -0.4989035, 6.0777693, -0.6020975, 0.1635766, 9.873218
189101525344163, -7.5720873, 0.91884387, 6.2668023, 0.7709814, -0.2916174, 9.837384
189101534984476, -7.739585, -0.64008003, 6.0023956, -0.74113244, 0.20640755, 9.785077
189101544624788, -7.537391, 0.67477596, 6.134001, 0.5389364, -0.17508507, 9.724835
189101554265205, -7.6797643, -0.4031906, 5.889933, -0.48783737, 0.21726608, 9.671994
189101563905518, -7.645068, 0.29072794, 6.166304, 0.1655389, -0.09266901, 9.824404
189101573545934, -7.645068, 0.12203395, 6.0119667, 0.017617226, 0.04496479, 9.726426
189101583186247, -7.670193, -0.18783657, 6.101698, -0.29726306, 0.022318363, 9.798418
189101592826559, -7.578069, 0.6089734, 6.0454664, 0.49380755, -0.077203274, 9.7003
189101602466976, -7.708478, -0.485743, 6.0251274, -0.58128595, 0.14171696, 9.777564
189101612107288, -7.521838, 0.90448695, 6.141179, 0.7816877, -0.20740366, 9.718857
189101621747705, -7.722835, -0.6197411, 5.962914, -0.7216198, 0.20992517, 9.747707
189101631388018, -7.5433736, 0.8135597, 6.2105713, 0.6737673, -0.23694515, 9.778827
189101641028434, -7.716853, -0.3481557, 5.9964137, -0.44051486, 0.15052748, 9.767872
189101650668747, -7.63789, 0.38404804, 6.235696, 0.2660858, -0.15519762, 9.862751
189101660309059, -7.690532, 0.0, 5.9964137, -0.09339914, 0.10125446, 9.751015
189101669949476, -7.702496, -0.15314065, 6.15434, -0.25757122, 0.0022292137, 9.857052
189101679589788, -7.624729, 0.5168497, 6.1196437, 0.41174424, -0.08202267, 9.781483
189101689230205, -7.746763, -0.5312066, 6.113662, -0.62529695, 0.09462452, 9.862628
189101698870518, -7.5661054, 0.8362915, 6.2679987, 0.70529395, -0.26810837, 9.831777
189101708510934, -7.780263, -0.6305088, 6.050252, -0.7131364, 0.18802595, 9.8484335
189101718151247, -7.5457664, 0.8207382, 6.2213387, 0.68526185, -0.24980545, 9.786995
189101727791663, -7.696514, -0.4139583, 6.007181, -0.50050044, 0.14399862, 9.758212
189101737431976, -7.631908, 0.50368917, 6.2548385, 0.38293386, -0.19354677, 9.8711
189101747072288, -7.670193, 0.031106694, 5.948557, -0.06063819, 0.12249994, 9.705641
189101756712705, -7.645068, -0.058624156, 6.0323057, -0.15962571, 0.05189705, 9.737097
189101766353018, -7.585248, 0.46779683, 5.985646, 0.36690885, -0.015746593, 9.666845
189101775993434, -7.749156, -0.48933223, 6.0622163, -0.57686776, 0.14471197, 9.832885
189101785633747, -7.5529447, 0.81236327, 6.222535, 0.6908713, -0.2526784, 9.792124
189101795274163, -7.763513, -0.6628119, 6.0981083, -0.75032985, 0.13851452, 9.864898
189101804914476, -7.576873, 0.80159557, 6.257231, 0.67641693, -0.2627511, 9.832492
189101814554893, -7.739585, -0.31226337, 6.0622163, -0.40137133, 0.11541653, 9.827244
189101824195205, -7.665407, 0.24047868, 6.192625, 0.12589306, -0.08842325, 9.856026
189101833835518, -7.6809607, 0.083748795, 6.192625, -0.03179264, -0.061243057, 9.866509
189101843475934, -7.665407, 0.09810573, 6.064609, -0.006352246, 0.02536583, 9.77481
189101853116247, -7.6606216, 0.07178468, 5.895915, -0.01643312, 0.1564765, 9.66578
189101862756663, -7.664211, 0.0741775, 5.838487, -0.006516397, 0.19571781, 9.633028
189101872396976, -7.661818, 0.08015956, 5.85763, -6.940961E-4, 0.17865181, 9.643123
189101882037393, -7.6809607, 0.10887343, 5.956932, 0.017641664, 0.1068902, 9.7202015
189101891677705, -7.6630144, 0.14117654, 6.088537, 0.03284931, -0.01073885, 9.7883
189101901318122, -7.6462646, 0.14476576, 6.186643, 0.023025751, -0.09749937, 9.836201
189101910958434, -7.6737823, 0.1902294, 6.2691956, 0.05986035, -0.14825773, 9.90961
189101920598851, -7.676175, 0.1794617, 6.2847486, 0.046165943, -0.15125275, 9.921134
189101930239163, -7.655836, 0.14356937, 6.270392, 0.008856118, -0.14527464, 9.895912
189101939879580, -7.645068, 0.10887343, 6.202196, -0.018879294, -0.09332609, 9.844648
189101949519893, -7.6713896, 0.12323037, 6.0717874, 0.012220681, 0.020165443, 9.784246
189101959160309, -7.6678, 0.08255238, 5.8863435, -0.0077847242, 0.16384411, 9.665614
189101968800622, -7.6737823, 0.038285162, 5.8504515, -0.047070563, 0.20140076, 9.647455
189101978440934, -7.6307116, 0.07178468, 5.9557357, -0.028255641, 0.08332682, 9.6796665
189101988081351, -7.629515, 0.08853444, 6.0514483, -0.022379339, 0.0061364174, 9.7384205
189101997721663, -7.649854, 0.10049855, 6.113662, -0.015194058, -0.030437946, 9.793164
189102007362080, -7.628319, 0.11365908, 6.1292152, -0.00482285, -0.056047916, 9.786126
189102017002393, -7.658229, 0.12203395, 6.1507506, 0.0029889345, -0.05209446, 9.823053
189102026642809, -7.676175, 0.14596218, 6.2105713, 0.021669447, -0.08908033, 9.874601
189102036283122, -7.696514, 0.15672988, 6.178268, 0.037769794, -0.05185938, 9.870551
189102045923538, -7.690532, 0.13040884, 6.134001, 0.016102135, -0.018822193, 9.83802
189102055563851, -7.6713896, 0.10049855, 6.053841, -0.006487727, 0.035273075, 9.772821
189102065204268, -7.655836, 0.08015956, 6.007181, -0.022677481, 0.06294918, 9.731392
189102074844580, -7.670193, 0.08973085, 5.986842, -0.009546578, 0.08520889, 9.730101
189102084484997, -7.6127653, 0.106480606, 6.0107703, 0.0026832223, 0.027421951, 9.700213
189102094125309, -7.598408, 0.11964113, 6.0550375, 0.0105884075, -0.017411709, 9.716645
189102103765726, -7.63789, 0.10767702, 6.0215383, 0.0052117705, 0.03495264, 9.726593
189102113406038, -7.6510506, 0.12083755, 5.9712887, 0.023663044, 0.08077097, 9.705791
189102123046455, -7.635497, 0.12801601, 6.0430737, 0.025194228, 0.014676571, 9.738331
189102132686768, -7.670193, 0.09930214, 6.1675005, -0.012717545, -0.057512283, 9.842578
189102142327184, -7.6809607, 0.09332009, 6.166304, -0.015764654, -0.044896126, 9.850224
189102151967497, -7.7096744, 0.1363909, 6.157929, 0.029218614, -0.025745869, 9.867941
189102161607913, -7.682157, 0.12921242, 6.2009997, 0.017244697, -0.07491875, 9.873131
189102171248226, -7.6917286, 0.07537391, 6.218946, -0.036575973, -0.0756259, 9.891237
189102180888643, -7.6797643, 0.061016977, 6.1806607, -0.048724115, -0.04870367, 9.857906
189102190528955, -7.6331043, 0.08733802, 6.1304116, -0.020631015, -0.04143858, 9.79039
189102200169372, -7.645068, 0.1052842, 6.0729837, 0.0027691722, 0.008181572, 9.764181
189102209809684, -7.649854, 0.11964113, 5.956932, 0.027867377, 0.09980106, 9.695819
189102219450101, -7.6163545, 0.104087785, 5.8863435, 0.015316486, 0.13403606, 9.625514
189102229090518, -7.641479, 0.09810573, 5.9318075, 0.008378327, 0.11050701, 9.673464
189102238730830, -7.6630144, 0.13519448, 6.0550375, 0.03776723, 0.02412653, 9.767371
189102248371247, -7.665407, 0.09092726, 6.1328044, -0.011928141, -0.029659271, 9.817181
189102258011559, -7.678568, 0.0634098, 6.1387863, -0.038666785, -0.022408485, 9.830927
189102267651976, -7.664211, 0.09332009, 6.1232333, -0.008679688, -0.022069454, 9.810314
189102277292288, -7.6630144, 0.1160519, 6.1208405, 0.013832629, -0.022529125, 9.808123
189102286932705, -7.6630144, 0.10887343, 6.13759, 0.003931999, -0.032989025, 9.818481
189102296573018, -7.6630144, 0.15314065, 6.1603217, 0.044050515, -0.053747654, 9.833107
189102306213434, -7.672586, 0.16630118, 6.1842504, 0.051960707, -0.06523609, 9.85567
189102315853747, -7.6666036, 0.15433706, 6.1447687, 0.042612612, -0.03685808, 9.826273
189102325494163, -7.6630144, 0.14117654, 6.0346985, 0.040611804, 0.04768324, 9.754763
189102335134476, -7.6366935, 0.124426775, 5.9413786, 0.030568898, 0.104423046, 9.675883
189102344774893, -7.6067834, 0.1160519, 5.966503, 0.017102659, 0.06622982, 9.668045
189102354415205, -7.600801, 0.124426775, 6.023931, 0.0183087, 0.016629696, 9.699215
189102364055622, -7.62114, 0.11365908, 6.040681, 0.0076259375, 0.01824665, 9.725437
189102373695934, -7.605587, 0.083748795, 6.0454664, -0.02307719, 0.009750843, 9.715916
189102383336351, -7.652247, 0.059820566, 6.1184473, -0.051420033, -0.015057564, 9.797602
189102392976768, -7.6713896, 0.023928227, 6.0777693, -0.08027738, 0.033554554, 9.786854
189102402617080, -7.661818, 0.059820566, 6.013163, -0.03685707, 0.07453346, 9.73952
189102412257497, -7.6666036, 0.062213387, 6.033502, -0.0345276, 0.06198311, 9.755962
189102421897809, -7.6630144, 0.069391854, 6.15434, -0.035689652, -0.032170296, 9.82854
189102431538226, -7.6510506, 0.09212367, 6.2009997, -0.016173244, -0.076509, 9.84852
189102441178538, -7.635497, 0.11724831, 6.1794643, 0.010739207, -0.07240963, 9.823187
189102450818955, -7.6606216, 0.14476576, 6.151947, 0.04710275, -0.036386013, 9.825936
189102460459268, -7.6402826, 0.13519448, 6.1268225, 0.03986305, -0.028457642, 9.7942705
189102470099684, -7.6606216, 0.11724831, 6.168697, 0.019538462, -0.04649353, 9.836114
189102479739997, -7.6426754, 0.07058827, 6.2213387, -0.030958235, -0.09033871, 9.85451
189102489380413, -7.62114, 0.050249275, 6.1627145, -0.047265887, -0.05604744, 9.800917
189102499020830, -7.6307116, 0.06699903, 6.0717874, -0.023280501, 0.022386074, 9.75181
189102508661143, -7.631908, 0.07058827, 6.108876, -0.022837818, -0.006103039, 9.77593
189102518301559, -7.6678, 0.086141616, 6.1363935, -0.010355651, -0.0040245056, 9.821293
189102527941872, -7.696514, 0.106480606, 6.0729837, 0.017105877, 0.060913563, 9.804326
189102537582288, -7.6953177, 0.12562318, 6.105287, 0.032638967, 0.032562733, 9.823752
189102547222601, -7.6594253, 0.13160525, 6.151947, 0.030182183, -0.026560783, 9.824915
189102556863018, -7.652247, 0.14596218, 6.0957155, 0.04843533, 0.011711121, 9.784347
189102566503330, -7.609176, 0.17587246, 5.98086, 0.086212575, 0.07074976, 9.679296
189102576143747, -7.6127653, 0.14955142, 5.834898, 0.072129846, 0.18842983, 9.590719
189102585784163, -7.5864444, 0.18305093, 5.7655063, 0.108520925, 0.21958065, 9.527263
189102595424476, -7.5732837, 0.17706887, 5.9521465, 0.08379209, 0.0640893, 9.633427
189102605064893, -7.605587, 0.10887343, 6.222535, -0.0094463825, -0.11767101, 9.826639
189102614705205, -7.658229, 0.076570325, 6.381658, -0.0556463, -0.19496012, 9.966885
189102624345622, -7.6713896, 0.07058827, 6.3194447, -0.056111157, -0.13337326, 9.9382925
189102633985934, -7.658229, 0.09810573, 6.2440705, -0.023629844, -0.08327246, 9.881245
189102643626351, -7.665407, 0.14356937, 6.2679987, 0.019725382, -0.102323055, 9.902325
189102653266768, -7.678568, 0.12323037, 6.2416778, 0.0015383959, -0.06912184, 9.895926
189102662907080, -7.661818, 0.06580263, 6.155536, -0.047992468, -0.0032019615, 9.828332
189102672547497, -7.645068, 0.059820566, 6.0861444, -0.04538566, 0.039824486, 9.771805
189102682187809, -7.628319, 0.06819545, 6.04427, -0.03415501, 0.060703278, 9.732639
189102691828226, -7.587641, 0.0526421, 5.99761, -0.045895457, 0.07144165, 9.671566
189102701468538, -7.617551, 0.029910283, 6.0251274, -0.068387985, 0.06973314, 9.71188
189102711108955, -7.6534433, 0.047856454, 6.084948, -0.053932488, 0.042873383, 9.777491
189102720749372, -7.6366935, 0.06819545, 6.087341, -0.03801465, 0.02874279, 9.766127
189102730389684, -7.617551, 0.15433706, 6.1363935, 0.03911048, -0.029162407, 9.782835
189102740030101, -7.648658, 0.18065812, 6.233303, 0.05577576, -0.08420944, 9.868053
189102749670413, -7.6331043, 0.16031912, 6.2751775, 0.02709955, -0.12260628, 9.8819065
189102759310830, -7.623533, 0.17706887, 6.283552, 0.04232496, -0.13706112, 9.879882
189102768951143, -7.6366935, 0.17228323, 6.235696, 0.042759, -0.090103626, 9.860159
189102778591559, -7.647461, 0.11365908, 6.1531434, -0.0064646006, -0.010779381, 9.816191