timestamp_acc,device_acc_x,device_acc_y,device_acc_z,earth_acc_x,earth_acc_y,earth_acc_z
783892838008262, 5.9042897, 0.38165522, 8.063812, 0.034696817, 0.008756638, 10.001506
783892847648679, 5.899504, 0.3912265, 8.07458, 0.023002148, 0.0023174286, 10.007773
783892857288992, 5.8947186, 0.39481574, 8.072187, 0.018588305, 0.0013341904, 10.003171
783892866929304, 5.9150577, 0.39601216, 8.087741, 0.020659447, 0.009469509, 10.027749
783892876569617, 5.910272, 0.4139583, 8.140383, -0.007496834, -0.016884327, 10.068175
783892886209929, 5.901897, 0.4019942, 8.143971, -0.0011483431, -0.02891016, 10.065657
783892895850242, 5.918647, 0.40797627, 8.148758, -0.00283432, -0.01473856, 10.079626
783892905490554, 5.9090757, 0.424726, 8.161918, -0.024156094, -0.022409916, 10.085304
783892915130971, 5.910272, 0.41754755, 8.147561, -0.013239861, -0.016239166, 10.074124
783892924771283, 5.910272, 0.4223332, 8.087741, -0.0053789616, 0.018733501, 10.02601
783892934411596, 5.9138613, 0.41156548, 8.098508, 0.0052167177, 0.0102458, 10.036375
783892944051908, 5.9234324, 0.40558344, 8.085348, 0.016690016, 0.022170067, 10.031133
783892953692221, 5.907879, 0.40558344, 8.087741, 0.011125445, 0.009899139, 10.023915
783892963332533, 5.9066825, 0.4103691, 8.109276, 0.0017387867, -6.67572E-4, 10.0408
783892972972846, 5.919843, 0.41156548, 8.123632, 0.0021795034, 0.0015082359, 10.060185
783892982613262, 5.9007006, 0.41156548, 8.13799, -0.007120967, -0.019818783, 10.060521
783892992253575, 5.9234324, 0.4211368, 8.132008, -0.0072547197, 0.0044817924, 10.069452
783893001893887, 5.946164, 0.424726, 8.126026, -0.001928091, 0.02602911, 10.078138
783893011534200, 5.9449677, 0.4139583, 8.097312, 0.014283657, 0.036893368, 10.053799
783893021174512, 5.9114685, 0.4127619, 8.097312, 0.003805995, 0.010796547, 10.034051
783893030814825, 5.918647, 0.39361933, 8.096115, 0.02408123, 0.009586334, 10.036522
783893040455137, 5.905486, 0.40677986, 8.082955, 0.010193229, 0.011936188, 10.01869
783893050095554, 5.8947186, 0.40797627, 8.110473, 2.2995472E-4, -0.010546684, 10.034631
783893059735867, 5.8935223, 0.37447673, 8.122437, 0.029004931, -0.030128002, 10.042213
783893069376179, 5.910272, 0.37328035, 8.12124, 0.036034703, -0.016483784, 10.051052
783893079016492, 5.8887367, 0.38644084, 8.126026, 0.015965104, -0.029718399, 10.042794
783893088656804, 5.889933, 0.4031906, 8.133204, -0.0013657808, -0.02650261, 10.049985
783893098297117, 5.907879, 0.4223332, 8.143971, -0.0164752, -0.011997223, 10.070017
783893107937429, 5.925825, 0.44506502, 8.114061, -0.027232409, 0.026893139, 10.057336
783893117577846, 5.9437714, 0.44745782, 8.088937, -0.017372012, 0.055053234, 10.047697
783893127218158, 5.9246287, 0.44147578, 8.066205, -0.013361454, 0.051466465, 10.017833
783893136858471, 5.925825, 0.43788654, 8.039884, -0.0031821728, 0.06477642, 9.997133
783893146498783, 5.9174504, 0.42951167, 8.026724, 0.0058425665, 0.062250137, 9.981237
783893156139096, 5.8911295, 0.40079778, 8.045866, 0.021719337, 0.021143436, 9.980034
783893165779408, 5.8911295, 0.37328035, 8.082955, 0.040539026, -0.009632111, 10.008854
783893175419721, 5.8827543, 0.36729828, 8.123632, 0.034954667, -0.03988266, 10.036549
783893185060137, 5.899504, 0.38404804, 8.133204, 0.021752954, -0.02461958, 10.054828
783893194700450, 5.9246287, 0.37088752, 8.1679, 0.033811808, -0.026433945, 10.097106
783893204340762, 5.9270215, 0.39601216, 8.166703, 0.011024833, -0.013168335, 10.098572
783893213981075, 5.9342003, 0.40677986, 8.188239, -7.5542927E-4, -0.015865803, 10.120632
783893223621387, 5.9449677, 0.44027936, 8.177471, -0.026061058, 0.0120744705, 10.119621
783893233261700, 5.928218, 0.43788654, 8.170293, -0.02781558, 0.0039868355, 10.103881
783893242902012, 5.8947186, 0.44027936, 8.143971, -0.03529048, -0.0060887337, 10.063028
783893252542325, 5.901897, 0.4534399, 8.114061, -0.038450122, 0.020476341, 10.043611
783893262182742, 5.8947186, 0.44985065, 8.07458, -0.029284954, 0.034719467, 10.00734
783893271823054, 5.866005, 0.40677986, 8.069795, 0.001773715, -0.0015683174, 9.984843
783893281463367, 5.8839507, 0.40558344, 8.080562, 0.0068725348, 0.005534649, 10.004038
783893291103679, 5.8827543, 0.37328035, 8.065009, 0.039463162, 0.0011372566, 9.989441
783893300743992, 5.9030933, 0.36610186, 8.078169, 0.05026269, 0.0066080093, 10.011731
783893310384304, 5.9114685, 0.37208393, 8.09133, 0.04451692, 0.009157181, 10.027536
783893320024617, 5.9090757, 0.37328035, 8.110473, 0.038638234, -0.0019936562, 10.041652
783893329665033, 5.9090757, 0.39601216, 8.132008, 0.013153911, -0.0042471886, 10.059988
783893339305346, 5.910272, 0.38404804, 8.159525, 0.019219756, -0.021893024, 10.08245
783893348945658, 5.9090757, 0.4127619, 8.17149, -0.0101469755, -0.017999172, 10.092588
783893358585971, 5.898308, 0.4211368, 8.158329, -0.01909113, -0.014577389, 10.07597
783893368226283, 5.898308, 0.44506502, 8.136793, -0.03696561, 0.0070791245, 10.059528
783893377866596, 5.907879, 0.4235296, 8.126026, -0.011210203, 0.012763023, 10.055567
783893387506908, 5.916254, 0.4211368, 8.111669, -0.0024814606, 0.026121616, 10.048777
783893397147221, 5.898308, 0.40677986, 8.094919, 0.008738756, 0.016753197, 10.024114
783893406787637, 5.905486, 0.40917268, 8.111669, 0.0048931837, 0.0138168335, 10.041969
783893416427950, 5.8863435, 0.39720857, 8.126026, 0.006103277, -0.012846947, 10.041859
783893426068262, 5.899504, 0.41994038, 8.142776, -0.014714122, -0.0033521652, 10.064049
783893435708575, 5.9042897, 0.424726, 8.145168, -0.017889857, 8.2731247E-4, 10.068985
783893445348887, 5.892326, 0.39361933, 8.120044, 0.012548327, -0.006293297, 10.040386
783893454989200, 5.901897, 0.40677986, 8.115258, 0.0046987534, 0.008345604, 10.042668
783893464629512, 5.9030933, 0.39960137, 8.082955, 0.017680883, 0.024678707, 10.016958
783893474269825, 5.892326, 0.40917268, 8.067402, 0.008344412, 0.0287323, 9.99845
783893483910242, 5.8887367, 0.4103691, 8.086544, 0.0023622513, 0.015512943, 10.011871
783893493550554, 5.8947186, 0.39720857, 8.088937, 0.01562953, 0.014160156, 10.016783
783893503190867, 5.8875403, 0.3924229, 8.084151, 0.01868999, 0.009729862, 10.008506
783893512831179, 5.885147, 0.38285163, 8.106883, 0.022209883, -0.0075879097, 10.025096
783893522471492, 5.889933, 0.38165522, 8.106883, 0.024306774, -0.0038218498, 10.027858
783893532111804, 5.8947186, 0.38285163, 8.132008, 0.0187881, -0.012374401, 10.051037
783893541752117, 5.9066825, 0.38404804, 8.126026, 0.022060275, 0.0012183189, 10.053268
783893551392429, 5.9150577, 0.37328035, 8.147561, 0.030619025, -0.008630753, 10.075169
783893561032742, 5.901897, 0.39481574, 8.160722, 0.00178051, -0.01581955, 10.0789585
783893570673158, 5.912665, 0.39481574, 8.126026, 0.012312293, 0.011307716, 10.057212
783893580313471, 5.9030933, 0.4331009, 8.141579, -0.029822826, 0.010741234, 10.065703
783893589953783, 5.8863435, 0.4331009, 8.126026, -0.032622457, 0.0065603256, 10.043298
783893599594096, 5.877969, 0.4354937, 8.10808, -0.03279078, 0.010288715, 10.023968
783893609234408, 5.892326, 0.4331009, 8.110473, -0.02584219, 0.018478394, 10.034232
783893618874721, 5.8935223, 0.4235296, 8.122437, -0.018835902, 0.009140968, 10.044227
783893628515033, 5.907879, 0.42711884, 8.115258, -0.015954018, 0.024692059, 10.046991
783893638155346, 5.907879, 0.40917268, 8.109276, 0.0020729303, 0.021265507, 10.041432
783893647795658, 5.8839507, 0.38524446, 8.096115, 0.01999414, 0.0012745857, 10.015788
783893657435971, 5.898308, 0.39481574, 8.097312, 0.015770555, 0.014339924, 10.025563
783893667076387, 5.8935223, 0.37806597, 8.116454, 0.026473045, -0.006392956, 10.037561
783893676716700, 5.8947186, 0.3696911, 8.111669, 0.035493612, -0.0061855316, 10.034056
783893686357012, 5.901897, 0.37208393, 8.122437, 0.033939958, -0.0058670044, 10.04707
783893695997325, 5.885147, 0.3900301, 8.129615, 0.010591269, -0.014560699, 10.043775
783893705637637, 5.8863435, 0.40079778, 8.165507, -0.0059728622, -0.029027939, 10.073942
783893715277950, 5.905486, 0.38644084, 8.152347, 0.015422463, -0.012098312, 10.07395
783893724918262, 5.910272, 0.4031906, 8.145168, 0.0022150278, 0.0020012856, 10.071627
783893734558575, 5.8947186, 0.41156548, 8.128419, -0.00794363, 0.0027151108, 10.049291
783893744198887, 5.8971114, 0.40917268, 8.122437, -0.0039972067, 0.0064001083, 10.045758
783893753839200, 5.912665, 0.44985065, 8.12124, -0.037000418, 0.031672, 10.0555525
783893763479512, 5.8911295, 0.44865423, 8.120044, -0.041484714, 0.014452934, 10.041904
783893773119929, 5.907879, 0.45224348, 8.10808, -0.037623644, 0.034867764, 10.042204
783893782760242, 5.905486, 0.46779683, 8.117651, -0.053334475, 0.03228712, 10.049177
783893792400554, 5.901897, 0.45702913, 8.103293, -0.03933549, 0.031597614, 10.035042
783893802040867, 5.912665, 0.43908295, 8.086544, -0.016138315, 0.042423725, 10.027089
783893811681179, 5.8875403, 0.39840496, 8.092526, 0.013346195, 0.0044412613, 10.01552
783893821321492, 5.8935223, 0.39720857, 8.073383, 0.01970315, 0.017901897, 10.003508
783893830961804, 5.877969, 0.37447673, 8.103293, 0.03011775, -0.019445896, 10.017627
783893840602117, 5.8827543, 0.35533416, 8.12124, 0.045755506, -0.03300762, 10.0341625
783893850242429, 5.8839507, 0.3684947, 8.130812, 0.03158319, -0.03335762, 10.04314
783893859882742, 5.8875403, 0.3589234, 8.123632, 0.04225087, -0.030760765, 10.039055
783893869523054, 5.8887367, 0.37088752, 8.1020975, 0.0354985, -0.013358593, 10.02284
783893879163367, 6.003592, 0.6125626, 8.1344, -0.1564871, 0.14551783, 10.126263
783893888803679, 5.7954164, 0.17347965, 8.029117, 0.20194805, -0.120269775, 9.90093
783893898443992, 6.003592, 0.42592242, 8.153543, 0.013464451, 0.06070757, 10.134146
783893908084408, 5.8947186, 0.64845496, 8.032705, -0.20888841, 0.13384247, 9.981534
783893917724721, 5.8875403, -0.01794617, 8.082955, 0.396464, -0.15945435, 9.990747
783893927365033, 6.005985, 1.0731809, 8.133204, -0.57361126, 0.33117485, 10.145634
783893937005346, 5.74756, -0.34456646, 8.066205, 0.6455653, -0.37977266, 9.882098
783893946645658, 6.0634127, 1.2059826, 8.172686, -0.69738185, 0.39612103, 10.21611
783893956285971, 5.7248282, -0.30388847, 8.035098, 0.61145425, -0.37972307, 9.844326
783893965926283, 6.0921264, 0.97507524, 8.213364, -0.4667635, 0.30540514, 10.257339
783893975566596, 5.7786665, 0.033499517, 8.019546, 0.31947803, -0.19892359, 9.877531
783893985206908, 6.005985, 0.47976094, 8.179864, -0.03901887, 0.06350422, 10.159068
783893994847221, 5.879165, 0.55393845, 8.037491, -0.12671459, 0.082686424, 9.972452
783894004487533, 5.885147, -0.07058827, 8.080562, 0.43631983, -0.19198895, 9.985398
783894014127846, 5.9916277, 0.9870393, 8.092526, -0.49271584, 0.30416918, 10.100868
783894023768158, 5.7726846, -0.3684947, 8.047063, 0.6708729, -0.3769474, 9.880422
783894033408471, 6.081359, 1.1928221, 8.143971, -0.6726235, 0.425282, 10.202782
783894043048783, 5.7260246, -0.32662028, 7.995617, 0.627396, -0.3590865, 9.813324
783894052689096, 6.0861444, 1.0707881, 8.195417, -0.57023835, 0.35108852, 10.242274
783894062329408, 5.767899, 0.049052864, 8.036295, 0.29913914, -0.20469332, 9.885429
783894071969721, 6.0215383, 0.58265233, 8.190632, -0.14004457, 0.10945606, 10.1810255
783894081610033, 5.8504515, 0.5180461, 8.04467, -0.10867047, 0.036213875, 9.959907
783894091250346, 5.9007006, -0.0011964113, 8.122437, 0.36787975, -0.18430471, 10.031099
783894100890658, 5.9820566, 0.9870393, 8.100901, -0.49681377, 0.29629755, 10.101942
783894110530971, 5.773881, -0.3589234, 8.068598, 0.6656493, -0.3915248, 9.898102
783894120171283, 6.064609, 1.1688938, 8.1344, -0.6580659, 0.4019251, 10.184286
783894129811700, 5.704489, -0.37328035, 8.002795, 0.6731458, -0.40293646, 9.803561
783894139452012, 6.096912, 1.079163, 8.1679, -0.568257, 0.35232925, 10.227634
783894149092325, 5.767899, -0.015553347, 7.9860454, 0.35797513, -0.20088053, 9.842628
783894158732637, 6.0418773, 0.66041905, 8.160722, -0.2008816, 0.16631031, 10.17201
783894168372950, 5.8600225, 0.48454657, 8.013563, -0.07124865, 0.04564047, 9.939049
783894178013262, 5.9473605, 0.11246266, 8.1020975, 0.2853657, -0.0893302, 10.046806
783894187653575, 6.0011992, 0.9487542, 8.067402, -0.45651877, 0.30378008, 10.084483
783894197293887, 5.797809, -0.30388847, 8.065009, 0.62123454, -0.36290264, 9.911291
783894206934200, 6.0634127, 1.18684, 8.160722, -0.65797293, 0.42113733, 10.205912
783894216574512, 5.716453, -0.39840496, 7.9980097, 0.6812327, -0.44283724, 9.805333
783894226214825, 6.096912, 1.0420742, 8.160722, -0.49782038, 0.40556812, 10.219752
783894235855137, 5.7559347, -0.11964113, 8.029117, 0.42001033, -0.3121748, 9.866001
783894245495450, 6.070591, 0.6879365, 8.188239, -0.20683014, 0.1989789, 10.212257
783894255135762, 5.8468623, 0.40438703, 8.039884, -0.009336591, -0.011872768, 9.949312
783894264776075, 5.930611, 0.148355, 8.136793, 0.22869515, -0.12741566, 10.06643
783894274416387, 5.9653068, 0.910469, 8.093722, -0.42887187, 0.2613964, 10.083152
783894284056700, 5.8157554, -0.23688944, 8.099705, 0.54388523, -0.34255552, 9.953451
783894293697012, 6.0454664, 1.2131611, 8.16431, -0.6889626, 0.40062666, 10.200011
783894303337325, 5.7343993, -0.3696911, 8.01117, 0.6642977, -0.3883934, 9.828872
783894312977637, 6.07418, 1.1365907, 8.12124, -0.6206002, 0.3993368, 10.178282
783894322617950, 5.73081, -0.16031912, 7.9429746, 0.49530566, -0.27757215, 9.779385
783894332258262, 6.0346985, 0.72502524, 8.140383, -0.2583084, 0.19484997, 10.154034
783894341898575, 5.8157554, 0.3074777, 7.9968133, 0.08121407, -0.055567265, 9.892264
783894351538887, 5.9545393, 0.19262223, 8.142776, 0.20259953, -0.08076143, 10.087164
783894361179200, 5.968896, 0.8219346, 8.111669, -0.3632182, 0.20675182, 10.095929
783894370819512, 5.8360944, -0.25244278, 8.1344, 0.5625447, -0.34530926, 9.992823
783894380459825, 6.076573, 1.1449656, 8.203793, -0.6406716, 0.34864807, 10.247238
783894390100137, 5.741578, -0.40917268, 8.048259, 0.7052759, -0.42248344, 9.860615
783894399740450, 6.094519, 1.154537, 8.143971, -0.6421505, 0.40431118, 10.2090435
783894409380762, 5.706882, -0.20219351, 7.9680996, 0.512419, -0.30897665, 9.784782
783894419021075, 6.0514483, 0.7920243, 8.143971, -0.31465054, 0.22036886, 10.169762
783894428661387, 5.8169518, 0.27038896, 7.9776707, 0.11834812, -0.055346966, 9.876041
783894438301700, 5.9784675, 0.27038896, 8.116454, 0.14174092, -0.013059139, 10.08324
783894447941908, 5.9497533, 0.78364944, 8.076973, -0.34050965, 0.18006754, 10.054989
783894457582221, 5.8432727, -0.20578274, 8.1344, 0.5256227, -0.30975056, 9.999123
783894467222533, 6.04427, 1.154537, 8.191829, -0.67253184, 0.34175205, 10.217785
783894476862846, 5.7547383, -0.39481574, 8.048259, 0.6779412, -0.40627098, 9.870295
783894486503158, 6.0933228, 1.154537, 8.155936, -0.6469598, 0.39925385, 10.217773
783894496143471, 5.7200427, -0.21894327, 7.9740815, 0.52939796, -0.3308754, 9.796074
783894505783783, 6.06102, 0.8673982, 8.12124, -0.37855864, 0.28832483, 10.15955
783894515424096, 5.7990055, 0.21415763, 7.984849, 0.15649676, -0.101671696, 9.869008
783894525064408, 5.9557357, 0.3290131, 8.139186, 0.07109451, -0.024521828, 10.090578
783894534704721, 5.912665, 0.715454, 8.066205, -0.28069293, 0.14331341, 10.021769
783894544345033, 5.8743796, -0.1794617, 8.122437, 0.5110223, -0.28387976, 10.0086355
783894553985346, 6.0323057, 1.0755738, 8.188239, -0.5933846, 0.30408525, 10.205306
783894563625658, 5.7583275, -0.43070808, 8.0817585, 0.69413924, -0.45088077, 9.898158
783894573265971, 6.117251, 1.1760724, 8.181061, -0.6526084, 0.41058254, 10.25374
783894582906283, 5.7355957, -0.30388847, 7.9908314, 0.5921571, -0.35870218, 9.816491
783894592546596, 6.0753765, 0.89730847, 8.182257, -0.42091203, 0.27648735, 10.218174
783894602186908, 5.79422, 0.17347965, 8.007581, 0.17760158, -0.1272664, 9.883151
783894611827221, 5.98086, 0.424726, 8.148758, -0.009541392, 0.028812885, 10.116938
783894621467533, 5.8971114, 0.7070791, 8.037491, -0.27482057, 0.14867783, 9.988969
783894631107846, 5.8636117, -0.104087785, 8.111669, 0.43612373, -0.2502923, 9.996954
783894640748158, 6.0251274, 1.1246266, 8.160722, -0.646839, 0.33070946, 10.180204
783894650388367, 5.7583275, -0.35174492, 8.086544, 0.64059305, -0.41794634, 9.904001
783894660028679, 6.0933228, 1.1820544, 8.152347, -0.6640178, 0.4220295, 10.216044
783894669668992, 5.7355957, -0.317049, 7.975278, 0.6257138, -0.36180258, 9.802053
783894679309304, 6.111269, 0.9284152, 8.143971, -0.42380893, 0.33135986, 10.210014
783894688949617, 5.76431, 0.059820566, 7.9776707, 0.28956866, -0.18783617, 9.8364105
783894698589929, 6.003592, 0.4127619, 8.118847, 0.021720171, 0.05128908, 10.105744
783894708230242, 5.8875403, 0.5694918, 8.023134, -0.14598954, 0.0882206, 9.966395
783894717870554, 5.877969, -0.08135597, 8.112865, 0.42049384, -0.24223566, 10.007008
783894727510867, 6.0119667, 1.038485, 8.13799, -0.5440873, 0.31813478, 10.1514435
783894737151179, 5.770292, -0.3900301, 8.097312, 0.6546029, -0.44659042, 9.919017
783894746791492, 6.101698, 1.1952149, 8.191829, -0.66696596, 0.41207886, 10.254299
783894756431804, 5.7391853, -0.32542387, 8.01117, 0.6025256, -0.3920989, 9.833932
783894766072117, 6.108876, 1.0229317, 8.187042, -0.50541615, 0.35055065, 10.247638
783894775712429, 5.749953, 0.039481573, 8.013563, 0.27808654, -0.22870064, 9.856525
783894785352742, 6.0155563, 0.552742, 8.17149, -0.11329162, 0.091379166, 10.16093
783894794992950, 5.8767724, 0.58265233, 8.019546, -0.15834665, 0.09160614, 9.95769
783894804633262, 5.895915, 0.022731815, 8.099705, 0.3407377, -0.17781639, 10.010985
783894814273575, 5.9844494, 1.0025927, 8.109276, -0.5217657, 0.2986517, 10.11028
783894823913887, 5.7762737, -0.34456646, 8.076973, 0.6398196, -0.40735674, 9.906879
783894833554200, 6.0801625, 1.1856437, 8.179864, -0.65778613, 0.40223312, 10.231805
783894843194512, 5.709275, -0.37328035, 8.007581, 0.64469826, -0.42607236, 9.811183
783894852834825, 6.10768, 1.0193424, 8.152347, -0.5035639, 0.36958838, 10.218287
783894862475137, 5.779863, -0.04546363, 8.007581, 0.38125312, -0.24384403, 9.865364
783894872115450, 6.040681, 0.58504516, 8.17149, -0.13245487, 0.11928129, 10.177111
783894881755762, 5.845666, 0.47018966, 8.025527, -0.06898332, 0.014601231, 9.939669
783894891396075, 5.907879, 0.03708875, 8.1020975, 0.33255553, -0.16242981, 10.020551
783894901036283, 5.9712887, 0.9738788, 8.096115, -0.49139774, 0.28187084, 10.091129
783894910676596, 5.7834525, -0.3361916, 8.084151, 0.63666296, -0.39555073, 9.917311
783894920316908, 6.068198, 1.1676974, 8.161918, -0.6399909, 0.40060186, 10.209475
783894929957221, 5.7188463, -0.3912265, 8.021938, 0.66285825, -0.4298544, 9.827798
783894939597533, 6.1160545, 1.0899308, 8.199007, -0.574196, 0.3838725, 10.263563
783894949237846, 5.7523456, -0.0741775, 8.01117, 0.3971231, -0.2763672, 9.850876
783894958878158, 6.0346985, 0.6795616, 8.200203, -0.22841811, 0.14890623, 10.200411
783894968518471, 5.8468623, 0.43788654, 8.04108, -0.042486668, -0.0012316704, 9.951619
783894978158783, 5.946164, 0.12562318, 8.126026, 0.26231503, -0.10810566, 10.066006
783894987799096, 5.9844494, 0.90448695, 8.120044, -0.4353901, 0.24501705, 10.115198
783894997439408, 5.81097, -0.28235307, 8.116454, 0.5863025, -0.36440372, 9.962297
783895007079617, 6.064609, 1.1916257, 8.206185, -0.6903807, 0.37265778, 10.243312
783895016719929, 5.7320065, -0.38404804, 8.04467, 0.674577, -0.43086338, 9.852889
783895026360242, 6.0957155, 1.0983056, 8.165507, -0.5685823, 0.38121605, 10.225994
783895036000554, 5.7583275, -0.14356937, 7.987242, 0.47609317, -0.28005362, 9.832085
783895045640867, 6.046663, 0.73579293, 8.176275, -0.26768088, 0.1942606, 10.190468
783895055281179, 5.8157554, 0.36490545, 7.989635, 0.025262833, -0.026917934, 9.888837
783895064921492, 5.930611, 0.16630118, 8.085348, 0.22932184, -0.08631611, 10.025599
783895074561804, 5.940182, 0.8530413, 8.038688, -0.3743689, 0.24336052, 10.021707
783895084202117, 5.8061843, -0.25603202, 8.076973, 0.5649816, -0.34758997, 9.928484
783895093842325, 6.0634127, 1.1676974, 8.177471, -0.6502831, 0.39512682, 10.2186365
783895103482637, 5.7224355, -0.4103691, 8.065009, 0.69367754, -0.45834827, 9.862442
783895113122950, 6.10768, 1.134198, 8.202596, -0.61171234, 0.39685678, 10.263579
783895122763262, 5.7547383, -0.16271193, 8.037491, 0.4853754, -0.31492472, 9.86965
783895132403575, 6.0777693, 0.7956135, 8.216953, -0.31765592, 0.22145224, 10.244056
783895142043887, 5.8241305, 0.29671, 8.026724, 0.09160721, -0.06748724, 9.920882
783895151684200, 5.946164, 0.24765715, 8.135597, 0.15474558, -0.059177876, 10.078626
783895161324512, 5.9294147, 0.79800636, 8.068598, -0.34190166, 0.19117975, 10.037112
783895170964825, 5.812166, -0.23330021, 8.094919, 0.55238914, -0.3286519, 9.947376
783895180605033, 6.026324, 1.1234303, 8.191829, -0.63473797, 0.32701492, 10.206612
783895190245346, 5.7224355, -0.42711884, 8.1020975, 0.69543195, -0.4709611, 9.892788
783895199885658, 6.099305, 1.1306087, 8.196614, -0.6061008, 0.37450647, 10.254594
783895209525971, 5.7140603, -0.22731815, 8.029117, 0.5199411, -0.35877943, 9.837167
783895219166283, 6.0550375, 0.8673982, 8.248059, -0.3917514, 0.2153635, 10.258972
783895228806596, 5.8013983, 0.27876383, 8.050652, 0.08541429, -0.098074436, 9.9262295
783895238446908, 5.992824, 0.357727, 8.159525, 0.06324196, 0.012687683, 10.129936
783895248087221, 5.940182, 0.8003992, 8.013563, -0.33224928, 0.22830677, 9.999055
783895257727533, 5.852844, -0.13519448, 8.051848, 0.49879944, -0.22576523, 9.940147
783895267367742, 6.026324, 1.1377872, 8.092526, -0.62218976, 0.37411928, 10.127835
783895277008054, 5.7260246, -0.40438703, 7.9920278, 0.71028054, -0.38375378, 9.806712
783895286648367, 6.064609, 1.1437693, 8.115258, -0.61703455, 0.38667727, 10.16931
783895296288679, 5.703293, -0.28953153, 7.999206, 0.59193027, -0.36334038, 9.803891
783895305928992, 6.056234, 0.863809, 8.202596, -0.3939718, 0.23125076, 10.222428
783895315569304, 5.7762737, 0.1160519, 8.063812, 0.22976613, -0.18484735, 9.915488
783895325209617, 5.968896, 0.3361916, 8.215756, 0.06469262, -0.04078293, 10.160392
783895334849929, 5.922236, 0.6795616, 8.098508, -0.2415775, 0.12766838, 10.0521555
783895344490137, 5.879165, -0.11844472, 8.158329, 0.45993412, -0.2566185, 10.042885
783895354130450, 6.0358953, 1.1114662, 8.193025, -0.61417913, 0.32861137, 10.21312
783895363770762, 5.7690954, -0.3481557, 8.132008, 0.64603543, -0.41407394, 9.947079
783895373411075, 6.0921264, 1.2514462, 8.236095, -0.73326325, 0.39543104, 10.286852
783895383051387, 5.7379885, -0.23569304, 8.059027, 0.54476047, -0.35583878, 9.874441
783895392691700, 6.0801625, 0.9810573, 8.218149, -0.49200237, 0.2993536, 10.253641
783895402332012, 5.767899, 0.12921242, 8.014759, 0.22082782, -0.15899897, 9.871559
783895411972325, 5.962914, 0.47018966, 8.127222, -0.040482283, 0.056524754, 10.090805
783895421612637, 5.866005, 0.5982057, 7.999206, -0.1651355, 0.10697842, 9.935616
783895431252846, 5.8301125, -0.106480606, 8.067402, 0.45683897, -0.24268055, 9.94067
783895440893158, 5.9880385, 1.0085747, 8.098508, -0.5136913, 0.30541134, 10.104578
783895450533471, 5.7607207, -0.4211368, 8.073383, 0.7093774, -0.42146063, 9.892519
783895460173783, 6.0825553, 1.1449656, 8.193025, -0.62027776, 0.38432455, 10.242149
783895469814096, 5.710471, -0.35533416, 8.051848, 0.6212269, -0.43334818, 9.848568
783895479454408, 6.068198, 0.98943216, 8.233703, -0.50443494, 0.2970934, 10.2592945
783895489094721, 5.790631, 0.05383851, 8.069795, 0.28749073, -0.21154642, 9.926152
783895498735033, 6.020342, 0.53599226, 8.2014, -0.095258236, 0.09312391, 10.187099
783895508375242, 5.875576, 0.5946164, 8.037491, -0.16513526, 0.0992198, 9.971966
783895518015554, 5.8839507, -0.0071784677, 8.118847, 0.37071824, -0.19157934, 10.018107
783895527655867, 5.989235, 1.012164, 8.127222, -0.5183768, 0.30587053, 10.128419
783895537296179, 5.751149, -0.35174492, 8.111669, 0.63105917, -0.42420197, 9.920707
783895546936492, 6.0861444, 1.2143575, 8.209774, -0.6858139, 0.40794897, 10.260577
783895556576804, 5.7403817, -0.3278167, 8.0614195, 0.6197665, -0.38291454, 9.874979
783895566217117, 6.094519, 1.0456635, 8.239685, -0.5467032, 0.33349657, 10.281968
783895575857429, 5.7463636, -0.0035892338, 8.059027, 0.33187175, -0.24089432, 9.88941
783895585497637, 6.0191455, 0.5982057, 8.207381, -0.15018058, 0.10645771, 10.19388
783895595137950, 5.8540406, 0.51565325, 8.033902, -0.10128236, 0.05127573, 9.953211
783895604778262, 5.889933, 0.034695927, 8.103293, 0.34147227, -0.15078497, 10.010821
783895614418575, 5.977271, 0.95712906, 8.084151, -0.47703314, 0.28725624, 10.084012
783895624058887, 5.770292, -0.357727, 8.075776, 0.6530299, -0.3924799, 9.90262
783895633699200, 6.0430737, 1.1653047, 8.159525, -0.6461816, 0.38257456, 10.192676
783895643339512, 5.7020965, -0.41156548, 7.995617, 0.70413184, -0.4210682, 9.794901
783895652979825, 6.0981083, 1.0372887, 8.185846, -0.52321124, 0.37107658, 10.240093
783895662620033, 5.721239, -0.07776674, 8.04108, 0.38315523, -0.290967, 9.857287
783895672260346, 6.026324, 0.634098, 8.22772, -0.19091105, 0.12769508, 10.215737
783895681900658, 5.845666, 0.44027936, 8.097312, -0.050238013, -0.013877869, 9.996469
783895691540971, 5.9210396, 0.10767702, 8.206185, 0.2555784, -0.15796375, 10.115409
783895701181283, 5.9784675, 0.9499506, 8.200203, -0.4862057, 0.24026394, 10.178098
783895710821596, 5.81097, -0.27996024, 8.221739, 0.5593492, -0.40452242, 10.048197
783895720461908, 6.068198, 1.2023934, 8.268398, -0.6936871, 0.37497854, 10.296279
783895730102221, 5.7284174, -0.38524446, 8.080562, 0.6625227, -0.44146967, 9.880528
783895739742533, 6.1028943, 1.1114662, 8.19781, -0.5967188, 0.39859962, 10.255234
783895749382846, 5.743971, -0.11485548, 8.002795, 0.43569934, -0.25758505, 9.838442
783895759023054, 6.0323057, 0.6963114, 8.153543, -0.23539436, 0.18992853, 10.161809
783895768663367, 5.802595, 0.37806597, 7.9597244, 0.019967914, -0.0024838448, 9.857479
783895778303679, 5.899504, 0.15672988, 8.059027, 0.2356993, -0.074913025, 9.985764
783895787943992, 5.928218, 0.8650054, 8.026724, -0.40024078, 0.23976564, 10.00513
783895797584304, 5.7930236, -0.2943172, 8.098508, 0.5987786, -0.35511637, 9.937149
783895807224617, 6.068198, 1.1521441, 8.195417, -0.6563728, 0.3703761, 10.234614
783895816864929, 5.7403817, -0.424726, 8.086544, 0.699695, -0.4352417, 9.891691
783895826505242, 6.0933228, 1.099502, 8.260024, -0.6131867, 0.33523846, 10.299375
783895836145554, 5.757131, -0.1794617, 8.099705, 0.48434806, -0.33892536, 9.921315
783895845785762, 6.056234, 0.7609176, 8.270791, -0.31581438, 0.16829729, 10.273018
783895855426075, 5.8337016, 0.31944183, 8.110473, 0.044933677, -0.08197546, 9.995257
783895865066387, 5.959325, 0.24526432, 8.172686, 0.14764154, -0.05812645, 10.116388
783895874706700, 5.9342003, 0.86261255, 8.0614195, -0.40604615, 0.22802639, 10.036357
783895884347012, 5.8133626, -0.18903299, 8.078169, 0.51332724, -0.28250837, 9.937023
783895893987325, 6.0358953, 1.1892328, 8.122437, -0.6880963, 0.39635658, 10.158234
783895903627637, 5.7248282, -0.38524446, 8.001599, 0.6768143, -0.38456678, 9.815381
783895913267950, 6.081359, 1.1724831, 8.13799, -0.6548611, 0.39757013, 10.197924
783895922908262, 5.7284174, -0.20817557, 8.009974, 0.5246155, -0.32251072, 9.830491
783895932548575, 6.0801625, 0.79441714, 8.190632, -0.32402456, 0.23136902, 10.223865
783895942188783, 5.8097734, 0.22253251, 8.030313, 0.14865601, -0.104766846, 9.912408
783895951829096, 5.956932, 0.2620141, 8.170293, 0.13262248, -0.058312893, 10.113672
783895961469408, 5.9066825, 0.7429714, 8.087741, -0.30564392, 0.14818001, 10.036787
783895971109721, 5.828916, -0.20817557, 8.130812, 0.5202682, -0.3245349, 9.987678
783895980750033, 6.0490556, 1.1186446, 8.208578, -0.6146575, 0.34584665, 10.2335615
783895990390346, 5.7463636, -0.39481574, 8.105687, 0.6568228, -0.45404673, 9.911669
783896000030658, 6.1184473, 1.1688938, 8.232507, -0.6369624, 0.406569, 10.295866
783896009670971, 5.7463636, -0.23330021, 8.030313, 0.53222513, -0.33373976, 9.857302
783896019311283, 6.068198, 0.8997013, 8.2014, -0.41156864, 0.26439095, 10.23016
783896028951596, 5.784649, 0.20338993, 8.014759, 0.16078556, -0.124722004, 9.8842535
783896038591908, 5.966503, 0.36490545, 8.117651, 0.053055167, 0.017210007, 10.080946
783896048232117, 5.9150577, 0.70588267, 8.009974, -0.25571334, 0.17429447, 9.977479
783896057872429, 5.849255, -0.14955142, 8.073383, 0.49700415, -0.23960209, 9.955463
783896067512742, 6.023931, 1.0863415, 8.141579, -0.59127414, 0.3252921, 10.16355
783896077153054, 5.749953, -0.424726, 8.106883, 0.7026634, -0.44551516, 9.913207
783896086793367, 6.084948, 1.160519, 8.242078, -0.6499692, 0.35440588, 10.283831
783896096433679, 5.74756, -0.29910284, 8.079366, 0.5810305, -0.3956294, 9.894742
783896106073992, 6.0933228, 0.9164511, 8.275578, -0.4324968, 0.242692, 10.305713
783896115714304, 5.802595, 0.1160519, 8.065009, 0.23591816, -0.17888069, 9.931783
783896125354617, 6.0215383, 0.4354937, 8.191829, -0.0068114996, 0.045173645, 10.176077
783896134994929, 5.9246287, 0.68075806, 8.026724, -0.22515607, 0.17210674, 9.995632
783896144635242, 5.851648, -0.078963146, 8.084151, 0.42931914, -0.23454857, 9.968059
783896154275554, 6.013163, 1.0779666, 8.088937, -0.56478274, 0.36064577, 10.114446
783896163915762, 5.7343993, -0.39481574, 8.018349, 0.68889034, -0.42277455, 9.83259
783896173556075, 6.0717874, 1.1832508, 8.151151, -0.6619775, 0.4153309, 10.202805
783896183196387, 5.710471, -0.3397808, 8.036295, 0.61395156, -0.42192364, 9.83626
783896192836700, 6.0861444, 0.95712906, 8.216953, -0.4534663, 0.28999853, 10.256016
783896202477012, 5.7930236, 0.06819545, 8.067402, 0.2748021, -0.21140146, 9.926053
783896212117325, 6.0167527, 0.51445687, 8.237292, -0.08627105, 0.044013023, 10.213206
783896221757637, 5.9066825, 0.5922236, 8.10449, -0.17428994, 0.06889486, 10.044267
783896231397950, 5.901897, -0.013160525, 8.151151, 0.3671528, -0.20723772, 10.054654
783896241038262, 6.033502, 1.0755738, 8.147561, -0.57924306, 0.33898783, 10.17312
783896250678575, 5.7667027, -0.3290131, 8.047063, 0.62594795, -0.37852, 9.878424
783896260318887, 6.078966, 1.2011969, 8.099705, -0.662938, 0.45355654, 10.1664505
783896269959200, 5.7152567, -0.33499518, 7.9477606, 0.632959, -0.36914706, 9.767618
783896279599512, 6.099305, 1.012164, 8.1344, -0.49045932, 0.3680582, 10.198944
783896289239825, 5.7583275, 0.0011964113, 7.9800634, 0.34667182, -0.21959066, 9.83216
783896298880137, 6.020342, 0.5312066, 8.191829, -0.09189618, 0.07943869, 10.179294
783896308520346, 5.8839507, 0.485743, 8.060223, -0.07160282, 0.03273344, 9.990887
783896318160658, 5.9042897, -0.013160525, 8.183454, 0.36430216, -0.22678137, 10.081944
783896327800971, 6.003592, 0.9523434, 8.187042, -0.48603284, 0.24691105, 10.1823635
783896337441283, 5.808577, -0.34576288, 8.157132, 0.6295984, -0.41823196, 9.991327
783896347081596, 6.0933228, 1.2083755, 8.23131, -0.70418143, 0.38700294, 10.280933
783896356721908, 5.7463636, -0.32542387, 8.055437, 0.6192893, -0.3790555, 9.873676
783896366362221, 6.1304116, 1.1210374, 8.2253275, -0.60040903, 0.37219524, 10.29542
783896376002533, 5.76431, 0.0047856453, 8.055437, 0.33389974, -0.2403264, 9.896873
783896385642846, 6.029913, 0.6795616, 8.189436, -0.22350919, 0.14421701, 10.1891
783896395283158, 5.8468623, 0.485743, 8.013563, -0.075835586, 0.030694962, 9.931377
783896404923471, 5.9066825, 0.076570325, 8.114061, 0.3020258, -0.14244556, 10.0310135
783896414563783, 5.956932, 0.93320084, 8.087741, -0.46465302, 0.241508, 10.074384
783896424204096, 5.7870417, -0.34217364, 8.079366, 0.64947927, -0.38825226, 9.915167
783896433844408, 6.087341, 1.1593226, 8.170293, -0.6290542, 0.3994913, 10.227324
783896443484721, 5.7451673, -0.4139583, 8.039884, 0.69881046, -0.41771603, 9.856735
783896453125033, 6.1160545, 1.0624132, 8.200203, -0.5503447, 0.36955404, 10.263466
783896462765346, 5.761917, -0.111266255, 8.053044, 0.4360435, -0.29130125, 9.888811
783896472405658, 6.050252, 0.6879365, 8.22772, -0.2387482, 0.14799595, 10.232072
783896482045971, 5.8468623, 0.38524446, 8.066205, 0.0034792423, -0.03679228, 9.96978
783896491686283, 5.9294147, 0.14117654, 8.154739, 0.23646116, -0.12607718, 10.079974
783896501326596, 5.9844494, 0.8889336, 8.100901, -0.41287875, 0.2521491, 10.099228
783896510966908, 5.7990055, -0.28713873, 8.10808, 0.5934154, -0.35699368, 9.948482
783896520607117, 6.0526447, 1.160519, 8.183454, -0.66629744, 0.3620348, 10.216417
783896530247533, 5.7463636, -0.37806597, 8.054241, 0.6746409, -0.41076088, 9.8696785
783896539887742, 6.1244297, 1.1294123, 8.1942215, -0.60173297, 0.39410067, 10.267037
783896549528054, 5.759524, -0.13758731, 8.047063, 0.44624925, -0.2979002, 9.882226
783896559168367, 6.0622163, 0.7716853, 8.230113, -0.31297052, 0.19262171, 10.244299
783896568808679, 5.834898, 0.36131623, 8.055437, 0.020926595, -0.05043316, 9.953074
783896578449044, 5.959325, 0.21296121, 8.127222, 0.1860472, -0.058336258, 10.078325
783896588089304, 5.9353967, 0.849452, 8.04108, -0.38430798, 0.23155642, 10.020388
783896597729617, 5.804988, -0.24526432, 8.048259, 0.56649077, -0.3244567, 9.904864
783896607369929, 6.0370917, 1.1688938, 8.123632, -0.65940356, 0.39962292, 10.159314
783896617010242, 5.7320065, -0.39840496, 8.030313, 0.6894969, -0.42297554, 9.841048
783896626650554, 6.113662, 1.1365907, 8.1679, -0.6172147, 0.4134202, 10.238724
783896636290867, 5.76431, -0.21296121, 8.051848, 0.5268841, -0.33044434, 9.885245
783896645931179, 6.0837517, 0.7728817, 8.258827, -0.3167107, 0.18946362, 10.280148
783896655571492, 5.818148, 0.23569304, 8.085348, 0.11731207, -0.12589216, 9.962413
783896665211804, 5.9545393, 0.23330021, 8.191829, 0.14998424, -0.08858919, 10.128508
783896674852117, 5.9521465, 0.77407813, 8.118847, -0.33171952, 0.16949606, 10.089805
783896684492429, 5.8468623, -0.18544376, 8.148758, 0.50166595, -0.30581093, 10.013852
783896694132742, 6.0598235, 1.1557333, 8.19781, -0.6611743, 0.36939907, 10.231699
783896703773054, 5.7607207, -0.36490545, 8.098508, 0.6503602, -0.424541, 9.914721
783896713413367, 6.114858, 1.2047862, 8.191829, -0.6802627, 0.415915, 10.262228
783896723053679, 5.741578, -0.2009971, 8.014759, 0.504038, -0.31351566, 9.843279
783896732693992, 6.0753765, 0.8805587, 8.208578, -0.40403926, 0.24177933, 10.2393675
783896742334304, 5.7810597, 0.20219351, 8.008778, 0.15327036, -0.122103214, 9.877431
783896751974617, 5.956932, 0.33499518, 8.117651, 0.07428324, -0.0031232834, 10.074124
783896761614929, 5.916254, 0.72263247, 8.048259, -0.28316665, 0.15687943, 10.009692
783896771255242, 5.8624153, -0.18065812, 8.103293, 0.5193242, -0.2780018, 9.985837
783896780895554, 6.0658054, 1.0779666, 8.172686, -0.576139, 0.33770227, 10.212875
783896790535867, 5.779863, -0.4319045, 8.100901, 0.71637547, -0.44906044, 9.924874
783896800176179, 6.1124654, 1.1557333, 8.2014, -0.63418293, 0.38779068, 10.266857
783896809816492, 5.736792, -0.30987054, 8.051848, 0.58722997, -0.39834023, 9.865878
783896819456804, 6.081359, 0.89013004, 8.1942215, -0.3961773, 0.27012825, 10.231844
783896829097117, 5.7966127, 0.15553348, 8.018349, 0.20002091, -0.1478405, 9.892268
783896838737429, 5.986842, 0.4031906, 8.165507, 0.011602998, 0.019647598, 10.133106
783896848377742, 5.9042897, 0.67836523, 8.080562, -0.25041962, 0.12223482, 10.0268955
783896858018054, 5.9449677, 0.317049, 8.178668, 0.070326924, -0.05399704, 10.115626
783896867658367, 5.933004, 0.4534399, 8.148758, -0.046654463, 0.008870602, 10.089903
783896877298679, 5.918647, 0.42951167, 8.1344, -0.028154612, -0.002658844, 10.06889
783896886938992, 5.9246287, 0.4354937, 8.1020975, -0.022325397, 0.02096796, 10.046588
783896896579304, 5.9150577, 0.44745782, 8.12124, -0.040698767, 0.008416176, 10.056886
783896906219617, 5.9210396, 0.39361933, 8.120044, 0.012019277, -0.0093951225, 10.057262
783896915859929, 5.9246287, 0.41754755, 8.10449, -0.0042583942, 0.010598183, 10.047795
783896925500242, 5.916254, 0.36490545, 8.118847, 0.038347244, -0.024766445, 10.052303
783896935140554, 5.9210396, 0.3792624, 8.115258, 0.027863503, -0.012956619, 10.052813
783896944780867, 5.9042897, 0.35413775, 8.1344, 0.04073453, -0.044776917, 10.057379
783896954421231, 5.9090757, 0.3792624, 8.132008, 0.018973589, -0.029696465, 10.059291
783896964061596, 5.9007006, 0.3792624, 8.151151, 0.011986971, -0.04666853, 10.069808
783896973701908, 5.916254, 0.37208393, 8.128419, 0.028253675, -0.025036335, 10.060331
783896983342221, 5.9246287, 0.4031906, 8.132008, 0.0019003153, -0.007517338, 10.069424
783896992982533, 5.9270215, 0.4103691, 8.124829, -0.0021363497, 0.0012836456, 10.06533
783897002622846, 5.928218, 0.4223332, 8.106883, -0.00908649, 0.01650095, 10.052032
783897012263158, 5.936593, 0.4354937, 8.130812, -0.023152947, 0.0144228935, 10.076813
783897021903471, 5.9270215, 0.4354937, 8.105687, -0.020587564, 0.020904064, 10.050898
783897031543783, 5.9090757, 0.4235296, 8.10449, -0.015119314, 0.0030331612, 10.038878
783897041184096, 5.9007006, 0.41515473, 8.133204, -0.015502691, -0.022524357, 10.056784
783897050824408, 5.9066825, 0.39601216, 8.133204, 0.004769802, -0.024974823, 10.059526
783897060464721, 5.916254, 0.38404804, 8.123632, 0.020678282, -0.017042637, 10.05695
783897070105033, 5.9150577, 0.3804588, 8.136793, 0.021100402, -0.0262084, 10.066725
783897079745346, 5.9210396, 0.3684947, 8.132008, 0.03400898, -0.023539066, 10.065901
783897089385658, 5.910272, 0.38404804, 8.120044, 0.018378139, -0.018986702, 10.050534
783897099025971, 5.918647, 0.3900301, 8.110473, 0.01688075, -0.0046281815, 10.047983
783897108666283, 5.9007006, 0.38285163, 8.110473, 0.01750052, -0.020376205, 10.037127
783897118306596, 5.919843, 0.41156548, 8.133204, -0.007474184, -0.008224487, 10.067909
783897127946908, 5.905486, 0.4139583, 8.129615, -0.013902426, -0.015555382, 10.056654
783897137587221, 5.9114685, 0.4019942, 8.117651, 0.0013828278, -0.008413792, 10.050037
783897147227533, 5.9318075, 0.40917268, 8.118847, 0.0010390282, 0.009007931, 10.063266
783897156867898, 5.9150577, 0.40079778, 8.111669, 0.0051361322, -0.0023531914, 10.047274
783897166508262, 5.922236, 0.39361933, 8.10808, 0.014784694, 0.0023117065, 10.048312
783897176148575, 5.9270215, 0.39601216, 8.100901, 0.015757322, 0.01057148, 10.045428
783897185788887, 5.9437714, 0.40558344, 8.106883, 0.011273265, 0.023484707, 10.060508
783897195429200, 5.9342003, 0.4139583, 8.124829, -0.0038272142, 0.010515213, 10.069699
783897205069512, 5.9270215, 0.41635114, 8.139186, -0.011305571, -0.0017437935, 10.077158
783897214709825, 5.9007006, 0.39960137, 8.147561, -0.0062241554, -0.03177786, 10.067754
783897224350137, 5.901897, 0.39361933, 8.133204, 0.0025442839, -0.025231838, 10.056625
783897233990450, 5.918647, 0.3912265, 8.17149, 0.0028024912, -0.034016132, 10.097302
783897243630762, 5.9318075, 0.38165522, 8.159525, 0.017916083, -0.019705296, 10.095007
783897253271075, 5.919843, 0.3792624, 8.151151, 0.01784861, -0.024751663, 10.081106
783897262911387, 5.9007006, 0.38763726, 8.148758, 0.0035606623, -0.034178257, 10.068248
783897272551700, 5.8827543, 0.4223332, 8.124829, -0.030611396, -0.02107811, 10.039753
783897282192012, 5.9090757, 0.4319045, 8.1020975, -0.026998162, 0.014980316, 10.037269
783897291832325, 5.9007006, 0.42831525, 8.1020975, -0.026072979, 0.0072202682, 10.032198
783897301472689, 5.918647, 0.43788654, 8.078169, -0.023918271, 0.0368433, 10.023822
783897311113054, 5.912665, 0.41635114, 8.062616, -0.0017135143, 0.03279829, 10.00688
783897320753367, 5.907879, 0.4139583, 8.055437, 0.0021073818, 0.031801224, 9.998172
783897330393679, 5.9210396, 0.39840496, 8.069795, 0.020158768, 0.028248787, 10.016878
783897340033992, 5.9210396, 0.40797627, 8.087741, 0.0074654818, 0.022478104, 10.031756
783897349674304, 5.919843, 0.37806597, 8.12124, 0.02861166, -0.008263588, 10.056895
783897359314617, 5.9150577, 0.36370903, 8.143971, 0.03487158, -0.026849747, 10.071869
783897368954929, 5.9007006, 0.36610186, 8.152347, 0.026595354, -0.04121542, 10.070286
783897378595242, 5.9042897, 0.36251262, 8.182257, 0.024369836, -0.053028584, 10.096433
783897388235554, 5.9150577, 0.3900301, 8.193025, 1.61767E-4, -0.041000843, 10.112565
783897397875867, 5.919843, 0.38285163, 8.184649, 0.009807825, -0.033438683, 10.108334
783897407516231, 5.9318075, 0.43908295, 8.215756, -0.04465103, -0.019586563, 10.142753
783897417156596, 5.930611, 0.46899325, 8.175078, -0.0650605, 0.0127334595, 10.110373
783897426796908, 5.925825, 0.49052864, 8.170293, -0.08483863, 0.017846584, 10.104563
783897436437221, 5.9066825, 0.4749753, 8.122437, -0.067695856, 0.024968147, 10.054018
783897446077533, 5.8911295, 0.4534399, 8.07458, -0.04207635, 0.03128338, 10.005354
783897455717846, 5.8935223, 0.4139583, 8.04108, 0.0046699047, 0.03516531, 9.978109
783897465358158, 5.875576, 0.38524446, 8.026724, 0.028521657, 0.01967144, 9.954792
783897474998471, 5.8731833, 0.36131623, 8.038688, 0.048524737, 0.0030350685, 9.962077
783897484638783, 5.8767724, 0.33020952, 8.087741, 0.06959939, -0.031294823, 10.002562
783897494279096, 5.895915, 0.33140594, 8.142776, 0.064763546, -0.047518253, 10.05833
783897503919460, 5.933004, 0.35174492, 8.181061, 0.04885447, -0.032386303, 10.111904
783897513559825, 5.9090757, 0.35653058, 8.222935, 0.028427362, -0.07026672, 10.131889
783897523200137, 5.919843, 0.3684947, 8.220542, 0.020050049, -0.055625916, 10.136773
783897532840450, 5.936593, 0.40797627, 8.172686, -0.0022842884, -4.887581E-4, 10.109519
783897542480762, 5.8947186, 0.40917268, 8.136793, -0.009246349, -0.010294437, 10.055961
783897552121075, 5.875576, 0.40917268, 8.097312, -0.0071789026, -0.0031137466, 10.012804
783897561761387, 5.8707905, 0.41635114, 8.078169, -0.011176825, 0.0060420036, 9.994806
783897571401700, 5.8839507, 0.424726, 8.076973, -0.013882756, 0.019292831, 10.00191
783897581042012, 5.8935223, 0.4127619, 8.076973, 5.6934357E-4, 0.021904469, 10.007046
783897590682377, 5.898308, 0.4139583, 8.132008, -0.009903312, -0.004419327, 10.054392
783897600322742, 5.8947186, 0.4211368, 8.170293, -0.02533102, -0.024385452, 10.083527
783897609963054, 5.919843, 0.43669012, 8.182257, -0.03364396, -0.006529808, 10.10858
783897619603367, 5.925825, 0.42951167, 8.178668, -0.023514867, -0.0017404556, 10.108904
783897629243679, 5.9174504, 0.4211368, 8.160722, -0.013781786, -7.405281E-4, 10.089142
783897638883992, 5.918647, 0.41515473, 8.122437, 8.829832E-4, 0.018083572, 10.058647
783897648524304, 5.905486, 0.3924229, 8.111669, 0.01964271, 0.004872799, 10.041292
783897658164617, 5.901897, 0.38285163, 8.088937, 0.03176403, 0.011002541, 10.020415
783897667804981, 5.889933, 0.41515473, 8.092526, -0.003243804, 0.012338638, 10.017609
783897677445346, 5.9090757, 0.40079778, 8.0817585, 0.017994165, 0.026508331, 10.019562
783897687085658, 5.8875403, 0.37686956, 8.086544, 0.031829357, -9.717941E-4, 10.009812
783897696725971, 5.8875403, 0.39960137, 8.079366, 0.012253761, 0.012785912, 10.004931
783897706366283, 5.889933, 0.38644084, 8.092526, 0.022759318, 0.0028362274, 10.016442
783897716006596, 5.879165, 0.3912265, 8.123632, 0.0084604025, -0.019592285, 10.035467
783897725646908, 5.899504, 0.39720857, 8.143971, 0.0058460236, -0.013529301, 10.064094
783897735287221, 5.9210396, 0.38644084, 8.1738825, 0.015928388, -0.015101433, 10.100492
783897744927585, 5.925825, 0.40558344, 8.187042, -0.0028214455, -0.012148857, 10.114714
783897754567950, 5.919843, 0.43908295, 8.212168, -0.04166925, -0.016705513, 10.132869
783897764208262, 5.918647, 0.4331009, 8.2049885, -0.0351851, -0.015620232, 10.126121
783897773848575, 5.9090757, 0.41754755, 8.1738825, -0.017395616, -0.010147572, 10.094726
783897783488887, 5.8971114, 0.41515473, 8.142776, -0.012369871, -0.0027017593, 10.06245
783897793129200, 5.8971114, 0.42951167, 8.117651, -0.020404577, 0.015561581, 10.042708
783897802769512, 5.9042897, 0.43429732, 8.094919, -0.017641902, 0.03469801, 10.02873
783897812409877, 5.9042897, 0.41754755, 8.073383, 0.002904892, 0.03977394, 10.010639
783897822050242, 5.8887367, 0.40797627, 8.093722, 0.0036907196, 0.011984348, 10.017576