timestamp_acc,device_acc_x,device_acc_y,device_acc_z,earth_acc_x,earth_acc_y,earth_acc_z
178245331198427, 9.030513, -3.1836505, 2.989832, -0.013416469, -0.017543554, 10.031172
178245340838636, 9.006584, -3.178865, 2.969493, -0.0076449513, -0.0062954426, 10.002077
178245350478740, 9.014959, -3.178865, 2.9575288, -0.0068989396, 0.007929802, 10.006076
178245360118844, 9.008977, -3.1860433, 2.9587252, 7.5495243E-4, 0.0038371086, 10.003328
178245369759052, 9.016156, -3.190829, 2.9503503, 0.0053858757, 0.013192415, 10.008838
178245379399156, 9.01137, -3.211168, 2.973082, 0.019644022, -0.013411522, 10.017736
178245389039261, 9.02453, -3.211168, 2.9742785, 0.015911818, -0.011003733, 10.029942
178245398679469, 9.000603, -3.2075787, 2.9371898, 0.027430832, 0.014136791, 9.996276
178245408319573, 8.999406, -3.2279177, 2.9383862, 0.044517934, 0.006611824, 10.002043
178245417959781, 8.99821, -3.21715, 2.955136, 0.030426025, -0.00738883, 10.002485
178245427599886, 8.98146, -3.2039895, 2.9359934, 0.025740683, 0.005315542, 9.977551
178245437239990, 9.007781, -3.1896327, 2.928815, 0.0048737526, 0.021851063, 9.994565
178245446880198, 9.032906, -3.1645079, 2.922833, -0.023606777, 0.039714575, 10.007413
178245456520302, 9.0436735, -3.1800613, 2.9156544, -0.010469973, 0.046551228, 10.01996
178245466160406, 9.02453, -3.2004004, 2.9575288, 0.0039772987, -0.0016317368, 10.02156
178245475800615, 9.013762, -3.196811, 2.9826534, 3.116727E-4, -0.030876875, 10.018122
178245485440719, 9.031709, -3.1884363, 2.9515467, -0.0037821531, 0.0047791004, 10.02245
178245495080823, 9.052048, -3.1489546, 2.934797, -0.04223019, 0.032605886, 10.023256
178245504721031, 9.052048, -3.138187, 2.9300113, -0.05005437, 0.038848877, 10.01842
178245514361136, 9.013762, -3.1645079, 2.926422, -0.014614761, 0.025002241, 9.991253
178245524001344, 8.989835, -3.176472, 2.906083, 0.007696867, 0.03373909, 9.967508
178245533641448, 8.989835, -3.190829, 2.9180472, 0.017845333, 0.020816803, 9.975608
178245543281552, 8.995817, -3.249453, 2.9168508, 0.06926322, 0.014605284, 9.999334
178245552921761, 9.018549, -3.2482567, 2.9563324, 0.051312685, -0.013678074, 10.0310755
178245562561865, 9.014959, -3.2159536, 2.9383862, 0.026156962, 0.0061323643, 10.012253
178245572201969, 9.026923, -3.1956146, 2.9240294, 0.006386578, 0.026800394, 10.012318
178245581842177, 9.031709, -3.190829, 2.9132617, 0.0038817525, 0.03978753, 10.011925
178245591482281, 8.991031, -3.182454, 2.9240294, 0.0035805106, 0.016752243, 9.975786
178245601122490, 9.0029955, -3.1872396, 2.9599216, -0.0017458797, -0.012665033, 9.998671
178245610762594, 8.98146, -3.1836505, 2.9778678, -0.0032497644, -0.036043644, 9.983417
178245620402698, 9.008977, -3.1956146, 3.01376, -0.00581038, -0.061261415, 10.022603
178245630042906, 9.005388, -3.2027931, 2.9826534, 0.007660389, -0.034226418, 10.012486
178245639683011, 9.026923, -3.2015967, 2.9575288, 0.006270945, -0.0031499863, 10.024096
178245649323115, 9.030513, -3.1657043, 2.9443684, -0.02662021, 0.013808012, 10.012004
178245658963323, 9.007781, -3.1692936, 2.9419754, -0.016834676, 0.007637024, 9.991967
178245668603427, 9.019745, -3.1848469, 2.961118, -0.009806693, -0.010713577, 10.013344
178245678243636, 8.971889, -3.1752756, 2.9575288, -0.0058100224, -0.022803545, 9.966122
178245687883740, 9.014959, -3.1680973, 2.9599216, -0.024151742, -0.010113478, 10.003339
178245697523844, 9.012567, -3.150151, 2.9862428, -0.046359777, -0.03553939, 10.0032015
178245707164052, 9.012567, -3.158526, 2.940779, -0.026893795, 0.0053260326, 9.992501
178245716804156, 9.037691, -3.1250265, 2.9156544, -0.05888152, 0.04180312, 9.997074
178245726444261, 9.016156, -3.1357942, 2.8953154, -0.038232982, 0.05057335, 9.975124
178245736084469, 9.026923, -3.1369905, 2.8761728, -0.03578186, 0.06878543, 9.979599
178245745724573, 9.022138, -3.1441689, 2.9120653, -0.037778616, 0.030720234, 9.988119
178245755364781, 9.022138, -3.1669009, 2.9240294, -0.021054149, 0.015037775, 9.998875
178245765004886, 9.02812, -3.1872396, 2.9742785, -0.015297174, -0.032310486, 10.025494
178245774644990, 9.035298, -3.205186, 2.9515467, 0.0030622482, -0.012495279, 10.031017
178245784285198, 9.031709, -3.2135608, 2.922833, 0.017639875, 0.01123333, 10.022038
178245793925302, 9.02812, -3.199204, 2.8917263, 0.011836708, 0.040439606, 10.005107
178245803565406, 9.031709, -3.1980073, 2.8642087, 0.01616925, 0.067047834, 9.999898
178245813205615, 9.005388, -3.1956146, 2.8809586, 0.015870512, 0.040626287, 9.9803295
178245822845719, 9.0029955, -3.1956146, 2.8833513, 0.014168143, 0.03622842, 9.978882
178245832485927, 8.99821, -3.1920254, 2.9012976, 0.007664442, 0.018464088, 9.978674
178245842126031, 8.997013, -3.196811, 2.9120653, 0.0071696043, 0.006121874, 9.98228
178245851766136, 9.0233345, -3.2207394, 2.928815, 0.014018655, -0.00535655, 10.018557
178245861406344, 8.997013, -3.2386854, 2.9359934, 0.034118354, -0.024468899, 10.002681
178245871046448, 8.99462, -3.2327034, 2.9276185, 0.02931881, -0.016564608, 9.99617
178245880686552, 9.016156, -3.225525, 2.932404, 0.016080022, -0.01203227, 10.014673
178245890326761, 9.02812, -3.2183464, 2.9216363, 0.007223189, 0.0033254623, 10.02001
178245899966865, 9.040084, -3.2446675, 2.9312077, 0.025040448, -0.0052645206, 10.042028
178245909607073, 9.010174, -3.257828, 2.9168508, 0.04794234, -0.005025625, 10.015106
178245919247177, 8.997013, -3.251846, 2.8869405, 0.05106145, 0.018515348, 9.99261
178245928887281, 8.99821, -3.245864, 2.885744, 0.043392837, 0.019437313, 9.99143
178245938527490, 9.010174, -3.2650065, 2.8642087, 0.061936975, 0.038092375, 10.002095
178245948167594, 8.958728, -3.257828, 2.861816, 0.06852555, 0.02336359, 9.952738
178245957807802, 9.016156, -3.2793634, 2.7912276, 0.08818138, 0.10423803, 9.990877
178245967447906, 9.000603, -3.3044882, 2.7756743, 0.11660117, 0.106877565, 9.980473
178245977088011, 9.000603, -3.32722, 2.766103, 0.1376419, 0.10838914, 9.985084
178245986728219, 9.032906, -3.333202, 2.7852457, 0.123940945, 0.09630108, 10.021805
178245996368323, 9.038888, -3.3200414, 2.806781, 0.10325134, 0.08239317, 10.029195
178246006008427, 9.035298, -3.298506, 2.8223343, 0.07740557, 0.06966138, 10.023547
178246015648636, 9.019745, -3.2925239, 2.812763, 0.07834566, 0.07527709, 10.004816
178246025288740, 9.000603, -3.2638102, 2.8354948, 0.05119914, 0.05131507, 9.984893
178246034928948, 9.019745, -3.2350962, 2.8689942, 0.013511062, 0.031545162, 10.002579
178246044569052, 9.006584, -3.2327034, 2.882155, 0.013650477, 0.016868353, 9.993762
178246054209156, 8.991031, -3.219543, 2.9300113, -0.0024606586, -0.029366732, 9.989404
178246063849365, 9.018549, -3.2123644, 2.9623144, -0.02046007, -0.04699111, 10.021287
178246073489469, 8.9826565, -3.1776686, 3.010171, -0.049192548, -0.09335089, 9.991782
178246083129573, 9.013762, -3.1680973, 3.0388846, -0.07417953, -0.10701871, 10.0251
178246092769781, 9.010174, -3.1525438, 3.0604203, -0.089533806, -0.12276125, 10.023214
178246102409886, 9.000603, -3.1286156, 3.0604203, -0.10120547, -0.117120504, 10.007063
178246112050094, 9.006584, -3.109473, 3.0245278, -0.10746485, -0.07646704, 9.995888
178246121690198, 8.997013, -3.1022944, 3.0675986, -0.12242353, -0.11855769, 9.99758
178246131330302, 9.017352, -3.0915267, 3.0269206, -0.12375325, -0.07055354, 10.000607
178246140970511, 9.035298, -3.0927234, 2.9431717, -0.098958015, 0.01488018, 9.992686
178246150610615, 9.0436735, -3.0532417, 2.949154, -0.13942885, 0.018702507, 9.989396
178246160250823, 9.038888, -3.0376883, 2.973082, -0.15461987, -0.0041913986, 9.987208
178246169890927, 8.983852, -3.0675986, 2.975475, -0.11139363, -0.03204727, 9.947852
178246179531031, 8.975478, -3.0747771, 2.9647074, -0.10008013, -0.025554419, 9.93943
178246189171240, 9.014959, -3.0939198, 2.961118, -0.09104878, -0.013404369, 9.98006
178246198811344, 9.029316, -3.162115, 2.9192436, -0.023335218, 0.017742872, 10.002432
178246208451448, 9.042477, -3.1609187, 2.902494, -0.023728251, 0.03807044, 10.009009
178246218091656, 9.022138, -3.1932218, 2.9120653, 0.009381652, 0.017460108, 10.003767
178246227731761, 9.052048, -3.1944182, 2.9216363, -0.0011567473, 0.017008781, 10.033919
178246237371969, 9.035298, -3.1848469, 2.9383862, -0.011620164, -0.0053093433, 10.02067
178246247012073, 9.0341015, -3.176472, 2.9276185, -0.016850412, 0.005731344, 10.013771
178246256652177, 9.05803, -3.129812, 2.902494, -0.060547173, 0.04408002, 10.013118
178246266292386, 9.013762, -3.1130621, 2.8749764, -0.059398532, 0.057801962, 9.959805
178246275932490, 8.974281, -3.129812, 2.824727, -0.020856977, 0.08786678, 9.914857
178246285572594, 8.991031, -3.1800613, 2.8187451, 0.022133589, 0.09157896, 9.94424
178246295212802, 9.036494, -3.2327034, 2.8546374, 0.048813283, 0.065262794, 10.012538
178246304852906, 9.004191, -3.2566316, 2.906083, 0.059652865, 1.1444092E-4, 10.006142
178246314493011, 9.040084, -3.3020952, 2.9419754, 0.08092803, -0.026585817, 10.063544
178246324133219, 8.983852, -3.2889347, 2.9682965, 0.07396656, -0.06768274, 10.016357
178246333773323, 8.946764, -3.2973096, 2.9192436, 0.10321039, -0.03688407, 9.971299
178246343413427, 8.95155, -3.2949169, 2.8833513, 0.10744184, 4.6491623E-4, 9.964382
178246353053636, 8.987442, -3.2757742, 2.8283165, 0.09261435, 0.068185806, 9.974514
178246362693740, 9.060423, -3.2626138, 2.8426733, 0.054328144, 0.08336568, 10.040258
178246372333948, 8.902496, -3.3870404, 2.845066, 0.21058768, 0.007972717, 9.938635
178246381974052, 9.257831, -3.17049, 2.9802606, -0.12029004, 0.041715384, 10.228644
178246391614156, 8.762517, -3.7160535, 2.7696922, 0.5682641, -0.042441845, 9.896325
178246401254365, 9.202796, -2.7589245, 3.1345978, -0.5388074, -0.04512, 10.091405
178246410894469, 8.855837, -3.9158542, 2.693122, 0.75509876, 0.01737833, 10.022085
178246420534573, 9.080762, -2.5782664, 3.1274192, -0.6643312, -0.042129517, 9.921963
178246430174781, 9.004191, -3.8560338, 2.6512475, 0.6660256, 0.116989136, 10.125034
178246439814886, 8.894122, -2.650051, 2.993421, -0.51245075, 0.002314806, 9.737873
178246449454990, 9.15135, -3.5210385, 2.8295128, 0.27145898, 0.07686257, 10.201543
178246459095198, 8.7673025, -3.0723844, 2.922833, -0.07070297, -0.06742811, 9.738508
178246468735302, 9.323633, -3.0843484, 3.0161529, -0.21969706, 0.046825886, 10.270837
178246478375406, 8.799605, -3.5006995, 2.7828526, 0.36053574, 0.00238657, 9.864189
178246488015615, 9.281759, -2.6081767, 3.1692936, -0.68657774, -0.02357173, 10.125519
178246497655719, 8.817552, -3.772285, 2.766103, 0.6153694, -0.01539731, 9.962518
178246507295823, 9.101101, -2.4023938, 3.1884363, -0.82934374, -0.08991408, 9.903119
178246516936031, 9.046066, -3.76391, 2.6955147, 0.56967884, 0.14021802, 10.144947
178246526576136, 8.94796, -2.5555346, 3.068795, -0.6140242, -0.055320024, 9.779273
178246536216344, 9.162118, -3.5198421, 2.8354948, 0.2912649, 0.08310962, 10.211856
178246545856448, 8.79482, -2.955136, 2.9682965, -0.1828261, -0.08814168, 9.739162
178246555496552, 9.276974, -3.080759, 3.001796, -0.19412613, 0.032632113, 10.223764
178246565136761, 8.755338, -3.4743786, 2.7338, 0.37450373, 0.04223013, 9.800962
178246574776865, 9.257831, -2.6751757, 3.1022944, -0.5976128, -0.0044555664, 10.10599
178246584416969, 8.85464, -3.8165522, 2.6991038, 0.682846, 0.04349804, 9.98938
178246594057073, 9.153743, -2.4717858, 3.1740792, -0.7706926, -0.0601511, 9.968847
178246603697281, 8.987442, -3.867998, 2.656033, 0.708281, 0.12449908, 10.113007
178246613337386, 8.943174, -2.589034, 3.0185459, -0.5815371, -0.027676105, 9.770167
178246622977594, 9.174082, -3.6454654, 2.7732813, 0.42011482, 0.10313368, 10.244861
178246632617698, 8.823533, -2.989832, 2.9479575, -0.1617127, -0.06889248, 9.770025
178246642257802, 9.270991, -3.2099717, 2.9467611, -0.06470269, 0.054730654, 10.243603
178246651898011, 8.744571, -3.4995031, 2.7242286, 0.39406842, 0.017549515, 9.796931
178246661538115, 9.267402, -2.766103, 3.042474, -0.5022021, 0.043842316, 10.126133
178246671178219, 8.7984085, -3.851248, 2.656033, 0.719078, 0.033596754, 9.938833
178246680818427, 9.136993, -2.5471597, 3.0951161, -0.7010536, -0.023800611, 9.9529085
178246690458531, 8.980264, -3.9517467, 2.5926232, 0.7830012, 0.13185596, 10.116949
178246700098636, 8.991031, -2.638087, 2.9659038, -0.5344814, 0.038941145, 9.81364
178246709738844, 9.141779, -3.7363925, 2.7146573, 0.5136895, 0.11980748, 10.228582
178246719378948, 8.831908, -2.9958138, 2.9192436, -0.16513395, -0.04673481, 9.770878
178246729019052, 9.235099, -3.3056846, 2.8989046, 0.031071484, 0.060334682, 10.228083
178246738659156, 8.742178, -3.4695928, 2.7074788, 0.35861897, 0.03029108, 9.780832
178246748299365, 9.251849, -2.8462625, 2.9946175, -0.42566055, 0.050590515, 10.123336
178246757939469, 8.804391, -3.8476589, 2.6799614, 0.70537055, 0.009926796, 9.9501915
178246767579573, 9.158528, -2.5794628, 3.2015967, -0.7040062, -0.11247802, 10.0137005
178246777219781, 8.952746, -3.9481573, 2.7182465, 0.74038565, 0.03197527, 10.128144
178246786859886, 9.006584, -2.603391, 3.129812, -0.62100637, -0.1101141, 9.863779
178246796499990, 9.12144, -3.7244284, 2.82712, 0.47797596, 0.03341174, 10.238899
178246806140198, 8.806784, -2.8582265, 3.0592237, -0.31691712, -0.15384388, 9.744929
178246815780302, 9.195618, -3.2422748, 3.0041888, -0.040911615, -0.027305365, 10.202669
178246825420406, 8.73141, -3.2853456, 2.8366911, 0.16627902, -0.047043085, 9.749256
178246835060615, 9.249456, -2.7888348, 3.0640094, -0.4857329, 0.013421059, 10.123343
178246844700719, 8.822337, -3.6933217, 2.7553353, 0.55351675, -0.01457119, 9.937783
178246854340823, 9.217153, -2.4705894, 3.269792, -0.83418417, -0.099657536, 10.052137
178246863981031, 8.953942, -3.8488553, 2.8079774, 0.6406912, -0.06339097, 10.122105
178246873621136, 9.035298, -2.495714, 3.1561332, -0.71919405, -0.0732193, 9.864268
178246883261240, 9.105886, -3.6849468, 2.7637103, 0.4729123, 0.06599903, 10.193433
178246892901344, 8.857033, -2.7433712, 2.9838498, -0.3957095, -0.025327444, 9.732382
178246902541552, 9.21476, -3.2650065, 2.882155, 0.032785058, 0.083800554, 10.191704
178246912181656, 8.739784, -3.2004004, 2.7445676, 0.12532067, 0.04564166, 9.702642
178246921821761, 9.297313, -2.821138, 2.9766715, -0.42334902, 0.12385917, 10.152084
178246931461969, 8.792427, -3.6957145, 2.6859434, 0.5892486, 0.025895357, 9.890981
178246941102073, 9.21476, -2.556731, 3.1657043, -0.71559525, -0.065957546, 10.0475855
178246950742177, 8.952746, -3.8847475, 2.7074788, 0.7204244, 0.039869547, 10.102118
178246960382386, 9.079565, -2.5220351, 3.0819557, -0.6929203, -0.027925253, 9.890232
178246970022490, 9.099904, -3.7543387, 2.6632116, 0.55938864, 0.1631093, 10.181182
178246979662594, 8.885747, -2.757728, 2.9336007, -0.37436557, -0.011913061, 9.748195
178246989302698, 9.237492, -3.37388, 2.8546374, 0.12346339, 0.092416525, 10.239117
178246998942906, 8.748159, -3.21715, 2.806781, 0.11826515, -0.0098724365, 9.733668
178247008583011, 9.274581, -2.932404, 2.9742785, -0.32343483, 0.06252456, 10.166348
178247018223115, 8.770891, -3.6729827, 2.713461, 0.5621769, 0.0076100826, 9.872493
178247027863323, 9.192028, -2.5794628, 3.1740792, -0.694365, -0.07821107, 10.036612
178247037503427, 8.915657, -3.9014974, 2.7278178, 0.7368945, -0.004887104, 10.080108
178247047143531, 9.047262, -2.498107, 3.1537402, -0.7160918, -0.10893798, 9.874964
178247056783636, 9.029316, -3.8237305, 2.693122, 0.6465231, 0.07914734, 10.147813
178247066423844, 8.851051, -2.7553353, 3.0293136, -0.40904152, -0.09728694, 9.743354
178247076063948, 9.200403, -3.4683964, 2.926422, 0.20283347, 6.222725E-5, 10.256706
178247085704052, 8.779266, -3.1944182, 2.949154, 0.040739834, -0.12266779, 9.795949
178247095344261, 9.292527, -3.0149565, 3.0412776, -0.27709532, 0.016200066, 10.2280655
178247104984365, 8.812766, -3.6143587, 2.7433712, 0.4783424, 0.0036928654, 9.900792
178247114624469, 9.205189, -2.6165516, 3.1800613, -0.65907437, -0.078035355, 10.062512
178247124264573, 8.85823, -3.8931224, 2.6656044, 0.7467695, 0.029293537, 10.008575
178247133904781, 9.089137, -2.4705894, 3.1429725, -0.7518525, -0.06772208, 9.900739
178247143544886, 8.98146, -3.8368912, 2.605784, 0.681222, 0.14408612, 10.084327
178247153184990, 8.914461, -2.6895328, 2.975475, -0.47360033, -0.004560709, 9.763725
178247162825094, 9.19801, -3.5090744, 2.7984061, 0.2773322, 0.103937626, 10.230366
178247172465302, 8.799605, -3.1154552, 2.8498518, -0.012024045, -0.015022278, 9.760143
178247182105406, 9.24467, -3.0604203, 2.9419754, -0.19529426, 0.073097944, 10.170635
178247191745511, 8.780462, -3.629912, 2.6476583, 0.5270826, 0.06352115, 9.848911
178247201385719, 9.236296, -2.6620152, 3.0879376, -0.6018549, 0.0026767254, 10.078123
178247211025823, 8.867801, -3.8871403, 2.6668007, 0.74324536, 0.037148476, 10.015278
178247220665927, 9.111869, -2.5423741, 3.1334012, -0.6961923, -0.055475235, 9.940838
178247230306031, 9.025727, -3.926622, 2.6811578, 0.72414774, 0.07356477, 10.175506
178247239946240, 8.921639, -2.7003005, 3.0376883, -0.47785252, -0.07381582, 9.791886
178247249586344, 9.172886, -3.6047873, 2.8558338, 0.3410722, 0.01588726, 10.255513
178247259226448, 8.785249, -3.1082766, 2.9419754, -0.04763043, -0.10626674, 9.771573
178247268866552, 9.263813, -3.1441689, 2.9826534, -0.14002377, 0.023220062, 10.22644
178247278506761, 8.7577305, -3.5796626, 2.7182465, 0.46423876, 6.597042E-4, 9.832863
178247288146865, 9.245867, -2.7194428, 3.0867412, -0.5555841, 0.011139631, 10.1044855
178247297786969, 8.840283, -3.888337, 2.7003005, 0.7388113, -0.016168594, 10.000765
178247307427177, 9.108279, -2.5184457, 3.1513474, -0.73901117, -0.0558455, 9.934034
178247317067281, 9.013762, -3.9098723, 2.652444, 0.7325469, 0.08339119, 10.150216
178247326707386, 8.96471, -2.6416762, 3.0197423, -0.53940237, -0.005469799, 9.806749
178247336347490, 9.131011, -3.6275191, 2.766103, 0.40916377, 0.07111168, 10.198683
178247345987698, 8.79123, -2.9718857, 2.9084759, -0.16674489, -0.05021882, 9.7235155
178247355627802, 9.3104725, -3.101098, 2.9515467, -0.1787824, 0.07363033, 10.245775
178247365267906, 8.774481, -3.4791641, 2.6871397, 0.37997532, 0.049560785, 9.806629
178247374908011, 9.230313, -2.7014968, 3.050849, -0.5534744, 0.03425193, 10.074571
178247384548219, 8.835498, -3.7854455, 2.6823542, 0.64572006, 0.017359972, 9.958584
178247394188323, 9.131011, -2.4478576, 3.1441689, -0.7881405, -0.026936293, 9.931329
178247403828427, 8.992228, -3.863212, 2.650051, 0.69026, 0.087810755, 10.115491
178247413468531, 9.018549, -2.5627131, 3.0125637, -0.6241448, 0.01572299, 9.827892
178247423108740, 9.158528, -3.6382868, 2.7625136, 0.41291225, 0.084834576, 10.225926
178247432748844, 8.805588, -2.9336007, 2.9982069, -0.22114462, -0.12334132, 9.75036
178247442388948, 9.273384, -3.1920254, 3.0173492, -0.09439683, -0.018410683, 10.260594
178247452029052, 8.773284, -3.4085758, 2.8402805, 0.2761991, -0.07578683, 9.82721
178247461669261, 9.256635, -2.7218359, 3.1322048, -0.55656004, -0.036418676, 10.128835
178247471309365, 8.781659, -3.7304106, 2.7589245, 0.5944833, -0.06285477, 9.914021
178247480949469, 9.160921, -2.4239295, 3.225525, -0.8417533, -0.09046221, 9.974226
178247490589677, 8.979067, -3.824927, 2.7158537, 0.6626953, 0.044732332, 10.108829
178247500229781, 8.985049, -2.5028925, 3.0532417, -0.6747749, -0.0174613, 9.790927
178247509869886, 9.131011, -3.674179, 2.774478, 0.46678323, 0.06688714, 10.215201
178247519509990, 8.85823, -2.8725836, 3.028117, -0.28520638, -0.11337423, 9.787506
178247529150094, 9.242277, -3.245864, 2.9802606, -0.025858343, -0.0016236305, 10.238974
178247538790302, 8.772088, -3.3559337, 2.8151557, 0.23833203, -0.035034418, 9.801984
178247548430406, 9.276974, -2.8055844, 3.0580273, -0.4631428, 0.0065402985, 10.152366
178247558070511, 8.815159, -3.751946, 2.6691937, 0.63877434, 0.04692626, 9.924641
178247567710719, 9.192028, -2.475375, 3.1609187, -0.7729369, -0.07367706, 10.00047
178247577350823, 8.945567, -3.8943188, 2.6715865, 0.7401571, 0.08499551, 10.088172
178247586990927, 8.99462, -2.53041, 3.0460632, -0.64086187, -0.04309368, 9.806738
178247596631031, 9.123833, -3.7507496, 2.684747, 0.54686856, 0.14789844, 10.207809
178247606271240, 8.860622, -2.8354948, 2.9383862, -0.29827827, -0.03416133, 9.751648
178247615911344, 9.241081, -3.318845, 2.8869405, 0.061869204, 0.0684576, 10.23417
178247625551448, 8.773284, -3.347559, 2.7768707, 0.23450452, -0.0057127476, 9.789414
178247635191552, 9.254242, -2.9072795, 3.0149565, -0.36418015, 0.024148226, 10.151357
178247644831761, 8.796016, -3.7806597, 2.6919255, 0.6548819, 0.008732796, 9.92375
178247654471865, 9.192028, -2.5722845, 3.17049, -0.6967989, -0.07852912, 10.033463
178247664111969, 8.914461, -3.926622, 2.7218359, 0.74222434, -0.00924468, 10.086794
178247673752073, 9.042477, -2.5375884, 3.1250265, -0.6780311, -0.09005642, 9.874397
178247683392281, 9.140582, -3.772285, 2.754139, 0.53518397, 0.08370185, 10.250475
178247693032386, 8.88814, -2.7637103, 3.0269206, -0.41150045, -0.08157039, 9.778721
178247702672490, 9.233903, -3.2937205, 2.9276185, 0.031036437, 0.041475296, 10.231414
178247712312594, 8.7577305, -3.1848469, 2.8546374, 0.06541288, -0.042850494, 9.74597
178247721952802, 9.266206, -2.8642087, 3.03051, -0.40647197, 0.03953433, 10.153002
178247731592906, 8.762517, -3.6981075, 2.7314072, 0.57317966, -0.021306992, 9.878729
178247741233011, 9.177671, -2.5758736, 3.229114, -0.702263, -0.12022543, 10.039138
178247750873115, 8.9013, -3.888337, 2.7828526, 0.7075918, -0.0574522, 10.079316
178247760513323, 9.037691, -2.5256243, 3.1334012, -0.70329314, -0.058036327, 9.868072
178247770153427, 9.059227, -3.8129628, 2.6835506, 0.62599146, 0.11566067, 10.168799
178247779793531, 8.853444, -2.7768707, 2.9970105, -0.37563026, -0.057260513, 9.743313
178247789433636, 9.192028, -3.438486, 2.894119, 0.17623746, 0.036739588, 10.2303505
178247799073844, 8.744571, -3.211168, 2.9084759, 0.073866725, -0.09277582, 9.758293
178247808713948, 9.2793665, -2.969493, 3.0532417, -0.32625407, 0.008927822, 10.204915
178247818354052, 8.796016, -3.6598222, 2.757728, 0.5145823, -0.01150465, 9.904763
178247827994156, 9.203992, -2.6069803, 3.1896327, -0.6784414, -0.062390804, 10.060785
178247837634365, 8.848659, -3.918247, 2.754139, 0.73866314, -0.032215357, 10.034443
178247847274469, 9.056833, -2.53041, 3.1441689, -0.7150056, -0.064138174, 9.88937
178247856914573, 9.096315, -3.885944, 2.6943183, 0.6705725, 0.11922622, 10.229321
178247866554677, 8.882157, -2.7792635, 3.0317063, -0.4001438, -0.07027173, 9.779736
178247876194886, 9.180064, -3.5569308, 2.894119, 0.28228927, 0.018031836, 10.257741
178247885834990, 8.7780695, -3.2338998, 2.928815, 0.06722766, -0.10177374, 9.801822
178247895475094, 9.268599, -3.068795, 2.9982069, -0.22601587, 0.04614401, 10.210801
178247905115302, 8.7469635, -3.6514473, 2.6883361, 0.5250342, 0.031685352, 9.83834
178247914755406, 9.230313, -2.6464617, 3.1058838, -0.63734037, 0.019011736, 10.071863
178247924395511, 8.873783, -3.8847475, 2.6608188, 0.7144713, 0.05220318, 10.0200815
178247934035615, 9.098708, -2.4418755, 3.1190443, -0.7981254, -0.009387255, 9.891441
178247943675823, 9.060423, -3.798606, 2.652444, 0.58983, 0.1459918, 10.158096
178247953315927, 8.903693, -2.6249263, 2.9766715, -0.5404268, 0.0053298473, 9.733162
178247962956031, 9.1669035, -3.5150564, 2.8151557, 0.26565748, 0.0886662, 10.209528
178247972596136, 8.79123, -3.0723844, 2.9120653, -0.08487517, -0.058998585, 9.756778
178247982236344, 9.237492, -3.089134, 2.9874392, -0.20043361, 0.031255484, 10.186151
178247991876448, 8.744571, -3.6346977, 2.7266214, 0.49900007, 3.2258034E-4, 9.841952
178248001516552, 9.243474, -2.7505496, 3.1441689, -0.5651863, -0.06192565, 10.127678
178248011156761, 8.860622, -3.9314077, 2.7601209, 0.7315757, -0.026972055, 10.05231
178248020796865, 9.104691, -2.5663023, 3.2063823, -0.70769423, -0.14181685, 9.96199
178248030436969, 8.9826565, -3.9134614, 2.7086751, 0.694484, 0.063795805, 10.141687
178248040077073, 8.933603, -2.6596224, 3.0723844, -0.5554589, -0.088555336, 9.798267
178248049717281, 9.152547, -3.6143587, 2.885744, 0.3279212, 0.0024273396, 10.249523
178248059357386, 8.760123, -3.071188, 2.9838498, -0.10093957, -0.124442816, 9.749341
178248068997490, 9.24826, -3.1573296, 3.0317063, -0.15611428, -0.010055304, 10.230632
178248078637594, 8.766106, -3.5377884, 2.8031917, 0.38143474, -0.044243336, 9.852462
178248088277802, 9.236296, -2.7433712, 3.178865, -0.58222836, -0.07016945, 10.128994
178248097917906, 8.805588, -3.8991046, 2.8091738, 0.70744085, -0.11372495, 10.005972
178248107558011, 9.105886, -2.528017, 3.2709885, -0.7650126, -0.1654551, 9.969695
178248117198219, 8.973084, -3.9038901, 2.8031917, 0.6632566, -0.032492876, 10.157436
178248126838323, 8.946764, -2.597409, 3.1525438, -0.6385318, -0.12303519, 9.8136015
178248136478427, 9.116654, -3.611966, 2.8713872, 0.34062815, 0.02425003, 10.212146
178248146118531, 8.782856, -2.9766715, 3.0005996, -0.19133842, -0.11507559, 9.744377
178248155758740, 9.220742, -3.1728828, 2.9790642, -0.11843854, 0.025592089, 10.195558
178248165398844, 8.738588, -3.4899318, 2.7290142, 0.36451316, 0.033863783, 9.79061
178248175038948, 9.255438, -2.7948167, 3.0616167, -0.49949032, 0.0039007664, 10.129074
178248184679156, 8.82832, -3.8823547, 2.6775684, 0.7120639, 0.04403138, 9.983601
178248194319261, 9.132208, -2.5902305, 3.1477582, -0.6828634, -0.08913183, 9.977006
178248203959365, 8.975478, -3.9852462, 2.6536403, 0.76857513, 0.10255051, 10.143077
178248213599469, 9.020942, -2.6452653, 3.0329027, -0.5924925, -0.028764725, 9.860094
178248223239677, 9.122637, -3.7471602, 2.7445676, 0.48415393, 0.09752393, 10.22509
178248232879781, 8.801998, -2.9802606, 2.9276185, -0.19528759, -0.06245303, 9.740946
178248242519886, 9.241081, -3.2925239, 2.9168508, -0.0124774575, 0.052016973, 10.234426
178248252160094, 8.775677, -3.438486, 2.725425, 0.29470593, 0.03405285, 9.806917
178248261800198, 9.235099, -2.8390841, 2.9982069, -0.4499812, 0.05639696, 10.10599
178248271440302, 8.781659, -3.8560338, 2.6536403, 0.70374393, 0.022536755, 9.926358
178248281080406, 9.109476, -2.6273193, 3.1441689, -0.65307486, -0.09593272, 9.966719
178248290720615, 8.963513, -4.031906, 2.672783, 0.8041049, 0.045189857, 10.153618
178248300360719, 9.031709, -2.6608188, 3.0747771, -0.5851744, -0.072874546, 9.887276
178248310000823, 9.102298, -3.8333018, 2.7385855, 0.56397355, 0.06960082, 10.233424
178248319641031, 8.849854, -2.9515467, 2.9838498, -0.24974, -0.0979445, 9.790962
178248329281136, 9.249456, -3.32722, 2.9168508, 0.015084982, 0.03838539, 10.253251
178248338921240, 8.768498, -3.3702908, 2.713461, 0.22892904, 0.052888393, 9.775126
178248348561448, 9.2997055, -2.8582265, 2.9539394, -0.44436067, 0.08270836, 10.157533
178248358201552, 8.840283, -3.7878382, 2.6249263, 0.6309161, 0.09753847, 9.94892
178248367841656, 9.1669035, -2.5914268, 3.1310084, -0.6950773, -0.08338857, 10.0030365
178248377481761, 8.939586, -3.9601214, 2.6775684, 0.746015, 0.038491488, 10.109901
178248387121969, 9.02812, -2.5507488, 3.0747771, -0.6790923, -0.07408047, 9.848902
178248396762073, 9.127422, -3.7567315, 2.7158537, 0.504176, 0.08865857, 10.2243185
178248406402177, 8.879765, -2.774478, 2.9718857, -0.40589446, -0.062497616, 9.757632
178248416042386, 9.247063, -3.2554352, 2.8881369, -0.032043517, 0.065130234, 10.21969
178248425682490, 8.785249, -3.219543, 2.772085, 0.088326514, 0.012923002, 9.758204
178248435322594, 9.280562, -2.8342984, 2.9455647, -0.43977648, 0.10387635, 10.1308565
178248444962802, 8.803194, -3.6634114, 2.6452653, 0.5287763, 0.06357956, 9.880818
178248454602906, 9.205189, -2.5196424, 3.1357942, -0.75920326, -0.04843855, 10.016914
178248464243011, 8.933603, -3.900301, 2.7026932, 0.69982475, 0.0130701065, 10.091393
178248473883219, 9.047262, -2.5184457, 3.1202407, -0.7229638, -0.11087847, 9.868965
178248483523323, 9.071191, -3.7890346, 2.7242286, 0.557939, 0.06281352, 10.185749
178248493163427, 8.845069, -2.78046, 3.050849, -0.39759237, -0.1517322, 9.751553
178248502803636, 9.192028, -3.3990045, 2.9503503, 0.108653784, -0.03327799, 10.234174
178248512443740, 8.755338, -3.231507, 2.8833513, 0.08545256, -0.093725204, 9.767098
178248522083844, 9.284152, -2.9479575, 3.0197423, -0.34892064, 0.021447182, 10.192279
178248531724052, 8.76132, -3.714857, 2.7158537, 0.5820735, -0.027569294, 9.879129
178248541364156, 9.211171, -2.617748, 3.2004004, -0.68895197, -0.129704, 10.072207
178248551004261, 8.904889, -3.9338005, 2.7684958, 0.7259538, -0.05818224, 10.0948515
178248560644469, 9.084352, -2.5292134, 3.1920254, -0.7403615, -0.14619088, 9.926827
178248570284573, 9.062816, -3.8297126, 2.7481568, 0.5937898, 0.04164648, 10.1980095
178248579924677, 8.874979, -2.71705, 2.9982069, -0.45023775, -0.07460594, 9.743131
178248589564886, 9.19801, -3.4420755, 2.8438697, 0.17488462, 0.06524253, 10.222721
178248599204990, 8.758927, -3.1489546, 2.824727, 0.022024155, -0.025289774, 9.726904
178248608845094, 9.276974, -2.9982069, 2.9395826, -0.2842461, 0.06942892, 10.178752
178248618485302, 8.796016, -3.6717863, 2.6572297, 0.5381078, 0.05525446, 9.880291
178248628125406, 9.233903, -2.6488547, 3.1190443, -0.6410168, -0.04259491, 10.07954
178248637765511, 8.876176, -3.918247, 2.6871397, 0.7470429, 0.005122423, 10.040009
178248647405719, 9.126225, -2.5052853, 3.0999017, -0.7409742, -0.050878048, 9.930872
178248657045823, 9.09153, -3.8009987, 2.652444, 0.5808915, 0.13109422, 10.187461
178248666685927, 8.909675, -2.6333013, 2.9682965, -0.53369254, -0.0203681, 9.738692
178248676326136, 9.171689, -3.4444683, 2.7984061, 0.20079857, 0.083615065, 10.186657
178248685966240, 8.775677, -3.0664022, 2.8354948, -0.06362414, -0.026429415, 9.718571
178248695606344, 9.29492, -3.0352955, 2.9156544, -0.24477583, 0.0916965, 10.200063
178248705246552, 8.790034, -3.6179478, 2.6428726, 0.49480224, 0.060284376, 9.853454
178248714886656, 9.273384, -2.705086, 3.089134, -0.59434944, -0.011714697, 10.124352
178248724526761, 8.861818, -3.9696927, 2.684747, 0.7912008, -0.031826496, 10.043464
178248734166969, 9.096315, -2.5794628, 3.1513474, -0.7049806, -0.09613538, 9.940894
178248743807073, 9.010174, -3.9864426, 2.638087, 0.7803138, 0.06441808, 10.169633
178248753447281, 8.941978, -2.784049, 2.9766715, -0.41680408, -0.027776003, 9.818147
178248763087386, 9.205189, -3.65384, 2.792424, 0.3758558, 0.039214373, 10.283037
178248772727490, 8.804391, -3.1202407, 2.882155, -0.05769843, -0.07120347, 9.77505
178248782367698, 9.267402, -3.1561332, 2.9300113, -0.14528495, 0.048014402, 10.217997
178248792007802, 8.790034, -3.5856447, 2.6620152, 0.4441095, 0.022296906, 9.849373
178248801647906, 9.241081, -2.7302105, 3.0329027, -0.567773, 0.03766203, 10.085949
178248811288115, 8.822337, -3.8835511, 2.6512475, 0.72109634, -0.018999577, 9.971177
178248820928219, 9.1465645, -2.5519454, 3.1058838, -0.7230726, -0.024886608, 9.964695
178248830568427, 9.037691, -3.940979, 2.6476583, 0.7239013, 0.07015991, 10.182941
178248840208531, 8.939586, -2.6955147, 3.0041888, -0.51005894, -0.052260876, 9.795113
178248849848636, 9.164511, -3.6921253, 2.8091738, 0.41542125, 0.007227421, 10.2634735
178248859488844, 8.806784, -3.042474, 2.973082, -0.14783949, -0.14329195, 9.778186
178248869128948, 9.262616, -3.1812577, 2.9647074, -0.12850887, 0.0034365654, 10.231785
178248878769052, 8.788837, -3.4624143, 2.7230322, 0.32017112, 0.0073156357, 9.825697
178248888409261, 9.23151, -2.6919255, 3.0472596, -0.5936153, 0.007494211, 10.069788
178248898049365, 8.817552, -3.81057, 2.6548367, 0.66268945, 0.01809287, 9.943759
178248907689573, 9.147761, -2.4478576, 3.1633115, -0.8363917, -0.09254122, 9.948466
178248917329677, 8.99462, -3.8500516, 2.6668007, 0.6418844, 0.051988363, 10.120436
178248926969781, 8.99821, -2.5639095, 3.0592237, -0.6492392, -0.0731585, 9.822087
178248936609990, 9.147761, -3.6203406, 2.8091738, 0.3533464, 0.029453754, 10.225172
178248946250094, 8.82473, -2.902494, 2.9874392, -0.27731103, -0.13001895, 9.753529
178248955890302, 9.269794, -3.1441689, 2.9623144, -0.15349078, 0.012979031, 10.225774
178248965530406, 8.769695, -3.367898, 2.7206392, 0.24573088, 0.021677494, 9.777081
178248975170511, 9.270991, -2.7290142, 3.028117, -0.5553917, 0.017779827, 10.112346
178248984810719, 8.807981, -3.7734814, 2.6679974, 0.6312502, 0.012451649, 9.926695
178248994450823, 9.152547, -2.5040889, 3.1357942, -0.7600913, -0.09008646, 9.964283
178249004091031, 8.980264, -3.9170506, 2.6428726, 0.72645724, 0.07769966, 10.121237
178249013731136, 9.005388, -2.617748, 3.0149565, -0.60277635, -0.04570532, 9.832302
178249023371240, 9.132208, -3.751946, 2.7338, 0.50385123, 0.07359815, 10.231749
178249033011448, 8.840283, -2.9395826, 2.9778678, -0.25325364, -0.124574184, 9.776491
178249042651552, 9.233903, -3.3032916, 2.932404, -0.0010533333, -0.0038309097, 10.235998
178249052291761, 8.756535, -3.4217365, 2.7589245, 0.27702755, -0.021256447, 9.793858
178249061931865, 9.265009, -2.87378, 2.9982069, -0.43092686, 0.019440651, 10.144073
178249071571969, 8.810373, -3.845266, 2.6416762, 0.6818496, 0.027340889, 9.945931
178249081212177, 9.18485, -2.6249263, 3.1429725, -0.6740091, -0.09807849, 10.033247
178249090852281, 8.938389, -4.028317, 2.6404798, 0.827544, 0.020630836, 10.119735
178249100492490, 9.035298, -2.6309085, 3.054438, -0.6237965, -0.065212965, 9.87393
178249110132594, 9.129815, -3.842873, 2.705086, 0.575479, 0.07146597, 10.2519455
178249119772802, 8.8701935, -2.9359934, 2.9599216, -0.264031, -0.09038973, 9.797124
178249129412906, 9.243474, -3.414558, 2.882155, 0.10304469, 0.022367477, 10.266291
178249139053011, 8.740981, -3.394219, 2.7290142, 0.25475037, -0.0066816807, 9.762585
178249148693219, 9.275777, -2.9718857, 2.9132617, -0.31906337, 0.09155989, 10.161154
178249158333323, 8.768498, -3.8476589, 2.5938199, 0.7027755, 0.04232073, 9.895619
178249167973531, 9.18126, -2.6464617, 3.103491, -0.6612004, -0.045630455, 10.024553
178249177613636, 8.938389, -3.999603, 2.6249263, 0.8018105, 0.051504612, 10.106252
178249187253844, 9.030513, -2.6045876, 3.0532417, -0.6492796, -0.035617113, 9.860704
178249196893948, 9.085547, -3.8368912, 2.6668007, 0.60515815, 0.07801914, 10.198453
178249206534156, 8.855837, -2.82712, 2.9563324, -0.36111957, -0.062016487, 9.748032
178249216174261, 9.215957, -3.3966117, 2.8570302, 0.10921246, 0.043710947, 10.228373
178249225814365, 8.744571, -3.2997024, 2.806781, 0.14650017, -0.062102795, 9.757472
178249235454573, 9.293723, -2.9443684, 3.0089746, -0.37190402, 0.02550149, 10.195958
178249245094677, 8.812766, -3.723232, 2.7314072, 0.54342407, -0.047231913, 9.934301
178249254734886, 9.233903, -2.5806592, 3.2398818, -0.76445305, -0.12490749, 10.09067
178249264374990, 8.9013, -3.9038901, 2.751746, 0.6847919, -0.07150769, 10.078272
178249274015198, 9.05803, -2.4478576, 3.1345978, -0.79669744, -0.08378601, 9.860217
178249283655302, 9.0951185, -3.739982, 2.6823542, 0.52662325, 0.10125089, 10.179199
178249293295511, 8.8905325, -2.6991038, 2.975475, -0.48164302, -0.046474934, 9.744026
178249302935615, 9.224331, -3.394219, 2.861816, 0.121798515, 0.050484896, 10.23629
178249312575823, 8.760123, -3.1692936, 2.8390841, 0.032104492, -0.056732893, 9.7386
178249322215927, 9.257831, -2.981457, 2.9252257, -0.2895981, 0.06958556, 10.1520815
178249331856031, 8.822337, -3.690929, 2.656033, 0.54928815, 0.043474197, 9.90997
178249341496240, 9.260223, -2.629712, 3.1190443, -0.67518866, -0.051174164, 10.096388
178249351136344, 8.902496, -3.8727834, 2.6368906, 0.6999168, 0.05397892, 10.035601
178249360776552, 9.0747795, -3.042474, 2.9443684, -0.19519812, -0.027152061, 10.01193
178249370416656, 9.040084, -3.2590244, 2.7792635, 0.06441885, 0.0753932, 10.002941
178249380056865, 9.031709, -3.1920254, 2.8498518, -0.014116168, 0.018232584, 9.994093
178249389696969, 9.012567, -3.199204, 2.8749764, -0.007517457, -0.012684584, 9.986319
178249399337177, 9.022138, -3.1944182, 2.8965118, -0.018251061, -0.027361393, 9.999599
178249408977281, 9.008977, -3.1549366, 2.894119, -0.04909253, -0.022876978, 9.974381
178249418617490, 9.016156, -3.1812577, 2.8965118, -0.025180101, -0.025492668, 9.989994
178249428257594, 9.032906, -3.1728828, 2.8989046, -0.03763622, -0.020959854, 10.003118
178249437897802, 9.053245, -3.1956146, 2.906083, -0.022148669, -0.022943497, 10.030826
178249447537906, 9.02812, -3.1812577, 2.9156544, -0.030015111, -0.037761927, 10.006301
178249457178115, 9.036494, -3.1669009, 2.940779, -0.050917268, -0.054649353, 10.016491
178249466818219, 9.014959, -3.1776686, 2.9575288, -0.035179913, -0.07810688, 10.005335
178249476458427, 9.02812, -3.1597223, 2.9467611, -0.052706122, -0.06094742, 10.008382
178249486098531, 9.006584, -3.1441689, 2.914458, -0.050656557, -0.03434944, 9.974701
178249495738740, 9.025727, -3.129812, 2.8809586, -0.059448957, 0.005856037, 9.977767
178249505378844, 9.0544405, -3.1405797, 2.8809586, -0.055703282, 0.014082432, 10.007135
178249515019052, 9.062816, -3.150151, 2.8701909, -0.046155393, 0.025206566, 10.014655
178249524659156, 9.029316, -3.1692936, 2.8953154, -0.025706768, -0.014073372, 9.997747
178249534299365, 9.02812, -3.176472, 2.9216363, -0.024301052, -0.041847944, 10.006525
178249543939469, 9.037691, -3.1633115, 2.9252257, -0.040103734, -0.040766, 10.011997
178249553579677, 9.019745, -3.1645079, 2.902494, -0.028595746, -0.025737047, 9.989639
178249563219781, 9.025727, -3.1645079, 2.8486555, -0.016980886, 0.026083708, 9.979566
178249572859990, 9.038888, -3.1669009, 2.845066, -0.017132103, 0.033343315, 9.991182
178249582500094, 9.040084, -3.2004004, 2.8223343, 0.01811421, 0.048175097, 9.996428
178249592140302, 9.031709, -3.2398818, 2.8438697, 0.0508461, 0.018162727, 10.007661
178249601780406, 9.0341015, -3.237489, 2.894119, 0.033745706, -0.027763605, 10.023491
178249611420615, 9.008977, -3.2530425, 2.8893332, 0.055848658, -0.034356594, 10.004394
178249621060719, 9.030513, -3.2638102, 2.8989046, 0.05652958, -0.037623167, 10.030038
178249630700927, 9.031709, -3.2554352, 2.8965118, 0.047280252, -0.03365326, 10.027764
178249640341136, 9.014959, -3.2231321, 2.8606195, 0.029510915, -5.1760674E-4, 9.992015
178249649981240, 9.0341015, -3.2482567, 2.845066, 0.051618874, 0.017155647, 10.012872
178249659621448, 9.038888, -3.211168, 2.833102, 0.018353164, 0.03614211, 10.001895
178249669261552, 9.037691, -3.2231321, 2.8666015, 0.021113396, 0.0030899048, 10.014259
178249678901761, 8.99821, -3.2422748, 2.8917263, 0.043020725, -0.037021637, 9.991947
178249688541865, 9.006584, -3.2231321, 2.8917263, 0.021701992, -0.0316813, 9.993383
178249698182073, 9.031709, -3.237489, 2.9048867, 0.025544345, -0.037276983, 10.02444
178249707822177, 9.031709, -3.2087753, 2.9096723, -0.0027535558, -0.037153482, 10.016627
178249717462386, 9.012567, -3.211168, 2.8845477, 0.01098448, -0.020434856, 9.9929
178249727102490, 9.056833, -3.1980073, 2.8929226, -0.014255643, -0.010802031, 10.031058
178249736742698, 9.038888, -3.1860433, 2.8582265, -0.012515962, 0.017242432, 10.00107
178249746382802, 9.031709, -3.1944182, 2.8570302, -7.160306E-4, 0.014746189, 9.996924
178249756023011, 9.060423, -3.2183464, 2.8761728, 0.010636926, 0.0028452873, 10.035997
178249765663219, 9.02812, -3.205186, 2.9012976, 1.8155575E-4, -0.029610634, 10.009836
178249775303323, 9.008977, -3.2135608, 2.8905299, 0.016586006, -0.027849197, 9.992135
178249784943531, 9.018549, -3.1884363, 2.9048867, -0.012428641, -0.034160376, 9.996871
178249794583636, 9.0233345, -3.1776686, 2.9036903, -0.02340126, -0.029749632, 9.997406
178249804223844, 9.056833, -3.1573296, 2.894119, -0.047563374, -0.0064930916, 10.018412
178249813863948, 9.067601, -3.1334012, 2.914458, -0.07666606, -0.018339634, 10.026337
178249823504156, 9.052048, -3.1106694, 2.87378, -0.08140677, 0.017251968, 9.993374
178249833144365, 9.018549, -3.1118658, 2.882155, -0.073675394, -0.002115965, 9.965908
178249842784469, 9.032906, -3.129812, 2.8785655, -0.058493078, 0.004480362, 9.983578
178249852424677, 9.035298, -3.121437, 2.8881369, -0.06924492, -4.5728683E-4, 9.985816
178249862064781, 9.035298, -3.1609187, 2.8845477, -0.032159746, -0.002904892, 9.997378
178249871704990, 9.049655, -3.1812577, 2.853441, -0.009699106, 0.027380943, 10.0078945
178249881345094, 9.036494, -3.1956146, 2.8438697, 0.009408653, 0.029561281, 9.997841
178249890985302, 9.025727, -3.2004004, 2.8522446, 0.011018157, 0.016073942, 9.992058
178249900625511, 9.031709, -3.2039895, 2.882155, 0.00393486, -0.010403633, 10.007198
178249910265615, 9.019745, -3.2219357, 2.865405, 0.026685536, -7.8582764E-4, 9.997325
178249919905823, 8.989835, -3.2482567, 2.8725836, 0.05659002, -0.020643234, 9.980802
178249929545927, 9.0029955, -3.278167, 2.8761728, 0.07915896, -0.021610975, 10.003299
178249939186136, 9.02453, -3.2817562, 2.8833513, 0.07368672, -0.021010637, 10.025962
178249948826240, 9.0436735, -3.2889347, 2.8713872, 0.07781088, -0.004062414, 10.042108
178249958466448, 9.037691, -3.2769706, 2.8570302, 0.06902987, 0.0089895725, 10.028768
178249968106656, 9.010174, -3.2853456, 2.8522446, 0.08528459, 0.002755642, 10.005237
178249977746761, 9.008977, -3.2841492, 2.8390841, 0.08647722, 0.013673544, 10.000002
178249987386969, 9.01137, -3.2709885, 2.8725836, 0.06430203, -0.015459776, 10.007572
178249997027073, 9.040084, -3.2889347, 2.8725836, 0.072161734, -0.00975132, 10.039255
178250006667281, 9.046066, -3.278167, 2.8749764, 0.059212267, -0.010124207, 10.041892
178250016307490, 9.052048, -3.2434711, 2.8546374, 0.03025335, 0.014858007, 10.03033
178250025947594, 9.050852, -3.21715, 2.8402805, 0.009392798, 0.03165412, 10.01669
178250035587802, 9.0233345, -3.1812577, 2.82712, -0.010604203, 0.039407253, 9.976569
178250045227906, 9.036494, -3.1429725, 2.841477, -0.053296566, 0.03610158, 9.9803
178250054868115, 9.026923, -3.129812, 2.8474588, -0.06064391, 0.028220415, 9.969184
178250064508323, 9.031709, -3.1369905, 2.8426733, -0.054058313, 0.033321857, 9.974431
178250074148427, 9.010174, -3.1609187, 2.8689942, -0.030166626, -0.0019712448, 9.970198
178250083788636, 9.047262, -3.1728828, 2.8965118, -0.033712566, -0.016653776, 10.015415
178250093428740, 9.05803, -3.1680973, 2.9336007, -0.04899615, -0.046764374, 10.034252
178250103068948, 9.020942, -3.1752756, 2.894119, -0.022666812, -0.023192883, 9.991729
178250112709156, 9.037691, -3.1609187, 2.9192436, -0.043604553, -0.037835836, 10.009493
178250122349261, 9.066405, -3.158526, 2.8869405, -0.045651495, 0.0023710728, 10.025384
178250131989469, 9.02453, -3.1728828, 2.8677979, -0.014868736, 0.0046229362, 9.98666
178250141629573, 9.004191, -3.1537402, 2.8713872, -0.026661575, -0.002418995, 9.963217
178250151269781, 9.017352, -3.1645079, 2.8546374, -0.014875948, 0.01657939, 9.973725
178250160909990, 9.040084, -3.1860433, 2.861816, -0.002467692, 0.014541864, 10.003188
178250170550094, 9.041281, -3.196811, 2.882155, 0.0020016432, -0.0055515766, 10.013548
178250180190302, 9.040084, -3.229114, 2.8725836, 0.033200502, -0.0034124851, 10.020026
178250189830511, 9.060423, -3.2147572, 2.8761728, 0.013830662, 0.0026328564, 10.034845
178250199470615, 9.048459, -3.2327034, 2.879762, 0.031195879, -0.008423328, 10.0308
178250209110823, 9.026923, -3.1956146, 2.8785655, 0.0012228489, -0.008424759, 9.999168
178250218750927, 9.029316, -3.2147572, 2.861816, 0.023346543, 0.004810095, 10.00263
178250228391136, 9.046066, -3.190829, 2.8438697, 0.0018844008, 0.03135872, 10.004964
178250238031344, 9.018549, -3.1956146, 2.8630123, 0.008193672, 0.0034401417, 9.987139
178250247671448, 9.026923, -3.1920254, 2.8438697, 0.0073230863, 0.02495122, 9.988057
178250257311656, 9.056833, -3.1680973, 2.8677979, -0.029279351, 0.017487526, 10.014298
178250266951865, 9.05803, -3.2004004, 2.8725836, -3.170371E-4, 0.007990122, 10.027072
178250276591969, 9.040084, -3.2207394, 2.865405, 0.024835765, 0.0049784184, 10.015299
178250286232177, 9.0029955, -3.196811, 2.8953154, 0.0046120286, -0.030897379, 9.982756
178250295872281, 9.016156, -3.2207394, 2.8761728, 0.028279603, -0.012316227, 9.996781
178250305512490, 9.072387, -3.1920254, 2.8630123, -0.009524941, 0.024658918, 10.034608
178250315152698, 9.062816, -3.196811, 2.8761728, -0.0059034824, 0.008408785, 10.031275
178250324792802, 9.031709, -3.1896327, 2.8905299, -0.0066890717, -0.013685942, 10.005021
