timestamp_acc,device_acc_x,device_acc_y,device_acc_z,earth_acc_x,earth_acc_y,earth_acc_z
177845490605723, -0.9056834, 6.3481584, 7.628319, 0.0011496544, -0.07323694, 9.965202
177845500244786, -0.9020941, 6.35773, 7.6331043, 0.0025987625, -0.06749439, 9.974681
177845509883744, -0.86979103, 6.3804617, 7.5936227, 0.013388872, -0.013921738, 9.956385
177845519522806, -0.8865408, 6.398408, 7.530213, -0.025864601, 0.027326107, 9.921102
177845529161765, -0.8805587, 6.4354963, 7.570891, -0.01463151, 0.034000874, 9.975369
177845538800827, -0.85064846, 6.391229, 7.4775705, -0.0040826797, 0.06496191, 9.8732605
177845548439786, -0.82672024, 6.3565335, 7.429714, 0.010012865, 0.0757761, 9.81243
177845558078848, -0.8817552, 6.3314085, 7.48116, -0.01585865, 0.0047883987, 9.840311
177845567717806, -0.86261255, 6.35773, 7.507481, 7.67231E-4, 0.01854086, 9.875562
177845577356869, -0.8650054, 6.3182483, 7.542177, 0.022842646, -0.028994083, 9.87682
177845586995827, -0.86261255, 6.3110695, 7.5469627, 0.026471615, -0.03442955, 9.87565
177845596634890, -0.8865408, 6.385247, 7.585248, -0.005329132, -0.011822224, 9.954554
177845606273848, -0.9451649, 6.375676, 7.6019974, -0.04778576, -0.05101919, 9.966347
177845615912911, -0.87338024, 6.38764, 7.5637126, -0.0024375916, 0.011683464, 9.938528
177845625551869, -0.8350951, 6.4271216, 7.5720873, 0.021679163, 0.054020405, 9.966864
177845635190931, -0.8961121, 6.3744793, 7.536195, -0.027623177, 0.0062720776, 9.911127
177845644829890, -0.86261255, 6.381658, 7.503892, -0.0107114315, 0.04311943, 9.88818
177845654468952, -0.8554341, 6.346962, 7.5409803, 0.020023584, 0.0022950172, 9.8935175
177845664107911, -0.90448695, 6.303891, 7.539784, -0.005757332, -0.050311565, 9.869291
177845673746869, -0.94396853, 6.2871413, 7.4416785, -0.07104206, -0.028283596, 9.787336
177845683385931, -0.9068798, 6.3194447, 7.361519, -0.076180935, 0.055833578, 9.743761
177845693024994, -0.81236327, 6.3744793, 7.3363943, -0.020782232, 0.15711927, 9.751487
177845702663952, -0.84347, 6.391229, 7.3986077, -0.032061815, 0.12460017, 9.812345
177845712303015, -0.89013004, 6.390033, 7.54457, -0.022610664, 0.027926445, 9.926937
177845721941973, -0.90807617, 6.4354963, 7.733603, 0.016736746, -0.049728394, 10.101786
177845731581036, -0.89730847, 6.363712, 7.6570325, 0.019618034, -0.04969859, 9.996464
177845741219994, -0.89730847, 6.3625154, 7.6271224, 0.010098934, -0.032139063, 9.972895
177845750859056, -0.89371926, 6.367301, 7.6019974, 0.006157398, -0.012862682, 9.956475
177845760498015, -0.8386843, 6.35773, 7.4584284, 0.012097359, 0.082534075, 9.83592
177845770136973, -0.82911307, 6.3314085, 7.350751, -0.002380848, 0.12489581, 9.736125
177845779776036, -0.85064846, 6.314659, 7.292127, -0.026231527, 0.13213706, 9.682742
177845789414994, -0.87936234, 6.3050876, 7.379465, -0.016300201, 0.06538534, 9.745736
177845799054056, -0.8709874, 6.296713, 7.5026956, 0.03025651, 3.3140182E-4, 9.83345
177845808693015, -0.8781659, 6.3122663, 7.6606216, 0.06538677, -0.07355261, 9.964502
177845818332077, -0.91884387, 6.3314085, 7.812566, 0.06575012, -0.15504122, 10.096477
177845827971036, -1.0001999, 6.32423, 7.8628154, 0.012423277, -0.22134686, 10.137603
177845837610098, -0.94396853, 6.3565335, 7.793423, 0.027023792, -0.12680578, 10.100357
177845847249161, -0.9320044, 6.398408, 7.722835, 0.0021600723, -0.052841187, 10.072123
177845856888119, -0.94636136, 6.4558353, 7.7180495, -0.026713848, -0.015017509, 10.106472
177845866527181, -0.9738788, 6.4211397, 7.6343007, -0.06597924, -0.008657455, 10.022854
177845876166140, -1.0037891, 6.3924255, 7.469196, -0.1263361, 0.03750038, 9.881407
177845885805202, -0.9212367, 6.3720865, 7.2502527, -0.11878157, 0.17494178, 9.693997
177845895444161, -0.92602235, 6.3194447, 7.179664, -0.13039637, 0.17513108, 9.606913
177845905083119, -0.9284152, 6.34098, 7.34118, -0.07696605, 0.099764824, 9.744076
177845914722181, -0.96909314, 6.363712, 7.59123, -0.036261797, -0.035503387, 9.952896
177845924361244, -0.9403793, 6.3397837, 7.759924, 0.049446106, -0.13032818, 10.063508
177845934000202, -0.90448695, 6.3134627, 7.685746, 0.060907602, -0.09092474, 9.986822
177845943639265, -0.8865408, 6.323034, 7.5529447, 0.02969098, -0.0030317307, 9.890038
177845953278223, -0.8913264, 6.3661046, 7.5050883, -0.0036079884, 0.052829266, 9.881565
177845962917181, -0.9020941, 6.355337, 7.459625, -0.024647474, 0.064296246, 9.841003
177845972556244, -0.88295156, 6.3361945, 7.429714, -0.0059723854, 0.07231331, 9.804201
177845982195306, -0.82672024, 6.344569, 7.436893, 0.046542168, 0.0982461, 9.80982
177845991834265, -0.8602197, 6.29432, 7.4189467, 0.025028467, 0.05728817, 9.767052
177846001473327, -0.85902333, 6.3158555, 7.409375, 0.016394854, 0.07673597, 9.773466
177846011112286, -0.91405827, 6.3254266, 7.4775705, -0.011600256, 0.021273136, 9.836666
177846020751348, -0.92243314, 6.323034, 7.5493555, 0.003017664, -0.018967152, 9.890603
177846030390306, -0.9056834, 6.334998, 7.5924263, 0.029095888, -0.026858807, 9.929544
177846040029369, -0.9200403, 6.3290157, 7.618747, 0.024632692, -0.048167706, 9.947126
177846049668327, -0.9236295, 6.3493547, 7.5900335, 0.0028836727, -0.012722492, 9.938604
177846059307390, -0.91884387, 6.3110695, 7.5720873, 0.010760307, -0.02650261, 9.899978
177846068946348, -0.91405827, 6.34098, 7.5613194, 0.003058672, 0.004401207, 9.910452
177846078585411, -0.90329057, 6.3361945, 7.576873, 0.01912427, -0.0028996468, 9.9182625
177846088224369, -0.8997013, 6.3457656, 7.5673018, 0.016927958, 0.010742664, 9.916746
177846097863327, -0.91884387, 6.346962, 7.55773, -0.0037989616, 0.007953167, 9.911982
177846107502390, -0.8961121, 6.3290157, 7.560123, 0.02213931, 0.0022649765, 9.900223
177846117141452, -0.90807617, 6.3326054, 7.521838, -0.004447937, 0.020426273, 9.874418
177846126780411, -0.92482597, 6.337391, 7.570891, -0.006629944, -0.01082468, 9.916454
177846136419473, -0.91405827, 6.3134627, 7.585248, 0.014748573, -0.03117466, 9.911111
177846146058431, -0.94636136, 6.314659, 7.5409803, -0.03592658, -0.019348145, 9.881056
177846155697494, -0.95353985, 6.317052, 7.48116, -0.0658226, 0.013266087, 9.837561
177846165336452, -0.9020941, 6.3385873, 7.469196, -0.028899431, 0.05727291, 9.837492
177846174975411, -0.9176475, 6.337391, 7.537391, -0.022129774, 0.012917519, 9.890207
177846184614473, -0.96430755, 6.3397837, 7.611569, -0.044731855, -0.0447402, 9.952623
177846194253536, -0.90448695, 6.3517475, 7.588837, -0.0010721684, 0.001364708, 9.937466
177846203892494, -0.88295156, 6.3481584, 7.5529447, 0.00805831, 0.026258945, 9.905804
177846213531556, -0.8913264, 6.3625154, 7.5529447, -0.0035562515, 0.033069134, 9.915743
177846223170515, -0.85064846, 6.35773, 7.456035, 0.004637718, 0.09584761, 9.835018
177846232809473, -0.8913264, 6.3421764, 7.4416785, -0.03234768, 0.07514191, 9.817818
177846242448536, -0.910469, 6.352944, 7.466803, -0.04301262, 0.05586624, 9.84566
177846252087494, -0.9056834, 6.3684974, 7.5062847, -0.029760838, 0.047380924, 9.8853035
177846261726556, -0.9164511, 6.3696938, 7.4907312, -0.044849873, 0.050935745, 9.875189
177846271365515, -0.9092726, 6.35773, 7.436893, -0.05387211, 0.0745368, 9.825806
177846281004577, -0.910469, 6.3481584, 7.4536424, -0.04693246, 0.05858898, 9.83256
177846290643536, -0.910469, 6.3517475, 7.52782, -0.023767233, 0.02188301, 9.891445
177846300282598, -0.9415757, 6.323034, 7.6390862, -0.0045797825, -0.07283878, 9.960805
177846309921556, -0.91884387, 6.306284, 7.6678, 0.029593468, -0.08856726, 9.969952
177846319560619, -0.8458628, 6.2931237, 7.5816584, 0.068007946, -0.016830444, 9.889162
177846329199577, -0.8243274, 6.270392, 7.503892, 0.06923795, 0.019922733, 9.813286
177846338838640, -0.86261255, 6.29432, 7.501499, 0.0291152, 0.019906044, 9.83025
177846348477598, -0.8805587, 6.3326054, 7.5589266, 0.023409843, 0.0071434975, 9.900205
177846358116661, -0.8542377, 6.3050876, 7.500303, 0.034914017, 0.030373573, 9.835461
177846367755619, -0.8350951, 6.306284, 7.5146594, 0.056702852, 0.03192091, 9.84543
177846377394681, -0.8566305, 6.350551, 7.5182486, 0.024968624, 0.050938606, 9.878469
177846387033640, -0.8889336, 6.320641, 7.487142, -0.0057981014, 0.032060146, 9.838545
177846396672702, -0.94636136, 6.323034, 7.59123, -0.020637989, -0.047533035, 9.924739
177846406311661, -0.9738788, 6.346962, 7.658229, -0.028608322, -0.07672453, 9.993704
177846415950723, -0.9822537, 6.344569, 7.678568, -0.027626991, -0.090919495, 10.008484
177846425589681, -0.96789676, 6.381658, 7.6366935, -0.037118435, -0.034321308, 9.998947
177846435228744, -1.012164, 6.4127645, 7.609176, -0.09549737, -0.016113758, 10.001911
177846444867702, -1.032503, 6.40439, 7.5493555, -0.1260438, 0.0010514259, 9.9528475
177846454506765, -1.0001999, 6.4031935, 7.507481, -0.109996796, 0.041288376, 9.917145
177846464145723, -0.94396853, 6.373283, 7.463214, -0.06154442, 0.06657076, 9.859066
177846473784786, -0.9068798, 6.3385873, 7.4045897, -0.0364511, 0.086865425, 9.788728
177846483423744, -0.89371926, 6.3290157, 7.420143, -0.015296698, 0.07399225, 9.793264
177846493062806, -0.8925229, 6.29432, 7.4309106, -0.0018088818, 0.043416023, 9.779142
177846502701765, -0.8925229, 6.2679987, 7.507481, 0.029388905, -0.0178051, 9.820665
177846512340827, -0.9296116, 6.296713, 7.5409803, -0.0018396378, -0.029035568, 9.868046
177846521979786, -0.9379865, 6.2979093, 7.5433736, -0.009958029, -0.031032562, 9.87142
177846531618744, -0.910469, 6.2775702, 7.609176, 0.042894125, -0.070438385, 9.906039
177846541257806, -0.9200403, 6.385247, 7.732406, 0.047190428, -0.06229925, 10.069849
177846550896765, -0.930808, 6.2344995, 7.649854, 0.053160906, -0.12711954, 9.911442
177846560535827, -0.7692925, 6.573084, 7.798209, 0.14586425, 0.107180595, 10.226269
177846570174786, -0.94396853, 5.837291, 7.5182486, 0.11452341, -0.34317303, 9.558151
177846579813848, -0.7106683, 6.99781, 7.7180495, 0.03473401, 0.47542858, 10.431465
177846589452806, -1.0516455, 5.656633, 7.3627152, 0.023070574, -0.44940948, 9.333303
177846599091869, -0.72382885, 7.075577, 7.3543406, -0.1459887, 0.7033355, 10.205786
177846608730827, -1.0145568, 5.721239, 7.243074, -0.0024135113, -0.31757784, 9.280256
177846618369890, -0.7932207, 6.799206, 7.3304124, -0.12563968, 0.48990703, 10.016863
177846628008848, -0.95353985, 6.105287, 7.429714, -0.004618168, -0.12994361, 9.662687
177846637647911, -0.92482597, 6.3326054, 7.344769, -0.08616638, 0.092252016, 9.740992
177846647286869, -0.7704889, 6.570691, 7.576873, 0.061748028, 0.20883703, 10.056303
177846656925931, -0.997807, 5.8301125, 7.4380894, 0.033926725, -0.34407163, 9.49692
177846666564890, -0.7573284, 6.948757, 7.77787, 0.028665066, 0.37296534, 10.450555
177846676203848, -1.0971092, 5.593223, 7.5637126, 0.043977022, -0.62030864, 9.450441
177846685842911, -0.79800636, 7.0731835, 7.7012997, -0.070304394, 0.49493837, 10.4750595
177846695481869, -1.1365907, 5.7140603, 7.5314093, -0.0079398155, -0.5382862, 9.506557
177846705120931, -0.89013004, 6.8853474, 7.5720873, -0.12645578, 0.38280344, 10.2652
177846714759890, -1.0516455, 6.1232333, 7.6031938, -0.03758645, -0.23935366, 9.815792
177846724398952, -0.9846465, 6.4354963, 7.4189467, -0.1269679, 0.106068134, 9.869072
177846734037911, -0.9128618, 6.5898337, 7.5613194, -0.06456709, 0.17045307, 10.069735
177846743676973, -1.0648061, 5.907879, 7.4189467, -0.045193195, -0.3048308, 9.538485
177846753315931, -0.7585248, 6.943971, 7.6953177, 0.0056004524, 0.41957235, 10.384409
177846762954994, -1.0648061, 5.5597234, 7.457232, 0.0816679, -0.5701618, 9.344672
177846772593952, -0.7106683, 7.0815587, 7.688139, 6.26564E-4, 0.5524826, 10.462112
177846782232911, -1.038485, 5.613562, 7.5409803, 0.10206509, -0.566138, 9.440657
177846791871973, -0.8003992, 6.818348, 7.62114, -0.024624825, 0.3512292, 10.251259
177846801510931, -0.9499506, 5.99761, 7.5673018, 0.0804472, -0.26658368, 9.698467
177846811149994, -0.8662018, 6.4199433, 7.393822, -0.042244434, 0.1616242, 9.828871
177846820788952, -0.7860422, 6.502496, 7.426125, 0.01161623, 0.24274182, 9.89892
177846830428015, -1.0145568, 5.919843, 7.2215385, -0.07719588, -0.17003536, 9.390933
177846840066973, -0.782453, 6.960721, 7.554141, -0.07551718, 0.49522638, 10.289703
177846849705931, -1.1150553, 5.6207404, 7.4069824, -0.003493309, -0.52472377, 9.350087
177846859344994, -0.7896315, 7.112665, 7.6223364, -0.10856509, 0.555913, 10.439959
177846868983952, -1.0803595, 5.6386867, 7.4237323, 0.026817322, -0.50482416, 9.371138
177846878623015, -0.7704889, 6.9332037, 7.5230346, -0.089687824, 0.5076015, 10.246626
177846888261973, -0.97507524, 5.9617176, 7.5673018, 0.050833464, -0.30091906, 9.678005
177846897901036, -0.90089774, 6.4438715, 7.537391, -0.04147315, 0.0894475, 9.956789
177846907539994, -0.8578269, 6.4558353, 7.7036924, 0.047703505, 0.03587389, 10.087467
177846917179056, -0.98584294, 5.918647, 7.519445, 0.031084776, -0.3040347, 9.615141
177846926818015, -0.7477571, 6.8422766, 7.7647095, 0.046604156, 0.32780313, 10.370967
177846936456973, -1.0588241, 5.5968122, 7.5637126, 0.09982443, -0.5813577, 9.45025
177846946096036, -0.73100734, 7.064809, 7.692925, -0.04396844, 0.5362096, 10.45646
177846955734994, -1.0468599, 5.5872407, 7.3196445, 0.030175209, -0.45236516, 9.25661
177846965374056, -0.7585248, 6.926025, 7.463214, -0.09861159, 0.537189, 10.195412
177846975013015, -1.0313065, 5.9521465, 7.5589266, 0.0073611736, -0.3263495, 9.6707
177846984651973, -0.9164511, 6.5108705, 7.5696945, -0.06622481, 0.11395216, 10.025677
177846994291036, -0.8386843, 6.3996043, 7.6630144, 0.0700984, 0.031808853, 10.018694
177847003929994, -0.9391829, 6.003592, 7.4787674, 0.038745403, -0.19917464, 9.634106
177847013569056, -0.7501499, 6.8458657, 7.773084, 0.043278933, 0.32607126, 10.379847
177847023208015, -1.1018949, 5.6374903, 7.4943204, 0.00798583, -0.53907776, 9.427069
177847032847077, -0.7405786, 7.0468626, 7.6462646, -0.05696869, 0.54195976, 10.410337
177847042486036, -1.0432707, 5.5669017, 7.3375907, 0.022867203, -0.47771478, 9.256907
177847052124994, -0.7082755, 6.91765, 7.4189467, -0.055808306, 0.5836718, 10.15148
177847061764056, -0.9320044, 5.8767724, 7.3842506, 0.050419807, -0.24744034, 9.479899
177847071403015, -0.8207382, 6.586244, 7.3770723, -0.06954336, 0.308563, 9.918336
177847081042077, -0.81834537, 6.3517475, 7.4943204, 0.051329136, 0.08204031, 9.857478
177847090681036, -0.863809, 6.020342, 7.3399835, 0.05758357, -0.0871408, 9.531796
177847100319994, -0.64008003, 6.8111696, 7.648658, 0.11614823, 0.4091468, 10.252942
177847109959056, -1.0085747, 5.669793, 7.576873, 0.12965798, -0.52382445, 9.501661
177847119598015, -0.7908279, 7.0325055, 7.9429746, 0.017184973, 0.335886, 10.632933
177847129237077, -1.1509477, 5.601598, 7.6366935, 0.037933588, -0.6667402, 9.517125
177847138876036, -0.8243274, 7.0205417, 7.6462646, -0.114423275, 0.4726758, 10.401749
177847148514994, -1.119841, 5.8803616, 7.520642, -0.06576967, -0.38995576, 9.603976
177847158154056, -1.0001999, 6.6831536, 7.542177, -0.1938312, 0.21244693, 10.122582
177847167793015, -1.0253245, 6.367301, 7.6259255, -0.08321166, -0.06459427, 9.986864
177847177432077, -1.0372887, 6.172286, 7.4153576, -0.11104369, -0.09783149, 9.702511
177847187071036, -0.802792, 6.8015985, 7.623533, -0.020440578, 0.34316492, 10.242378
177847196709994, -1.0576276, 5.6614184, 7.426125, 0.030857086, -0.47346258, 9.385758
177847206349056, -0.73818576, 7.007381, 7.6869426, -0.010514736, 0.47820234, 10.416746
177847215988015, -1.0624132, 5.5166526, 7.416554, 0.07289004, -0.5793271, 9.285824
177847225627077, -0.73459655, 6.927222, 7.5086775, -0.043913603, 0.51697063, 10.229229
177847235266036, -1.0013963, 5.7487564, 7.457232, 0.071709156, -0.40808392, 9.459895
177847244904994, -0.8602197, 6.6556363, 7.5457664, -0.0615952, 0.2545638, 10.094921
177847254544056, -0.930808, 6.2691956, 7.664211, 0.04014182, -0.113400936, 9.94459
177847264183015, -0.991825, 6.1698933, 7.442875, -0.060001135, -0.100004435, 9.71772
177847273822077, -0.79441714, 6.7872415, 7.5637126, -0.04352522, 0.36372948, 10.186918
177847283461036, -1.0600204, 5.7894344, 7.3304124, -0.041553736, -0.34487462, 9.394439
177847293099994, -0.71306115, 7.071987, 7.623533, -0.03141713, 0.5685754, 10.407471
177847302739056, -1.0025927, 5.575277, 7.385447, 0.11599946, -0.49665165, 9.293739
177847312378015, -0.67118675, 7.007381, 7.500303, -0.01948142, 0.6084814, 10.26829
177847322016973, -0.99302137, 5.727221, 7.432107, 0.07952356, -0.40467405, 9.426203
177847331656036, -0.7968099, 6.6305118, 7.5062847, -0.013240099, 0.2717173, 10.04335
177847341294994, -0.849452, 6.135197, 7.5828547, 0.11967921, -0.1345129, 9.789253
177847350934056, -0.89371926, 6.166304, 7.493124, 0.034647703, -0.08921075, 9.744733
177847360573015, -0.73100734, 6.666404, 7.6103725, 0.067955494, 0.2821517, 10.139471
177847370211973, -1.0133604, 5.727221, 7.4213395, 0.03587866, -0.40963078, 9.419935
177847379851036, -0.76689965, 7.0085773, 7.7946196, 0.0051734447, 0.40441132, 10.502419
177847389489994, -1.1006985, 5.593223, 7.57448, 0.0595901, -0.6232133, 9.459202
177847399129056, -0.7968099, 7.058827, 7.668997, -0.07943225, 0.5049205, 10.440987
177847408768015, -1.0719845, 5.7631135, 7.513463, 0.016231775, -0.45447922, 9.518821
177847418406973, -0.8709874, 6.7908306, 7.6127653, -0.08312726, 0.30851603, 10.23358
177847428046036, -1.0037891, 6.1974106, 7.6223364, -0.010991812, -0.17792678, 9.873385
177847437684994, -0.951147, 6.263213, 7.375876, -0.07923412, 0.021249056, 9.72262
177847447323952, -0.75972116, 6.6221366, 7.4333034, -0.012457848, 0.33161616, 9.978666
177847456963015, -1.0097711, 5.797809, 7.2897344, -0.016953468, -0.28884077, 9.364334
177847466601973, -0.72023964, 7.0229344, 7.6259255, -0.038831234, 0.5305152, 10.378447
177847476241036, -1.038485, 5.572884, 7.4237323, 0.068962336, -0.52986693, 9.325329
177847485879994, -0.6867401, 7.062416, 7.5792656, -0.036639452, 0.5914593, 10.365492
177847495518952, -1.0001999, 5.6709895, 7.4548388, 0.08208346, -0.46630573, 9.408027
177847505158015, -0.76570326, 6.77767, 7.503892, -0.041409016, 0.4027443, 10.132503
177847514796973, -0.9523434, 6.0490556, 7.5050883, 0.025550604, -0.19751906, 9.684253
177847524435931, -0.9523434, 6.2584276, 7.446464, -0.057231903, -0.025430918, 9.773474
177847534074994, -0.8362915, 6.550352, 7.587641, 0.010442495, 0.16316271, 10.05744
177847543713952, -1.0289137, 5.808577, 7.463214, 0.02603221, -0.3814504, 9.505347
177847553352911, -0.77766734, 6.9906316, 7.776674, -0.008058786, 0.4070859, 10.477815
177847562991973, -1.1569297, 5.6075797, 7.597212, 0.031107187, -0.64819264, 9.491047
177847572630931, -0.7513463, 7.1162543, 7.735996, -0.049078226, 0.5225544, 10.525007
177847582269994, -1.0360922, 5.7080784, 7.5146594, 0.069643736, -0.4790342, 9.48111
177847591908952, -0.8063812, 6.843473, 7.597212, -0.067337275, 0.38085413, 10.24946
177847601547911, -0.9667004, 6.0837517, 7.537391, 0.019635916, -0.19242835, 9.732492
177847611186973, -0.9296116, 6.4031935, 7.4010005, -0.09750581, 0.12209368, 9.829317
177847620825931, -0.8650054, 6.5694947, 7.54457, -0.038792133, 0.19735909, 10.039253
177847630464890, -1.0492527, 5.838487, 7.3926253, -0.025338888, -0.32462072, 9.472791
177847640103952, -0.7322037, 6.940382, 7.6390862, -0.009922743, 0.46592426, 10.3365135
177847649742911, -1.0671989, 5.578866, 7.411768, 0.04251933, -0.52343273, 9.323153
177847659381869, -0.72502524, 7.07438, 7.576873, -0.07862973, 0.6014147, 10.3737
177847669020931, -1.0504491, 5.6183476, 7.4344997, 0.06793952, -0.50553274, 9.363808
177847678659890, -0.8003992, 6.890133, 7.5756764, -0.08649516, 0.43656826, 10.261938
177847688298952, -1.0133604, 6.023931, 7.658229, 0.05407691, -0.31233287, 9.790947
177847697937911, -0.94636136, 6.4343, 7.5720873, -0.05845189, 0.043550014, 9.981333
177847707576869, -0.82672024, 6.5001025, 7.6331043, 0.04413414, 0.12221384, 10.058935
177847717215931, -0.98943216, 5.912665, 7.396215, 0.008617401, -0.2428894, 9.517536
177847726854890, -0.74416786, 6.903293, 7.5828547, -0.0444777, 0.47211027, 10.270544
177847736493848, -1.0755738, 5.5657053, 7.4213395, 0.047782183, -0.5433955, 9.322695
177847746132911, -0.73100734, 7.0600233, 7.6426754, -0.053389788, 0.5608449, 10.414959
177847755771869, -1.0013963, 5.601598, 7.446464, 0.110514164, -0.49477386, 9.358072
177847765410931, -0.6855437, 6.8614187, 7.5589266, 0.010168314, 0.47957826, 10.2203865
177847775049890, -0.9128618, 5.9342003, 7.5637126, 0.13106084, -0.27634168, 9.652163
177847784688848, -0.89730847, 6.452246, 7.5553374, -0.033726454, 0.09370518, 9.975462
177847794327911, -0.9128618, 6.439086, 7.615158, -0.020472765, 0.052074194, 10.014122
177847803966869, -1.1078769, 5.928218, 7.381858, -0.10437894, -0.27898717, 9.527552
177847813605827, -0.82313097, 6.847062, 7.643872, -0.06443262, 0.36524487, 10.288393
177847823244890, -1.0552348, 5.6075797, 7.5110703, 0.091696024, -0.53777623, 9.416849
177847832883848, -0.74177504, 7.092326, 7.795816, -0.013064384, 0.5078459, 10.553104
177847842522806, -1.1042876, 5.6123657, 7.5900335, 0.051553726, -0.59668446, 9.485147
177847852161869, -0.85902333, 6.971489, 7.655836, -0.116006136, 0.43734026, 10.38011
177847861800827, -1.0588241, 5.9557357, 7.5290165, -0.034733534, -0.30465484, 9.653184
177847871439786, -0.9403793, 6.5694947, 7.4213395, -0.14684224, 0.24574804, 9.951729
177847881078848, -0.92482597, 6.3972116, 7.496713, -0.052223682, 0.09039354, 9.897951
177847890717806, -1.0408778, 5.9748783, 7.3100734, -0.094189405, -0.16206074, 9.49656
177847900356869, -0.7896315, 6.792027, 7.5637126, -0.026593685, 0.3962345, 10.188581
177847909995827, -1.0504491, 5.6279187, 7.405786, 0.04287696, -0.45911694, 9.34933
177847919634786, -0.7537391, 7.0097737, 7.645068, -0.03834057, 0.52298594, 10.386394
177847929273848, -1.0815558, 5.569295, 7.501499, 0.061249256, -0.56514525, 9.388087
177847938912806, -0.7956135, 6.9116683, 7.7826557, -0.006973982, 0.3794346, 10.432156
177847948551765, -1.006182, 5.8157554, 7.865208, 0.17216063, -0.53871346, 9.817183
177847958190827, -0.8362915, 6.515656, 7.834101, 0.09395909, 0.04694462, 10.223271
177847967829786, -0.86261255, 6.3074803, 7.7850485, 0.11295748, -0.08088541, 10.055651
177847977468744, -0.9882358, 6.033502, 7.536195, -0.0069425106, -0.20052981, 9.702255
177847987107806, -0.7860422, 6.7764735, 7.682157, 0.011652708, 0.3415947, 10.268261
177847996746765, -1.0851451, 5.6578293, 7.3974113, -0.0084376335, -0.444211, 9.365515
177848006385827, -0.7477571, 7.0492554, 7.6019974, -0.080914974, 0.58658695, 10.377421
177848016024786, -1.0540384, 5.5669017, 7.3112698, 0.0037062168, -0.44211626, 9.239079
177848025663744, -0.75613195, 6.9583282, 7.4344997, -0.1192677, 0.60406256, 10.1922865
177848035302806, -1.0085747, 5.831309, 7.4548388, 0.015595436, -0.31911469, 9.51283
177848044941765, -0.88414794, 6.606583, 7.5613194, -0.083259106, 0.23668408, 10.07667
177848054580723, -0.8853444, 6.263213, 7.6127653, 0.04279685, -0.03242278, 9.897627
177848064219786, -1.018146, 6.0921264, 7.5314093, -0.047305107, -0.17492247, 9.738581
177848073858744, -0.8913264, 6.728617, 7.753942, -0.052292824, 0.21939898, 10.3025
177848083497702, -1.0719845, 5.7116675, 7.5517483, 0.036199093, -0.47606897, 9.516998
177848093136765, -0.6939186, 7.042077, 7.752745, 0.016407251, 0.5352979, 10.482876
177848102775723, -1.032503, 5.5429735, 7.5110703, 0.10301685, -0.5638659, 9.374338
177848112414786, -0.76689965, 6.9990063, 7.611569, -0.08190465, 0.5342107, 10.354618
177848122053744, -1.0396814, 5.751149, 7.4679995, 0.015800476, -0.38860488, 9.475042
177848131692702, -0.8315059, 6.6305118, 7.5230346, -0.05931282, 0.29007363, 10.058006
177848141331765, -0.87338024, 6.1914287, 7.6019974, 0.0736053, -0.07295084, 9.842571
177848150970723, -0.9176475, 6.1028943, 7.479964, 0.016771317, -0.09515548, 9.6968
177848160609681, -0.71425754, 6.6460648, 7.641479, 0.07787275, 0.30328465, 10.147635
177848170248744, -0.99900347, 5.676972, 7.4249287, 0.0522151, -0.39986515, 9.391111
177848179887702, -0.6903293, 6.987042, 7.716853, 0.028403759, 0.51061296, 10.420345
177848189526765, -1.0540384, 5.528617, 7.4883385, 0.068552256, -0.5610466, 9.350527
177848199165723, -0.77647096, 6.991828, 7.618747, -0.08937216, 0.5261364, 10.356114
177848208804681, -1.1030912, 5.7343993, 7.5469627, -0.023609161, -0.46604943, 9.5309515
177848218443744, -0.96789676, 6.6711893, 7.698907, -0.12868333, 0.16881752, 10.23082
177848228082702, -0.90329057, 6.1675005, 7.6546397, 0.07216382, -0.12903142, 9.870445
177848237721661, -0.8853444, 6.186643, 7.4584284, 0.009502411, -0.0036058426, 9.730697
177848247360723, -0.75493556, 6.6484575, 7.658229, 0.043548584, 0.2801628, 10.165629
177848256999681, -1.0396814, 5.733203, 7.5026956, 0.03663397, -0.41755557, 9.490274
177848266638744, -0.77407813, 6.9762745, 7.7946196, -0.02752614, 0.42536926, 10.480555
177848276277702, -1.1066805, 5.5429735, 7.560123, 0.04955578, -0.61662054, 9.419241
177848285916661, -0.77647096, 7.0133634, 7.6570325, -0.09993124, 0.5334463, 10.398354
177848295555723, -1.0468599, 5.7080784, 7.459625, 0.019327879, -0.4086542, 9.442283
177848305194681, -0.8350951, 6.739385, 7.556534, -0.08959007, 0.3584962, 10.152899
177848314833744, -0.9523434, 6.135197, 7.6259255, 0.020810604, -0.15793943, 9.832443
177848324472702, -1.0229317, 6.256035, 7.550552, -0.10661006, -0.064903736, 9.857973
177848334111661, -0.8889336, 6.5898337, 7.631908, -0.060881376, 0.19269371, 10.120342
177848343750723, -0.991825, 5.7834525, 7.4010005, 0.016602278, -0.30718517, 9.439928
177848353389681, -0.6831509, 6.95115, 7.6570325, 0.020380259, 0.5260601, 10.350758
177848363028640, -1.0313065, 5.5250273, 7.472785, 0.08640504, -0.5498457, 9.333929
177848372667702, -0.721436, 7.0193453, 7.6737823, -0.03797102, 0.55370617, 10.41012
177848382306661, -1.0109676, 5.6267223, 7.509874, 0.08618164, -0.4868052, 9.425278
177848391945723, -0.78843504, 6.7405815, 7.597212, -0.03343129, 0.3573866, 10.180662
177848401584681, -0.9200403, 6.068198, 7.57448, 0.05023718, -0.1579423, 9.747553
177848411223640, -0.90807617, 6.2931237, 7.472785, -0.047831774, 0.054982424, 9.811483
177848420862702, -0.7968099, 6.556334, 7.5936227, 0.010718107, 0.23336601, 10.061258
177848430501661, -1.006182, 5.812166, 7.4656067, 0.0053851604, -0.32189202, 9.509224
177848440140723, -0.72502524, 6.9559355, 7.7994056, 0.02931881, 0.44683218, 10.466178
177848449779681, -1.0600204, 5.556134, 7.597212, 0.069890976, -0.5936153, 9.452757
177848459418640, -0.6759724, 7.0133634, 7.716853, 0.022571087, 0.5582833, 10.434647
177848469057702, -0.9619147, 5.6039906, 7.459625, 0.09723616, -0.445436, 9.3684635
177848478696661, -0.8003992, 6.795616, 7.5529447, -0.08996892, 0.42483807, 10.182309
177848488335723, -0.9954142, 5.98086, 7.6139617, 0.005769968, -0.27351546, 9.729292
177848497974681, -0.9284152, 6.3158555, 7.5696945, -0.053153515, 0.025844574, 9.9019575
177848507613640, -0.81954175, 6.48096, 7.68455, 0.031178713, 0.1320219, 10.085058
177848517252702, -1.0289137, 5.869594, 7.536195, -0.016379356, -0.31974363, 9.602215
177848526891661, -0.8063812, 6.926025, 7.7587276, -0.074299335, 0.4185319, 10.422919
177848536530723, -1.1318051, 5.575277, 7.539784, -0.014308214, -0.5735004, 9.427826
177848546169681, -0.71306115, 7.0468626, 7.6977105, -0.04066205, 0.58374214, 10.444093
177848555808640, -1.006182, 5.605187, 7.4715886, 0.070877075, -0.462826, 9.382747
177848565447702, -0.78364944, 6.8111696, 7.5996046, -0.08186078, 0.42354536, 10.226145
177848575086661, -0.96909314, 5.9234324, 7.628319, 0.046961546, -0.30359387, 9.701705
177848584725723, -0.90448695, 6.390033, 7.6163545, -0.043008804, 0.07029009, 9.982619
177848594364681, -0.8542377, 6.410372, 7.688139, 0.02068758, 0.06965828, 10.046133
177848604003744, -1.0241281, 5.849255, 7.5110703, -0.023378849, -0.31423593, 9.569719
177848613642702, -0.7537391, 6.8315086, 7.816155, 0.029720306, 0.35030746, 10.4022255
177848623281661, -1.0660025, 5.515456, 7.584051, 0.064106226, -0.61177135, 9.41786
177848632920723, -0.72023964, 7.0085773, 7.7706914, -0.016182423, 0.50934744, 10.476777
177848642559681, -1.0145568, 5.5669017, 7.54457, 0.07601929, -0.53172016, 9.415506
177848652198744, -0.7405786, 6.863812, 7.647461, -0.029775858, 0.46246624, 10.292194
177848661837702, -0.94755775, 5.8971114, 7.6331043, 0.078296185, -0.3115611, 9.68684
177848671476765, -0.8997013, 6.4666033, 7.597212, -0.07070732, 0.13806772, 10.015987
177848681115723, -0.84347, 6.384051, 7.647461, 0.020778656, 0.07844162, 9.997231
177848690754681, -0.9726824, 5.8935223, 7.405786, -0.029433966, -0.2043488, 9.512243
177848700393744, -0.72382885, 6.8039913, 7.624729, -0.017667532, 0.4383111, 10.235346
177848710032702, -1.018146, 5.562116, 7.4249287, 0.042504072, -0.47633958, 9.320656
177848719671765, -0.7118647, 7.001399, 7.6630144, -0.05813074, 0.5672717, 10.3885975
177848729310723, -1.0289137, 5.541777, 7.4620175, 0.062489986, -0.50620556, 9.33764
177848738949786, -0.721436, 6.8709903, 7.598408, -0.053749323, 0.4953103, 10.25761
177848748588744, -0.9343972, 5.838487, 7.6127653, 0.1068542, -0.32898808, 9.633046
177848758227806, -0.8985049, 6.489335, 7.6630144, -0.061076164, 0.11552477, 10.080849
177848767866765, -0.87936234, 6.3385873, 7.6953177, 0.018704891, 0.003709793, 10.008421
177848777505723, -0.9954142, 5.9844494, 7.4979095, -0.03722024, -0.20081306, 9.642688
177848787144786, -0.7477571, 6.7740808, 7.7036924, -0.0042636395, 0.36581087, 10.279122
177848796783744, -1.0671989, 5.593223, 7.5326056, 0.044686317, -0.5302446, 9.427622
177848806422806, -0.72741807, 7.0372915, 7.757531, -0.053082466, 0.529161, 10.485661
177848816061765, -1.0516455, 5.5477595, 7.519445, 0.06990671, -0.5385282, 9.387798
177848825700827, -0.7537391, 6.9224358, 7.6534433, -0.078243256, 0.49060535, 10.335213
177848835339786, -0.9499506, 5.845666, 7.598408, 0.07848525, -0.33085656, 9.627794
177848844978848, -0.87936234, 6.5443697, 7.6666036, -0.052835703, 0.16035318, 10.116835
177848854617806, -0.8315059, 6.2931237, 7.6893353, 0.0768733, -3.1518936E-4, 9.970697
177848864256869, -0.9391829, 6.005985, 7.436893, -0.016243935, -0.12601733, 9.604434
177848873895827, -0.73818576, 6.7166533, 7.576873, -0.008138895, 0.39705753, 10.144438
177848883534786, -1.0648061, 5.6099725, 7.452446, -0.009182692, -0.47823, 9.37634
177848893173848, -0.7429714, 6.9990063, 7.726424, -0.03575754, 0.5191655, 10.438627
177848902812806, -1.0815558, 5.5190454, 7.5254273, 0.029780626, -0.5823381, 9.3766575
177848912451869, -0.73100734, 6.9391856, 7.623533, -0.033225536, 0.5400348, 10.320475
177848922090827, -0.98584294, 5.7750773, 7.5589266, 0.039702892, -0.37356496, 9.556133
177848931729890, -0.8709874, 6.623333, 7.649854, -0.066497326, 0.22860956, 10.15336
177848941368848, -0.9798609, 6.273981, 7.722835, -0.03835225, -0.10130072, 9.997669
177848951007911, -1.0097711, 6.1100726, 7.5110703, -0.08497596, -0.1212101, 9.733801
177848960646869, -0.74536425, 6.7322063, 7.668997, 0.021727324, 0.35720968, 10.225636
177848970285931, -1.0205388, 5.636294, 7.5182486, 0.055890083, -0.4725685, 9.439647
177848979924890, -0.70588267, 6.9930243, 7.776674, 0.009054422, 0.4979267, 10.470402
177848989563952, -1.0600204, 5.5046883, 7.536195, 0.065571785, -0.59500384, 9.373427
177848999202911, -0.77766734, 6.9619174, 7.668997, -0.08052158, 0.50935984, 10.374038
177849008841973, -1.052842, 5.6937213, 7.5230346, 0.009754181, -0.45025826, 9.482624
177849018480931, -0.8470592, 6.6077795, 7.5828547, -0.063215256, 0.26976585, 10.089755
177849028119994, -0.87218386, 6.2213387, 7.704889, 0.06792092, -0.08890343, 9.940752
177849037758952, -0.96550393, 6.1292152, 7.6462646, -0.007404804, -0.1622169, 9.845734
177849047398015, -0.7692925, 6.6735826, 7.786245, 0.053639412, 0.2403717, 10.280732
177849057036973, -1.0301101, 5.6961145, 7.520642, 0.026960135, -0.43582368, 9.480309
177849066676036, -0.72741807, 6.9942207, 7.6797643, -0.04526949, 0.54669476, 10.398371
177849076314994, -1.0600204, 5.5250273, 7.393822, 0.016818762, -0.5073216, 9.276881
177849085954056, -0.695115, 6.9882383, 7.5290165, -0.083651066, 0.6342261, 10.275968
177849095593015, -0.9738788, 5.649454, 7.4883385, 0.08665013, -0.4202037, 9.421035
177849105232077, -0.7800602, 6.6532435, 7.6199436, -0.019008875, 0.30747986, 10.141144
177849114871036, -0.8458628, 6.108876, 7.655836, 0.112348795, -0.12555742, 9.829411
177849124510098, -0.8961121, 6.175875, 7.5326056, 0.0019330978, -0.04309392, 9.781756
177849134149056, -0.7932207, 6.62094, 7.6366935, -0.017263412, 0.2681167, 10.134741
177849143788119, -1.0731809, 5.712864, 7.457232, -0.03587699, -0.4100299, 9.446135
177849153427077, -0.7692925, 6.963114, 7.7611203, -0.058707952, 0.45089102, 10.4453335
177849163066140, -1.1102697, 5.4927244, 7.537391, 0.03294921, -0.6218395, 9.371619
177849172705098, -0.7369894, 7.036095, 7.6893353, -0.0890224, 0.5659163, 10.433
177849182344161, -1.0600204, 5.7009, 7.585248, 0.02187848, -0.48164296, 9.535586
177849191983119, -0.863809, 6.7932234, 7.698907, -0.11705613, 0.31902742, 10.2981415
177849201622181, -0.94396853, 6.1292152, 7.7156568, 0.038814783, -0.18989205, 9.8970785
177849211261140, -0.97866446, 6.3074803, 7.584051, -0.095261335, -0.008102655, 9.912153
177849220900202, -0.8350951, 6.5982084, 7.641479, -0.040318966, 0.23498344, 10.127642
177849230539161, -0.9810573, 5.7463636, 7.428518, 0.028599024, -0.3288455, 9.437005
177849240178223, -0.65922266, 6.9355965, 7.62114, -0.0041320324, 0.56556463, 10.310139
177849249817181, -1.0097711, 5.4903316, 7.452446, 0.0849731, -0.53224754, 9.295795
177849259456244, -0.6987042, 6.940382, 7.649854, -0.020602942, 0.5263834, 10.339239
177849269095202, -1.0205388, 5.593223, 7.499106, 0.062903166, -0.49392128, 9.397569
177849278734265, -0.8039884, 6.727421, 7.6199436, -0.06908107, 0.35388684, 10.1901
177849288373223, -0.9164511, 5.9844494, 7.6977105, 0.106099844, -0.26698995, 9.789061
177849298012286, -0.90089774, 6.273981, 7.6019974, -0.014779806, -0.0031468868, 9.897707
177849307651348, -0.8255238, 6.532406, 7.664211, -0.015543222, 0.18149853, 10.102512
177849317290306, -1.0444671, 5.844469, 7.416554, -0.06495786, -0.28121996, 9.495826
177849326929369, -0.7190432, 6.9212394, 7.698907, -0.0421381, 0.48940825, 10.365927
177849336568327, -1.0468599, 5.5429735, 7.605587, 0.09712243, -0.593451, 9.450068
177849346207390, -0.6987042, 7.0528445, 7.84128, -0.013167858, 0.5222316, 10.556683
177849355846348, -1.026521, 5.6075797, 7.609176, 0.095438, -0.53721714, 9.49213
177849365485411, -0.7848458, 6.8135624, 7.6606216, -0.078597784, 0.39735866, 10.274321
177849375124369, -0.9284152, 5.956932, 7.6343007, 0.06864858, -0.25013542, 9.724314
177849384763431, -0.910469, 6.326623, 7.554141, -0.0639627, 0.057195663, 9.89509
177849394402494, -0.8219346, 6.4175506, 7.5409803, -0.025833368, 0.16695595, 9.934706
177849404041452, -0.9236295, 5.8037915, 7.4333034, 0.056256294, -0.25494838, 9.4722185
177849413680515, -0.65682983, 6.8721867, 7.7647095, 0.056641817, 0.4470935, 10.380076
177849423319473, -1.0671989, 5.5477595, 7.5864444, 0.075327635, -0.5815711, 9.4407
177849432958536, -0.7537391, 7.048059, 7.795816, -0.084335566, 0.50522137, 10.524051
177849442597494, -1.0815558, 5.6004014, 7.617551, 0.044677973, -0.564718, 9.499498
177849452236556, -0.8470592, 6.876972, 7.7312098, -0.1196239, 0.3889103, 10.373827
177849461875515, -0.9870393, 5.9581285, 7.6809607, 0.03022623, -0.30043983, 9.766243
177849471514577, -0.89730847, 6.413961, 7.588837, -0.070446014, 0.106660366, 9.97588
177849481153640, -0.80159557, 6.4127645, 7.6019974, 0.023204803, 0.14159346, 9.9767685
177849490792598, -0.96430755, 5.877969, 7.335198, -0.04433942, -0.17320085, 9.447412
177849500431661, -0.7106683, 6.8219376, 7.5900335, -0.032824278, 0.48034573, 10.218645
177849510070619, -1.0456635, 5.528617, 7.483553, 0.04962468, -0.5346873, 9.347419
177849519709681, -0.7369894, 6.5682983, 7.6797643, 0.048001766, 0.23591971, 10.129488
177849529348744, -0.8135597, 6.1387863, 7.54457, 0.0731926, -0.02473259, 9.760182
177849538987702, -0.8207382, 6.256035, 7.5517483, 0.030198812, 0.048908472, 9.840589
177849548626765, -0.8673982, 6.245267, 7.5637126, -0.0029597282, 0.014231443, 9.847094
177849558265723, -0.8530413, 6.2691956, 7.5960155, 0.013736963, 0.021047592, 9.885814
177849567904786, -0.87218386, 6.289534, 7.6462646, 0.0071229935, 0.0033459663, 9.939026
177849577543744, -0.8985049, 6.273981, 7.7443705, 0.022156, -0.07070112, 10.006994
177849587182806, -0.90089774, 6.265606, 7.7240314, 0.0140554905, -0.06722784, 9.986259
177849596821869, -0.8925229, 6.2883377, 7.670193, -0.004446268, -0.016248226, 9.958483
177849606460827, -0.8673982, 6.300302, 7.635497, 0.0035362244, 0.022747517, 9.937126
177849616099890, -0.86859465, 6.290731, 7.560123, -0.01914692, 0.056744576, 9.873177
177849625738952, -0.86979103, 6.2811594, 7.5996046, -0.00429368, 0.02782631, 9.897611
177849635377911, -0.9320044, 6.270392, 7.6713896, -0.033437967, -0.04539728, 9.951555
177849645016973, -0.92602235, 6.2644095, 7.6594253, -0.030415058, -0.040625095, 9.938035
177849654655931, -0.8458628, 6.279963, 7.5936227, 0.014829874, 0.042517185, 9.890121
177849664294994, -0.8985049, 6.2727847, 7.62114, -0.020919561, -4.6873093E-4, 9.911431
177849673934056, -0.9176475, 6.2644095, 7.6139617, -0.03989935, -0.01192379, 9.902303
177849683573015, -0.8925229, 6.2524457, 7.594819, -0.020547867, 0.0012197495, 9.877781
177849693212077, -0.87936234, 6.2404814, 7.605587, -0.0024280548, -0.007232666, 9.877337
177849702851036, -0.85184485, 6.2416778, 7.664211, 0.040416956, -0.02614355, 9.920786
177849712490098, -0.85902333, 6.2751775, 7.7012997, 0.034392834, -0.023534775, 9.971161
177849722129161, -0.8865408, 6.2919273, 7.735996, 0.016577959, -0.041983604, 10.010889
177849731768119, -0.90089774, 6.2991056, 7.672586, -0.02000451, -0.007926941, 9.967872
177849741407181, -0.8961121, 6.303891, 7.5924263, -0.042184353, 0.041126728, 9.908762
177849751046244, -0.910469, 6.2548385, 7.6031938, -0.03733325, -0.006966114, 9.88732
177849760685202, -0.8470592, 6.245267, 7.6127653, 0.025525093, 0.008252621, 9.883035
177849770324265, -0.8673982, 6.2380886, 7.6259255, 0.011731148, -0.01402998, 9.890428
177849779963223, -0.82911307, 6.233303, 7.618747, 0.044997454, 0.003074646, 9.8785
177849789602286, -0.78723866, 6.2237315, 7.605587, 0.07942319, 0.02083826, 9.858641
177849799241348, -0.84825563, 6.2309103, 7.609176, 0.021486282, -0.0034017563, 9.871316
177849808880306, -0.8602197, 6.253642, 7.5756764, -0.007160425, 0.026472092, 9.860941
177849818519369, -0.8662018, 6.2512493, 7.5529447, -0.019346476, 0.03459072, 9.842449
177849828158431, -0.87338024, 6.233303, 7.5900335, -0.010659695, -0.0011172295, 9.860291
177849837797390, -0.87338024, 6.24766, 7.68455, 0.016063929, -0.04048729, 9.942158
177849847436452, -0.87936234, 6.2979093, 7.752745, 0.018783092, -0.04216528, 10.0269575
177849857075515, -0.9092726, 6.2919273, 7.7001033, -0.022887468, -0.031360626, 9.98525
177849866714473, -0.9415757, 6.320641, 7.6103725, -0.09138441, 0.023434639, 9.937099
177849876353536, -0.94396853, 6.3338017, 7.570891, -0.10929108, 0.05227709, 9.915234
177849885992598, -0.92482597, 6.3110695, 7.5756764, -0.0818758, 0.040946484, 9.902899
177849895631556, -0.85184485, 6.2715883, 7.578069, -0.0030488968, 0.043053627, 9.873384
177849905270619, -0.8554341, 6.2548385, 7.664211, 0.028528929, -0.016581059, 9.929442
177849914909681, -0.8279166, 6.2404814, 7.68455, 0.061976433, -0.027099133, 9.93362
177849924548640, -0.7788638, 6.2033925, 7.6390862, 0.10141754, -0.0083527565, 9.870868
177849934187702, -0.7704889, 6.2117677, 7.631908, 0.10469508, 0.004275322, 9.86989
177849943826765, -0.80518484, 6.2213387, 7.624729, 0.069292784, -2.0647049E-4, 9.873454
177849953465723, -0.863809, 6.2213387, 7.5673018, -0.0014801025, 0.0052628517, 9.834391
177849963104786, -0.8913264, 6.259624, 7.60798, -0.02342987, -7.6055527E-4, 9.892328
177849972743848, -0.89371926, 6.3086767, 7.6426754, -0.026094675, 0.014745235, 9.950264
177849982382806, -0.91525465, 6.270392, 7.641479, -0.036162376, -0.020934105, 9.927032
177849992021869, -0.91405827, 6.283552, 7.658229, -0.033367395, -0.020514011, 9.948139
177850001660931, -0.92243314, 6.296713, 7.6594253, -0.04366231, -0.014821053, 9.95812
177850011299890, -0.9056834, 6.3122663, 7.648658, -0.034777403, 0.008744717, 9.958195
177850020938952, -0.8877372, 6.2931237, 7.617551, -0.022384644, 0.018297672, 9.920572
177850030578015, -0.8673982, 6.265606, 7.6031938, -9.698868E-4, 0.013606548, 9.890329
177850040216973, -0.84825563, 6.242874, 7.617551, 0.027254105, -0.0026335716, 9.885311
177850049856036, -0.83389866, 6.257231, 7.60439, 0.031322956, 0.020697117, 9.882999
177850059495098, -0.8458628, 6.24766, 7.5828547, 0.015491724, 0.019420147, 9.861428
177850069134056, -0.8554341, 6.2644095, 7.5900335, 0.0046052933, 0.021039963, 9.878399
177850078773119, -0.8745767, 6.256035, 7.6067834, -0.004436493, -0.0024003983, 9.887669
177850088412181, -0.8769695, 6.276374, 7.6402826, 0.0015823841, -0.007857323, 9.926521
177850098051244, -0.8889336, 6.276374, 7.649854, -0.004091263, -0.018321514, 9.934938
177850107690202, -0.87936234, 6.2787666, 7.658229, 0.008078337, -0.01709795, 9.942047
177850117329265, -0.8650054, 6.290731, 7.664211, 0.020350456, -0.005486965, 9.95295
177850126968327, -0.8709874, 6.2847486, 7.6773715, 0.021397352, -0.020313263, 9.959812
177850136607286, -0.8961121, 6.29432, 7.63789, -0.017162323, -0.004283428, 9.937733
177850146246348, -0.8757731, 6.276374, 7.570891, -0.016215086, 0.026922226, 9.873056
177850155885411, -0.85184485, 6.2691956, 7.536195, -0.005538702, 0.05103588, 9.839718
177850165524369, -0.8386843, 6.270392, 7.54457, 0.008467197, 0.051167488, 9.845762
177850175163431, -0.8422736, 6.2787666, 7.5589266, 0.007851601, 0.04781294, 9.86242
177850184802494, -0.85184485, 6.2679987, 7.5613194, 0.0048537254, 0.032584667, 9.858292
177850194441556, -0.8673982, 6.2644095, 7.5433736, -0.013738871, 0.032808304, 9.843598
177850204080515, -0.8781659, 6.2715883, 7.5828547, -0.010963678, 0.0110497475, 9.879446
177850213719577, -0.9343972, 6.257231, 7.6426754, -0.033046484, -0.058066368, 9.921293
177850223358640, -0.8889336, 6.2751775, 7.6139617, -0.0072054863, -0.009806156, 9.90658
177850232997702, -0.8315059, 6.2512493, 7.600801, 0.0494895, 0.0033164024, 9.876196
177850242636661, -0.83748794, 6.276374, 7.597212, 0.036037445, 0.020177364, 9.889904
177850252275723, -0.85902333, 6.2883377, 7.628319, 0.022524595, 0.0019249916, 9.923299
177850261914786, -0.89013004, 6.296713, 7.6773715, 0.004147768, -0.03229618, 9.969048
177850271553744, -0.8997013, 6.306284, 7.661818, -0.013165474, -0.020207882, 9.964012
177850281192806, -0.8470592, 6.290731, 7.587641, 0.01371336, 0.031567097, 9.892517
177850290831869, -0.91525465, 6.306284, 7.6594253, -0.029443502, -0.025453568, 9.963542
177850300470931, -0.997807, 6.3338017, 7.670193, -0.1082499, -0.045656204, 9.996536
177850310109890, -0.96909314, 6.3134627, 7.6271224, -0.09054732, -0.02488041, 9.948021
177850319748952, -0.8865408, 6.296713, 7.594819, -0.02020812, 0.013884068, 9.9053135
177850329388015, -0.8757731, 6.326623, 7.594819, -0.018775225, 0.038555145, 9.923334
177850339027077, -0.84107715, 6.2955165, 7.5230346, -0.003613472, 0.06832647, 9.84542
177850348666036, -0.8386843, 6.2811594, 7.5050883, -0.0051238537, 0.066765785, 9.822332
177850358305098, -0.80877405, 6.257231, 7.560123, 0.046582222, 0.03219366, 9.846792
177850367944161, -0.8063812, 6.233303, 7.605587, 0.07037163, -0.008441925, 9.86632
177850377583223, -0.86261255, 6.2608204, 7.6402826, 0.0243721, -0.032497406, 9.915355
177850387222181, -0.89730847, 6.2715883, 7.631908, -0.011024952, -0.034714222, 9.918804
177850396861244, -0.8757731, 6.2871413, 7.6163545, -2.6655197E-4, -0.0050997734, 9.914835
177850406500306, -0.8961121, 6.2871413, 7.6630144, -0.0013034344, -0.03956318, 9.9524555
177850416139265, -0.8745767, 6.3110695, 7.6331043, -7.033348E-4, 0.0036358833, 9.942775
177850425778327, -0.89491564, 6.2931237, 7.6570325, -0.0056619644, -0.031099796, 9.951555
177850435417390, -0.88295156, 6.334998, 7.698907, 0.0028278828, -0.019521236, 10.009226
177850445056452, -0.9487542, 6.3218374, 7.7012997, -0.052981377, -0.057108402, 10.008483
177850454695515, -0.8853444, 6.2955165, 7.635497, -0.0104215145, -0.014825821, 9.935686
177850464334473, -0.7908279, 6.2787666, 7.5900335, 0.06553459, 0.036287785, 9.881869
177850473973536, -0.86141616, 6.259624, 7.59123, 0.007160902, -0.009334087, 9.87682
177850483612598, -0.86141616, 6.296713, 7.524231, -0.026345253, 0.051362038, 9.848927
177850493251556, -0.8219346, 6.2847486, 7.4237323, -0.020934105, 0.11055422, 9.7607765
