timestamp_acc,device_acc_x,device_acc_y,device_acc_z,earth_acc_x,earth_acc_y,earth_acc_z
188723473634561, -0.29671, 7.813762, 6.3661046, 0.020797014, -0.15482235, 10.081955
188723483274769, -0.24526432, 7.899904, 6.5982084, 0.044602156, -0.29424286, 10.291571
188723492914978, -0.15074782, 7.9800634, 6.728617, 0.12394428, -0.36152172, 10.432275
188723502555186, -0.20817557, 7.940582, 6.649654, 0.071113706, -0.30200386, 10.354602
188723512195394, -0.2943172, 7.8987074, 6.3314085, 0.03472793, -0.058063984, 10.1271105
188723521835603, -0.25962126, 7.853244, 5.9234324, 0.11999142, 0.20580816, 9.837233
188723531475915, -0.11246266, 7.885547, 5.6937213, 0.3000461, 0.34860897, 9.716039
188723541116124, 0.051445685, 7.948957, 5.6578293, 0.47667587, 0.3701129, 9.738345
188723550756332, -0.02871387, 7.8759756, 5.6745787, 0.37511253, 0.31707096, 9.694917
188723560396540, -0.14596218, 7.850851, 5.825327, 0.2125578, 0.20672607, 9.7726
188723570036749, -0.21296121, 7.789834, 6.084948, 0.08276987, -0.006811619, 9.886686
188723579676957, -0.19262223, 7.8113694, 6.2644095, 0.072613955, -0.13100624, 10.01374
188723589317165, -0.2009971, 7.8281193, 6.34098, 0.05220747, -0.17660332, 10.074423
188723598957374, -0.31345975, 7.7647095, 6.265606, -0.048274636, -0.11802769, 9.981508
188723608597582, -0.4019942, 7.7180495, 6.1770716, -0.119334936, -0.04808426, 9.892904
188723618237790, -0.43908295, 7.6941214, 5.986842, -0.11292255, 0.093818665, 9.757717
188723627878103, -0.47976094, 7.57448, 5.849255, -0.13781798, 0.13533115, 9.580156
188723637518311, -0.5479564, 7.515856, 5.791827, -0.20491809, 0.161942, 9.500811
188723647158519, -0.6053841, 7.483553, 5.871987, -0.2788269, 0.097164154, 9.526968
188723656798728, -0.5623133, 7.5122666, 6.0346985, -0.26247364, -0.026128769, 9.648748
188723666438936, -0.424726, 7.5960155, 6.1842504, -0.1435895, -0.1288476, 9.802427
188723676079144, -0.2727818, 7.751549, 6.320641, 0.0055980682, -0.1805048, 10.003941
188723685719353, -0.20937198, 7.8197446, 6.422336, 0.057935476, -0.22324896, 10.118569
188723695359561, -0.2105684, 7.816155, 6.535995, 0.030620933, -0.3049779, 10.186359
188723704999874, -0.15433706, 7.884351, 6.580262, 0.08890343, -0.31461, 10.265467
188723714640082, -0.076570325, 7.952546, 6.502496, 0.18893182, -0.23412466, 10.268436
188723724280290, -0.02632105, 7.9501534, 6.309873, 0.26635838, -0.10446644, 10.145849
188723733920499, -0.011964113, 7.928618, 6.10768, 0.3184278, 0.028633595, 10.003232
188723743560707, -0.12921242, 7.8759756, 5.9210396, 0.22961295, 0.17015219, 9.850113
188723753200915, -0.27517462, 7.8424764, 5.7990055, 0.105322, 0.27424717, 9.753067
188723762841124, -0.3505485, 7.793423, 5.733203, 0.039974928, 0.3096323, 9.676388
188723772481332, -0.47258246, 7.735996, 5.6757755, -0.076419115, 0.35478878, 9.599566
188723782121540, -0.5204389, 7.7001033, 5.6674004, -0.11944747, 0.34127474, 9.568237
188723791761853, -0.45942193, 7.696514, 5.831309, -0.09236872, 0.19346857, 9.664658
188723801402061, -0.37567315, 7.7012997, 6.06102, -0.05558288, -0.0023093224, 9.807346
188723811042269, -0.39481574, 7.6977105, 6.290731, -0.12317848, -0.17298317, 9.946801
188723820682478, -0.39601216, 7.704889, 6.407979, -0.13751626, -0.25228596, 10.025059
188723830322686, -0.40677986, 7.7012997, 6.4343, -0.15299988, -0.26722097, 10.038969
188723839962894, -0.43669012, 7.696514, 6.3481584, -0.16581535, -0.19505596, 9.983017
188723849603103, -0.40558344, 7.690532, 6.1854467, -0.1000607, -0.08225775, 9.876829
188723859243311, -0.44027936, 7.6402826, 6.0011992, -0.097991824, 0.036521435, 9.724774
188723868883624, -0.49651068, 7.635497, 5.788238, -0.10711324, 0.21148634, 9.591394
188723878523832, -0.5407779, 7.5900335, 5.6853466, -0.13316548, 0.2705512, 9.493855
188723888164040, -0.51565325, 7.6402826, 5.7451673, -0.1139127, 0.24587488, 9.569397
188723897804249, -0.48095736, 7.6713896, 5.8265233, -0.08960223, 0.19022799, 9.642908
188723907444457, -0.41635114, 7.7551384, 5.919843, -0.034855485, 0.14701939, 9.76408
188723917084665, -0.31944183, 7.8484583, 6.0490556, 0.047038317, 0.07539511, 9.913804
188723926724874, -0.19980069, 7.9346, 6.216553, 0.14429295, -0.034708023, 10.08074
188723936365082, -0.14596218, 7.984849, 6.2644095, 0.19371927, -0.055647373, 10.147972
188723946005290, -0.2117648, 7.9310107, 6.330212, 0.10307562, -0.1158514, 10.1485615
188723955645603, -0.27038896, 7.826923, 6.2679987, 0.03083384, -0.11159611, 10.030367
188723965285811, -0.29671, 7.7587276, 6.064609, 0.03436911, 0.010262489, 9.852111
188723974926019, -0.29312077, 7.756335, 5.9676995, 0.051691413, 0.0784688, 9.790366
188723984566228, -0.2644069, 7.722835, 5.938986, 0.07757318, 0.07297039, 9.745375
188723994206436, -0.25124636, 7.708478, 5.933004, 0.08450484, 0.063681126, 9.730011
188724003846644, -0.40438703, 7.54457, 6.0215383, -0.11770487, -0.057329655, 9.660532
188724013486853, -0.4941179, 7.3926253, 5.9724855, -0.22213113, -0.08804512, 9.513598
188724023127061, -0.4869394, 7.521838, 5.9617176, -0.18781078, -0.002456665, 9.608431
188724032767269, -0.30269206, 7.6977105, 6.0454664, 0.003938675, -0.0067186356, 9.792546
188724042407582, -0.16630118, 7.8293157, 6.0861444, 0.15232015, 0.0037908554, 9.916842
188724052047790, -0.09810573, 8.068598, 6.3122663, 0.2120949, -0.04722643, 10.242528
188724061687999, -0.016749758, 8.10808, 6.4462643, 0.251608, -0.14978504, 10.354217
188724071328207, 0.061016977, 8.177471, 6.532406, 0.31485403, -0.19529915, 10.459914
188724080968415, 0.086141616, 8.126026, 6.518049, 0.3269198, -0.2216587, 10.410028
188724090608624, 0.014356935, 7.932207, 6.3744793, 0.2416215, -0.2143426, 10.171026
188724100248832, -0.12921242, 7.8173513, 6.135197, 0.13630915, -0.058341026, 9.93712
188724109889040, -0.3074777, 7.641479, 5.936593, -0.024849057, 0.045237064, 9.681283
188724119529249, -0.46181476, 7.5385876, 5.8133626, -0.16024804, 0.12419653, 9.528782
188724129169561, -0.6580262, 7.456035, 5.6745787, -0.32088017, 0.2313366, 9.384551
188724138809769, -0.80757767, 7.499106, 5.5633125, -0.42861557, 0.3868189, 9.354457
188724148449978, -0.71306115, 7.5385876, 5.5800624, -0.31973058, 0.35796547, 9.393906
188724158090186, -0.5300102, 7.615158, 5.812166, -0.18026388, 0.17172194, 9.591186
188724167730394, -0.40558344, 7.6343007, 6.09093, -0.1206857, -0.07131481, 9.773783
188724177370603, -0.31585258, 7.6019974, 6.2679987, -0.08171308, -0.25259447, 9.854311
188724187010811, -0.29910284, 7.665407, 6.3086767, -0.061268926, -0.24792051, 9.928853
188724196651019, -0.31226337, 7.7180495, 6.265606, -0.053488255, -0.17460346, 9.944358
188724206291228, -0.31944183, 7.7754774, 6.2931237, -0.057640314, -0.15199947, 10.006851
188724215931540, -0.34456646, 7.8604226, 6.3278193, -0.071172595, -0.12158632, 10.095861
188724225571749, -0.3792624, 7.8687973, 6.1938214, -0.07705319, -0.0036883354, 10.020944
188724235211957, -0.29072794, 7.8891363, 6.003592, 0.050522327, 0.12693882, 9.91703
188724244852165, -0.20937198, 7.85444, 5.9066825, 0.13988769, 0.15453672, 9.827589
188724254492374, -0.13160525, 7.780263, 5.8839507, 0.19944882, 0.103450775, 9.75296
188724264132582, -0.12203395, 7.6893353, 5.861219, 0.18969655, 0.06384659, 9.6671915
188724273772790, -0.20697916, 7.6666036, 5.767899, 0.11652601, 0.14038515, 9.594532
188724283412999, -0.31226337, 7.725228, 5.7726846, 0.021180987, 0.20022774, 9.64676
188724293053207, -0.29671, 7.7814593, 5.9007006, 0.01913166, 0.12980747, 9.769351
188724302693415, -0.2105684, 7.873583, 6.1639113, 0.06345272, -0.040815353, 10.001287
188724312333624, -0.14117654, 7.952546, 6.253642, 0.12624443, -0.083673, 10.11672
188724321973936, -0.11485548, 7.899904, 6.235696, 0.14214623, -0.10545874, 10.063511
188724331614144, -0.18783657, 7.7383885, 6.1208405, 0.061192393, -0.09018564, 9.8676605
188724341254353, -0.32662028, 7.6271224, 5.9916277, -0.067635775, -0.012118816, 9.704357
188724350894561, -0.44985065, 7.548159, 5.8875403, -0.17891008, 0.053813934, 9.581507
188724360534769, -0.56829536, 7.564909, 5.8468623, -0.2819293, 0.12646341, 9.572935
188724370174978, -0.5479564, 7.6127653, 5.898308, -0.26318377, 0.11373663, 9.641696
188724379815186, -0.37806597, 7.7886376, 6.0825553, -0.10622573, 0.029664516, 9.88894
188724389455394, -0.24646074, 7.9501534, 6.3601227, -0.009987712, -0.12156153, 10.183416
188724399095603, -0.24765715, 7.9369926, 6.526424, -0.04983771, -0.25499535, 10.275402
188724408735811, -0.19621146, 7.925029, 6.599405, -0.021195054, -0.3231883, 10.309793
188724418376019, -0.2644069, 7.9106717, 6.3696938, -0.03694439, -0.13445902, 10.15885
188724428016332, -0.35533416, 7.84128, 6.1806607, -0.096948504, -0.0071225166, 9.990147
188724437656540, -0.32063824, 7.8053875, 6.0729837, -0.048074126, 0.039239883, 9.894652
188724447296749, -0.23928227, 7.8149586, 5.95095, 0.058266044, 0.11231613, 9.8249
188724456936957, -0.1698904, 7.847262, 5.844469, 0.14880419, 0.17740726, 9.78328
188724466577165, -0.13399807, 7.786245, 5.7583275, 0.18766129, 0.19818306, 9.681292
188724476217374, -0.031106694, 7.797013, 5.680561, 0.2972387, 0.22856474, 9.639635
188724485857582, 0.10767702, 7.8352976, 5.7487564, 0.4170158, 0.15536404, 9.708431
188724495497790, 0.13998012, 7.818548, 5.871987, 0.41277337, 0.03527212, 9.770256
188724505137999, 0.15074782, 7.884351, 5.986842, 0.40483916, -0.015930653, 9.892616
188724514778207, 0.013160525, 7.600801, 6.000003, 0.21190953, -0.15007877, 9.680132
188724524418415, -0.033499517, 8.484949, 6.519245, 0.22992682, -0.012719631, 10.6978035
188724534058624, -0.1471586, 7.314859, 6.056234, -0.003618598, -0.3034916, 9.492875
188724543698832, -0.17347965, 8.437093, 6.6089764, 0.07268059, -0.062823296, 10.718393
188724553339144, -0.13399807, 7.456035, 5.697311, 0.1187278, 0.047208786, 9.383678
188724562979353, -0.4235296, 7.830512, 6.0514483, -0.15970445, 0.08192921, 9.903741
188724572619561, -0.32542387, 7.708478, 5.444868, 0.04566574, 0.43681192, 9.432933
188724582259769, -0.62811595, 7.2562346, 5.814559, -0.40310365, -0.018193722, 9.310949
188724591899978, -0.42711884, 8.078169, 5.8743796, -0.044070005, 0.35582256, 9.990948
188724601540186, -0.70348984, 7.001399, 5.95095, -0.5383483, -0.2372837, 9.196856
188724611180394, -0.50368917, 8.366505, 6.580262, -0.20197117, 0.01356554, 10.654154
188724620820603, -0.58983076, 7.021738, 6.020342, -0.43245012, -0.30673742, 9.252899
188724630460811, -0.44626144, 8.311469, 6.7441707, -0.17854953, -0.15081835, 10.710223
188724640101019, -0.22851457, 7.342376, 5.9497533, 0.0021224022, -0.1774621, 9.451496
188724649741228, -0.32662028, 7.9429746, 6.413961, -0.06539035, -0.14889145, 10.213224
188724659381436, -0.23090738, 7.8053875, 5.6123657, 0.18369603, 0.34828472, 9.608381
188724669021644, -0.47377887, 7.4919276, 6.0454664, -0.21334314, -0.08816147, 9.635757
188724678661853, -0.16630118, 8.254042, 6.1124654, 0.23059464, 0.20208359, 10.267672
188724688302061, -0.41515473, 7.152147, 6.0191455, -0.22111809, -0.28384304, 9.350199
188724697942269, -0.30867413, 8.474181, 6.309873, 0.10321617, 0.23152113, 10.566801
188724707582478, -0.465404, 7.0600233, 5.5872407, -0.18866396, 0.003203392, 9.013445
188724717222790, -0.37088752, 8.397611, 6.24766, 0.039616466, 0.24909258, 10.470295
188724726862999, -0.2548356, 7.3782687, 5.491528, 0.10387647, 0.19494295, 9.198472
188724736503207, -0.40438703, 8.030313, 6.1507506, -0.050210953, 0.11182833, 10.122556
188724746143415, -0.25842485, 7.6773715, 5.508278, 0.15752447, 0.34945822, 9.444734
188724755783624, -0.46301118, 7.3986077, 6.0394845, -0.216591, -0.15794992, 9.558101
188724765423832, -0.101694964, 8.130812, 6.1100726, 0.2661196, 0.10133791, 10.167219
188724775064040, -0.26919255, 7.1449685, 6.1938214, -0.117993474, -0.47584867, 9.447017
188724784704249, 0.025124637, 8.504091, 6.634101, 0.33870232, -0.10391617, 10.779888
188724794344457, 0.013160525, 7.207182, 6.209375, 0.14602709, -0.52970934, 9.497267
188724803984665, 0.11246266, 8.592627, 6.853044, 0.38738585, -0.23166037, 10.982093
188724813624874, 0.09451649, 7.456035, 5.992824, 0.3156258, -0.24084616, 9.558123
188724823265082, -0.17347965, 8.1738825, 6.524031, 0.093253374, -0.14275837, 10.458315
188724832905290, -0.21535404, 7.7072816, 5.5896335, 0.1671865, 0.30664158, 9.516857
188724842545499, -0.5706882, 7.5110703, 5.936593, -0.28904086, 0.033787727, 9.586465
188724852185707, -0.38404804, 8.129615, 5.7284174, 0.06326616, 0.48676586, 9.94042
188724861825915, -0.7393822, 7.119844, 5.727221, -0.4708169, -3.9625168E-4, 9.155231
188724871466124, -0.6149554, 8.318648, 6.088537, -0.17187834, 0.3816223, 10.318584
188724881106332, -0.72382885, 6.91765, 5.721239, -0.4879269, -0.115706444, 8.992159
188724890746540, -0.5599205, 8.240881, 6.5276203, -0.22406161, -0.019708633, 10.525439
188724900386749, -0.6233303, 7.0468626, 5.9676995, -0.40139496, -0.26554155, 9.242762
188724910026957, -0.6041877, 8.013563, 6.661618, -0.33237684, -0.23282433, 10.4304695
188724919667165, -0.4426722, 7.3770723, 5.5920267, -0.090198755, 0.15654421, 9.265814
188724929307374, -0.6999006, 7.463214, 5.808577, -0.36277848, 0.12297678, 9.475349
188724938947582, -0.31944183, 8.105687, 5.723632, 0.14107561, 0.43377018, 9.917464
188724948587790, -0.4235296, 7.2729845, 5.8217373, -0.1569413, -0.09374046, 9.323888
188724958227999, -0.22731815, 8.569894, 5.986842, 0.25588775, 0.46065426, 10.443149
188724967868207, -0.38285163, 7.166504, 5.4460645, -0.07060599, 0.112084866, 9.008186
188724977508415, -0.2105684, 8.555537, 6.0981083, 0.23478293, 0.35226297, 10.499966
188724987148624, -0.07298109, 7.3842506, 5.568098, 0.2292521, 0.040685177, 9.245647
188724996788832, -0.09571291, 8.262417, 6.390033, 0.19727385, -0.073624134, 10.443413
188725006429040, 0.038285162, 7.661818, 5.788238, 0.3264749, 2.5224686E-4, 9.596981
188725016069249, -0.19501504, 7.753942, 6.4618177, -0.04126668, -0.3858266, 10.087923
188725025709457, 0.13878371, 8.178668, 6.257231, 0.4027226, -0.090097904, 10.290409
188725035349665, -0.096909314, 7.3866434, 6.262017, 0.0020282269, -0.4697647, 9.672851
188725044989874, 0.11844472, 8.550752, 6.2931237, 0.43254638, 0.115421295, 10.608128
188725054630082, -0.16390835, 7.0779696, 5.7858453, -0.026093602, -0.25906992, 9.139625
188725064270290, -0.11006984, 8.338987, 6.343373, 0.15469158, 0.027685642, 10.476856
188725073910499, -0.1902294, 6.9906316, 5.6267223, -0.03414464, -0.18078375, 8.973921
188725083550707, -0.2416751, 8.053044, 6.113662, 0.022176743, 0.07541323, 10.113389
188725093190915, -0.17706887, 7.5146594, 5.198407, 0.17851508, 0.43856025, 9.126922
188725102831124, -0.357727, 7.816155, 5.8157554, -0.07511127, 0.19954062, 9.746682
188725112471332, -0.06580263, 8.169097, 5.7056856, 0.3036307, 0.39423752, 9.952171
188725122111540, -0.35174492, 7.489535, 6.101698, -0.20285153, -0.20444965, 9.662537
188725131751749, -0.12921242, 8.568698, 6.4558353, 0.14832556, 0.0768199, 10.727963
188725141391957, -0.33379877, 7.1509504, 6.192625, -0.27024782, -0.4657936, 9.4501915
188725151032165, -0.20937198, 8.469396, 6.7202425, -0.005535722, -0.13899183, 10.812808
188725160672374, -0.36251262, 7.094719, 6.0167527, -0.2710111, -0.33954763, 9.29941
188725170312582, -0.50129634, 8.128419, 6.533602, -0.30611312, -0.100393295, 10.435836
188725179952790, -0.44147578, 7.3782687, 5.5920267, -0.18788373, 0.16116858, 9.265162
188725189592999, -0.61854464, 7.7156568, 6.134001, -0.4114141, -0.0027246475, 9.867659
188725199233207, -0.3589234, 7.8927255, 5.6793647, -0.024258494, 0.36314487, 9.723511
188725208873415, -0.62931234, 7.2155566, 5.8624153, -0.4635679, -0.09470129, 9.306146
188725218513624, -0.27876383, 8.22772, 5.983253, 0.047874093, 0.29936743, 10.172537
188725228153832, -0.3361916, 6.940382, 5.7762737, -0.22814155, -0.2673273, 9.029051
188725237794040, -0.046660043, 8.437093, 6.3696938, 0.20793223, 0.066381454, 10.569392
188725247434249, -0.022731815, 7.1808605, 5.663811, 0.13363802, -0.1319375, 9.143784
188725257074457, -0.013160525, 8.463413, 6.489335, 0.21296608, -0.01783228, 10.662804
188725266714665, 0.13280165, 7.6941214, 5.9210396, 0.32156003, -0.07700539, 9.703943
188725276354874, -0.13160525, 8.059027, 6.5647087, -0.013190985, -0.26741457, 10.391773
188725285995082, 0.101694964, 8.109276, 6.0167527, 0.34562838, 0.0983696, 10.091723
188725295635290, -0.13998012, 7.6307116, 6.0574307, 0.009235024, -0.1298089, 9.742837
188725305275499, 0.076570325, 8.620144, 5.8863435, 0.445832, 0.4993782, 10.416987
188725314915707, -0.18903299, 7.30768, 5.68415, -0.027916193, -0.02499485, 9.259918
188725324555915, -0.17228323, 8.439486, 6.1854467, 0.093681455, 0.23032427, 10.461957
188725334196124, -0.25722843, 7.0935225, 5.790631, -0.17472792, -0.21773577, 9.156293
188725343836332, -0.11365908, 8.242078, 6.410372, 0.0384413, -0.07781887, 10.441749
188725353476540, 0.06460621, 7.4177504, 5.621937, 0.22604918, -0.009265423, 9.304955
188725363116749, -0.13160525, 7.9537425, 6.2440705, 0.0012975931, -0.11324215, 10.112118
188725372756957, 0.025124637, 7.8173513, 5.8013983, 0.24132311, 0.10292435, 9.731341
188725382397165, -0.42951167, 7.379465, 6.320641, -0.3946749, -0.398767, 9.70962
188725392037269, -0.37088752, 8.09133, 6.265606, -0.17331481, 0.042743206, 10.238806
188725401677478, -0.70229346, 6.8925257, 5.844469, -0.63326836, -0.22818851, 9.039074
188725411317686, -0.43788654, 8.340183, 5.98086, -0.12369883, 0.41680574, 10.263143
188725420957894, -0.3505485, 7.0348988, 5.3443694, -0.1581465, 0.11059666, 8.839554
188725430598103, -0.14117654, 8.403593, 6.2177496, 0.113398194, 0.1762476, 10.452598
188725440238311, -0.04546363, 7.4069824, 5.6350975, 0.13774538, 0.01457119, 9.3059435
188725449878519, -0.20219351, 8.099705, 6.5347986, -0.08364189, -0.21949673, 10.406466
188725459518728, 0.0849452, 7.969296, 6.192625, 0.24480355, -0.10835791, 10.089294
188725469158936, -0.104087785, 7.6893353, 6.619744, -0.09501529, -0.5356364, 10.132215
188725478799144, 0.11485548, 8.400003, 6.3625154, 0.313043, 0.010626316, 10.533601
188725488439353, -0.18783657, 7.2658057, 6.005985, -0.11720848, -0.2860813, 9.423561
188725498079561, -0.03708875, 8.612965, 6.1208405, 0.2637607, 0.35435772, 10.557182
188725507719769, -0.18305093, 7.2023964, 5.447261, -0.0068244934, 0.087981224, 9.031773
188725517359978, -0.1052842, 8.439486, 6.114858, 0.16110325, 0.26818657, 10.417753
188725527000186, -0.019142581, 7.320841, 5.375476, 0.19020331, 0.15756035, 9.079086
188725536640394, -0.106480606, 7.9764743, 6.113662, 0.06264961, -0.0016341209, 10.050293
188725546280603, 0.1471586, 7.6773715, 5.4029937, 0.4082073, 0.2889371, 9.375814
188725555920811, -0.13519448, 7.5146594, 5.832505, 0.010238409, -0.0440588, 9.513383
188725565561019, 0.022731815, 8.230113, 5.818148, 0.30208457, 0.33112717, 10.069023
188725575201228, -0.30029923, 7.239485, 5.9844494, -0.23881638, -0.26933908, 9.390654
188725584841332, -0.10289137, 8.605786, 6.4977098, 0.09304154, 0.06715727, 10.783192
188725594481540, -0.2416751, 7.2897344, 6.009574, -0.18371904, -0.2722354, 9.44488
188725604121749, -0.16151553, 8.656036, 6.6592255, 0.017915726, 0.00641346, 10.922361
188725613761957, -0.1471586, 7.4045897, 5.9294147, -0.048365235, -0.16777992, 9.485625
188725623402165, -0.2536392, 8.067402, 6.647261, -0.17499661, -0.29061317, 10.450756
188725633042374, -0.13040884, 7.500303, 5.7583275, 0.03664267, 0.01614952, 9.456653
188725642682582, -0.424726, 7.3435726, 6.020342, -0.3276366, -0.1804986, 9.498055
188725652322790, -0.096909314, 7.9238324, 5.84088, 0.1474042, 0.19411135, 9.841391
188725661962999, -0.32662028, 7.1222367, 5.8803616, -0.2382952, -0.23185349, 9.235857
188725671603207, -0.2536392, 8.407183, 6.009574, 0.04970908, 0.38761377, 10.329923
188725681243415, -0.39481574, 7.085148, 5.6123657, -0.25015843, -0.03844261, 9.043772
188725690883624, -0.31465617, 8.562716, 6.4474607, -0.07211447, 0.15996742, 10.721851
188725700523832, -0.30508488, 7.3627152, 5.892326, -0.17184806, -0.116280556, 9.432874
188725710164040, -0.3278167, 8.1942215, 6.611369, -0.19234681, -0.17357302, 10.530707
188725719804249, -0.031106694, 7.688139, 5.7631135, 0.18689919, 0.090909004, 9.606182
188725729444457, -0.21655045, 7.6893353, 5.994021, -0.04130137, -0.029412746, 9.751846
188725739084561, -0.07537391, 8.085348, 5.6350975, 0.2405901, 0.43729877, 9.842955
188725748724769, -0.42592242, 7.1712894, 5.820541, -0.29874516, -0.13939857, 9.240065
188725758364978, -0.22253251, 8.343773, 6.0454664, 0.06382489, 0.31488276, 10.301093
188725768005186, -0.38404804, 7.01097, 5.5250273, -0.23197198, -0.026569843, 8.931552
188725777645394, -0.22851457, 8.571091, 6.1495543, 0.06818128, 0.3643322, 10.544927
188725787285603, -0.20338993, 7.361519, 5.5908303, -0.010267615, 0.07791948, 9.245786
188725796925811, -0.16510476, 8.362915, 6.533602, 0.0061324835, -0.07443094, 10.613575
188725806566019, 0.016749758, 7.7216387, 5.9641104, 0.17929745, -0.06437349, 9.754912
188725816206228, -0.25603202, 7.7826557, 6.6149583, -0.22543085, -0.43510103, 10.20553
188725825846436, -0.0071784677, 7.960921, 6.4271216, 0.0911957, -0.25900364, 10.227844
188725835486644, -0.25842485, 7.0265236, 6.468996, -0.35894692, -0.7458148, 9.51849
188725845126853, -0.07178468, 8.146365, 6.3182483, 0.08994627, -0.048226833, 10.309137
188725854767061, -0.28713873, 6.8614187, 5.602794, -0.21531129, -0.17529726, 8.858654
188725864407269, -0.14955142, 8.362915, 6.070591, 0.10769951, 0.29521084, 10.33025
188725874047374, -0.22731815, 7.149754, 5.3886366, -0.04790306, 0.13274145, 8.954784
188725883687582, -0.33140594, 8.276773, 6.2668023, -0.13098228, 0.14992237, 10.384987
188725893327790, -0.20338993, 7.6199436, 5.7487564, -0.020090938, 0.12571669, 9.546566
188725902967999, -0.31106696, 7.7814593, 6.465407, -0.26144326, -0.28952742, 10.114206
188725912608207, 0.016749758, 7.885547, 6.0861444, 0.16072118, -0.044495583, 9.959692
188725922248415, -0.2213361, 7.2095747, 6.236892, -0.2374345, -0.47211742, 9.520846
188725931888624, 0.11724831, 8.319844, 6.174679, 0.30678236, 0.112123966, 10.356329
188725941528832, -0.0059820567, 7.112665, 5.672186, 0.056191206, -0.17051077, 9.095688
188725951169040, 0.16749759, 8.653643, 6.1854467, 0.40208924, 0.28072548, 10.626988
188725960809249, 0.12203395, 7.3746796, 5.4592247, 0.27028883, 0.10304451, 9.171709
188725970449457, 0.06580263, 8.580662, 6.202196, 0.26174057, 0.25156593, 10.581472
188725980089665, 0.12921242, 7.77787, 5.5405807, 0.31612194, 0.26746082, 9.541411
188725989729874, -0.124426775, 8.056634, 6.0837517, -0.0027047396, 0.09108162, 10.095969
188725999370082, 0.043070808, 8.090134, 5.6386867, 0.2598977, 0.40036583, 9.849825
188726009010290, -0.2620141, 7.496713, 5.986842, -0.21790278, -0.121750355, 9.594234
188726018650394, 0.0849452, 8.496913, 6.1998034, 0.25054085, 0.18524599, 10.51405
188726028290603, -0.1794617, 7.2119675, 5.9342003, -0.18414235, -0.27078533, 9.335534
188726037930811, -0.08973085, 8.620144, 6.4414787, 0.047778964, 0.12975311, 10.760507
188726047571019, -0.13040884, 7.1976104, 5.901897, -0.13255286, -0.26646185, 9.304108
188726057211228, -0.13160525, 8.260024, 6.710671, -0.119437575, -0.26540327, 10.639254
188726066851436, -0.17826529, 7.220342, 5.8911295, -0.16530025, -0.22902536, 9.316155
188726076491644, -0.48095736, 7.584051, 6.32423, -0.4826764, -0.25235033, 9.871595
188726086131853, -0.32422748, 7.564909, 5.6506505, -0.17816603, 0.20062113, 9.44409
188726095772061, -0.5204389, 7.160522, 5.834898, -0.47810006, -0.12758398, 9.238242
188726105412269, -0.14117654, 8.165507, 5.782256, 0.08262491, 0.39223242, 9.998463
188726115052478, -0.31944183, 7.0396843, 5.6063833, -0.25799656, -0.07474756, 9.001032
188726124692686, -0.049052864, 8.489735, 6.195018, 0.13118601, 0.2375555, 10.506313
188726134332894, 0.0035892338, 7.1880393, 5.710471, 0.049121857, -0.15987206, 9.178749
188726143973103, 0.1698904, 8.471788, 6.5778694, 0.24135327, -0.12010956, 10.723606
188726153613311, 0.22253251, 7.466803, 5.743971, 0.27688432, -0.08072853, 9.418741
188726163253415, 0.02632105, 8.160722, 6.4031935, 0.06803131, -0.11590481, 10.372122
188726172893624, 0.28235307, 8.062616, 5.9557357, 0.37819266, 0.09371376, 10.020204
188726182533832, 0.04426722, 7.7383885, 6.458228, -0.026216269, -0.4044428, 10.071199
188726192174040, 0.26081768, 8.506484, 6.458228, 0.31501818, -0.02155447, 10.678825
188726201814249, -0.1471586, 7.26102, 6.2883377, -0.2635833, -0.48664856, 9.590671
188726211454457, -0.032303106, 8.514859, 6.649654, -0.006029606, -0.06434345, 10.803592
188726221094665, -0.2321038, 6.983453, 5.845666, -0.2865224, -0.28597546, 9.101123
188726230734874, -0.20458634, 8.251649, 6.1507506, -0.09718609, 0.21256971, 10.291196
188726240375082, -0.18783657, 7.204789, 5.0751767, -0.02209723, 0.40175343, 8.805668
188726250015290, -0.3290131, 7.8604226, 5.676972, -0.17933738, 0.3699298, 9.692962
188726259655499, -0.049052864, 7.649854, 5.2486563, 0.14389098, 0.48471642, 9.26366
188726269295707, -0.20937198, 7.519445, 5.9521465, -0.20185578, -0.07241106, 9.589991
188726278935915, 0.05503492, 8.251649, 6.078966, 0.1507082, 0.18221664, 10.246494
188726288576124, -0.2847459, 7.179664, 6.0753765, -0.37174034, -0.33596516, 9.396158
188726298216332, -0.069391854, 8.536395, 6.465407, -0.013207078, 0.09182024, 10.7083025
188726307856540, -0.086141616, 7.2011995, 5.973682, -0.16859674, -0.30172586, 9.350407
188726317496749, 0.029910283, 8.513663, 6.739385, 0.0016549826, -0.15241623, 10.857229
188726327136853, 0.008374879, 7.3603225, 5.8672013, -0.031891942, -0.15724373, 9.411309
188726336777061, -0.13998012, 8.054241, 6.3541408, -0.16144836, -0.07514763, 10.258354
188726346417269, 0.104087785, 7.716853, 5.5298133, 0.1997149, 0.26642656, 9.48834
188726356057478, -0.08015956, 7.670193, 5.782256, -0.05203402, 0.104547024, 9.605161
188726365697686, 0.18544376, 8.323434, 5.4987063, 0.39888787, 0.6076617, 9.950948
188726375337894, -0.09212367, 7.2693954, 5.4388857, -0.059468865, 0.13216019, 9.078164
188726384978103, 0.09571291, 8.4813595, 5.844469, 0.24070442, 0.45374775, 10.287693
188726394618311, 0.039481573, 7.143772, 5.568098, -0.0072311163, -0.0852766, 9.057121
188726404258519, 0.19142582, 8.578269, 6.4666033, 0.17932749, 0.025158405, 10.742788
188726413898728, 0.31585258, 7.442875, 5.797809, 0.2429105, -0.16425705, 9.435294
188726423538936, 0.37806597, 8.391629, 6.6245294, 0.2655083, -0.25681925, 10.691601
188726433179144, 0.57906306, 7.9298143, 5.922236, 0.54603136, -0.05722189, 9.898928
188726442819353, 0.25603202, 7.8556366, 6.3158555, 0.12119162, -0.2928753, 10.078003
188726452459561, 0.4211368, 8.274381, 5.9294147, 0.4634421, 0.18238354, 10.176082
188726462099769, 0.0634098, 7.350751, 5.784649, -0.01484549, -0.12124348, 9.353332
188726471739978, 0.2943172, 8.554341, 5.953343, 0.39740038, 0.37034607, 10.412043
188726481380186, -0.0023928226, 7.1018977, 5.3910294, -0.020467162, 0.051999092, 8.916111
188726491020394, -0.0071784677, 8.555537, 6.1387863, 0.06251979, 0.3311491, 10.524656
188726500660603, -0.019142581, 7.4440713, 5.6937213, -0.04786408, 0.030398846, 9.371757
188726510300811, -0.01794617, 8.364112, 6.73101, -0.13620424, -0.21763468, 10.733092
188726519941019, 0.17108682, 7.672586, 6.166304, 0.056490183, -0.25094843, 9.841494
188726529581228, -0.22612174, 7.733603, 6.5455666, -0.3902409, -0.3730359, 10.119918
188726539221436, -0.083748795, 8.100901, 6.212964, -0.10354638, 0.045203686, 10.208807
188726548861644, -0.18305093, 7.2083783, 6.375676, -0.39231348, -0.5660863, 9.600474
188726558501749, 0.2105684, 8.37129, 6.413961, 0.18772125, -0.03721142, 10.54633
188726568141957, -0.2739782, 6.882954, 5.8073807, -0.3867435, -0.30308962, 8.996351
188726577782165, -0.36729828, 8.288737, 6.375676, -0.3477329, 0.11382294, 10.45722
188726587422374, -0.40797627, 6.957132, 5.8971114, -0.5177285, -0.2744937, 9.110471
188726597062582, -0.36011982, 8.000402, 6.780063, -0.48739016, -0.36057615, 10.475582
188726606702790, -0.20219351, 7.372287, 6.040681, -0.27815902, -0.21222258, 9.526747
188726616342999, -0.35653058, 7.6917286, 6.273981, -0.43861568, -0.17240477, 9.921216
188726625983207, -0.039481573, 8.075776, 5.651847, 0.088374615, 0.4122224, 9.848115
188726635623415, -0.24646074, 7.459625, 5.706882, -0.2507137, 0.07792711, 9.391823
188726645263624, 0.0035892338, 8.504091, 6.0011992, 0.11520612, 0.37673473, 10.400904
188726654903832, -0.23330021, 7.1282187, 5.71765, -0.30850303, -0.120769024, 9.134972
188726664544040, -0.06699903, 8.411968, 6.4055862, -0.07975638, 0.043664455, 10.573029
188726674184249, 0.0059820567, 7.0396843, 5.660222, -0.08592296, -0.20804977, 9.030207
188726683824457, 0.019142581, 8.172686, 6.3182483, -0.033327937, -0.059484005, 10.329994
188726693464665, 0.22731815, 7.4584284, 5.4676, 0.23937821, 0.095383644, 9.247058
188726703104874, 0.17587246, 7.8317084, 5.9030933, 0.13847029, -6.8998337E-4, 9.807851
188726712745082, 0.526421, 8.105687, 5.4628143, 0.6400565, 0.36947107, 9.760916
188726722385290, 0.36729828, 7.6259255, 5.7188463, 0.31742406, -0.04156065, 9.533748
188726732025499, 0.6831509, 8.7577305, 5.9138613, 0.7635163, 0.3582039, 10.555901
188726741665707, 0.50129634, 7.5673018, 5.743971, 0.41101813, -0.13944912, 9.503693
188726751305915, 0.6771688, 9.0436735, 6.418747, 0.6769445, 0.15879726, 11.088888
188726760946124, 0.4642076, 7.588837, 5.831309, 0.35826766, -0.17150259, 9.573523
188726770586332, 0.21296121, 8.581859, 6.541977, 0.12604713, -0.056719303, 10.792221
188726780226540, 0.09810573, 7.5924263, 5.7523456, 0.03947115, 0.0027451515, 9.525886
188726789866749, -0.2321038, 7.877172, 6.1974106, -0.32721817, -0.06994152, 10.019962
188726799506957, -0.17108682, 7.739585, 5.4125648, -0.088263035, 0.41785145, 9.43631
188726809147165, -0.5180461, 7.166504, 5.5070815, -0.54461336, 0.12588406, 9.035634
188726818787374, -0.17347965, 8.112865, 5.5537415, -0.049338818, 0.5237479, 9.819164
188726828427582, -0.36370903, 6.977471, 5.456832, -0.41845334, 0.004746914, 8.855467
188726838067790, -0.019142581, 8.5112705, 6.206982, 0.006603241, 0.21528006, 10.531967
188726847707999, -0.061016977, 7.152147, 5.881558, -0.20565462, -0.30904818, 9.252667
188726857348207, -0.18424734, 8.356933, 6.769295, -0.32575798, -0.23784304, 10.748627
188726866988415, -0.18903299, 7.4033933, 6.122037, -0.33997, -0.29374456, 9.598097
188726876628624, -0.31585258, 7.88794, 6.7645097, -0.5338353, -0.4572072, 10.372269
188726886268832, -0.09930214, 7.7742805, 6.117251, -0.18693888, -0.100242615, 9.890657
188726895909040, -0.30388847, 7.351948, 6.3182483, -0.50666416, -0.43629217, 9.675573
188726905549249, 0.038285162, 8.226524, 6.1591253, 0.007023573, 0.08118296, 10.276445
188726915189457, -0.14356937, 7.066005, 5.7379885, -0.26856804, -0.21936798, 9.096884
188726924829665, 0.13280165, 8.423932, 6.0227346, 0.15837264, 0.26477146, 10.351736
188726934469874, 0.08255238, 7.1282187, 5.3718867, 0.028615952, 0.02229309, 8.926039
188726944110082, 0.2847459, 8.510074, 6.151947, 0.26726043, 0.1628952, 10.500044
188726953750290, 0.50368917, 7.6666036, 5.633901, 0.43607867, 0.0071849823, 9.517412
188726963390499, 0.45104706, 8.295917, 6.393622, 0.31097972, -0.18963861, 10.477185
188726973030707, 0.5946164, 8.090134, 5.7523456, 0.5499635, 0.13587189, 9.928364
188726982670915, 0.22013968, 7.719246, 5.910272, 0.087103605, -0.09796572, 9.72365
188726992311124, 0.3397808, 8.46102, 5.76431, 0.35967124, 0.40472174, 10.229292
188727001951332, 0.07298109, 7.308877, 5.651847, -0.06397021, -0.09585619, 9.238782
188727011591540, 0.24047868, 8.683554, 6.1184473, 0.22108495, 0.29019308, 10.619051
188727021231749, -0.02751746, 7.2789664, 5.5369916, -0.13605022, 0.0079813, 9.144605
188727030871957, -0.08015956, 8.549556, 6.282356, -0.14812791, 0.1937623, 10.607065
188727040512165, -0.020338992, 7.4249287, 5.487939, -0.088374496, 0.13103485, 9.231604
188727050152478, -0.061016977, 8.126026, 6.24766, -0.19642818, -0.023567677, 10.248422
188727059792686, 0.15433706, 7.776674, 5.656633, 0.09441316, 0.15329361, 9.615903
188727069432894, -0.078963146, 7.493124, 6.111269, -0.2934606, -0.27991486, 9.66107
188727079073103, 0.16031912, 8.079366, 6.067002, 0.047789812, 0.01964283, 10.1048355
188727088713311, -0.30867413, 7.004988, 5.985646, -0.5626843, -0.39769983, 9.193384
188727098353519, -0.15553348, 8.355737, 6.364908, -0.28235006, 0.052288055, 10.501054
188727107993728, -0.1794617, 7.0899334, 5.9712887, -0.42176282, -0.37509346, 9.25403
188727117633936, 0.1363909, 8.599805, 6.818348, -0.079116344, -0.23456907, 10.972869
188727127274144, 0.28713873, 7.5613194, 5.989235, 0.08373749, -0.25243187, 9.646563
188727136914353, 0.30269206, 8.380861, 6.506085, 0.10678363, -0.17630339, 10.612123
188727146554561, 0.53599226, 7.9513497, 5.6877394, 0.4565922, 0.118150234, 9.779528
188727156194769, 0.2955136, 7.756335, 5.953343, 0.11732328, -0.13309479, 9.780535
188727165834978, 0.5347959, 8.233703, 5.5860443, 0.52659535, 0.33807516, 9.944454
188727175475186, 0.2548356, 7.2873416, 5.564509, 0.095367074, -0.09812784, 9.171441
188727185115394, 0.51565325, 8.55793, 5.84088, 0.4935429, 0.3428936, 10.356584
188727194755603, 0.29790643, 7.200003, 5.400601, 0.16689312, -0.036767483, 9.00367
188727204395811, 0.28235307, 8.640483, 6.198607, 0.19882977, 0.19771957, 10.63399
188727214036019, 0.2536392, 7.446464, 5.54417, 0.13379824, 0.011648178, 9.286224
188727223676228, 0.19860429, 8.386844, 6.398408, 0.033427358, -0.07637167, 10.550417
188727233316540, 0.22612174, 7.8233337, 5.6685967, 0.15125036, 0.14867067, 9.661453
188727242956749, -0.1471586, 7.771888, 6.0957155, -0.31511545, -0.10083151, 9.872799
188727252596957, 0.10289137, 8.17149, 5.802595, 0.07009542, 0.28063154, 10.018498
188727262237165, -0.18544376, 7.2670026, 5.7631135, -0.3480177, -0.12464142, 9.269333
188727271877374, -0.02871387, 8.407183, 5.8636117, -0.026213527, 0.4076724, 10.241903
188727281517582, -0.22971097, 7.048059, 5.325227, -0.31331336, 0.100094795, 8.830502
188727291157790, -0.009571291, 8.488539, 6.0753765, -0.03925419, 0.28928328, 10.434575
188727300797999, -0.011964113, 7.2215385, 5.572884, -0.13584423, -0.04989004, 9.120684
188727310438207, -0.10887343, 8.206185, 6.5898337, -0.31055498, -0.20945072, 10.518505
188727320078415, 0.09092726, 7.533802, 6.056234, -0.10626316, -0.25902796, 9.66261
188727329718624, -0.12083755, 7.6977105, 6.6352973, -0.42147052, -0.52886343, 10.1409645
188727339358832, 0.04546363, 8.048259, 6.2644095, -0.10089135, -0.094830036, 10.198049
188727348999040, -0.106480606, 7.3172517, 6.512067, -0.44686282, -0.6469312, 9.76434
188727358639249, 0.22731815, 8.402397, 6.562316, 0.05811441, -0.16753912, 10.6622925
188727368279561, -0.09332009, 7.056434, 5.8061843, -0.29937243, -0.27574444, 9.129517
188727377919769, 0.013160525, 8.488539, 6.1268225, -0.014603972, 0.27470016, 10.465074
188727387559978, 0.07537391, 7.223932, 5.337191, 0.010235906, 0.11586189, 8.981256
188727397200186, 0.15792629, 8.353344, 6.122037, 0.08146584, 0.13987637, 10.356468
188727406840394, 0.38524446, 7.688139, 5.3718867, 0.3710978, 0.23932457, 9.376464
188727416480603, 0.2440679, 7.9310107, 5.986842, 0.11029315, -0.03230858, 9.939295
188727426120811, 0.41994038, 8.10449, 5.5657053, 0.427974, 0.32130766, 9.825976
188727435761019, 0.16510476, 7.476374, 5.81097, -0.0040585995, -0.1313281, 9.46961
188727445401228, 0.60777694, 8.648857, 6.2057858, 0.5229213, 0.08975792, 10.649056
188727455041436, 0.34337005, 7.3363943, 5.8743796, 0.11413813, -0.31565046, 9.398736
188727464681749, 0.34337005, 8.737391, 6.290731, 0.26239014, 0.17279577, 10.767289
188727474321957, 0.22013968, 7.3974113, 5.5740805, 0.08923209, -0.016039371, 9.264572
188727483962165, 0.25004998, 8.57468, 6.3601227, 0.12760031, 0.058321476, 10.677977
188727493602374, 0.28235307, 7.661818, 5.65424, 0.18062305, 0.054080486, 9.524604
188727503242582, 0.1902294, 8.025527, 6.0287166, 0.066539645, 0.009826183, 10.03923
188727512882790, 0.11724831, 7.8580294, 5.858826, 0.010508418, 0.06502581, 9.802238
188727522522999, 0.02632105, 7.853244, 5.84088, -0.06190443, 0.102285385, 9.786507
188727532163207, 0.07178468, 7.7671022, 5.905486, -0.049358606, -0.010303974, 9.7573185
188727541803415, 0.078963146, 7.8017983, 6.0167527, -0.052066445, -0.07689476, 9.852258
188727551443728, -0.1268196, 7.7682986, 5.968896, -0.24258757, 0.0013356209, 9.794458
188727561083936, -0.21535404, 7.7611203, 6.050252, -0.33337104, -0.04130268, 9.837381
188727570724144, -0.17587246, 7.757531, 6.253642, -0.343997, -0.20820189, 9.957739
188727580364353, -0.16869399, 7.7216387, 6.2775702, -0.3404268, -0.2483716, 9.943968
188727590004561, -0.17347965, 7.6678, 6.1292152, -0.3122127, -0.16328382, 9.811646
188727599644769, -0.16869399, 7.6307116, 5.831309, -0.23953116, 0.042164326, 9.602147
188727609284978, -0.148355, 7.652247, 5.605187, -0.15884459, 0.21759272, 9.482849
188727618925186, -0.06580263, 7.685746, 5.5968122, -0.07263124, 0.21955395, 9.505045
188727628565499, 0.11724831, 7.8293157, 5.791827, 0.07649863, 0.09648371, 9.738688
188727638205707, 0.2428715, 7.958528, 5.9641104, 0.1789571, 0.0040602684, 9.946644
188727647845915, 0.22372891, 8.024331, 6.1064835, 0.12891436, -0.0587821, 10.085089
188727657486124, 0.2105684, 8.050652, 6.2524457, 0.08795965, -0.14944267, 10.194133
188727667126332, 0.26081768, 7.9920278, 6.296713, 0.11164665, -0.22484827, 10.17478
188727676766540, 0.27756742, 7.9429746, 6.2105713, 0.13918257, -0.19261503, 10.08378
188727686406749, 0.17108682, 7.891529, 6.0011992, 0.07562256, -0.0297575, 9.915306
188727696047061, 0.13399807, 7.8520474, 5.8803616, 0.060477257, 0.051048756, 9.810453
188727705687269, 0.14596218, 7.8460655, 5.800202, 0.091394305, 0.10282469, 9.757329
188727715327478, 0.04426722, 7.7754774, 5.710471, 0.003318429, 0.15900087, 9.645942
188727724967686, 0.0011964113, 7.7850485, 5.686543, -0.031391263, 0.19259882, 9.638758
188727734607894, 0.0, 7.806584, 5.7188463, -0.0343374, 0.17587519, 9.675528
188727744248103, 0.06819545, 7.844869, 5.8468623, 0.00778389, 0.08065605, 9.783959
188727753888311, 0.16749759, 7.891529, 6.053841, 0.059441805, -0.07832813, 9.947041
188727763528624, 0.12203395, 7.850851, 6.0251274, 0.01597333, -0.066268444, 9.896883
188727773168832, 0.031106694, 7.8436728, 6.0191455, -0.06766689, -0.032776833, 9.88679
188727782809040, -0.025124637, 7.7814593, 6.096912, -0.15134192, -0.11068344, 9.88377
188727792449249, 0.0, 7.7850485, 6.0957155, -0.12668824, -0.11339855, 9.886143
188727802089457, 0.013160525, 7.8604226, 6.1005015, -0.10189748, -0.07532787, 9.949196
188727811729665, -0.008374879, 7.8604226, 6.0825553, -0.11895788, -0.05467415, 9.938142
188727821369978, 0.008374879, 7.853244, 6.058627, -0.09806669, -0.045683384, 9.918103
188727831010186, 0.06699903, 7.8927255, 6.0897336, -0.042536616, -0.06344795, 9.968882
188727840650394, 0.19740787, 7.925029, 6.1268225, 0.077546, -0.11366844, 10.018187
188727850290603, 0.16151553, 7.88794, 6.017949, 0.06470227, -0.04077053, 9.922476
188727859930811, 0.11724831, 7.885547, 5.953343, 0.0387944, 0.02122116, 9.881091
188727869571019, 0.13160525, 7.838887, 6.013163, 0.026459336, -0.057407856, 9.880264
188727879211332, 0.11365908, 7.7910304, 5.8743796, 0.034633994, 0.023647785, 9.758057
188727888851540, 0.02632105, 7.826923, 5.6961145, 6.2668324E-4, 0.20407295, 9.678094
188727898491749, 0.047856454, 7.834101, 5.6877394, 0.022177339, 0.20822716, 9.678946
188727908131957, 0.1052842, 7.865208, 5.743971, 0.0675987, 0.16369152, 9.738297
188727917772165, 0.03589234, 7.850851, 5.770292, -0.011584163, 0.15357399, 9.742161
188727927412374, 0.05742774, 7.8831544, 5.7655063, 0.0128747225, 0.16977024, 9.765219
188727937052686, 0.14596218, 7.925029, 5.9353967, 0.0636065, 0.039778233, 9.902054
188727946692894, 0.15792629, 7.9274216, 6.105287, 0.034663558, -0.08888054, 10.006717
188727956333103, 0.14476576, 7.954939, 6.3158555, -0.02329433, -0.22965002, 10.155726
188727965973311, 0.17587246, 7.972885, 6.4977098, -0.030568838, -0.35651588, 10.280565
188727975613519, 0.16031912, 7.945368, 6.48096, -0.048662186, -0.3504362, 10.248523
188727985253832, 0.16031912, 7.9154572, 6.346962, -0.020231485, -0.2647066, 10.14365
188727994894040, 0.12921242, 7.816155, 6.1184473, -0.013359666, -0.13973665, 9.92596
188728004534249, 0.0, 7.8233337, 5.9784675, -0.10166466, 0.006318569, 9.845619
188728014174457, 0.029910283, 7.7120676, 5.723632, -0.030997157, 0.12175369, 9.603181
188728023814665, -0.050249275, 7.725228, 5.7152567, -0.10517132, 0.14300394, 9.608033
188728033454978, -0.069391854, 7.7551384, 5.7403817, -0.124460936, 0.14652538, 9.646864
188728043095186, 0.010767702, 7.795816, 5.7559347, -0.04545188, 0.122216225, 9.689615
188728052735394, 0.032303106, 7.9011, 5.7954164, -0.017743945, 0.14165306, 9.7977
188728062375603, 0.043070808, 7.9034934, 5.800202, -0.012066007, 0.13144827, 9.802652
188728072015811, 0.06819545, 7.8903327, 5.8480587, -0.003613472, 0.07672691, 9.8211975
188728081656124, 0.04546363, 7.8376904, 5.912665, -0.049301982, 0.003510952, 9.817772
188728091296332, 0.11246266, 7.8352976, 5.98086, -0.0019345284, -0.06740236, 9.857519
188728100936540, 0.13399807, 7.874779, 6.113662, -0.0074659586, -0.15207052, 9.969141
188728110576749, 0.17587246, 7.867601, 6.0526447, 0.04863763, -0.11862278, 9.927142
188728120216957, 0.20219351, 7.908279, 6.023931, 0.09041262, -0.07418728, 9.942627
188728129857269, 0.24047868, 7.9597244, 5.9700923, 0.14694774, -0.0151286125, 9.951645
188728139497478, 0.22492532, 7.98126, 5.8803616, 0.15835238, 0.07005739, 9.914624
188728149137686, 0.21296121, 7.9944205, 5.7726846, 0.17367542, 0.16067505, 9.860224
188728158777894, 0.19980069, 7.9944205, 5.680561, 0.1773858, 0.2282157, 9.804893
188728168418103, 0.16510476, 7.9537425, 5.6889358, 0.1346488, 0.20956421, 9.777079
188728178058415, 0.1902294, 7.952546, 5.7056856, 0.1488775, 0.18550682, 9.786596
188728187698624, 0.15672988, 7.9154572, 5.743971, 0.09889114, 0.1412797, 9.779698
188728197338832, 0.078963146, 7.8831544, 5.9042897, -0.019868135, 0.02488184, 9.849365
188728206979040, 0.049052864, 7.865208, 6.1292152, -0.103976846, -0.14942312, 9.969857
188728216619353, 0.050249275, 7.8424764, 6.2715883, -0.13484776, -0.2700081, 10.037366
188728226259561, 0.013160525, 7.847262, 6.172286, -0.1354152, -0.17060661, 9.981451
188728235899769, 0.0023928226, 7.8376904, 6.029913, -0.11534202, -0.06444883, 9.887962
188728245539978, 0.03708875, 7.812566, 5.983253, -0.070779085, -0.049429893, 9.840195
188728255180290, 0.046660043, 7.7790666, 5.968896, -0.06024897, -0.058516026, 9.804933
188728264820499, -0.0011964113, 7.7587276, 5.9114685, -0.09656525, -0.013372421, 9.7536545
188728274460707, -0.041874398, 7.757531, 5.864808, -0.12375057, 0.0346179, 9.724222
188728284100915, -0.034695927, 7.7587276, 5.838487, -0.10793984, 0.055106163, 9.709393
188728293741124, 0.07537391, 7.836494, 6.0191455, -0.033314466, -0.069366455, 9.881321
188728303381436, 0.1052842, 7.8963146, 6.02752, 0.0029853582, -0.049951553, 9.934353
188728313021644, 0.040677983, 7.946564, 5.8839507, -0.017024398, 0.108131886, 9.887287
188728322661853, 0.062213387, 7.9238324, 5.8337016, 0.011854768, 0.1252985, 9.839066
188728332302061, 0.16869399, 7.96451, 5.8564334, 0.11389732, 0.0992198, 9.886196
188728341942374, 0.15553348, 7.9106717, 5.852844, 0.09218943, 0.07498121, 9.840963
188728351582582, 0.11246266, 7.87119, 5.869594, 0.038492084, 0.055940628, 9.819155
188728361222790, 0.10887343, 7.8376904, 5.8971114, 0.022335768, 0.016870022, 9.808994
188728370862999, 0.083748795, 7.813762, 5.930611, -0.014062047, -0.0119133, 9.809877
188728380503311, 0.11246266, 7.8460655, 6.013163, -0.0033165216, -0.058392525, 9.885753
188728390143519, 0.15792629, 7.8903327, 6.078966, 0.030393958, -0.09326315, 9.96125
188728399783728, 0.14955142, 7.946564, 6.1328044, 0.01719284, -0.09631729, 10.038524
188728409423936, 0.16510476, 7.9716887, 6.212964, 0.016846895, -0.14716673, 10.107129
188728419064249, 0.16749759, 7.9764743, 6.215357, 0.016687512, -0.14590406, 10.1124325
188728428704457, 0.18305093, 7.954939, 6.1567326, 0.03889072, -0.12081003, 10.060011
188728438344665, 0.17347965, 7.884351, 6.023931, 0.05122018, -0.057988644, 9.92345
188728447984874, 0.04546363, 7.751549, 5.8265233, -0.046512127, 0.0468812, 9.697041
188728457625186, -0.049052864, 7.702496, 5.7224355, -0.11912644, 0.12163448, 9.5941725
188728467265394, -0.05623133, 7.706085, 5.6877394, -0.1172508, 0.14752436, 9.576104
