timestamp_acc,device_acc_x,device_acc_y,device_acc_z,earth_acc_x,earth_acc_y,earth_acc_z
1464874376871388, 5.0273204, 0.17467605, 9.025727, -0.24589431, -0.44084644, 10.320534
1464874379281127, 5.1349974, 0.14356937, 9.090333, -0.20043838, -0.39360714, 10.43206
1464874381690815, 5.235496, 0.09571291, 9.0951185, -0.12504268, -0.33576632, 10.488679
1464874384100554, 5.316852, 0.062213387, 9.06162, -0.07024002, -0.2605672, 10.502995
1464874386510242, 5.359923, 0.038285162, 9.008977, -0.033450365, -0.2040577, 10.480895
1464874388919981, 5.3766723, 0.019142581, 8.946764, 0.0039856434, -0.17424345, 10.436626
1464874391329669, 5.400601, -0.04546363, 8.903693, 0.077652335, -0.15010834, 10.412289
1464874393739408, 5.4173503, -0.076570325, 8.863015, 0.122902274, -0.1352601, 10.386202
1464874396149096, 5.4317074, -0.0741775, 8.793623, 0.12931132, -0.093238354, 10.334956
1464874398558835, 5.436493, -0.03589234, 8.736196, 0.10781062, -0.06043911, 10.288956
1464874400968523, 5.4293146, 0.021535404, 8.664411, 0.06259906, -0.012081146, 10.224769
1464874403378210, 5.4460645, 0.10049855, 8.590233, 0.007120967, 0.0513072, 10.171485
1464874405787950, 5.436493, 0.15792629, 8.525627, -0.03682208, 0.08171034, 10.112304
1464874408197638, 5.4388857, 0.20817557, 8.456235, -0.07155609, 0.13527346, 10.055312
1464874410607377, 5.4556355, 0.22731815, 8.386844, -0.07383716, 0.18996906, 10.00566
1464874413017065, 5.4460645, 0.23449662, 8.34138, -0.0730474, 0.194911, 9.962425
1464874415426804, 5.4556355, 0.23688944, 8.288737, -0.062856555, 0.23044538, 9.923013
1464874417836492, 5.4580283, 0.22492532, 8.257631, -0.043555617, 0.2317915, 9.898157
1464874420246231, 5.4580283, 0.17706887, 8.224132, 0.007216811, 0.23334742, 9.869308
1464874422655919, 5.477171, 0.13878371, 8.2145605, 0.051615, 0.22953272, 9.871287
1464874425065658, 5.4723854, 0.1268196, 8.240881, 0.05729854, 0.20844507, 9.890827
1464874427475346, 5.4699926, 0.10289137, 8.262417, 0.074383855, 0.1777811, 9.907664
1464874429885085, 5.4891353, 0.08853444, 8.298309, 0.08748174, 0.1701703, 9.948054
1464874432294773, 5.505885, 0.09810573, 8.336594, 0.07506716, 0.15755224, 9.989632
1464874434704513, 5.515456, 0.10049855, 8.379665, 0.06570053, 0.1356535, 10.031272
1464874437114200, 5.5250273, 0.10049855, 8.432307, 0.062152863, 0.1150794, 10.08081
1464874439523940, 5.572884, 0.09571291, 8.4682, 0.074394464, 0.13308477, 10.136733
1464874441933627, 5.5800624, 0.03589234, 8.525627, 0.11923134, 0.08180237, 10.188415
1464874444343315, 5.572884, 0.011964113, 8.571091, 0.12735641, 0.038691044, 10.222673
1464874446753054, 5.556134, -0.009571291, 8.602198, 0.13755715, 0.0023441315, 10.239609
1464874449162742, 5.5369916, -0.04546363, 8.62134, 0.15768015, -0.040725708, 10.245063
1464874451572481, 5.515456, -0.06699903, 8.609376, 0.17383075, -0.05885935, 10.223131
1464874453982169, 5.493921, -0.1052842, 8.590233, 0.20238805, -0.082401276, 10.195028
1464874456391908, 5.4843497, -0.10767702, 8.580662, 0.20356047, -0.085870266, 10.18178
1464874458801596, 5.460421, -0.11246266, 8.556734, 0.19976795, -0.09863281, 10.148741
1464874461211335, 5.4317074, -0.12203395, 8.537591, 0.20392787, -0.11472654, 10.117019
1464874463621023, 5.4029937, -0.13878371, 8.49452, 0.21308637, -0.12502098, 10.06516
1464874466030763, 5.3790655, -0.148355, 8.444271, 0.22391105, -0.12135887, 10.009855
1464874468440450, 5.3623157, -0.13160525, 8.394022, 0.20739865, -0.103955746, 9.958791
1464874470850190, 5.395815, -0.11485548, 8.3581295, 0.20658755, -0.05346918, 9.946898
1464874473259877, 5.3910294, -0.09332009, 8.300702, 0.19432747, -0.020805836, 9.896229
1464874475669617, 5.4149575, -0.043070808, 8.274381, 0.15056372, 0.029195309, 9.887642
1464874478079304, 5.4173503, -0.023928227, 8.26481, 0.12811542, 0.037213326, 9.88117
1464874480489044, 5.45085, -0.019142581, 8.286345, 0.12863636, 0.05427885, 9.917465
1464874482898731, 5.4676, 0.0, 8.286345, 0.108546376, 0.068255424, 9.926819
1464874485308419, 5.505885, 0.014356935, 8.26481, 0.10797775, 0.11406422, 9.929622
1464874487718158, 5.5202417, 0.019142581, 8.252846, 0.10885823, 0.13320684, 9.927402
1464874490127846, 5.4987063, 0.016749758, 8.394022, 0.0781064, 0.03645706, 10.034352
1464874492537585, 5.5130634, 0.02871387, 8.422736, 0.060049534, 0.030661583, 10.066411
1464874494947273, 5.541777, 0.033499517, 8.396415, 0.066046, 0.06956053, 10.059971
1464874497357013, 5.5513487, 0.043070808, 8.34138, 0.067444205, 0.10875797, 10.019061
1464874499766700, 5.5537415, 0.059820566, 8.281559, 0.056015253, 0.14209652, 9.970382
1464874502176440, 5.5657053, 0.09810573, 8.238488, 0.024323821, 0.18055439, 9.941137
1464874504586127, 5.5513487, 0.10289137, 8.276773, 0.011973619, 0.15027618, 9.965456
1464874506995867, 5.541777, 0.10767702, 8.267202, 0.0064783096, 0.14904833, 9.95225
1464874509405554, 5.5369916, 0.10767702, 8.228917, 0.0072265863, 0.16000414, 9.917624
1464874511815294, 5.5106707, 0.09332009, 8.224132, 0.011575341, 0.13225603, 9.899238
1464874514224981, 5.491528, 0.08135597, 8.2456665, 0.014683127, 0.10213709, 9.906759
1464874516634721, 5.4987063, 0.078963146, 8.240881, 0.015665889, 0.10502148, 9.906708
1464874519044408, 5.4867425, 0.062213387, 8.250452, 0.027183533, 0.08550882, 9.908084
1464874521454148, 5.4843497, 0.050249275, 8.286345, 0.02945888, 0.05709076, 9.9368
1464874523863835, 5.491528, 0.023928227, 8.281559, 0.057152748, 0.05755329, 9.936553
1464874526273523, 5.5106707, 0.0047856453, 8.274381, 0.07854974, 0.06694317, 9.940939
1464874528683263, 5.532206, -0.014356935, 8.271988, 0.102616906, 0.07972479, 9.9506
1464874531092950, 5.54417, -0.033499517, 8.26481, 0.122122526, 0.08299255, 9.951092
1464874533502690, 5.548956, -0.011964113, 8.260024, 0.10351765, 0.09571552, 9.949834
1464874535912377, 5.5513487, -0.011964113, 8.26481, 0.10079861, 0.088983536, 9.955231
1464874538322117, 5.548956, -0.02871387, 8.288737, 0.11226094, 0.069459915, 9.97384
1464874540731804, 5.5633125, -0.040677983, 8.300702, 0.12230456, 0.06415987, 9.991732
1464874543141544, 5.575277, -0.043070808, 8.32463, 0.12377441, 0.06041193, 10.018288
1464874545551231, 5.56092, -0.0023928226, 8.312666, 0.08327842, 0.06766033, 10.000638
1464874547960971, 5.534599, 0.02632105, 8.331808, 0.04339397, 0.037264824, 10.002412
1464874550370658, 5.5250273, 0.02871387, 8.370093, 0.029202342, 0.0018930435, 10.029175
1464874552780398, 5.505885, 0.043070808, 8.386844, 0.0075963736, -0.017439842, 10.032717
1464874555190085, 5.4795637, 0.038285162, 8.403593, 6.8986416E-4, -0.057178974, 10.032158
1464874557599825, 5.4819565, 0.016749758, 8.408379, 0.021003485, -0.06444645, 10.037348
1464874560009513, 5.4843497, 0.0071784677, 8.398808, 0.031133175, -0.06844473, 10.030577
1464874562419252, 5.4963136, 0.009571291, 8.3581295, 0.038725734, -0.036833286, 10.003251
1464874564828940, 5.4963136, 0.016749758, 8.303095, 0.041026592, -0.005674362, 9.95738
1464874567238679, 5.501099, 0.016749758, 8.240881, 0.051536918, 0.024864674, 9.90814
1464874569648367, 5.5298133, 0.02632105, 8.2145605, 0.053676724, 0.0644598, 9.902097
1464874572058054, 5.5274205, 0.019142581, 8.178668, 0.065484285, 0.07337284, 9.8708515
1464874574467794, 5.534599, 0.023928227, 8.152347, 0.06697047, 0.088825226, 9.852957
1464874576877481, 5.5393844, 0.0023928226, 8.13799, 0.09103143, 0.093875885, 9.843503
1464874579287221, 5.5274205, 0.011964113, 8.130812, 0.080367565, 0.085969925, 9.831011
1464874581696908, 5.5704913, -0.011964113, 8.128419, 0.114323616, 0.114435196, 9.852693
1464874584106648, 5.623133, -0.0071784677, 8.133204, 0.12265921, 0.154706, 9.885834
1464874586516335, 5.639883, -0.0071784677, 8.154739, 0.12375462, 0.15219069, 9.913103
1464874588926075, 5.651847, 0.019142581, 8.157132, 0.101324916, 0.16411018, 9.921964
1464874591335763, 5.6757755, 0.02871387, 8.166703, 0.09668052, 0.18087435, 9.943251
1464874593745502, 5.6949177, 0.019142581, 8.16431, 0.1111784, 0.19064379, 9.951871
1464874596155190, 5.716453, 0.009571291, 8.176275, 0.121975064, 0.19966984, 9.973699
1464874598564929, 5.723632, 0.0023928226, 8.185846, 0.12911963, 0.19821405, 9.985595
1464874600974617, 5.7188463, 0.0023928226, 8.166703, 0.13114774, 0.20097637, 9.967078
1464874603384356, 5.7451673, 0.02871387, 8.152347, 0.11459625, 0.23716688, 9.969912
1464874605794044, 5.771488, 0.05503492, 8.149954, 0.09625924, 0.26361418, 9.982789
1464874608203783, 5.749953, 0.08135597, 8.154739, 0.06436348, 0.25171995, 9.975011
1464874610613471, 5.7355957, 0.10049855, 8.159525, 0.041802645, 0.23973227, 9.971249
1464874613023210, 5.7379885, 0.1268196, 8.1738825, 0.014963746, 0.24150991, 9.984709
1464874615432898, 5.716453, 0.124426775, 8.202596, 0.007883668, 0.20449352, 9.9967
1464874617842585, 5.706882, 0.11964113, 8.212168, 0.008166671, 0.18664455, 9.99938
1464874620252325, 5.692525, 0.12203395, 8.226524, 3.2258034E-4, 0.16818857, 10.003357
1464874622662065, 5.6757755, 0.1363909, 8.226524, -0.016577005, 0.15537834, 9.994215
1464874625071752, 5.651847, 0.1363909, 8.238488, -0.02598548, 0.12952662, 9.990857
1464874627481492, 5.642276, 0.15074782, 8.240881, -0.041228294, 0.12123966, 9.987679
1464874629891179, 5.6350975, 0.16271193, 8.233703, -0.053362966, 0.12252855, 9.977816
1464874632300867, 5.6279187, 0.17706887, 8.200203, -0.06278062, 0.13585663, 9.946142
1464874634710606, 5.6470613, 0.18185452, 8.185846, -0.062659025, 0.15955687, 9.944902
1464874637120294, 5.6327047, 0.18424734, 8.16431, -0.06365943, 0.15753937, 9.919093
1464874639530033, 5.6279187, 0.17467605, 8.157132, -0.054469228, 0.15513611, 9.910386
1464874641939721, 5.599205, 0.16031912, 8.142776, -0.04348445, 0.13304472, 9.882409
1464874644349460, 5.611169, 0.18664017, 8.145168, -0.06667566, 0.14804745, 9.891282
1464874646759148, 5.5920267, 0.17706887, 8.1738825, -0.06502485, 0.11497307, 9.904394
1464874649168888, 5.572884, 0.16749759, 8.209774, -0.06392193, 0.074668884, 9.923497
1464874651578575, 5.5513487, 0.1698904, 8.269595, -0.0783689, 0.02277565, 9.961219
1464874653988315, 5.556134, 0.16510476, 8.30788, -0.07792044, 0.004690647, 9.995633
1464874656398002, 5.548956, 0.148355, 8.334201, -0.066333294, -0.02149868, 10.01334
1464874658807742, 5.5393844, 0.11964113, 8.334201, -0.040973306, -0.036227703, 10.007749
1464874661217429, 5.568098, 0.10289137, 8.30788, -0.014351964, -0.004538536, 10.001747
1464874663627169, 5.5537415, 0.09092726, 8.276773, -0.0016736984, -0.0024032593, 9.967813
1464874666036856, 5.5513487, 0.083748795, 8.240881, 0.009400964, 0.012564659, 9.936618
1464874668446596, 5.548956, 0.0741775, 8.212168, 0.02217269, 0.023554325, 9.911362
1464874670856283, 5.5800624, 0.08135597, 8.188239, 0.024656177, 0.062229156, 9.908909
1464874673266023, 5.584848, 0.09571291, 8.185846, 0.012264729, 0.07120371, 9.909719
1464874675675710, 5.5968122, 0.09571291, 8.190632, 0.015258431, 0.0779953, 9.920362
1464874678085450, 5.613562, 0.09810573, 8.2049885, 0.012905717, 0.08260393, 9.941658
1464874680495138, 5.5944195, 0.1052842, 8.228917, -0.0021307468, 0.056547165, 9.950905
1464874682904877, 5.599205, 0.12203395, 8.2456665, -0.021997929, 0.053533077, 9.96763
1464874685314565, 5.5872407, 0.13878371, 8.283952, -0.04668224, 0.028171062, 9.992867
1464874687724252, 5.568098, 0.16510476, 8.310273, -0.08329797, 0.004035473, 10.004232
1464874690133992, 5.5920267, 0.18185452, 8.322237, -0.09828818, 0.018698215, 10.027634
1464874692543679, 5.5968122, 0.17467605, 8.338987, -0.092856646, 0.011416435, 10.044141
1464874694953419, 5.5896335, 0.19381863, 8.334201, -0.11509025, 0.011978149, 10.036288
1464874697363106, 5.584848, 0.19621146, 8.322237, -0.116672516, 0.015309334, 10.023712
1464874699772846, 5.584848, 0.19142582, 8.286345, -0.10968137, 0.031569004, 9.99388
1464874702182533, 5.5968122, 0.19621146, 8.281559, -0.11051345, 0.045009613, 9.996639
1464874704592273, 5.5968122, 0.18664017, 8.276773, -0.10060847, 0.04474783, 9.992598
1464874707001960, 5.584848, 0.19142582, 8.255239, -0.108689785, 0.04653454, 9.968057
1464874709411700, 5.5872407, 0.19381863, 8.243274, -0.11256957, 0.055072308, 9.959452
1464874711821388, 5.5776696, 0.17467605, 8.236095, -0.095472336, 0.04577589, 9.948013
1464874714231127, 5.5704913, 0.18903299, 8.221739, -0.11173868, 0.054692745, 9.932152
1464874716640815, 5.5633125, 0.20338993, 8.188239, -0.12155795, 0.0714097, 9.900465
1464874719050554, 5.56092, 0.22731815, 8.123632, -0.13843346, 0.112298965, 9.845665
1464874721460242, 5.558527, 0.24646074, 8.082955, -0.15026534, 0.13811588, 9.810732
1464874723869981, 5.5968122, 0.2416751, 8.087741, -0.13642848, 0.1641345, 9.836092
1464874726279669, 5.6183476, 0.2009971, 8.080562, -0.095595956, 0.17233753, 9.841894
1464874728689408, 5.6183476, 0.15074782, 8.118847, -0.054440737, 0.13616419, 9.873335
1464874731099096, 5.6303115, 0.11006984, 8.082955, -0.010527492, 0.15163803, 9.850054
1464874733508835, 5.663811, 0.043070808, 7.7910304, 0.11214447, 0.31236172, 9.626557
1464874735918523, 5.663811, -0.06699903, 7.4919276, 0.27192998, 0.43197608, 9.378254
1464874738328263, 5.706882, -0.11485548, 7.3866434, 0.34829974, 0.505357, 9.314906
1464874740737950, 5.7834525, -0.14356937, 7.60439, 0.35122836, 0.44014597, 9.53827
1464874743147690, 5.864808, -0.14596218, 8.073383, 0.28978956, 0.2547493, 9.972358
1464874745557377, 5.864808, -0.11485548, 8.544769, 0.16229832, 0.014035225, 10.36319
1464874747967117, 5.8265233, -0.086141616, 8.896515, 0.05499983, -0.19308805, 10.633131
1464874750376804, 5.804988, -0.08853444, 9.035298, 0.010439396, -0.28217363, 10.736043
1464874752786544, 5.7667027, -0.069391854, 8.99462, -0.019121528, -0.2752881, 10.681138
1464874755196231, 5.733203, -0.06460621, 8.863015, -0.006988406, -0.23061752, 10.5533695
1464874757605971, 5.704489, -0.07178468, 8.733803, 0.01260376, -0.17599106, 10.430462
1464874760015658, 5.6781683, -0.069391854, 8.616554, 0.026169658, -0.13427877, 10.318562
1464874762425398, 5.611169, -0.07178468, 8.563912, 0.01610756, -0.14796448, 10.2376175
1464874764835085, 5.558527, -0.083748795, 8.544769, 0.012885332, -0.17303038, 10.192509
1464874767244825, 5.5369916, -0.09810573, 8.525627, 0.023675203, -0.18494844, 10.1646185
1464874769654513, 5.515456, -0.09092726, 8.5112705, 0.0134269, -0.19153357, 10.14068
1464874772064200, 5.5274205, -0.09571291, 8.508878, 0.019701838, -0.17413902, 10.145532
1464874774473940, 5.532206, -0.09092726, 8.508878, 0.016685247, -0.1686964, 10.148193
1464874776883679, 5.5274205, -0.0741775, 8.530413, -0.0047483444, -0.17748165, 10.16338
1464874779293367, 5.5369916, -0.08853444, 8.575876, -0.002638936, -0.1921668, 10.206607
1464874781703106, 5.5250273, -0.09092726, 8.618947, -0.013254881, -0.22447777, 10.235716
1464874784112794, 5.491528, -0.086141616, 8.681161, -0.04337895, -0.27581882, 10.268831
1464874786522481, 5.4580283, -0.083748795, 8.748159, -0.07023883, -0.33520412, 10.305828
1464874788932221, 5.4293146, -0.05742774, 8.796016, -0.12052059, -0.3667555, 10.329647
1464874791341908, 5.3910294, -0.04546363, 8.803194, -0.14592373, -0.39162397, 10.3144
1464874793751648, 5.4029937, -0.019142581, 8.776874, -0.16051233, -0.35872555, 10.299116
1464874796161335, 5.424529, 0.016749758, 8.724232, -0.17265558, -0.29872894, 10.267374
1464874798571075, 5.4293146, 0.03589234, 8.671589, -0.17735994, -0.26070738, 10.226231
1464874800980763, 5.4436717, 0.038285162, 8.650054, -0.17030251, -0.23774385, 10.216308
1464874803390502, 5.4676, 0.0526421, 8.647661, -0.17333102, -0.21062613, 10.227661
1464874805800190, 5.4628143, 0.031106694, 8.659625, -0.15758467, -0.2287364, 10.235001
1464874808209929, 5.491528, 0.040677983, 8.669196, -0.15852308, -0.20633602, 10.258938
1464874810619617, 5.503492, 0.05503492, 8.6548395, -0.16468465, -0.18422127, 10.253616
1464874813029356, 5.5513487, 0.0526421, 8.623733, -0.13772321, -0.13308334, 10.254381
1464874815439044, 5.5657053, 0.0741775, 8.592627, -0.14605367, -0.09777641, 10.236451
1464874817848783, 5.582455, 0.08853444, 8.52802, -0.13614881, -0.049972534, 10.192043
1464874820258471, 5.601598, 0.08853444, 8.472985, -0.11884785, -0.006816864, 10.156921
1464874822668210, 5.5920267, 0.09092726, 8.444271, -0.11553347, 4.2963028E-4, 10.127753
1464874825077898, 5.5896335, 0.10049855, 8.405986, -0.11723721, 0.021864891, 10.094577
1464874827487638, 5.5872407, 0.09810573, 8.389236, -0.10984194, 0.025880814, 10.079357
1464874829897325, 5.601598, 0.09810573, 8.405986, -0.10956609, 0.025628567, 10.10126
1464874832307065, 5.5920267, 0.078963146, 8.413164, -0.09331131, 0.0055503845, 10.10196
1464874834716752, 5.5776696, 0.069391854, 8.415557, -0.08651793, -0.012558937, 10.095997
1464874837126492, 5.613562, 0.059820566, 8.405986, -0.065463185, 0.016917706, 10.108001
1464874839536179, 5.613562, 0.05742774, 8.394022, -0.05856216, 0.020551205, 10.098076
1464874841945919, 5.6207404, 0.062213387, 8.389236, -0.06011355, 0.030293941, 10.098086
1464874844355606, 5.623133, 0.06460621, 8.382058, -0.060439467, 0.03653097, 10.09345
1464874846765346, 5.6327047, 0.059820566, 8.360522, -0.046920538, 0.052020073, 10.080892
1464874849175033, 5.6374903, 0.06699903, 8.346166, -0.049634457, 0.06570196, 10.071619
1464874851584773, 5.6350975, 0.062213387, 8.362915, -0.04653728, 0.052079678, 10.0842285
1464874853994460, 5.656633, 0.038285162, 8.362915, -0.017973304, 0.060859203, 10.096201
1464874856404200, 5.649454, 0.031106694, 8.365308, -0.012344599, 0.05007744, 10.094208
1464874858813888, 5.6590257, 0.050249275, 8.374879, -0.029643655, 0.058676243, 10.107492
1464874861223627, 5.6470613, 0.050249275, 8.384451, -0.032390237, 0.04341221, 10.108804
1464874863633315, 5.623133, 0.06699903, 8.386844, -0.053144217, 0.028185368, 10.097507
1464874866043054, 5.623133, 0.069391854, 8.365308, -0.052043557, 0.039753437, 10.07961
1464874868452742, 5.6039906, 0.09332009, 8.350951, -0.0772661, 0.039583206, 10.057051
1464874870862481, 5.5800624, 0.10289137, 8.346166, -0.08978963, 0.026139736, 10.039792
1464874873272169, 5.5537415, 0.09332009, 8.350951, -0.08640623, -2.4461746E-4, 10.029142
1464874875681908, 5.5130634, 0.09332009, 8.370093, -0.10005784, -0.042550564, 10.022437
1464874878091596, 5.5130634, 0.086141616, 8.384451, -0.09514046, -0.05329895, 10.034362
1464874880501335, 5.4987063, 0.076570325, 8.4012, -0.09065044, -0.07669449, 10.040302
1464874882911023, 5.4987063, 0.07178468, 8.41795, -0.08883059, -0.087013245, 10.054219
1464874885320763, 5.5250273, 0.083748795, 8.446664, -0.097340345, -0.07788849, 10.092747
1464874887730450, 5.5202417, 0.09092726, 8.463413, -0.108151436, -0.08842659, 10.104019
1464874890140190, 5.505885, 0.08853444, 8.480164, -0.11136484, -0.10995054, 10.109959
1464874892549877, 5.5130634, 0.06699903, 8.4705925, -0.08675897, -0.10647583, 10.105961
1464874894959617, 5.5274205, 0.038285162, 8.477771, -0.05626285, -0.10848045, 10.119858
1464874897369304, 5.5465627, 0.043070808, 8.465807, -0.05413556, -0.08551407, 10.120566
1464874899779044, 5.575277, 0.040677983, 8.46102, -0.043958664, -0.06089878, 10.132551
1464874902188731, 5.582455, 0.04546363, 8.449057, -0.04472184, -0.048758984, 10.126602
1464874904598419, 5.5968122, 0.023928227, 8.451449, -0.020950556, -0.047263145, 10.136529
1464874907008158, 5.572884, 0.031106694, 8.444271, -0.032485485, -0.06035614, 10.117265
1464874909417898, 5.558527, 0.05742774, 8.456235, -0.0630815, -0.070453644, 10.119264
1464874911827585, 5.584848, 0.04546363, 8.480164, -0.049082994, -0.065776825, 10.15377
1464874914237325, 5.6039906, 0.0, 8.496913, -0.0040198565, -0.07516956, 10.178241
1464874916647013, 5.611169, -0.0071784677, 8.516056, 0.0015417337, -0.08176088, 10.198127
1464874919056752, 5.5920267, -0.0047856453, 8.504091, -0.0035880804, -0.09222269, 10.177517
1464874921466440, 5.608776, 0.009571291, 8.482556, -0.009783626, -0.06325436, 10.16898
1464874923876179, 5.608776, 0.023928227, 8.453842, -0.019364715, -0.045780182, 10.1451435
1464874926285867, 5.615955, 0.023928227, 8.410771, -0.010938048, -0.01884222, 10.113363
1464874928695606, 5.6374903, 0.033499517, 8.372486, -0.008895159, 0.021477222, 10.093581
1464874931105294, 5.666204, 0.023928227, 8.350951, 0.010341167, 0.05105543, 10.091687
1464874933515033, 5.680561, 0.0071784677, 8.336594, 0.032095075, 0.065336704, 10.087732
1464874935924721, 5.663811, 0.014356935, 8.336594, 0.021211028, 0.05407715, 10.078413
1464874938334408, 5.6327047, 0.033499517, 8.331808, -0.0038377047, 0.034482956, 10.057153
1464874940744148, 5.6183476, 0.043070808, 8.348558, -0.019255519, 0.017004013, 10.063075
1464874943153835, 5.611169, 0.019142581, 8.370093, -0.0023760796, -0.010779381, 10.0769005
1464874945563575, 5.6303115, 0.0023928226, 8.370093, 0.018017411, -0.0041241646, 10.087544
1464874947973263, 5.613562, -0.011964113, 8.370093, 0.027631283, -0.021625996, 10.078168
1464874950383002, 5.6374903, -0.0023928226, 8.377272, 0.023185015, -0.0036725998, 10.097497
1464874952792690, 5.639883, 0.011964113, 8.372486, 0.01042068, 0.0016112328, 10.094892
1464874955202429, 5.65424, 0.023928227, 8.391629, -0.0011173487, 0.0031952858, 10.118815
1464874957612169, 5.6470613, 0.03589234, 8.389236, -0.013937354, 0.0022206306, 10.112847
1464874960021856, 5.639883, 0.031106694, 8.391629, -0.011461616, -0.0061388016, 10.110812
1464874962431596, 5.6374903, 0.011964113, 8.382058, 0.0076283216, -0.011198044, 10.101492
1464874964841283, 5.6470613, 0.0023928226, 8.360522, 0.022836924, 0.0032482147, 10.088959
1464874967250971, 5.639883, 0.0047856453, 8.348558, 0.02067542, 0.0048737526, 10.075032
1464874969660710, 5.6350975, 0.021535404, 8.319844, 0.008198857, 0.019997597, 10.048589
1464874972070450, 5.6446686, 0.03589234, 8.310273, -0.0019057989, 0.036752224, 10.046037
1464874974480138, 5.642276, 0.031106694, 8.312666, 0.002096057, 0.03153801, 10.046675
1464874976889877, 5.6590257, 0.021535404, 8.293523, 0.017984748, 0.052597523, 10.040144
1464874979299565, 5.642276, 0.009571291, 8.293523, 0.026413202, 0.035443306, 10.030749
1464874981709304, 5.6374903, -0.021535404, 8.276773, 0.057774425, 0.0321846, 10.014109
1464874984118992, 5.613562, -0.014356935, 8.288737, 0.04370427, 0.008286476, 10.010669
1464874986528731, 5.5968122, -0.023928227, 8.29113, 0.049140573, -0.009404659, 10.003262
1464874988938419, 5.5968122, -0.011964113, 8.300702, 0.036177993, -0.011210918, 10.011229
1464874991348106, 5.582455, -0.019142581, 8.312666, 0.038190484, -0.031270504, 10.013099
1464874993757846, 5.5704913, -0.019142581, 8.310273, 0.036491036, -0.039107323, 10.004425
1464874996167585, 5.56092, -0.009571291, 8.312666, 0.024751186, -0.045428276, 10.001082
1464874998577273, 5.5513487, -0.011964113, 8.3174515, 0.02416718, -0.056289196, 9.999693
1464875000987013, 5.508278, -0.02871387, 8.322237, 0.03028524, -0.097391605, 9.97954
1464875003396700, 5.515456, -0.023928227, 8.334201, 0.025515437, -0.09681082, 9.993485
1464875005806388, 5.501099, -0.011964113, 8.336594, 0.011073947, -0.105863094, 9.987476
1464875008216127, 5.5250273, -0.019142581, 8.32463, 0.02513802, -0.082249165, 9.990913
1464875010625815, 5.541777, -0.03589234, 8.329415, 0.04451406, -0.07526779, 10.004204
1464875013035554, 5.54417, -0.02871387, 8.331808, 0.037783265, -0.07271528, 10.007545
1464875015445294, 5.5513487, -0.023928227, 8.32463, 0.037041426, -0.060791016, 10.005621
1464875017854981, 5.56092, -0.031106694, 8.331808, 0.04500568, -0.058804512, 10.016903
1464875020264721, 5.5657053, -0.033499517, 8.327023, 0.048693657, -0.05338621, 10.015602
1464875022674408, 5.558527, 0.0023928226, 8.315059, 0.013713717, -0.044847965, 10.001762
1464875025084148, 5.5537415, 0.021535404, 8.312666, -0.0054870844, -0.042574406, 9.997154
1464875027493835, 5.548956, -0.0047856453, 8.32463, 0.016556859, -0.061601162, 10.004315
1464875029903575, 5.558527, -0.016749758, 8.338987, 0.028126836, -0.06482792, 10.021538
1464875032313263, 5.558527, -0.014356935, 8.319844, 0.028591394, -0.05623436, 10.005661
1464875034723002, 5.5537415, -0.0023928226, 8.34138, 0.012902498, -0.06858063, 10.020868
1464875037132690, 5.5633125, 0.033499517, 8.360522, -0.023121595, -0.061642647, 10.04219
1464875039542429, 5.5872407, 0.050249275, 8.360522, -0.033884764, -0.040525436, 10.055613
1464875041952117, 5.613562, 0.05503492, 8.346166, -0.03035903, -0.010503292, 10.058457
1464875044361856, 5.6183476, 0.05742774, 8.322237, -0.027701378, 0.0047483444, 10.041313
1464875046771544, 5.6327047, 0.076570325, 8.336594, -0.04493165, 0.013815403, 10.061302
1464875049181283, 5.651847, 0.09092726, 8.329415, -0.05243671, 0.03469944, 10.066124
1464875051590971, 5.6733823, 0.08853444, 8.305488, -0.04138899, 0.064017296, 10.058351
1464875054000710, 5.6709895, 0.08853444, 8.283952, -0.03770721, 0.07162237, 10.039187
1464875056410398, 5.682954, 0.09571291, 8.283952, -0.038841605, 0.08198023, 10.045932
1464875058820138, 5.6949177, 0.09332009, 8.288737, -0.034349203, 0.08814287, 10.05659
1464875061229825, 5.7140603, 0.11964113, 8.279166, -0.053052545, 0.11629772, 10.059476
1464875063639565, 5.706882, 0.12203395, 8.260024, -0.05278039, 0.1195693, 10.0396385
1464875066049252, 5.7284174, 0.14356937, 8.243274, -0.06513715, 0.15201044, 10.037909
1464875068458992, 5.73081, 0.15074782, 8.226524, -0.067999005, 0.16279888, 10.025441
1464875070868679, 5.7451673, 0.14117654, 8.224132, -0.05491352, 0.17259026, 10.03147
1464875073278419, 5.7690954, 0.124426775, 8.219346, -0.030800939, 0.18712044, 10.040898
1464875075688106, 5.74756, 0.11006984, 8.224132, -0.019956708, 0.16118622, 10.032773
1464875078097846, 5.757131, 0.11246266, 8.240881, -0.022608638, 0.16050005, 10.052017
1464875080507533, 5.7427745, 0.11964113, 8.260024, -0.035266638, 0.13873863, 10.059884
1464875082917273, 5.7523456, 0.10767702, 8.276773, -0.024251938, 0.13364172, 10.079067
1464875085326960, 5.749953, 0.0741775, 8.298309, 0.005231738, 0.10767889, 10.095432
1464875087736700, 5.761917, 0.05503492, 8.30788, 0.024894476, 0.105977535, 10.109982
1464875090146388, 5.7403817, 0.07178468, 8.30788, 0.0033580065, 0.09430075, 10.097975
1464875092556127, 5.721239, 0.06460621, 8.300702, 0.0073947906, 0.079043865, 10.081276
1464875094965815, 5.697311, 0.062213387, 8.30788, 0.0039213896, 0.05421877, 10.073784
1464875097375554, 5.697311, 0.062213387, 8.310273, 0.003489375, 0.05294752, 10.075765
1464875099785242, 5.682954, 0.05503492, 8.293523, 0.009355783, 0.04828024, 10.053809
1464875102194981, 5.6781683, 0.047856454, 8.276773, 0.018776178, 0.05005026, 10.037231
1464875104604669, 5.6709895, 0.043070808, 8.274381, 0.022265315, 0.043390274, 10.0312
1464875107014408, 5.663811, 0.038285162, 8.279166, 0.024055481, 0.033688545, 10.031107
1464875109424096, 5.6303115, 0.038285162, 8.315059, 0.008868694, -0.011710644, 10.042005
1464875111833835, 5.6279187, 0.040677983, 8.331808, 0.00391531, -0.02307558, 10.054531
1464875114243523, 5.6183476, 0.047856454, 8.331808, -0.005355954, -0.028307915, 10.049195
1464875116653263, 5.623133, 0.043070808, 8.346166, -0.0010387897, -0.035005093, 10.063733
1464875119062950, 5.625526, 0.043070808, 8.372486, -0.003685236, -0.048277378, 10.086852
1464875121472690, 5.613562, 0.038285162, 8.379665, -0.0035341978, -0.063005924, 10.086048
1464875123882377, 5.613562, 0.069391854, 8.360522, -0.02806449, -0.043695927, 10.070379
1464875126292117, 5.6207404, 0.10289137, 8.370093, -0.0593071, -0.03321266, 10.082517
1464875128701804, 5.649454, 0.10049855, 8.3581295, -0.045585513, -0.0054159164, 10.088739
1464875131111544, 5.6614184, 0.078963146, 8.346166, -0.020026207, 0.0038490295, 10.085433
1464875133521231, 5.6709895, 0.050249275, 8.343773, 0.010163188, 0.0039081573, 10.088661
1464875135930971, 5.6853466, 0.05503492, 8.353344, 0.010349274, 0.010974884, 10.104668
1464875138340658, 5.6781683, 0.07178468, 8.336594, -0.0020971298, 0.018565178, 10.086882
1464875140750398, 5.666204, 0.06460621, 8.343773, 6.15716E-4, 0.0031323433, 10.086059
1464875143160085, 5.6733823, 0.09571291, 8.327023, -0.024590015, 0.027040958, 10.076427
1464875145569825, 5.6685967, 0.09810573, 8.331808, -0.026052356, 0.020376205, 10.077725
1464875147979565, 5.697311, 0.11964113, 8.334201, -0.03678012, 0.046865463, 10.09599
1464875150389252, 5.6949177, 0.11006984, 8.319844, -0.025930166, 0.049883366, 10.082701
1464875152798940, 5.709275, 0.11246266, 8.312666, -0.023513794, 0.06578827, 10.08484
1464875155208679, 5.697311, 0.078963146, 8.298309, 0.011358857, 0.052513123, 10.066013
1464875157618419, 5.6949177, 0.06460621, 8.3174515, 0.02486825, 0.034030437, 10.080401
1464875160028106, 5.692525, 0.05503492, 8.343773, 0.029213548, 0.015140533, 10.1007595
1464875162437794, 5.6781683, 0.06460621, 8.338987, 0.017266393, 0.009214401, 10.088811
1464875164847533, 5.666204, 0.069391854, 8.327023, 0.018226743, 0.004283905, 10.072221
1464875167257273, 5.666204, 0.07178468, 8.312666, 0.018242717, 0.01272583, 10.060364
1464875169666960, 5.639883, 0.078963146, 8.3174515, 0.0040308237, -0.008471489, 10.049598
1464875172076700, 5.6327047, 0.076570325, 8.300702, 0.007202029, -0.0058226585, 10.031689
1464875174486388, 5.6183476, 0.10049855, 8.298309, -0.015550137, -0.010213852, 10.0218525
1464875176896127, 5.601598, 0.09332009, 8.276773, -0.009438038, -0.01393652, 9.994564
1464875179305815, 5.611169, 0.10289137, 8.283952, -0.014072537, -0.0089221, 10.005966
1464875181715554, 5.6183476, 0.11724831, 8.276773, -0.024883151, 0.004831314, 10.004194
1464875184125242, 5.613562, 0.10289137, 8.30788, -0.014016628, -0.021630287, 10.027108
1464875186534981, 5.611169, 0.11964113, 8.32463, -0.030474067, -0.029339314, 10.039782
1464875188944669, 5.6063833, 0.13160525, 8.336594, -0.045039177, -0.035926342, 10.047106
1464875191354408, 5.611169, 0.12921242, 8.338987, -0.03907025, -0.036192894, 10.051756
1464875193764096, 5.639883, 0.16031912, 8.343773, -0.062232614, -0.006275177, 10.07217
1464875196173835, 5.649454, 0.16031912, 8.336594, -0.05853808, 0.0050911903, 10.071612
1464875198583523, 5.651847, 0.17228323, 8.327023, -0.06495392, 0.013884068, 10.065186
1464875200993263, 5.6590257, 0.19142582, 8.319844, -0.08009744, 0.029288769, 10.063486
1464875203402950, 5.666204, 0.19381863, 8.3174515, -0.077454686, 0.034832954, 10.065597
1464875205812690, 5.6614184, 0.2009971, 8.30788, -0.08136046, 0.03652668, 10.055099
1464875208222377, 5.6781683, 0.18903299, 8.286345, -0.062031865, 0.05753374, 10.0465765
1464875210632117, 5.6877394, 0.18424734, 8.303095, -0.055531263, 0.052485466, 10.065778
1464875213041804, 5.706882, 0.1794617, 8.293523, -0.044389725, 0.07116699, 10.068575
1464875215451544, 5.7116675, 0.18664017, 8.303095, -0.049745917, 0.06997919, 10.079288
1464875217861231, 5.6997037, 0.17706887, 8.283952, -0.04141748, 0.06745815, 10.056619
1464875220270971, 5.7140603, 0.15074782, 8.295917, -0.014561176, 0.06446791, 10.074278
1464875222680658, 5.6949177, 0.15314065, 8.288737, -0.019102216, 0.052193165, 10.057614
1464875225090398, 5.7020965, 0.14356937, 8.298309, -0.008183122, 0.04847431, 10.069461
1464875227500085, 5.7020965, 0.12203395, 8.312666, 0.009998083, 0.034171104, 10.081068
1464875229909825, 5.716453, 0.11485548, 8.327023, 0.018998265, 0.034613132, 10.10093
1464875232319513, 5.7188463, 0.09810573, 8.327023, 0.035568714, 0.03138876, 10.102074
1464875234729252, 5.716453, 0.1052842, 8.327023, 0.02850616, 0.031454563, 10.100813
1464875237138940, 5.7140603, 0.09571291, 8.34138, 0.0345937, 0.019076824, 10.1112175
1464875239548679, 5.7188463, 0.09092726, 8.34138, 0.04037738, 0.021403313, 10.1138525
1464875241958419, 5.733203, 0.083748795, 8.329415, 0.052904367, 0.037175655, 10.111953
1464875244368106, 5.723632, 0.06699903, 8.334201, 0.06567919, 0.02203703, 10.110318
1464875246777846, 5.706882, 0.059820566, 8.336594, 0.0677197, 0.007144451, 10.102783
1464875249187533, 5.6997037, 0.05742774, 8.336594, 0.06795156, 0.0014486313, 10.098718
1464875251597273, 5.6733823, 0.02871387, 8.362915, 0.08512342, -0.041814804, 10.105318
1464875254006960, 5.656633, 0.02871387, 8.391629, 0.07630932, -0.069767475, 10.119638
1464875256416700, 5.6303115, 0.023928227, 8.396415, 0.073826194, -0.09453535, 10.108728
1464875258826388, 5.615955, 0.014356935, 8.403593, 0.07768631, -0.11147928, 10.106485
1464875261236127, 5.6039906, 0.031106694, 8.41795, 0.056579947, -0.123963356, 10.111823
1464875263645815, 5.5920267, 0.019142581, 8.427522, 0.06372106, -0.14201355, 10.112864
1464875266055554, 5.5920267, 0.021535404, 8.425129, 0.060910106, -0.13887215, 10.110937
1464875268465242, 5.5776696, 0.02632105, 8.405986, 0.056662798, -0.13811159, 10.087091
1464875270874981, 5.582455, 0.038285162, 8.394022, 0.04731083, -0.123366356, 10.08005
1464875273284669, 5.582455, 0.040677983, 8.394022, 0.045012712, -0.12270069, 10.080078
1464875275694408, 5.5776696, 0.05742774, 8.374879, 0.030367374, -0.11052084, 10.061769
1464875278104096, 5.6039906, 0.0741775, 8.372486, 0.020109892, -0.0835495, 10.074787
1464875280513835, 5.5920267, 0.08135597, 8.382058, 0.009034395, -0.096277714, 10.076057
1464875282923575, 5.6207404, 0.069391854, 8.389236, 0.02618444, -0.08067417, 10.0980015
1464875285333263, 5.6470613, 0.069391854, 8.389236, 0.0317744, -0.060441017, 10.112802
1464875287742950, 5.666204, 0.06699903, 8.405986, 0.036118865, -0.055024147, 10.137387
1464875290152690, 5.6709895, 0.09810573, 8.41795, 0.0053645372, -0.050412655, 10.150324
1464875292562429, 5.663811, 0.10767702, 8.413164, -0.0048183203, -0.05085516, 10.14244
1464875294972117, 5.6877394, 0.09332009, 8.439486, 0.011026382, -0.054472446, 10.17747
1464875297381856, 5.709275, 0.06699903, 8.456235, 0.038921833, -0.053649426, 10.203128
1464875299791544, 5.716453, 0.047856454, 8.484949, 0.054874778, -0.06878424, 10.230677
1464875302201283, 5.723632, 0.043070808, 8.499306, 0.059075117, -0.072200775, 10.246527
1464875304610971, 5.7116675, 0.050249275, 8.504091, 0.05034852, -0.08638811, 10.24379
1464875307020710, 5.7020965, 0.047856454, 8.506484, 0.050190926, -0.095936775, 10.240349
1464875309430398, 5.709275, 0.043070808, 8.484949, 0.059387565, -0.07972002, 10.2265415
1464875311840138, 5.6949177, 0.050249275, 8.465807, 0.051903605, -0.07880783, 10.202724
1464875314249825, 5.690132, 0.062213387, 8.437093, 0.045022845, -0.06469107, 10.176434
1464875316659565, 5.692525, 0.078963146, 8.410771, 0.032758713, -0.044178486, 10.156237
1464875319069252, 5.690132, 0.069391854, 8.389236, 0.04559779, -0.03781128, 10.136971
1464875321478992, 5.6949177, 0.06699903, 8.365308, 0.053781033, -0.022549152, 10.119859
1464875323888679, 5.709275, 0.059820566, 8.348558, 0.065962195, -0.0036878586, 10.114023
1464875326298419, 5.692525, 0.078963146, 8.336594, 0.04721105, -0.0069622993, 10.094929
1464875328708158, 5.709275, 0.10289137, 8.336594, 0.027695179, 0.012102127, 10.104668
1464875331117846, 5.709275, 0.124426775, 8.334201, 0.008965611, 0.017486572, 10.102961
1464875333527585, 5.6997037, 0.12921242, 8.336594, 0.0019233227, 0.009780407, 10.099605
1464875335937273, 5.680561, 0.14356937, 8.322237, -0.012148857, 0.004151821, 10.077146
1464875338347013, 5.697311, 0.15792629, 8.312666, -0.021563768, 0.026212692, 10.078867
1464875340756700, 5.709275, 0.18185452, 8.288737, -0.039491832, 0.05459118, 10.066157
1464875343166440, 5.721239, 0.18424734, 8.262417, -0.033911884, 0.07773018, 10.051212
1464875345576127, 5.706882, 0.18424734, 8.250452, -0.03281176, 0.07103443, 10.033258
1464875347985867, 5.692525, 0.18424734, 8.257631, -0.036584616, 0.055583477, 10.031094
1464875350395554, 5.6781683, 0.21774685, 8.257631, -0.069719076, 0.049728394, 10.02348
1464875352805294, 5.680561, 0.23928227, 8.276773, -0.09249127, 0.046156883, 10.040933
1464875355214981, 5.6853466, 0.23928227, 8.303095, -0.0952363, 0.03408289, 10.065365
1464875357624721, 5.6949177, 0.22253251, 8.331808, -0.07802814, 0.020038605, 10.094264
1464875360034408, 5.7020965, 0.2105684, 8.343773, -0.06634736, 0.01656437, 10.108023
1464875362444148, 5.716453, 0.2009971, 8.322237, -0.049477935, 0.03594017, 10.098224
1464875364853835, 5.723632, 0.21296121, 8.319844, -0.05784017, 0.043539047, 10.10049
1464875367263575, 5.7355957, 0.20578274, 8.298309, -0.04632932, 0.06358957, 10.089359
1464875369673263, 5.7260246, 0.22253251, 8.286345, -0.06316018, 0.066049576, 10.074326
1464875372083002, 5.723632, 0.21535404, 8.269595, -0.05315113, 0.07008076, 10.059067
1464875374492742, 5.709275, 0.2009971, 8.26481, -0.04101187, 0.058294773, 10.046802
1464875376902429, 5.704489, 0.19621146, 8.274381, -0.036845744, 0.046119213, 10.051945
1464875379312169, 5.6997037, 0.2105684, 8.29113, -0.052378535, 0.03392315, 10.063295
1464875381721856, 5.6757755, 0.20578274, 8.30788, -0.053937554, 0.0043668747, 10.063535
1464875384131596, 5.682954, 0.22253251, 8.312666, -0.06945002, 0.011329651, 10.071791
1464875386541283, 5.6781683, 0.22971097, 8.310273, -0.07613206, 0.008381844, 10.067232
1464875388951023, 5.690132, 0.23449662, 8.3174515, -0.07847381, 0.01341486, 10.079992
1464875391360710, 5.697311, 0.2321038, 8.3174515, -0.07479304, 0.018664837, 10.08401
1464875393770450, 5.704489, 0.22492532, 8.298309, -0.06433344, 0.033487797, 10.072163
1464875396180138, 5.7116675, 0.2416751, 8.286345, -0.07610905, 0.04951477, 10.066619
1464875398589877, 5.704489, 0.21774685, 8.267202, -0.051362276, 0.046612263, 10.046415
1464875400999565, 5.706882, 0.18903299, 8.271988, -0.023568392, 0.039057255, 10.051267
1464875403409304, 5.6997037, 0.20338993, 8.269595, -0.038689733, 0.038054466, 10.04546
1464875405819044, 5.6685967, 0.21296121, 8.269595, -0.053893983, 0.013085842, 10.028035
1464875408228731, 5.663811, 0.18664017, 8.283952, -0.031084538, -0.0049552917, 10.0367565
1464875410638471, 5.690132, 0.16031912, 8.283952, 9.8109245E-5, 0.0072436333, 10.051226
1464875413048158, 5.721239, 0.15792629, 8.295917, 0.0073565245, 0.024906158, 10.078645
1464875415457898, 5.7020965, 0.15314065, 8.312666, 0.0062861443, -0.0032982826, 10.081554
1464875417867585, 5.680561, 0.16031912, 8.30788, -0.0048850775, -0.015826702, 10.065539
1464875420277325, 5.6949177, 0.1698904, 8.298309, -0.009342074, 0.0012793541, 10.065924
1464875422687013, 5.6997037, 0.13160525, 8.300702, 0.028809786, -0.0077548027, 10.069992
1464875425096752, 5.697311, 0.1268196, 8.298309, 0.033833742, -0.010547638, 10.066586
1464875427506440, 5.680561, 0.11246266, 8.281559, 0.046132803, -0.018476486, 10.043067
1464875429916179, 5.6757755, 0.11724831, 8.269595, 0.042090535, -0.014410973, 10.030574
1464875432325867, 5.6733823, 0.13399807, 8.269595, 0.025409102, -0.011796474, 10.0294895
1464875434735606, 5.6327047, -0.009571291, 8.279166, 0.15360403, -0.08816576, 10.012027
1464875437145346, 5.690132, 0.0526421, 8.293523, 0.10568738, -0.0343194, 10.0573635
1464875439555033, 5.7355957, 0.5910272, 8.346166, -0.4089139, 0.12000513, 10.135247
1464875441964773, 5.5800624, -0.6197411, 8.207381, 0.73872006, -0.25741196, 9.913139
1464875444374460, 5.790631, 0.4546363, 8.362915, -0.267272, 0.11763191, 10.177977
1464875446784200, 5.6733823, 0.38524446, 8.322237, -0.22236753, 0.031045437, 10.076948
1464875449193888, 5.584848, -0.8255238, 8.166703, 0.940089, -0.29684353, 9.879026
1464875451603627, 5.8360944, 0.8063812, 8.4705925, -0.60862976, 0.19752502, 10.298142
1464875454013315, 5.568098, -0.0741775, 8.319844, 0.19010592, -0.18920517, 10.007851
1464875456423054, 5.6063833, -0.6364908, 8.281559, 0.73955977, -0.3184657, 9.988619
1464875458832742, 5.788238, 1.026521, 8.544769, -0.83143055, 0.20992613, 10.336111
1464875461242481, 5.436493, -0.5407779, 8.260024, 0.6063496, -0.4086132, 9.876299
1464875463652221, 5.65424, -0.148355, 8.384451, 0.26848853, -0.1815176, 10.10873
1464875466061908, 5.723632, 0.9523434, 8.489735, -0.7725309, 0.16053057, 10.252802
1464875468471648, 5.4723854, -0.8422736, 8.169097, 0.9171809, -0.42373848, 9.8168125
1464875470881335, 5.788238, 0.4426722, 8.403593, -0.25715458, 0.09795904, 10.2100115
1464875473291075, 5.65424, 0.6891329, 8.458628, -0.5328779, 0.03771019, 10.183729
1464875475700763, 5.5130634, -0.83748794, 8.133204, 0.9270538, -0.37974358, 9.810231
1464875478110502, 5.8360944, 0.9523434, 8.451449, -0.7353769, 0.26836586, 10.284996
1464875480520190, 5.5920267, 0.25124636, 8.34138, -0.12174523, -0.086716175, 10.04441
1464875482929929, 5.615955, -0.59581286, 8.195417, 0.712024, -0.25906658, 9.923946
1464875485339617, 5.912665, 1.2035898, 8.477771, -0.9556595, 0.39166355, 10.354426
1464875487749356, 5.5800624, -0.24885355, 8.271988, 0.36250424, -0.22384691, 9.972126
1464875490159096, 5.7547383, -0.16510476, 8.353344, 0.31740642, -0.10521221, 10.139566
1464875492568783, 5.8743796, 1.1892328, 8.453842, -0.9489653, 0.36588144, 10.312887
1464875494978523, 5.572884, -0.6843473, 8.17149, 0.7828921, -0.32365274, 9.878307
1464875497388210, 5.864808, 0.36610186, 8.422736, -0.17311454, 0.10756922, 10.267958
1464875499797950, 5.814559, 0.9164511, 8.46102, -0.7157069, 0.2229991, 10.279879
1464875502207638, 5.6207404, -0.849452, 8.118847, 0.95897734, -0.31716537, 9.8595
1464875504617377, 5.9318075, 0.83988076, 8.482556, -0.61259526, 0.27139282, 10.363232
1464875507027065, 5.6853466, 0.4354937, 8.403593, -0.28481627, -0.008281231, 10.151453
1464875509436804, 5.6614184, -0.69152576, 8.147561, 0.80887187, -0.27333832, 9.908766
1464875511846492, 5.95095, 1.1676974, 8.492127, -0.9160719, 0.40116835, 10.3871765
1464875514256231, 5.611169, -0.12921242, 8.295917, 0.23005736, -0.20541, 10.011445
1464875516665971, 5.7284174, -0.35413775, 8.281559, 0.47829354, -0.1885171, 10.062808
1464875519075658, 5.9174504, 1.1916257, 8.449057, -0.9393792, 0.41393328, 10.332907
1464875521485398, 5.582455, -0.60059845, 8.190632, 0.6822802, -0.3441105, 9.900861
1464875523895085, 5.855237, 0.1363909, 8.382058, 0.039996505, 0.02506876, 10.225414
1464875526304825, 5.855237, 0.96430755, 8.456235, -0.74714214, 0.27685356, 10.299843
1464875528714513, 5.6183476, -0.8853444, 8.145168, 0.9603586, -0.40391874, 9.879676
1464875531124252, 5.9413786, 0.65084773, 8.4682, -0.43684387, 0.2221427, 10.353445
1464875533533940, 5.7355957, 0.5383851, 8.4347, -0.38803995, 0.042617798, 10.206797
1464875535943679, 5.6374903, -0.85902333, 8.128419, 0.9411733, -0.3748393, 9.877455
1464875538353419, 5.95095, 1.0073783, 8.496913, -0.78303325, 0.3092804, 10.388327
1464875540763106, 5.6327047, -0.069391854, 8.32463, 0.17489028, -0.19761705, 10.047984
1464875543172846, 5.6877394, -0.57188463, 8.226524, 0.68039286, -0.27030945, 9.990853
1464875545582533, 5.912665, 1.134198, 8.451449, -0.89726985, 0.36779022, 10.331149
1464875547992273, 5.5776696, -0.6029913, 8.185846, 0.6767956, -0.36152697, 9.894106
1464875550401960, 5.814559, -0.10049855, 8.303095, 0.2510717, -0.06564283, 10.133768
1464875552811700, 5.8480587, 0.99302137, 8.370093, -0.7719346, 0.31140518, 10.225043
1464875555221388, 5.5657053, -0.9212367, 8.059027, 0.9952675, -0.40866494, 9.778348
1464875557631127, 5.8911295, 0.41874397, 8.315059, -0.20942247, 0.16589451, 10.195566
1464875560040867, 5.7451673, 0.63170516, 8.322237, -0.45325732, 0.123842716, 10.121504
1464875562450554, 5.5872407, -0.9762716, 7.9633136, 1.0753422, -0.35992217, 9.710758
1464875564860294, 5.9342003, 0.8662018, 8.334201, -0.62474364, 0.34503412, 10.242783
1464875567269981, 5.6303115, 0.03589234, 8.250452, 0.081635356, -0.12887621, 9.9874115
1464875569679721, 5.639883, -0.7465607, 8.097312, 0.847177, -0.30822802, 9.854918
1464875572089408, 5.879165, 1.0719845, 8.394022, -0.84498024, 0.341331, 10.263666
1464875574499148, 5.5226345, -0.51445687, 8.169097, 0.5915804, -0.349195, 9.850198
1464875576908835, 5.721239, -0.29192436, 8.240881, 0.42487788, -0.1611185, 10.026137
1464875579318575, 5.831309, 1.0360922, 8.315059, -0.8069925, 0.3257656, 10.171554
1464875581728263, 5.515456, -0.89730847, 8.025527, 0.9793087, -0.40123558, 9.721855
1464875584138002, 5.8265233, 0.22731815, 8.250452, -0.036057234, 0.0942893, 10.102466
1464875586547742, 5.716453, 0.7322037, 8.274381, -0.5479407, 0.16228533, 10.0674095
1464875588957429, 5.505885, -1.0145568, 7.91785, 1.1076534, -0.37748742, 9.626373
1464875591367169, 5.8480587, 0.72023964, 8.260024, -0.49521422, 0.27082634, 10.130547
1464875593776856, 5.582455, 0.23928227, 8.207381, -0.099087, -0.062412262, 9.9281645
1464875596186596, 5.5369916, -0.8350951, 7.9513497, 0.94728696, -0.31138372, 9.67395
1464875598596283, 5.8480587, 1.0887343, 8.260024, -0.83625114, 0.396173, 10.136906
1464875601006023, 5.4867425, -0.31345975, 8.049456, 0.42229462, -0.22666931, 9.734814
1464875603415710, 5.6279187, -0.3804588, 8.063812, 0.5224706, -0.14735126, 9.825913
1464875605825450, 5.7810597, 1.160519, 8.219346, -0.91533375, 0.38616085, 10.066685
1464875608235190, 5.460421, -0.7369894, 7.984849, 0.83343494, -0.34476256, 9.659384
1464875610644877, 5.7810597, 0.15314065, 8.216953, 0.04331553, 0.06274462, 10.047718
1464875613054617, 5.7355957, 0.9834501, 8.269595, -0.7644478, 0.26463842, 10.079487
1464875615464304, 5.5202417, -0.86141616, 7.960921, 0.9728483, -0.3278339, 9.671477
1464875617874044, 5.9150577, 0.6963114, 8.331808, -0.45550692, 0.28076315, 10.227682
1464875620283731, 5.706882, 0.49052864, 8.319844, -0.31610894, 0.059389114, 10.095816
1464875622693471, 5.615955, -0.8135597, 8.02792, 0.94309556, -0.2743926, 9.7818
1464875625103210, 5.9676995, 1.1102697, 8.394022, -0.8442085, 0.40463305, 10.31646
1464875627512898, 5.6781683, -0.038285162, 8.209774, 0.20305204, -0.07168865, 9.979834
1464875629922638, 5.7523456, -0.4354937, 8.135597, 0.61241674, -0.09481144, 9.954047
1464875632332325, 5.977271, 1.2705889, 8.315059, -0.9802853, 0.50418425, 10.259982
1464875634742065, 5.6327047, -0.5455636, 8.042277, 0.6999079, -0.16837168, 9.807395
1464875637151752, 5.864808, 0.10049855, 8.228917, 0.115707636, 0.1085515, 10.104255
1464875639561492, 5.8600225, 1.1294123, 8.281559, -0.8704469, 0.39126396, 10.163113
1464875641971231, 5.582455, -0.79920274, 8.006385, 0.9372262, -0.26406574, 9.744567
1464875644380919, 5.922236, 0.6412765, 8.329415, -0.3959726, 0.2662754, 10.229153
1464875646790658, 5.7523456, 0.70588267, 8.315059, -0.4942379, 0.1615758, 10.122133
1464875649200346, 5.6063833, -0.7728817, 7.9944205, 0.9245819, -0.23002863, 9.748429
1464875651610085, 5.9437714, 1.0719845, 8.396415, -0.8059145, 0.38250208, 10.304443
1464875654019773, 5.6350975, 0.16510476, 8.250452, -0.0017445087, -0.058065414, 9.992406
1464875656429513, 5.649454, -0.526421, 8.109276, 0.68077457, -0.18583965, 9.871971
1464875658839200, 5.8887367, 1.3064811, 8.391629, -1.0338888, 0.42804813, 10.273821
1464875661248940, 5.532206, -0.38763726, 8.16431, 0.51465297, -0.26016712, 9.852866
1464875663658679, 5.7427745, -0.059820566, 8.295917, 0.24269116, -0.061938763, 10.086751
1464875666068367, 5.8217373, 1.2251252, 8.372486, -0.96808624, 0.3620491, 10.218797
1464875668478106, 5.501099, -0.7609176, 8.097312, 0.8768761, -0.3593483, 9.772896
1464875670887794, 5.812166, 0.46660042, 8.382058, -0.2549628, 0.11475325, 10.206846
1464875673297533, 5.6781683, 0.8350951, 8.405986, -0.6426554, 0.11503887, 10.157429
1464875675707221, 5.5130634, -0.8422736, 8.059027, 0.9712781, -0.32411814, 9.746937
1464875678116960, 5.8504515, 0.94755775, 8.487342, -0.71600276, 0.22406149, 10.324619
1464875680526700, 5.5896335, 0.28235307, 8.372486, -0.12633014, -0.108962536, 10.069479
1464875682936388, 5.5513487, -0.65324056, 8.13799, 0.7955327, -0.2755804, 9.836781
1464875685346127, 5.8624153, 1.2610176, 8.451449, -1.0011746, 0.3641138, 10.307772
1464875687755815, 5.5226345, -0.2440679, 8.233703, 0.37660062, -0.23516512, 9.90736
1464875690165554, 5.666204, -0.23688944, 8.305488, 0.3959006, -0.15976477, 10.047928
1464875692575294, 5.8073807, 1.2873386, 8.444271, -1.0360628, 0.34002352, 10.271299
1464875694984981, 5.4819565, -0.6652047, 8.17149, 0.7865889, -0.34816313, 9.824849
1464875697394721, 5.76431, 0.29192436, 8.389236, -0.084638834, 0.037395954, 10.182495
1464875699804408, 5.723632, 0.9667004, 8.405986, -0.74289787, 0.19210911, 10.186573
1464875702214148, 5.4987063, -0.8757731, 8.037491, 1.0184246, -0.31830406, 9.7193365
1464875704623835, 5.871987, 0.7968099, 8.415557, -0.5456926, 0.26063156, 10.274776
1464875707033575, 5.6733823, 0.43070808, 8.382058, -0.24016035, 0.016367435, 10.127869
1464875709443315, 5.5920267, -0.7513463, 8.085348, 0.9145491, -0.22782183, 9.814268
1464875711853002, 5.936593, 1.1533405, 8.444271, -0.8651327, 0.41270828, 10.342159
1464875714262742, 5.625526, -0.17706887, 8.240881, 0.35836196, -0.11119604, 9.972424
1464875716672429, 5.7379885, -0.44027936, 8.19781, 0.64848554, -0.069134235, 9.994856
1464875719082169, 5.9246287, 1.2323036, 8.372486, -0.930362, 0.4694624, 10.2777605
1464875721491856, 5.5800624, -0.65084773, 8.111669, 0.8216016, -0.20036983, 9.830803
1464875723901596, 5.8624153, 0.0526421, 8.305488, 0.19100356, 0.12168884, 10.163687
1464875726311335, 5.838487, 1.038485, 8.384451, -0.761569, 0.36050272, 10.235012
1464875728721023, 5.556134, -0.8709874, 8.066205, 1.035276, -0.26152992, 9.775107
1464875731130763, 5.9030933, 0.63170516, 8.427522, -0.36345375, 0.2659998, 10.298827
1464875733540450, 5.690132, 0.6364908, 8.441878, -0.41734707, 0.09731722, 10.191389
1464875735950190, 5.558527, -0.7704889, 8.109276, 0.9409417, -0.24778128, 9.813484
1464875738359877, 5.8935223, 1.1365907, 8.530413, -0.8496485, 0.37605286, 10.38894
1464875740769617, 5.575277, 0.06699903, 8.384451, 0.10574627, -0.12464523, 10.067795
1464875743179356, 5.6327047, -0.4833502, 8.26481, 0.6660396, -0.17555761, 9.9896755
1464875745589044, 5.8480587, 1.3328022, 8.5112705, -1.0383078, 0.4135089, 10.352236
1464875747998783, 5.4843497, -0.3900301, 8.274381, 0.549291, -0.25423002, 9.916109
1464875750408471, 5.6733823, 0.059820566, 8.413164, 0.1474284, -0.047202587, 10.146339
1464875752818210, 5.7284174, 1.2514462, 8.472985, -0.9778451, 0.32114553, 10.252465
1464875755227898, 5.4484572, -0.74895346, 8.147561, 0.9003142, -0.33698368, 9.782907
1464875757637638, 5.7834525, 0.55513483, 8.449057, -0.28476536, 0.19492769, 10.24812
1464875760047377, 5.625526, 0.8709874, 8.451449, -0.628333, 0.1750207, 10.16891
1464875762457065, 5.4388857, -0.76570326, 8.080562, 0.9315525, -0.30464673, 9.721249
1464875764866804, 5.797809, 1.0743774, 8.5112705, -0.7647482, 0.3564067, 10.319822
1464875767276492, 5.491528, 0.32063824, 8.427522, -0.123823166, -0.08661175, 10.062801
1464875769686231, 5.465207, -0.5096712, 8.260024, 0.68448377, -0.27357578, 9.890039
1464875772095971, 5.7260246, 1.3686945, 8.585447, -1.0775027, 0.34361792, 10.348502
1464875774505658, 5.3742795, -0.25603202, 8.394022, 0.40546227, -0.31947708, 9.956986
1464875776915398, 5.541777, -0.076570325, 8.518449, 0.2534964, -0.20772982, 10.157447
1464875779325085, 5.6374903, 1.3280165, 8.623733, -1.0492631, 0.2938285, 10.330847
1464875781734825, 5.3240304, -0.62931234, 8.334201, 0.7497542, -0.4577844, 9.87059
1464875784144513, 5.6350975, 0.39960137, 8.618947, -0.1752932, -0.019316673, 10.303843
1464875786554252, 5.5465627, 0.9906286, 8.626125, -0.7504626, 0.110794544, 10.275226
1464875788963992, 5.3096733, -0.7704889, 8.233703, 0.9082006, -0.4405675, 9.775543
1464875791373679, 5.6709895, 0.9092726, 8.618947, -0.6356201, 0.19437313, 10.335927
1464875793783419, 5.4221363, 0.42592242, 8.551949, -0.24031425, -0.12486076, 10.131312
1464875796193106, 5.359923, -0.715454, 8.269595, 0.86062634, -0.40881658, 9.834585
1464875798602846, 5.663811, 1.1844472, 8.62134, -0.8905157, 0.30058718, 10.340494
1464875801012533, 5.345566, -0.23688944, 8.425129, 0.3886137, -0.3312888, 9.9676075
1464875803422273, 5.4628143, -0.33499518, 8.437093, 0.513813, -0.27995777, 10.039756
1464875805832013, 5.625526, 1.2801601, 8.592627, -0.98221743, 0.3092518, 10.298455
1464875808241700, 5.3096733, -0.6364908, 8.360522, 0.77335393, -0.44807196, 9.884191
1464875810651440, 5.5944195, 0.21296121, 8.575876, 0.015410423, -0.05419731, 10.241356
1464875813061127, 5.56092, 1.0671989, 8.63809, -0.8083736, 0.17000818, 10.295484
1464875815470867, 5.316852, -0.8111669, 8.281559, 0.9483756, -0.4608426, 9.818316
1464875817880606, 5.666204, 0.72741807, 8.63809, -0.45112902, 0.14331245, 10.345413
1464875820290294, 5.4891353, 0.59581286, 8.611769, -0.37477624, -0.025565147, 10.22287
1464875822700033, 5.369494, -0.7298109, 8.250452, 0.8981254, -0.3745594, 9.822786
1464875825109721, 5.723632, 1.174876, 8.6141615, -0.85376346, 0.36204958, 10.367454
1464875827519460, 5.4221363, 0.016749758, 8.429914, 0.17600262, -0.17184591, 10.02012
1464875829929200, 5.4556355, -0.41874397, 8.331808, 0.6117618, -0.24282742, 9.946111
1464875832338888, 5.6733823, 1.3495519, 8.525627, -1.0143552, 0.4294052, 10.270422
1464875834748627, 5.343173, -0.4881358, 8.281559, 0.65621877, -0.3256111, 9.840496
1464875837158315, 5.5896335, 0.11724831, 8.465807, 0.132249, -0.018677235, 10.144447
1464875839568054, 5.5920267, 1.2490535, 8.556734, -0.9528738, 0.2987151, 10.249458
1464875841977794, 5.304888, -0.72023964, 8.236095, 0.88111675, -0.39079738, 9.7757225
1464875844387481, 5.6470613, 0.6436693, 8.585447, -0.37168562, 0.14138412, 10.288604
1464875846797221, 5.4843497, 0.8039884, 8.62134, -0.57582337, 0.047991276, 10.233186
1464875849206908, 5.3312087, -0.74177504, 8.2456665, 0.89874053, -0.38329387, 9.798386
1464875851616648, 5.6781683, 1.0887343, 8.659625, -0.79498446, 0.27825117, 10.37818
1464875854026388, 5.4029937, 0.18903299, 8.518449, 0.0020403862, -0.15914679, 10.087948
1464875856436075, 5.395815, -0.55513483, 8.343773, 0.7309302, -0.3168478, 9.920024
1464875858845815, 5.680561, 1.2897314, 8.60459, -0.9730083, 0.3781953, 10.3383465
1464875861255502, 5.326423, -0.41635114, 8.367701, 0.5697577, -0.33123016, 9.90597
1464875863665242, 5.508278, -0.15553348, 8.484949, 0.35682046, -0.16387987, 10.109674
1464875866074981, 5.5944195, 1.1988041, 8.583055, -0.90899444, 0.30833197, 10.270451
1464875868484669, 5.2905307, -0.78723866, 8.303095, 0.917079, -0.45383954, 9.823637
1464875870894408, 5.6183476, 0.39720857, 8.592627, -0.1491952, 0.05158472, 10.272873
1464875873304096, 5.505885, 0.82313097, 8.623733, -0.5860176, 0.09225273, 10.247398
1464875875713835, 5.3144593, -0.8877372, 8.250452, 1.0353678, -0.41150427, 9.790821
1464875878123575, 5.6853466, 0.86859465, 8.669196, -0.5934617, 0.21481085, 10.384326
1464875880533263, 5.4125648, 0.24646074, 8.575876, -0.06393385, -0.14772606, 10.142797
1464875882943002, 5.3623157, -0.72263247, 8.315059, 0.87866783, -0.35250807, 9.875247
1464875885352690, 5.6590257, 1.1916257, 8.647661, -0.9030688, 0.32237816, 10.358913
1464875887762429, 5.343173, -0.32303107, 8.449057, 0.4734329, -0.31448936, 9.985858
1464875890172117, 5.474778, -0.3493521, 8.5016985, 0.5279056, -0.24354076, 10.101292
1464875892581856, 5.6063833, 1.2083755, 8.669196, -0.9337518, 0.2801199, 10.348734
1464875894991596, 5.300102, -0.7800602, 8.391629, 0.9028889, -0.46396327, 9.903965
1464875897401283, 5.5896335, 0.12203395, 8.635697, 0.09361529, -0.06950235, 10.286911
1464875899811023, 5.5393844, 0.89730847, 8.688339, -0.6684604, 0.11221361, 10.320743
1464875902220763, 5.2929235, -0.94755775, 8.327023, 1.0759636, -0.45667267, 9.843065
1464875904630450, 5.642276, 0.70348984, 8.724232, -0.4574051, 0.12024689, 10.402822
1464875907040190, 5.426922, 0.39960137, 8.683554, -0.21969509, -0.122329235, 10.24461
1464875909449877, 5.343173, -0.8207382, 8.336594, 0.9691429, -0.37450624, 9.881417
1464875911859617, 5.663811, 1.1006985, 8.688339, -0.82628167, 0.2836671, 10.392994
1464875914269356, 5.3383875, -0.16749759, 8.489735, 0.3232485, -0.2587738, 10.021505
1464875916679044, 5.407779, -0.45702913, 8.432307, 0.6219593, -0.25927782, 10.005135
1464875919088783, 5.6183476, 1.2514462, 8.628518, -0.97090566, 0.33706188, 10.321192
1464875921498471, 5.278567, -0.62931234, 8.377272, 0.76297843, -0.38336754, 9.88478
1464875923908210, 5.5369916, 0.021535404, 8.556734, 0.18714046, -0.07058239, 10.190017
1464875926317950, 5.54417, 1.1006985, 8.626125, -0.8421279, 0.24189949, 10.275783
1464875928727638, 5.278567, -0.83988076, 8.257631, 0.98045146, -0.39386392, 9.779608
1464875931137377, 5.6757755, 0.634098, 8.640483, -0.36974233, 0.19308853, 10.348935
1464875933547065, 5.503492, 0.6771688, 8.628518, -0.45676297, 0.07670736, 10.24616
1464875935956804, 5.3647084, -0.77766734, 8.2456665, 0.94730234, -0.28060675, 9.818338
1464875938366544, 5.7284174, 1.1413764, 8.676374, -0.84498227, 0.35980844, 10.418903
1464875940776231, 5.419743, 0.09332009, 8.518449, 0.095906496, -0.11863375, 10.095694
1464875943185971, 5.4388857, -0.46660042, 8.408379, 0.65004015, -0.21583986, 10.001545
1464875945595658, 5.6997037, 1.3519448, 8.642876, -1.049169, 0.4164257, 10.3797655
1464875948005398, 5.355137, -0.4211368, 8.396415, 0.58539164, -0.26470423, 9.946955
1464875950415138, 5.5657053, -0.016749758, 8.530413, 0.23182964, -0.04425192, 10.182809
1464875952824825, 5.623133, 1.2777673, 8.618947, -0.99827397, 0.3507514, 10.315959
1464875955234565, 5.355137, -0.71306115, 8.271988, 0.8784267, -0.29051065, 9.836447
1464875957644252, 5.6781683, 0.526421, 8.602198, -0.2586106, 0.17352057, 10.315985
1464875960053992, 5.541777, 0.90448695, 8.626125, -0.6586182, 0.17358208, 10.270128
1464875962463731, 5.352744, -0.7752745, 8.202596, 0.9465455, -0.29035902, 9.775236
1464875964873419, 5.733203, 1.026521, 8.6141615, -0.7303087, 0.36236238, 10.366412
1464875967283158, 5.4676, 0.29192436, 8.49452, -0.08506942, -0.0121974945, 10.105908
1464875969692898, 5.419743, -0.5910272, 8.255239, 0.7779528, -0.19680548, 9.860425
1464875972102585, 5.7427745, 1.3208381, 8.571091, -1.001194, 0.48312044, 10.341755
1464875974512325, 5.407779, -0.3062813, 8.343773, 0.4936931, -0.16632843, 9.934034
1464875976922013, 5.556134, -0.19142582, 8.41795, 0.41317308, -0.055104733, 10.079453
1464875979331752, 5.6949177, 1.2969099, 8.52802, -0.9800668, 0.46003294, 10.279543
1464875981741492, 5.367101, -0.701097, 8.23131, 0.8683038, -0.26669407, 9.809521
1464875984151179, 5.651847, 0.3182454, 8.49452, -0.062452555, 0.13988781, 10.206765
1464875986560919, 5.568098, 0.9906286, 8.5423765, -0.7313811, 0.2580433, 10.2154665
1464875988970606, 5.3312087, -0.80877405, 8.149954, 0.97262037, -0.28714132, 9.719527
1464875991380346, 5.6877394, 0.849452, 8.559127, -0.5648934, 0.29620266, 10.291927
1464875993790085, 5.4436717, 0.44027936, 8.499306, -0.2334094, 0.006594181, 10.100055
1464875996199773, 5.3383875, -0.6771688, 8.200203, 0.84306955, -0.2664466, 9.768239
1464875998609513, 5.6757755, 1.2562319, 8.56152, -0.95908177, 0.40903187, 10.295874
1464876001019252, 5.345566, -0.15314065, 8.384451, 0.3188039, -0.19548082, 9.937691
1464876003428940, 5.4293146, -0.33020952, 8.386844, 0.5050037, -0.18473959, 9.981808
1464876005838679, 5.5968122, 1.3184453, 8.559127, -1.0407847, 0.36688232, 10.251997
1464876008248367, 5.2833524, -0.63888365, 8.331808, 0.77583337, -0.3555851, 9.849501
1464876010658106, 5.541777, 0.13399807, 8.563912, 0.07048023, -0.044393063, 10.201124
1464876013067846, 5.515456, 1.0313065, 8.635697, -0.8017631, 0.15911198, 10.26601
1464876015477533, 5.259424, -0.8709874, 8.276773, 0.9979727, -0.41082644, 9.785726
1464876017887273, 5.6063833, 0.6197411, 8.633304, -0.3896458, 0.11362457, 10.304603
1464876020297013, 5.419743, 0.5096712, 8.609376, -0.32868052, -0.054952145, 10.180555
1464876022706700, 5.271388, -0.8327023, 8.243274, 0.96767545, -0.3712871, 9.765154
1464876025116440, 5.6350975, 1.0767702, 8.62134, -0.8133347, 0.28388834, 10.319843
1464876027526127, 5.352744, -0.038285162, 8.449057, 0.20202076, -0.18344307, 9.998273
1464876029935867, 5.3814583, -0.47138608, 8.329415, 0.6402378, -0.22698927, 9.904547
1464876032345606, 5.6303115, 1.3160524, 8.537591, -1.0315218, 0.39673758, 10.251899
1464876034755294, 5.3144593, -0.5072784, 8.295917, 0.65579784, -0.27164936, 9.839673
1464876037165033, 5.515456, 0.040677983, 8.444271, 0.16450179, -0.021802902, 10.084646
1464876039574721, 5.558527, 1.1988041, 8.520842, -0.9464717, 0.29812908, 10.195804
1464876041984460, 5.2737813, -0.7609176, 8.185846, 0.91057837, -0.30510616, 9.71996
1464876044394200, 5.6374903, 0.5766702, 8.532805, -0.3295697, 0.18122435, 10.236268
1464876046803888, 5.477171, 0.7680961, 8.544769, -0.5514959, 0.09931183, 10.163093
1464876049213627, 5.316852, -0.7704889, 8.16431, 0.9312149, -0.26939487, 9.7251625
1464876051623367, 5.6877394, 1.0552348, 8.62134, -0.7881955, 0.3101139, 10.347654
1464876054033054, 5.4317074, 0.19860429, 8.480164, -0.01240921, -0.065989494, 10.072316
1464876056442794, 5.400601, -0.552742, 8.288737, 0.7225317, -0.20746183, 9.879783
1464876058852481, 5.704489, 1.3399807, 8.580662, -1.0504746, 0.42659855, 10.328555
1464876061262221, 5.3886366, -0.33260235, 8.355737, 0.5025482, -0.18990278, 9.933668
1464876063671960, 5.5704913, -0.09332009, 8.453842, 0.30647755, -0.028345585, 10.11987
1464876066081648, 5.651847, 1.3160524, 8.551949, -1.0360293, 0.39123297, 10.275444
1464876068491388, 5.3383875, -0.6891329, 8.248059, 0.8472887, -0.27700806, 9.808627
1464876070901127, 5.6614184, 0.45942193, 8.539984, -0.21693683, 0.15948105, 10.25288
1464876073310815, 5.548956, 0.971486, 8.580662, -0.7412148, 0.19632864, 10.235943
1464876075720554, 5.3623157, -0.7465607, 8.181061, 0.91121733, -0.2431798, 9.764839
1464876078130242, 5.7451673, 0.9906286, 8.626125, -0.7153137, 0.33713245, 10.381377
1464876080539981, 5.4963136, 0.40438703, 8.539984, -0.20207846, 0.010790825, 10.161859
1464876082949721, 5.419743, -0.60059845, 8.286345, 0.7755772, -0.21015453, 9.886969
1464876085359408, 5.7523456, 1.3064811, 8.642876, -1.016529, 0.4229684, 10.405932
1464876087769148, 5.4149575, -0.19860429, 8.415557, 0.36995614, -0.16391993, 10.000954
1464876090178888, 5.515456, -0.2847459, 8.4347, 0.47126722, -0.117568016, 10.070232
1464876092588575, 5.642276, 1.3256238, 8.566305, -1.0554192, 0.3836403, 10.281685
1464876094998315, 5.3072805, -0.65084773, 8.279166, 0.79098225, -0.31484127, 9.8188925
1464876097408002, 5.5896335, 0.21535404, 8.513663, 0.003766656, 0.045655727, 10.186793
1464876099817742, 5.532206, 1.0145568, 8.56152, -0.77780426, 0.21287823, 10.211951
1464876102227481, 5.2977095, -0.8566305, 8.161918, 1.0011779, -0.3202772, 9.711411
1464876104637169, 5.6733823, 0.7322037, 8.568698, -0.48193938, 0.2330141, 10.288801
1464876107046908, 5.4819565, 0.46181476, 8.506484, -0.26112592, 0.036334038, 10.126988
1464876109456648, 5.369494, -0.7704889, 8.152347, 0.9421029, -0.2136159, 9.744368
1464876111866335, 5.692525, 1.1413764, 8.58784, -0.86839783, 0.3521471, 10.323781
1464876114276075, 5.3790655, -0.14596218, 8.422736, 0.3096658, -0.17802858, 9.988522
1464876116685815, 5.4436717, -0.46181476, 8.394022, 0.6321739, -0.20500231, 9.993237
1464876119095502, 5.642276, 1.2777673, 8.592627, -1.0060844, 0.36456585, 10.303207
1464876121505242, 5.3072805, -0.60777694, 8.327023, 0.74619853, -0.3216834, 9.859798
1464876123914929, 5.5393844, 0.016749758, 8.520842, 0.17739403, -0.05128002, 10.161481
1464876126324669, 5.572884, 1.1222339, 8.575876, -0.87540996, 0.27527952, 10.247926
1464876128734408, 5.2977095, -0.83748794, 8.193025, 0.9775243, -0.33221793, 9.737907
1464876131144096, 5.6446686, 0.5814559, 8.551949, -0.33563608, 0.18705654, 10.256147
1464876133553835, 5.477171, 0.6436693, 8.547162, -0.43398094, 0.07447147, 10.162373
1464876135963575, 5.3072805, -0.8255238, 8.161918, 0.97820294, -0.30370903, 9.716816
1464876138373263, 5.682954, 1.0648061, 8.609376, -0.7909533, 0.3380723, 10.334951
1464876140783002, 5.3647084, 0.050249275, 8.482556, 0.10817611, -0.16014242, 10.03489
1464876143192742, 5.35753, -0.53599226, 8.367701, 0.6791202, -0.2849841, 9.923025
1464876145602429, 5.615955, 1.2897314, 8.650054, -1.0310847, 0.33445692, 10.336866
1464876148012169, 5.2953167, -0.47138608, 8.41795, 0.601912, -0.33409786, 9.932299
1464876150421908, 5.4843497, -0.086141616, 8.554341, 0.2660029, -0.14164686, 10.157335
1464876152831596, 5.548956, 1.2346965, 8.6548395, -0.99360406, 0.24661922, 10.304056
1464876155241335, 5.2307105, -0.75613195, 8.32463, 0.87366045, -0.42099333, 9.812799
1464876157651023, 5.572884, 0.43788654, 8.628518, -0.2255472, 0.04880476, 10.278465
1464876160060763, 5.4580283, 0.83988076, 8.647661, -0.6405645, 0.070705414, 10.240225
1464876162470502, 5.259424, -0.83030945, 8.243274, 0.95573044, -0.39049053, 9.758925
1464876164880190, 5.6303115, 0.9595219, 8.659625, -0.7066913, 0.2288723, 10.346903
1464876167289929, 5.393422, 0.25124636, 8.566305, -0.07927477, -0.12257671, 10.124841
1464876169699669, 5.343173, -0.61734825, 8.331808, 0.76990294, -0.30043983, 9.882642
1464876172109356, 5.6374903, 1.294517, 8.657232, -1.0246317, 0.33478498, 10.355808
1464876174519096, 5.3216376, -0.29910284, 8.422736, 0.4485333, -0.26825905, 9.953825
1464876176928835, 5.4795637, -0.18664017, 8.477771, 0.37062442, -0.13862514, 10.088432
1464876179338523, 5.599205, 1.308874, 8.58784, -1.0396914, 0.33764362, 10.277172
1464876181748263, 5.2809596, -0.66999036, 8.288737, 0.8116256, -0.34234, 9.811455
1464876184157950, 5.6039906, 0.31106696, 8.532805, -0.07304728, 0.07366037, 10.212712
1464876186567690, 5.5106707, 1.0145568, 8.609376, -0.77983934, 0.16907978, 10.241165
1464876188977429, 5.2737813, -0.79920274, 8.2049885, 0.9437983, -0.35018706, 9.734472
1464876191387117, 5.651847, 0.83988076, 8.633304, -0.5832948, 0.21665049, 10.334193
1464876193796856, 5.4221363, 0.4426722, 8.585447, -0.2576033, -0.060085297, 10.160486
1464876196206596, 5.3336015, -0.70348984, 8.279166, 0.856024, -0.31381893, 9.831355
1464876198616283, 5.690132, 1.2490535, 8.652447, -0.96759987, 0.35895777, 10.379666
1464876201026023, 5.3886366, -0.12921242, 8.446664, 0.30248594, -0.18740416, 10.01367
1464876203435763, 5.4676, -0.30867413, 8.410771, 0.4995972, -0.15922165, 10.022776
1464876205845450, 5.642276, 1.3878372, 8.585447, -1.0985433, 0.39349413, 10.300953
1464876208255190, 5.319245, -0.5623133, 8.329415, 0.7109599, -0.30920696, 9.868569
1464876210664929, 5.5920267, 0.19621146, 8.563912, 0.023692727, 0.010043621, 10.229819
1464876213074617, 5.5537415, 1.1294123, 8.6548395, -0.88911915, 0.2076335, 10.304961
1464876215484356, 5.2929235, -0.7848458, 8.303095, 0.92196643, -0.38238811, 9.827318
1464876217894044, 5.6590257, 0.6987042, 8.695518, -0.45651615, 0.14215279, 10.387309
1464876220303783, 5.477171, 0.6364908, 8.659625, -0.43481088, -0.0038986206, 10.2569275
1464876222713523, 5.3336015, -0.7393822, 8.281559, 0.89664054, -0.32523537, 9.832013
1464876225123210, 5.704489, 1.1581261, 8.676374, -0.8793911, 0.32421064, 10.405936
1464876227532950, 5.4125648, 0.059820566, 8.520842, 0.11297417, -0.15001392, 10.093012
1464876229942690, 5.4412785, -0.44027936, 8.413164, 0.6092775, -0.23033476, 10.007918
1464876232352377, 5.6877394, 1.3639089, 8.640483, -1.0704548, 0.41339397, 10.37072
1464876234762117, 5.3623157, -0.4761717, 8.391629, 0.63398707, -0.28018045, 9.945862
1464876237171856, 5.6039906, 0.023928227, 8.571091, 0.19272351, -0.034704685, 10.238678
1464876239581544, 5.6303115, 1.2466606, 8.640483, -0.9774481, 0.30836296, 10.33741
1464876241991283, 5.3312087, -0.74416786, 8.319844, 0.89379203, -0.34658146, 9.862881
1464876244401023, 5.6590257, 0.5814559, 8.666803, -0.3438534, 0.12337017, 10.360632
1464876246810710, 5.508278, 0.80159557, 8.678768, -0.594737, 0.07436514, 10.292981
1464876249220450, 5.326423, -0.7585248, 8.276773, 0.89762807, -0.35229754, 9.824524
1464876251630190, 5.7020965, 1.0576276, 8.719446, -0.79050875, 0.28741407, 10.438089
1464876254039877, 5.45085, 0.22971097, 8.590233, -0.051596403, -0.10686684, 10.175587
1464876256449617, 5.4388857, -0.5407779, 8.405986, 0.70383096, -0.26709938, 9.99839
1464876258859356, 5.7188463, 1.3399807, 8.705089, -1.0485432, 0.40070105, 10.441231
1464876261269044, 5.3814583, -0.33738798, 8.4705925, 0.48227286, -0.28211546, 10.025601
1464876263678783, 5.572884, -0.1268196, 8.597412, 0.31018376, -0.12961245, 10.240879
1464876266088523, 5.692525, 1.3064811, 8.719446, -1.0314007, 0.36310577, 10.437664
1464876268498210, 5.3910294, -0.71306115, 8.432307, 0.83969295, -0.37964153, 9.991308
1464876270907950, 5.7284174, 0.3924229, 8.743374, -0.16063774, 0.082577705, 10.45862
1464876273317690, 5.615955, 0.91884387, 8.779266, -0.6950948, 0.14280653, 10.43816
1464876275727377, 5.3910294, -0.81834537, 8.386844, 0.95490766, -0.37435102, 9.950882
1464876278137117, 5.7667027, 0.9164511, 8.817552, -0.6673546, 0.22861862, 10.552078
1464876280546856, 5.5130634, 0.3589234, 8.705089, -0.19250607, -0.085856915, 10.308096
1464876282956544, 5.4149575, -0.66759753, 8.422736, 0.800581, -0.33217, 9.997933
1464876285366283, 5.7355957, 1.268196, 8.762517, -1.0027429, 0.34352732, 10.495885
1464876287776023, 5.4173503, -0.2321038, 8.537591, 0.36978352, -0.26081657, 10.103825
1464876290185710, 5.508278, -0.30388847, 8.537591, 0.46093023, -0.21363306, 10.152135
1464876292595450, 5.682954, 1.3280165, 8.676374, -1.0620941, 0.36409807, 10.396079
1464876295005190, 5.359923, -0.65324056, 8.374879, 0.7695546, -0.35700226, 9.928466
1464876297414877, 5.6590257, 0.21296121, 8.60459, -0.006370187, 0.032607555, 10.300864
1464876299824617, 5.613562, 1.0695918, 8.623733, -0.83696735, 0.2520733, 10.308289
1464876302234356, 5.3647084, -0.8039884, 8.219346, 0.9376745, -0.31900644, 9.798119
1464876304644044, 5.7523456, 0.7728817, 8.628518, -0.51990443, 0.25609827, 10.382788
1464876307053783, 5.5513487, 0.552742, 8.575876, -0.35484636, 0.057811737, 10.224451
1464876309463523, 5.4412785, -0.6963114, 8.23131, 0.8532051, -0.22837687, 9.852244
1464876311873210, 5.797809, 1.2179468, 8.635697, -0.93823016, 0.42068386, 10.421901
1464876314282950, 5.4891353, -0.05503492, 8.446664, 0.22172928, -0.11085749, 10.070665
1464876316692690, 5.534599, -0.39481574, 8.4012, 0.55789196, -0.1586523, 10.051439
1464876319102377, 5.74756, 1.3926228, 8.599805, -1.1155776, 0.45107603, 10.367377
1464876321512117, 5.4125648, -0.5072784, 8.350951, 0.64047945, -0.26839113, 9.940289
1464876323921856, 5.642276, 0.0741775, 8.551949, 0.11778295, -0.013141155, 10.245123
1464876326331544, 5.6709895, 1.1964114, 8.609376, -0.9512185, 0.31938362, 10.329861
1464876328741283, 5.3790655, -0.7800602, 8.262417, 0.9047333, -0.33647442, 9.842693
1464876331151023, 5.723632, 0.6221339, 8.635697, -0.40167975, 0.1689434, 10.369783
1464876333560710, 5.548956, 0.7178468, 8.647661, -0.54410803, 0.05090666, 10.285408
1464876335970450, 5.3742795, -0.7704889, 8.260024, 0.8844054, -0.34393883, 9.838905
1464876338380190, 5.7451673, 1.1006985, 8.69791, -0.86603296, 0.29012775, 10.442123
1464876340789877, 5.4580283, 0.08135597, 8.5423765, 0.057267427, -0.16636181, 10.135971
1464876343199617, 5.453243, -0.5240282, 8.398808, 0.65273666, -0.2793498, 10.002417
1464876345609356, 5.721239, 1.2993027, 8.664411, -1.0561098, 0.34095955, 10.404861
1464876348019044, 5.3790655, -0.4881358, 8.425129, 0.5984988, -0.33550787, 9.9842205
1464876350428783, 5.572884, -0.15792629, 8.559127, 0.30647063, -0.15804529, 10.208905
1464876352838523, 5.6590257, 1.1653047, 8.63809, -0.94715095, 0.25229216, 10.345935
1464876355248210, 5.359923, -0.8255238, 8.279166, 0.9331168, -0.37719393, 9.845907
1464876357657950, 5.709275, 0.33738798, 8.566305, -0.12826204, 0.08566809, 10.298906
1464876360067690, 5.5872407, 0.77766734, 8.575876, -0.5812844, 0.11701059, 10.247737
1464876362477377, 5.386244, -0.9020941, 8.140383, 1.0331336, -0.3192637, 9.742789
1464876364887117, 5.7523456, 0.8709874, 8.544769, -0.62805426, 0.28855276, 10.314236
1464876367296856, 5.5226345, 0.19860429, 8.444271, -0.033041, -0.045188427, 10.091656
1464876369706544, 5.4699926, -0.69152576, 8.190632, 0.8396635, -0.22415209, 9.835151
1464876372116283, 5.773881, 1.2155539, 8.504091, -0.94415426, 0.43233633, 10.298373
1464876374526023, 5.4460645, -0.37806597, 8.298309, 0.52234244, -0.20931482, 9.917048
1464876376935763, 5.601598, -0.2727818, 8.329415, 0.46034312, -0.072271824, 10.03067
1464876379345450, 5.733203, 1.2442678, 8.429914, -0.9695183, 0.4278903, 10.215588
1464876381755190, 5.4317074, -0.74895346, 8.130812, 0.90097094, -0.24230766, 9.762378
1464876384164877, 5.7547383, 0.20817557, 8.377272, 0.029318929, 0.16279602, 10.164234
1464876386574617, 5.6685967, 0.9499506, 8.41795, -0.7057745, 0.2880292, 10.164458
1464876388984356, 5.4388857, -0.8422736, 8.01117, 1.0036359, -0.2247858, 9.664986
1464876391394096, 5.8360944, 0.7728817, 8.396415, -0.48447448, 0.38723183, 10.235842
1464876393803783, 5.613562, 0.4235296, 8.329415, -0.19721782, 0.13228703, 10.050584
1464876396213523, 5.515456, -0.72502524, 7.984849, 0.9212973, -0.121026516, 9.68712
1464876398623263, 5.852844, 1.1964114, 8.355737, -0.87305677, 0.5419831, 10.220057
1464876401032950, 5.54417, -0.18903299, 8.169097, 0.3906467, -0.030599117, 9.866821
1464876403442690, 5.6039906, -0.4139583, 8.133204, 0.6238816, -0.03750515, 9.865823
1464876405852429, 5.802595, 1.2849457, 8.315059, -0.9685403, 0.54465437, 10.160052
1464876408262117, 5.4628143, -0.67477596, 8.075776, 0.8479967, -0.19987106, 9.73431
1464876410671856, 5.7116675, 0.05742774, 8.29113, 0.18353236, 0.10490513, 10.066012
1464876413081596, 5.682954, 1.0408778, 8.348558, -0.7659926, 0.34521198, 10.117899
1464876415491283, 5.424529, -0.8853444, 7.984849, 1.0554701, -0.25233746, 9.632729
1464876417901023, 5.802595, 0.567099, 8.362915, -0.28813338, 0.28596973, 10.1865225
1464876420310763, 5.6279187, 0.53359944, 8.348558, -0.3005095, 0.1456747, 10.076958
1464876422720450, 5.4580283, -0.87338024, 7.987242, 1.0485873, -0.23107052, 9.653807
1464876425130190, 5.8169518, 1.0193424, 8.398808, -0.71632755, 0.40714407, 10.234113
1464876427539929, 5.517849, -0.08853444, 8.248059, 0.28000176, -0.093027115, 9.919572
1464876429949669, 5.493921, -0.61016977, 8.118847, 0.7874789, -0.213583, 9.788023
1464876432359356, 5.7451673, 1.2107682, 8.353344, -0.9012722, 0.44946194, 10.16056
1464876434769096, 5.3886366, -0.60059845, 8.123632, 0.74750984, -0.29894638, 9.733622
1464876437178835, 5.608776, -0.11964113, 8.288737, 0.3231492, -0.059762478, 10.003391
1464876439588523, 5.663811, 1.1150553, 8.355737, -0.8374127, 0.34808397, 10.115238
1464876441998263, 5.383851, -0.863809, 8.01117, 1.0099767, -0.33514047, 9.63216
1464876444408002, 5.7451673, 0.41635114, 8.338987, -0.15492058, 0.18915701, 10.13209
1464876446817690, 5.5944195, 0.6843473, 8.353344, -0.44886994, 0.14174128, 10.065916
1464876449227429, 5.419743, -0.89491564, 7.948957, 1.0684773, -0.26820207, 9.599315
1464876451637169, 5.804988, 0.91166544, 8.379665, -0.6158999, 0.3619728, 10.209675
1464876454046856, 5.541777, 0.09092726, 8.248059, 0.11344814, -0.030833721, 9.936609
1464876456456596, 5.5274205, -0.6867401, 8.070991, 0.8712429, -0.20155668, 9.765511
1464876458866335, 5.838487, 1.2251252, 8.384451, -0.8988073, 0.48918295, 10.239176
1464876461276023, 5.5130634, -0.42592242, 8.176275, 0.6064625, -0.18753767, 9.850065
1464876463685763, 5.6614184, -0.23449662, 8.271988, 0.45114267, -0.060757637, 10.016247
1464876466095502, 5.7930236, 1.2514462, 8.386844, -0.94353795, 0.441916, 10.216597
1464876468505242, 5.4723854, -0.76570326, 8.078169, 0.93798196, -0.2640562, 9.738613
1464876470914929, 5.797809, 0.31106696, 8.348558, -0.04645109, 0.1769185, 10.167416
1464876473324669, 5.690132, 0.89730847, 8.372486, -0.63605255, 0.25815582, 10.139529
1464876475734408, 5.4699926, -0.8662018, 7.9561353, 1.0452448, -0.24346304, 9.634282
1464876478144096, 5.8672013, 0.849452, 8.365308, -0.53905064, 0.3907056, 10.231361
1464876480553835, 5.6303115, 0.30867413, 8.29113, -0.07458246, 0.07112789, 10.0263605
1464876482963575, 5.5106707, -0.74177504, 8.008778, 0.93447006, -0.20199728, 9.702794
1464876485373315, 5.8337016, 1.1892328, 8.384451, -0.8781431, 0.4430275, 10.23611
1464876487783002, 5.503492, -0.29671, 8.185846, 0.48277617, -0.156466, 9.855302
1464876490192742, 5.613562, -0.3924229, 8.219346, 0.59392893, -0.11712074, 9.942698
1464876492602481, 5.790631, 1.2562319, 8.367701, -0.9540386, 0.4391141, 10.199261
1464876495012169, 5.4341, -0.72741807, 8.094919, 0.8858329, -0.31054068, 9.731659
1464876497421908, 5.7260246, 0.09092726, 8.34138, 0.15089023, 0.046093464, 10.116787
1464876499831648, 5.6853466, 0.96909314, 8.408379, -0.7034785, 0.25747108, 10.168676
1464876502241335, 5.410172, -0.92602235, 8.018349, 1.079795, -0.35140228, 9.650491
1464876504651075, 5.7954164, 0.65084773, 8.439486, -0.38067806, 0.22769928, 10.248836
1464876507060815, 5.558527, 0.4546363, 8.441878, -0.26174724, -0.020393848, 10.114361
1464876509470554, 5.3982077, -0.80877405, 8.10449, 0.95455813, -0.3447876, 9.718409
1464876511880242, 5.7523456, 1.0983056, 8.520842, -0.8380097, 0.27349663, 10.301622
1464876514289981, 5.4628143, -0.13160525, 8.350951, 0.2923342, -0.22643328, 9.973029
1464876516699721, 5.501099, -0.49292147, 8.274381, 0.6597594, -0.2584343, 9.923124
1464876519109408, 5.733203, 1.2993027, 8.496913, -1.0277326, 0.32762003, 10.275787
1464876521519148, 5.3790655, -0.567099, 8.243274, 0.699973, -0.35797834, 9.8279915
1464876523928888, 5.613562, 0.0071784677, 8.420342, 0.18458605, -0.100075245, 10.117817
1464876526338575, 5.663811, 1.1557333, 8.489735, -0.90563285, 0.24862862, 10.22781
1464876528748315, 5.3766723, -0.82313097, 8.116454, 0.96082366, -0.37739825, 9.715831
1464876531158054, 5.7403817, 0.5623133, 8.482556, -0.31909084, 0.13266468, 10.251953
1464876533567794, 5.5896335, 0.6987042, 8.482556, -0.48381817, 0.053503513, 10.170989
1464876535977481, 5.4341, -0.80159557, 8.090134, 0.9645624, -0.3115363, 9.725987
1464876538387221, 5.812166, 1.1030912, 8.547162, -0.81826365, 0.3276434, 10.357373
1464876540796960, 5.517849, 0.14117654, 8.427522, 0.032739043, -0.14270353, 10.073148
1464876543206648, 5.501099, -0.5096712, 8.286345, 0.66632736, -0.28685236, 9.93273
1464876545616388, 5.74756, 1.3782659, 8.585447, -1.0996698, 0.33843565, 10.359544
1464876548026127, 5.436493, -0.37088752, 8.348558, 0.50890434, -0.33502007, 9.95089
1464876550435867, 5.649454, -0.05503492, 8.477771, 0.25301492, -0.13743591, 10.183765
1464876552845554, 5.716453, 1.3232309, 8.580662, -1.0482057, 0.307415, 10.337472
1464876555255294, 5.393422, -0.67477596, 8.233703, 0.8035629, -0.41054153, 9.824659
1464876557665033, 5.7284174, 0.5024927, 8.537591, -0.2639922, 0.073589325, 10.289928
1464876560074721, 5.613562, 0.96909314, 8.571091, -0.7428576, 0.11879492, 10.26396
1464876562484460, 5.3982077, -0.7393822, 8.159525, 0.88135874, -0.3893044, 9.764058
1464876564894200, 5.7667027, 1.0217353, 8.580662, -0.7479887, 0.24798727, 10.358841
1464876567303940, 5.5130634, 0.37088752, 8.472985, -0.18735957, -0.10400534, 10.113209
1464876569713627, 5.4628143, -0.55752766, 8.190632, 0.7294078, -0.30026913, 9.829416
1464876572123367, 5.788238, 1.3686945, 8.516056, -1.0489314, 0.41013098, 10.326267
1464876574533106, 5.4676, -0.21296121, 8.281559, 0.39697444, -0.22392607, 9.915467
1464876576942794, 5.599205, -0.15553348, 8.288737, 0.37634897, -0.10681534, 9.99627
1464876579352533, 5.7379885, 1.402194, 8.398808, -1.0803761, 0.4164791, 10.202449
1464876581762273, 5.419743, -0.5910272, 8.109276, 0.77640355, -0.28585243, 9.736465
1464876584172013, 5.7355957, 0.33499518, 8.367701, -0.059487343, 0.106221676, 10.149526
1464876586581700, 5.6757755, 1.1126626, 8.410771, -0.8151736, 0.27468252, 10.171212
1464876588991440, 5.4580283, -0.71306115, 8.030313, 0.91909504, -0.25917578, 9.688784
1464876591401179, 5.8360944, 0.8925229, 8.453842, -0.5707476, 0.30754805, 10.290954
1464876593810867, 5.6303115, 0.5766702, 8.413164, -0.32057405, 0.06830931, 10.134439
1464876596220606, 5.5226345, -0.61016977, 8.106883, 0.82735884, -0.21759272, 9.790888
1464876598630346, 5.869594, 1.3160524, 8.49452, -0.97146726, 0.4366517, 10.354061
1464876601040085, 5.558527, -0.031106694, 8.303095, 0.2626177, -0.120688915, 9.987795
1464876603449773, 5.6446686, -0.25124636, 8.252846, 0.50271726, -0.09315252, 9.9886675
1464876605859513, 5.828916, 1.4476577, 8.425129, -1.0893446, 0.47398567, 10.278299
1464876608269252, 5.491528, -0.49292147, 8.161918, 0.70733356, -0.23337173, 9.8215065
1464876610678992, 5.761917, 0.2321038, 8.365308, 0.05532205, 0.0837512, 10.159817
1464876613088679, 5.7427745, 1.2466606, 8.432307, -0.92574406, 0.32967472, 10.230921
1464876615498419, 5.465207, -0.6867401, 8.047063, 0.91187954, -0.22431374, 9.706365
1464876617908158, 5.8217373, 0.76570326, 8.4347, -0.4479282, 0.2332015, 10.2648945
1464876620317846, 5.611169, 0.7704889, 8.41795, -0.49984825, 0.076208115, 10.133365
1464876622727585, 5.4676, -0.65084773, 8.037491, 0.8827292, -0.20957088, 9.700329
1464876625137325, 5.869594, 1.2346965, 8.4705925, -0.8949766, 0.37615347, 10.333687
1464876627547065, 5.5776696, 0.17706887, 8.322237, 0.074429035, -0.056761265, 10.019612
1464876629956752, 5.6063833, -0.37328035, 8.221739, 0.62167907, -0.12862015, 9.93805
1464876632366492, 5.84088, 1.4907285, 8.463413, -1.1438864, 0.4272418, 10.318747
1464876634776231, 5.515456, -0.3278167, 8.226524, 0.56239927, -0.18514538, 9.892061
1464876637185919, 5.7379885, 0.10049855, 8.377272, 0.18072605, 0.019834518, 10.152845
1464876639595658, 5.7667027, 1.3519448, 8.463413, -1.0298393, 0.31443787, 10.273876
1464876642005398, 5.4484572, -0.6652047, 8.128419, 0.88332665, -0.27404022, 9.764425
1464876644415138, 5.788238, 0.6197411, 8.482556, -0.32412362, 0.13360596, 10.281956
1464876646824825, 5.649454, 0.90448695, 8.487342, -0.63061434, 0.09848213, 10.215775
1464876649234565, 5.426922, -0.7082755, 8.082955, 0.92348087, -0.28522158, 9.713553
1464876651644304, 5.8097734, 1.1030912, 8.530413, -0.79007554, 0.2542119, 10.346466
1464876654054044, 5.5465627, 0.31585258, 8.422736, -0.07438815, -0.10586357, 10.089097
1464876656463731, 5.5130634, -0.51206404, 8.221739, 0.73989046, -0.24157, 9.881663
1464876658873471, 5.800202, 1.3998013, 8.532805, -1.075543, 0.32240152, 10.351319
1464876661283210, 5.4891353, -0.26081768, 8.293523, 0.48299444, -0.23334932, 9.934456
1464876663692950, 5.656633, -0.09092726, 8.386844, 0.3417276, -0.105181694, 10.110248
1464876666102638, 5.761917, 1.4141582, 8.477771, -1.0957893, 0.3283391, 10.284143
1464876668512377, 5.4723854, -0.6149554, 8.16431, 0.8346001, -0.26681852, 9.808843
1464876670922117, 5.802595, 0.44506502, 8.4682, -0.14729989, 0.10621071, 10.27354
1464876673331804, 5.7140603, 1.0456635, 8.489735, -0.74994814, 0.18098211, 10.25789
1464876675741544, 5.491528, -0.6963114, 8.111669, 0.9207331, -0.2475419, 9.77404
1464876678151283, 5.864808, 0.9882358, 8.575876, -0.67525035, 0.24103975, 10.411732
1464876680561023, 5.6207404, 0.47856453, 8.5016985, -0.23138547, -0.047214508, 10.200238
1464876682970710, 5.5226345, -0.57188463, 8.248059, 0.7874557, -0.2652173, 9.907906
1464876685380450, 5.855237, 1.3423735, 8.6141615, -1.0234423, 0.30640268, 10.447403
1464876687790190, 5.5250273, -0.11485548, 8.415557, 0.32872927, -0.23517752, 10.0596895
1464876690199929, 5.611169, -0.2536392, 8.429914, 0.48083293, -0.21149683, 10.116179
1464876692609617, 5.790631, 1.4093726, 8.583055, -1.0996022, 0.28981447, 10.3871765
1464876695019356, 5.4580283, -0.5766702, 8.303095, 0.76360035, -0.35367346, 9.917452
1464876697429096, 5.7427745, 0.21296121, 8.56152, 0.038318157, -0.05311346, 10.311167
1464876699838835, 5.709275, 1.1222339, 8.606983, -0.85016716, 0.1438117, 10.3533535
1464876702248523, 5.453243, -0.79920274, 8.219346, 0.98765385, -0.3722477, 9.839726
1464876704658263, 5.8360944, 0.7513463, 8.635697, -0.46514428, 0.120803356, 10.438813
1464876707068002, 5.642276, 0.56470615, 8.602198, -0.3251307, -0.06358719, 10.29768
1464876709477742, 5.5106707, -0.7393822, 8.279166, 0.9440315, -0.32983398, 9.92264
1464876711887429, 5.8600225, 1.1581261, 8.695518, -0.8633009, 0.2139163, 10.511999
1464876714297169, 5.548956, -0.0741775, 8.5112705, 0.2772553, -0.24877119, 10.153787
1464876716706908, 5.5776696, -0.47377887, 8.46102, 0.6765367, -0.29712296, 10.118189
1464876719116648, 5.802595, 1.3136597, 8.673982, -1.0308236, 0.20798635, 10.465558
1464876721526335, 5.4723854, -0.5694918, 8.413164, 0.7549383, -0.378994, 10.01694
1464876723936075, 5.6949177, -0.038285162, 8.592627, 0.2676412, -0.16865635, 10.303723
1464876726345815, 5.7260246, 1.134198, 8.6548395, -0.8663951, 0.111028194, 10.402742
1464876728755554, 5.4460645, -0.83988076, 8.288737, 1.0225086, -0.39979315, 9.892564
1464876731165242, 5.8169518, 0.5072784, 8.652447, -0.24402273, 0.031315327, 10.435448
1464876733574981, 5.649454, 0.6843473, 8.645268, -0.45136148, -0.054641724, 10.340145
1464876735984721, 5.4819565, -0.8446664, 8.252846, 1.0415595, -0.34474754, 9.882868
1464876738394460, 5.864808, 1.0049855, 8.707481, -0.71938556, 0.15391684, 10.520693
1464876740804148, 5.5944195, 0.062213387, 8.556734, 0.15542126, -0.2053585, 10.220214
1464876743213888, 5.5776696, -0.60777694, 8.396415, 0.8203672, -0.2910242, 10.060907
1464876745623627, 5.869594, 1.253839, 8.647661, -0.95365363, 0.24887514, 10.480215
1464876748033367, 5.54417, -0.4977071, 8.382058, 0.70124197, -0.29067945, 10.033355
1464876750443054, 5.73081, -0.18903299, 8.489735, 0.43024302, -0.12438965, 10.234888
1464876752852794, 5.8097734, 1.2083755, 8.566305, -0.91523063, 0.24183464, 10.377818
1464876755262533, 5.508278, -0.79920274, 8.233703, 1.0089922, -0.30340147, 9.88249
1464876757672273, 5.8624153, 0.3493521, 8.5423765, -0.06284666, 0.07860851, 10.365908
1464876760081960, 5.7451673, 0.85902333, 8.566305, -0.5852004, 0.0913887, 10.333231
1464876762491700, 5.5202417, -0.83748794, 8.147561, 1.059258, -0.259964, 9.8167
1464876764901440, 5.8887367, 0.89730847, 8.580662, -0.5977668, 0.20565462, 10.426434
1464876767311179, 5.6470613, 0.28953153, 8.456235, -0.044808507, -0.06437302, 10.17226
1464876769720867, 5.568098, -0.64845496, 8.212168, 0.8767029, -0.21720505, 9.901925
1464876772130606, 5.8839507, 1.2586247, 8.549556, -0.94599897, 0.3051939, 10.407298
1464876774540346, 5.541777, -0.32063824, 8.343773, 0.5460573, -0.23675394, 10.003921
1464876776950085, 5.666204, -0.28953153, 8.389236, 0.5367918, -0.15488005, 10.112213
1464876779359773, 5.797809, 1.2873386, 8.508878, -0.9811469, 0.25489855, 10.326918
1464876781769513, 5.4819565, -0.7106683, 8.226524, 0.9255121, -0.3116331, 9.863008
1464876784179252, 5.7786665, 0.20338993, 8.513663, 0.063676834, -0.01894474, 10.291375
1464876786588992, 5.721239, 1.0169497, 8.539984, -0.7390911, 0.11301088, 10.3023815
1464876788998679, 5.453243, -0.83030945, 8.166703, 1.0388908, -0.33882427, 9.794296
1464876791408419, 5.838487, 0.77766734, 8.580662, -0.4865389, 0.12691307, 10.395559
1464876793818158, 5.6183476, 0.5024927, 8.535198, -0.25727427, -0.08761263, 10.227123
1464876796227898, 5.4795637, -0.6891329, 8.200203, 0.9026334, -0.32453537, 9.839907
1464876798637585, 5.8193445, 1.2251252, 8.590233, -0.9159193, 0.22857666, 10.405127
1464876801047325, 5.508278, -0.08853444, 8.382058, 0.30621946, -0.24669123, 10.022637
1464876803457065, 5.572884, -0.34456646, 8.350951, 0.57062054, -0.24598503, 10.026367
1464876805866804, 5.7690954, 1.3878372, 8.508878, -1.0737866, 0.2590003, 10.3145275
1464876808276544, 5.4293146, -0.5479564, 8.243274, 0.7570011, -0.34628868, 9.850701
1464876810686231, 5.6877394, 0.15314065, 8.458628, 0.10974294, -0.08476782, 10.193281
1464876813095971, 5.682954, 1.1964114, 8.504091, -0.9021713, 0.14234924, 10.257326
1464876815505710, 5.4053864, -0.7537391, 8.128419, 0.96099603, -0.36994696, 9.736383
1464876817915450, 5.7954164, 0.67477596, 8.5112705, -0.37433755, 0.10455704, 10.311783
1464876820325138, 5.623133, 0.71306115, 8.482556, -0.4476683, -0.006348133, 10.192224
1464876822734877, 5.453243, -0.6939186, 8.13799, 0.9140477, -0.32271385, 9.772749
1464876825144617, 5.814559, 1.1772687, 8.554341, -0.8551656, 0.21684551, 10.372726
1464876827554356, 5.534599, 0.124426775, 8.396415, 0.11824131, -0.18709183, 10.054752
1464876829964044, 5.5298133, -0.45702913, 8.281559, 0.69304687, -0.27582407, 9.940599
1464876832373783, 5.790631, 1.39023, 8.518449, -1.061348, 0.2696967, 10.335807
1464876834783523, 5.4341, -0.41874397, 8.271988, 0.6332681, -0.34441614, 9.879824
1464876837193263, 5.6446686, 0.016749758, 8.441878, 0.23746014, -0.15640497, 10.151209
1464876839602950, 5.6997037, 1.3040884, 8.508878, -0.99924767, 0.1903696, 10.273926
1464876842012690, 5.4053864, -0.69152576, 8.188239, 0.8991109, -0.3949957, 9.786688
1464876844422429, 5.800202, 0.5599205, 8.516056, -0.25220442, 0.0657959, 10.3155775
1464876846832169, 5.6590257, 0.89013004, 8.504091, -0.60257334, 0.040059566, 10.235809
1464876849241908, 5.474778, -0.715454, 8.109276, 0.9563423, -0.29238224, 9.759373
1464876851651596, 5.871987, 1.0911272, 8.530413, -0.75577307, 0.24592972, 10.383018
1464876854061335, 5.5920267, 0.34456646, 8.415557, -0.08491349, -0.10187197, 10.109081
1464876856471075, 5.5393844, -0.51445687, 8.226524, 0.75347316, -0.2657857, 9.898828
1464876858880815, 5.8265233, 1.4117653, 8.535198, -1.0712874, 0.29844475, 10.370841
1464876861290502, 5.4628143, -0.22253251, 8.327023, 0.445706, -0.3060975, 9.9468
1464876863700242, 5.6207404, -0.11246266, 8.425129, 0.3641497, -0.20583963, 10.119941
1464876866109981, 5.7403817, 1.3926228, 8.535198, -1.0716588, 0.22327614, 10.321953
1464876868519721, 5.410172, -0.6197411, 8.2145605, 0.8348148, -0.38567638, 9.812615
1464876870929408, 5.7547383, 0.4235296, 8.49452, -0.13364434, 0.0018835068, 10.268173
1464876873339148, 5.642276, 1.0815558, 8.530413, -0.7988298, 0.06128025, 10.253347
1464876875748888, 5.4053864, -0.7082755, 8.145168, 0.921849, -0.37773132, 9.750443
1464876878158627, 5.7954164, 0.98584294, 8.609376, -0.68069685, 0.11712313, 10.402069
1464876880568367, 5.532206, 0.52163535, 8.544769, -0.28064477, -0.17865086, 10.187238
1464876882978054, 5.4580283, -0.58624154, 8.279166, 0.80280817, -0.37861872, 9.893963
1464876885387794, 5.773881, 1.3280165, 8.63809, -1.0149606, 0.18010473, 10.423788
1464876887797533, 5.4556355, -0.124426775, 8.398808, 0.33890665, -0.32942533, 10.004801
1464876890207273, 5.5800624, -0.29671, 8.384451, 0.5329399, -0.2678156, 10.058251
1464876892617013, 5.7810597, 1.3878372, 8.504091, -1.0566585, 0.27792454, 10.318554
1464876895026700, 5.474778, -0.5694918, 8.185846, 0.8035821, -0.3123021, 9.826614
1464876897436440, 5.7690954, 0.23688944, 8.413164, 0.066414595, 0.008538246, 10.203697
1464876899846179, 5.7379885, 1.1892328, 8.437093, -0.8620889, 0.22178125, 10.233814
1464876902255919, 5.4723854, -0.7322037, 8.04467, 0.97759223, -0.2794628, 9.703921
1464876904665606, 5.8360944, 0.8135597, 8.453842, -0.48585612, 0.18736792, 10.2916565
1464876907075346, 5.5800624, 0.7322037, 8.389236, -0.45878613, -0.0013713837, 10.0916815
1464876909485085, 5.4412785, -0.6125626, 8.047063, 0.84887433, -0.2757554, 9.692334
1464876911894825, 5.8073807, 1.2490535, 8.480164, -0.91192114, 0.2593441, 10.310193
1464876914304565, 5.5106707, 0.043070808, 8.257631, 0.21044374, -0.16853142, 9.923966
1464876916714252, 5.5657053, -0.39960137, 8.188239, 0.65744185, -0.20711327, 9.884781
1464876919123992, 5.831309, 1.4261223, 8.415557, -1.0672314, 0.3645606, 10.275588
1464876921533731, 5.5106707, -0.44506502, 8.142776, 0.6872089, -0.24358559, 9.815233
1464876923943471, 5.7403817, 0.07178468, 8.343773, 0.21843302, -0.033229828, 10.125556
1464876926353210, 5.802595, 1.2801601, 8.408379, -0.93315446, 0.31761932, 10.248809
1464876928762898, 5.5298133, -0.7178468, 8.049456, 0.96256137, -0.26869583, 9.741106
1464876931172638, 5.898308, 0.5982057, 8.427522, -0.2583533, 0.18832874, 10.298971
1464876933582377, 5.7403817, 0.8327023, 8.403593, -0.51706696, 0.14068031, 10.196991
1464876935992117, 5.56092, -0.715454, 8.018349, 0.9694884, -0.23104191, 9.733259
1464876938401856, 5.9413786, 1.1222339, 8.472985, -0.76439774, 0.32966042, 10.3758335
1464876940811544, 5.656633, 0.18664017, 8.310273, 0.085645914, -0.05814171, 10.053968
1464876943221283, 5.625526, -0.51206404, 8.145168, 0.7722508, -0.18015623, 9.88047
1464876945631023, 5.912665, 1.3567305, 8.415557, -0.99047744, 0.4007783, 10.318928
1464876948040763, 5.5968122, -0.38285163, 8.166703, 0.6400993, -0.1833229, 9.885474
1464876950450450, 5.7858453, -0.15553348, 8.298309, 0.44943488, -0.044925213, 10.10733
1464876952860190, 5.8743796, 1.2586247, 8.403593, -0.90360487, 0.34814453, 10.284706
1464876955269929, 5.582455, -0.76331043, 8.080562, 1.0122495, -0.23374796, 9.796053
1464876957679669, 5.9581285, 0.3493521, 8.432307, -0.022343993, 0.15063238, 10.329664
1464876960089408, 5.85763, 0.89491564, 8.456235, -0.57695097, 0.19289112, 10.307791
1464876962499096, 5.623133, -0.8446664, 8.042277, 1.1030141, -0.20368671, 9.7853565
1464876964908835, 6.0514483, 0.8757731, 8.484949, -0.51485455, 0.3231573, 10.440875
1464876967318575, 5.8097734, 0.29192436, 8.386844, 0.0068525076, 0.03699684, 10.206686
1464876969728315, 5.7140603, -0.6891329, 8.126026, 0.9652614, -0.14465857, 9.909845
1464876972138054, 6.0394845, 1.2394822, 8.456235, -0.8683572, 0.41946554, 10.420634
1464876974547742, 5.6949177, -0.30388847, 8.240881, 0.5681909, -0.12565613, 10.004896
1464876976957481, 5.800202, -0.2943172, 8.298309, 0.57511336, -0.071538925, 10.1121235
1464876979382533, 5.922236, 1.2921243, 8.4012, -0.9451829, 0.35328722, 10.310406
1464876981776960, 5.601598, -0.72263247, 8.10449, 0.97209144, -0.23082829, 9.827747
1464876984186700, 5.9270215, 0.15074782, 8.370093, 0.16552395, 0.09436178, 10.255461
1464876986596388, 5.8767724, 0.9810573, 8.410771, -0.64895105, 0.23763609, 10.284085
1464876989006127, 5.6350975, -0.8781659, 8.01117, 1.1379015, -0.20992184, 9.765525
1464876991415867, 6.0107703, 0.66999036, 8.437093, -0.32545006, 0.24735832, 10.372834
1464876993825606, 5.7930236, 0.46660042, 8.3581295, -0.16846633, 0.06676006, 10.178524
1464876996235346, 5.666204, -0.7609176, 8.042277, 1.0287137, -0.16432571, 9.812127
1464876998645033, 6.0107703, 1.18684, 8.439486, -0.83030134, 0.36584377, 10.3894005
1464877001054773, 5.6733823, -0.11964113, 8.228917, 0.39191186, -0.108804226, 9.987554
1464877003464513, 5.7116675, -0.43070808, 8.209774, 0.7053247, -0.14688349, 9.984487
1464877005874252, 5.919843, 1.3064811, 8.398808, -0.95886606, 0.32675695, 10.308501
1464877008283992, 5.5968122, -0.5982057, 8.128419, 0.8546105, -0.22463846, 9.847463
1464877010693679, 5.869594, 0.0741775, 8.367701, 0.2282759, 0.014412403, 10.218794
1464877013103419, 5.852844, 1.1509477, 8.4012, -0.8252148, 0.23488522, 10.267643
1464877015513158, 5.5944195, -0.7920243, 8.037491, 1.0507967, -0.23068094, 9.765692
1464877017922898, 5.986842, 0.6364908, 8.429914, -0.29660523, 0.20336676, 10.352853
1464877020332638, 5.812166, 0.7178468, 8.382058, -0.40141708, 0.1070838, 10.216793
1464877022742325, 5.6446686, -0.7082755, 8.025527, 0.98753124, -0.16574097, 9.786231
1464877025152065, 6.0227346, 1.1676974, 8.439486, -0.79857504, 0.35268354, 10.3970995
1464877027561804, 5.7188463, 0.14117654, 8.276773, 0.1491248, -0.048393726, 10.060097
1464877029971544, 5.7188463, -0.4354937, 8.154739, 0.7217774, -0.12329483, 9.9427595
1464877032381283, 5.977271, 1.4261223, 8.396415, -1.0543013, 0.40181732, 10.343518
1464877034790971, 5.6374903, -0.3469593, 8.126026, 0.6279833, -0.15293884, 9.875031
1464877037200710, 5.831309, 0.04546363, 8.269595, 0.2732972, 0.011742592, 10.115215
1464877039610450, 5.8887367, 1.3734802, 8.312666, -0.99681044, 0.370955, 10.22413
1464877042020190, 5.548956, -0.6053841, 7.9561353, 0.87859285, -0.20990133, 9.676855
1464877044429929, 5.8935223, 0.61734825, 8.3174515, -0.2682355, 0.17488384, 10.2074585
1464877046839669, 5.7427745, 0.9834501, 8.300702, -0.65141344, 0.15429783, 10.119296
1464877049249356, 5.505885, -0.65324056, 7.9154572, 0.92336994, -0.23445845, 9.617088
1464877051659096, 5.8839507, 1.1126626, 8.353344, -0.75069726, 0.26931953, 10.247008
1464877054068835, 5.6327047, 0.39720857, 8.224132, -0.09321451, -0.043738842, 9.975513
1464877056478575, 5.5657053, -0.44985065, 8.025527, 0.7331284, -0.21157455, 9.747117
1464877058888315, 5.8767724, 1.4883357, 8.350951, -1.1031545, 0.3633504, 10.25383
1464877061298002, 5.548956, -0.11964113, 8.114061, 0.39780247, -0.18922997, 9.820854
1464877063707742, 5.6733823, -0.03589234, 8.209774, 0.3342483, -0.12254763, 9.973074
1464877066117481, 5.804988, 1.4763715, 8.295917, -1.1033788, 0.33267927, 10.167187
1464877068527221, 5.4699926, -0.51206404, 7.9944205, 0.77849257, -0.2880683, 9.664614
1464877070936960, 5.7930236, 0.5024927, 8.305488, -0.16424876, 0.05594778, 10.137191
1464877073346648, 5.723632, 1.1653047, 8.315059, -0.8163153, 0.16349554, 10.127438
1464877075756388, 5.4723854, -0.63170516, 7.9274216, 0.9066022, -0.27934027, 9.606773
1464877078166127, 5.8624153, 1.038485, 8.360522, -0.6711836, 0.20985413, 10.239636
1464877080575867, 5.6470613, 0.60059845, 8.262417, -0.28498083, -0.016271114, 10.021779
1464877082985606, 5.5537415, -0.4881358, 7.9800634, 0.77942264, -0.21014786, 9.701138
1464877085395294, 5.8935223, 1.4476577, 8.353344, -1.0540365, 0.33783007, 10.265602
1464877087805033, 5.5776696, 0.023928227, 8.128419, 0.27703607, -0.14740515, 9.853107
1464877090214773, 5.6614184, -0.16271193, 8.135597, 0.4769519, -0.13532305, 9.900518
1464877092624513, 5.838487, 1.5457634, 8.312666, -1.1552763, 0.3391595, 10.204313
1464877095034252, 5.508278, -0.4139583, 8.023134, 0.6939068, -0.25845575, 9.712613
1464877097443992, 5.7930236, 0.3397808, 8.295917, -0.0023235083, 0.0053458214, 10.12407
1464877099853679, 5.773881, 1.3136597, 8.327023, -0.9518982, 0.21955061, 10.170959
1464877102263419, 5.5130634, -0.60059845, 7.9369926, 0.88767576, -0.2545085, 9.638347
1464877104673158, 5.8935223, 0.89491564, 8.3581295, -0.5188948, 0.18151999, 10.25137
1464877107082898, 5.6949177, 0.8039884, 8.286345, -0.46648687, 0.042569637, 10.07584
1464877109492638, 5.54417, -0.5240282, 7.941778, 0.8233286, -0.21147537, 9.662384
1464877111902377, 5.9270215, 1.3806586, 8.367701, -0.985507, 0.3216176, 10.294638
1464877114312065, 5.649454, 0.19621146, 8.161918, 0.12094319, -0.07457399, 9.927312
1464877116721804, 5.6470613, -0.24885355, 8.099705, 0.5585233, -0.15180302, 9.860093
1464877119131544, 5.8743796, 1.579263, 8.315059, -1.1825762, 0.3572755, 10.22822
1464877121541283, 5.5274205, -0.28953153, 8.070991, 0.57839006, -0.2411809, 9.766494
1464877123951023, 5.7355957, 0.17706887, 8.283952, 0.14818466, -0.08118868, 10.075898
1464877126360710, 5.759524, 1.4093726, 8.327023, -1.0422342, 0.21771908, 10.166815
1464877128770450, 5.4795637, -0.57427746, 7.982456, 0.85105795, -0.2996807, 9.657168
1464877131180190, 5.85763, 0.72741807, 8.374879, -0.3703848, 0.10179281, 10.2387495
1464877133589929, 5.7140603, 0.9595219, 8.362915, -0.6260081, 0.053926468, 10.154542
1464877135999669, 5.5298133, -0.59581286, 7.982456, 0.8841478, -0.25954962, 9.685265
1464877138409408, 5.9150577, 1.2394822, 8.449057, -0.8635725, 0.22899437, 10.349522
1464877140819096, 5.6446686, 0.3397808, 8.274381, -0.026257694, -0.10538149, 10.0215435
1464877143228835, 5.5872407, -0.38524446, 8.123632, 0.6811018, -0.24167252, 9.840569
1464877145638575, 5.8767724, 1.5146568, 8.413164, -1.1313716, 0.2852273, 10.307794
1464877148048315, 5.548956, -0.20817557, 8.154739, 0.49282396, -0.24445248, 9.850451
1464877150458054, 5.7140603, 0.03589234, 8.30788, 0.27467453, -0.1412034, 10.078555
1464877152867794, 5.8241305, 1.4739788, 8.396415, -1.1064372, 0.24207115, 10.262071
1464877155277481, 5.5130634, -0.5312066, 8.082955, 0.8088488, -0.31094742, 9.760087
1464877157687221, 5.8360944, 0.5407779, 8.432307, -0.19636214, 0.0062713623, 10.267309
1464877160096960, 5.7690954, 1.1174482, 8.415557, -0.7671268, 0.10870695, 10.234864
1464877162506700, 5.5250273, -0.61734825, 8.015956, 0.90211314, -0.2982459, 9.708751
1464877164916440, 5.938986, 1.105484, 8.46102, -0.7255795, 0.2163105, 10.368668
1464877167326179, 5.7020965, 0.5383851, 8.348558, -0.21860445, -0.052794456, 10.12184
1464877169735867, 5.608776, -0.4331009, 8.090134, 0.72775584, -0.23282766, 9.824071
1464877172145606, 5.946164, 1.4883357, 8.429914, -1.0915611, 0.33638668, 10.360058
1464877174555346, 5.6303115, -0.050249275, 8.188239, 0.35609603, -0.18048716, 9.929291
1464877176965085, 5.7427745, -0.076570325, 8.233703, 0.40208316, -0.12445831, 10.030056
1464877179374825, 5.8935223, 1.5337993, 8.34138, -1.1298171, 0.3531475, 10.259804
1464877181784565, 5.582455, -0.4833502, 8.035098, 0.7815837, -0.24504042, 9.761625
1464877184194252, 5.8887367, 0.36610186, 8.312666, -0.005469322, 0.059187412, 10.193535
1464877186603992, 5.852844, 1.2346965, 8.343773, -0.85489404, 0.23528385, 10.228032
1464877189013731, 5.615955, -0.62931234, 7.948957, 0.93721235, -0.2139864, 9.7055025
1464877191423471, 6.0251274, 0.9236295, 8.384451, -0.5197289, 0.26689386, 10.349539
1464877193833210, 5.8360944, 0.70348984, 8.303095, -0.33661044, 0.10383749, 10.167212
1464877196242950, 5.733203, -0.55752766, 7.989635, 0.8932136, -0.1360879, 9.808077
1464877198652690, 6.099305, 1.3567305, 8.391629, -0.9174019, 0.43049812, 10.4132
1464877201062377, 5.7834525, 0.06460621, 8.17149, 0.2763939, -0.04155588, 10.007379
1464877203472117, 5.8193445, -0.22013968, 8.135597, 0.56369686, -0.06936121, 9.988924
1464877205881856, 6.0418773, 1.538585, 8.288737, -1.1036826, 0.45984936, 10.302675
1464877208291596, 5.6997037, -0.3804588, 8.001599, 0.71211475, -0.12094116, 9.804857
1464877210701335, 5.9724855, 0.2321038, 8.202596, 0.15877187, 0.12621021, 10.147211
1464877213111075, 5.977271, 1.3304094, 8.233703, -0.90756226, 0.3826561, 10.213791
1464877215520763, 5.6733823, -0.63888365, 7.867601, 0.9689578, -0.14574337, 9.671322
1464877217930502, 6.0394845, 0.7537391, 8.26481, -0.34144163, 0.27094603, 10.254784
1464877220340242, 5.852844, 0.849452, 8.2456665, -0.47468567, 0.1546297, 10.135044
1464877222749981, 5.682954, -0.6269195, 7.8987074, 0.9551729, -0.15754747, 9.702648
1464877225159721, 6.06102, 1.2227324, 8.319844, -0.79374427, 0.3629756, 10.329041
1464877227569460, 5.7762737, 0.23449662, 8.152347, 0.1178987, -0.013805389, 9.993348
1464877229979148, 5.7810597, -0.39481574, 8.02792, 0.74172163, -0.1016531, 9.872363
1464877232388888, 6.0323057, 1.4620147, 8.293523, -1.0291566, 0.4111824, 10.299539
1464877234798627, 5.697311, -0.35413775, 8.092526, 0.67159104, -0.1970439, 9.878456
1464877237208367, 5.8887367, -0.0071784677, 8.255239, 0.36002135, -0.051059246, 10.133805
1464877239618106, 5.919843, 1.3112668, 8.327023, -0.916965, 0.26310778, 10.256375
1464877242027846, 5.6207404, -0.6771688, 8.006385, 0.97957593, -0.29200172, 9.752367
1464877244437533, 5.938986, 0.5192425, 8.312666, -0.14323956, 0.082324505, 10.228112
1464877246847273, 5.7834525, 0.91884387, 8.303095, -0.55944383, 0.057605267, 10.1448345
1464877249257013, 5.5657053, -0.7322037, 7.884351, 1.0378752, -0.27649975, 9.618864
1464877251666752, 5.9342003, 1.0097711, 8.319844, -0.62002295, 0.18681669, 10.248651
1464877254076492, 5.6781683, 0.32542387, 8.193025, 0.0012250543, -0.10790062, 9.97304
1464877256486231, 5.6327047, -0.5479564, 7.984849, 0.8585147, -0.24660015, 9.746157
1464877258895919, 5.9246287, 1.3615161, 8.312666, -0.95768833, 0.27059126, 10.250121
1464877261305658, 5.611169, -0.24885355, 8.10449, 0.55461806, -0.25935125, 9.841496
1464877263715398, 5.757131, -0.16271193, 8.195417, 0.49336827, -0.1749258, 10.003095
1464877266125138, 5.8911295, 1.3974084, 8.310273, -0.995373, 0.26250648, 10.230305
1464877268534877, 5.608776, -0.6029913, 8.013563, 0.90515774, -0.3116088, 9.75309
1464877270944617, 5.953343, 0.4019942, 8.286345, -0.022679567, 0.06396675, 10.210916
1464877273354356, 5.8911295, 1.1126626, 8.300702, -0.7239429, 0.19047165, 10.211988
1464877275764044, 5.6781683, -0.6628119, 7.893922, 0.98906547, -0.20998573, 9.693945
1464877278173783, 6.0801625, 1.0025927, 8.288737, -0.57315123, 0.30229998, 10.308098
1464877280583523, 5.8504515, 0.6053841, 8.200203, -0.22882622, 0.07506323, 10.088589
1464877282993263, 5.759524, -0.50009996, 7.893922, 0.85696024, -0.09280157, 9.746448
1464877285403002, 6.101698, 1.4285151, 8.252846, -0.9678401, 0.46455383, 10.306713
1464877287812742, 5.802595, 0.02871387, 8.04467, 0.33036435, -0.031339645, 9.913504
1464877290222481, 5.869594, -0.17228323, 7.9944205, 0.5463126, -0.004986763, 9.904248
1464877292632169, 6.04427, 1.5529419, 8.159525, -1.0906825, 0.49639606, 10.202288
1464877295041908, 5.7140603, -0.4139583, 7.9130645, 0.7593502, -0.1439681, 9.73864
1464877297451648, 5.9820566, 0.33260235, 8.133204, 0.07203454, 0.12840605, 10.100641
1464877299861388, 5.9437714, 1.3136597, 8.19781, -0.8929146, 0.3089571, 10.166881
1464877302271127, 5.692525, -0.6125626, 7.810173, 0.95865273, -0.15224886, 9.6351795
1464877304680867, 6.0634127, 0.863809, 8.195417, -0.4379757, 0.27820444, 10.217964
1464877307090606, 5.869594, 0.7848458, 8.200203, -0.40570349, 0.1041379, 10.1062355
1464877309500294, 5.7116675, -0.567099, 7.82453, 0.9107706, -0.14424324, 9.6601095
1464877311910033, 6.058627, 1.3040884, 8.240881, -0.8702842, 0.3590355, 10.268079
1464877314319773, 5.7523456, 0.15314065, 8.097312, 0.19453424, -0.09454012, 9.931395
1464877316729513, 5.7690954, -0.3469593, 7.999206, 0.6953243, -0.14238977, 9.843088
1464877319139252, 6.005985, 1.4691931, 8.252846, -1.0452306, 0.32512665, 10.2538595
1464877321548992, 5.680561, -0.35413775, 8.054241, 0.67583305, -0.2520399, 9.83589
1464877323958731, 5.905486, 0.09810573, 8.236095, 0.25929737, -0.07741022, 10.131359
1464877326368419, 5.946164, 1.3639089, 8.346166, -0.97034097, 0.19449472, 10.290588
1464877328778158, 5.666204, -0.6269195, 8.087741, 0.9263419, -0.36443377, 9.844772
1464877331187898, 6.0370917, 0.67477596, 8.482556, -0.29837638, 0.018279552, 10.429104
1464877333597638, 5.871987, 0.94755775, 8.518449, -0.5999278, -0.06979513, 10.371947
1464877336007377, 5.6757755, -0.62931234, 8.145168, 0.92829514, -0.3846326, 9.896694
1464877338417117, 6.0514483, 1.2035898, 8.573483, -0.8199746, 0.09063721, 10.530561
1464877340826856, 5.7834525, 0.35174492, 8.410771, -0.030989468, -0.22438002, 10.210868
1464877343236544, 5.757131, -0.3684947, 8.166703, 0.68754464, -0.2709484, 9.971423
1464877345646283, 6.0370917, 1.5337993, 8.386844, -1.1209438, 0.26689482, 10.38318
1464877348056023, 5.7355957, -0.16031912, 8.106883, 0.49471533, -0.19631052, 9.917713
1464877350465763, 5.8911295, 0.05742774, 8.118847, 0.31240225, -0.032820225, 10.026252
1464877352875502, 5.977271, 1.5433706, 8.195417, -1.123456, 0.31947088, 10.1936455
1464877355285242, 5.6470613, -0.4426722, 7.853244, 0.7749774, -0.18699598, 9.650034
1464877357694981, 5.986842, 0.60777694, 8.133204, -0.20527995, 0.16102743, 10.113982
1464877360104669, 5.895915, 1.2011969, 8.193025, -0.8075477, 0.19218159, 10.131204
1464877362514408, 5.680561, -0.5455636, 7.7814593, 0.8911799, -0.14409351, 9.607423
1464877364924148, 6.0777693, 1.1437693, 8.243274, -0.71544075, 0.2800827, 10.276611
1464877367333888, 5.8337016, 0.61734825, 8.207381, -0.2476129, -0.0071573257, 10.085282
1464877369743627, 5.74756, -0.3900301, 7.941778, 0.7434008, -0.14358902, 9.7818775
1464877372153367, 6.0634127, 1.5361922, 8.338987, -1.1118534, 0.2966318, 10.360472
1464877374563106, 5.7284174, 0.023928227, 8.17149, 0.30522174, -0.21003103, 9.972528
1464877376972794, 5.838487, -0.021535404, 8.195417, 0.36997062, -0.14813614, 10.054574
1464877379382533, 6.0011992, 1.6127625, 8.362915, -1.2019596, 0.26365376, 10.345992
1464877381792273, 5.6757755, -0.3804588, 8.109276, 0.696895, -0.31190777, 9.876061
1464877384202013, 5.95095, 0.45702913, 8.348558, -0.08498645, -0.039191723, 10.262182
1464877386611752, 5.8887367, 1.3447664, 8.4012, -0.9624815, 0.089084625, 10.302013
1464877389021492, 5.625526, -0.55513483, 7.982456, 0.8718922, -0.3233571, 9.737021
1464877391431231, 6.020342, 0.971486, 8.367701, -0.5722779, 0.12531519, 10.337482
1464877393840971, 5.831309, 0.782453, 8.322237, -0.4250852, -0.034097195, 10.183033
1464877396250658, 5.7116675, -0.5240282, 7.9154572, 0.86003864, -0.21887445, 9.734713
1464877398660398, 6.087341, 1.4069797, 8.288737, -0.9640562, 0.33988, 10.329257
1464877401070138, 5.771488, 0.15074782, 8.085348, 0.20527643, -0.10107708, 9.932436
1464877403479877, 5.8193445, -0.22013968, 7.982456, 0.5868349, -0.09631491, 9.863022
1464877405889617, 6.029913, 1.5672989, 8.166703, -1.1179659, 0.40510225, 10.202812
1464877408299356, 5.6997037, -0.3589234, 7.9393854, 0.69890785, -0.20154428, 9.752959
1464877410709096, 5.9294147, 0.2440679, 8.128419, 0.13995534, 0.020884514, 10.063233
1464877413118835, 5.9246287, 1.3782659, 8.2145605, -0.96812195, 0.2534542, 10.172428
1464877415528523, 5.6733823, -0.59581286, 7.8867435, 0.9257314, -0.24545765, 9.68637
1464877417938263, 6.056234, 0.7800602, 8.252846, -0.36537403, 0.17844582, 10.258197
1464877420348002, 5.8743796, 0.930808, 8.29113, -0.55251485, 0.04801941, 10.188717
1464877422757742, 5.721239, -0.57906306, 7.9034934, 0.9212061, -0.21560669, 9.728205
1464877425167481, 6.1160545, 1.2873386, 8.303095, -0.8468728, 0.32590723, 10.352842
1464877427577221, 5.8337016, 0.32063824, 8.183454, 0.036867023, -0.072423935, 10.05471
1464877429986960, 5.845666, -0.32542387, 8.025527, 0.67897344, -0.13967657, 9.909908
1464877432396648, 6.099305, 1.5577276, 8.274381, -1.1119529, 0.39795113, 10.329501
1464877434806388, 5.7810597, -0.2321038, 8.087741, 0.5693415, -0.20434618, 9.925733
1464877437216127, 5.986842, 0.10049855, 8.2049885, 0.28223008, -0.0265522, 10.153515
1464877439625867, 6.029913, 1.4500505, 8.32463, -1.0288666, 0.27122974, 10.326173
1464877442035606, 5.7427745, -0.55034924, 8.042277, 0.87720436, -0.2838893, 9.8544655
1464877444445346, 6.108876, 0.634098, 8.338987, -0.22865522, 0.12296152, 10.353346
1464877446855085, 5.960521, 1.0600204, 8.367701, -0.6768688, 0.10198212, 10.305404
1464877449264825, 5.7379885, -0.6029913, 7.941778, 0.92991835, -0.25423813, 9.768858
1464877451674513, 6.1208405, 1.1581261, 8.322237, -0.7252511, 0.2758255, 10.36646
1464877454084252, 5.8672013, 0.45942193, 8.238488, -0.098027825, -0.052939415, 10.124001
1464877456493992, 5.7930236, -0.44506502, 7.9680996, 0.79210913, -0.18208027, 9.82788
1464877458903731, 6.108876, 1.4620147, 8.271988, -1.019088, 0.36720896, 10.329969
1464877461313471, 5.7786665, -0.1268196, 8.109276, 0.45811123, -0.19553757, 9.94592
1464877463723210, 5.912665, -0.086141616, 8.147561, 0.44439232, -0.102983475, 10.056923
1464877466132950, 6.0418773, 1.4668003, 8.286345, -1.0394502, 0.3183422, 10.302305
1464877468542690, 5.7379885, -0.552742, 8.015956, 0.8709208, -0.2916174, 9.830668
1464877470952377, 6.0658054, 0.42592242, 8.267202, -0.027719498, 0.07509422, 10.262341
1464877473362117, 5.9916277, 1.160519, 8.3174515, -0.75727427, 0.1788702, 10.286932
1464877475771856, 5.749953, -0.6795616, 7.9298143, 1.0058792, -0.2615099, 9.763479
1464877478181596, 6.1328044, 0.9762716, 8.34138, -0.5564607, 0.22263765, 10.381897
1464877480591335, 5.898308, 0.59581286, 8.3174515, -0.23944163, -0.043115616, 10.211064
1464877483001075, 5.7667027, -0.55034924, 8.013563, 0.87222654, -0.26499414, 9.846013
1464877485410815, 6.111269, 1.3639089, 8.405986, -0.9411603, 0.26924896, 10.436005
1464877487820554, 5.759524, -0.0047856453, 8.260024, 0.31606424, -0.27584553, 10.061022
1464877490230242, 5.8097734, -0.2321038, 8.185846, 0.5562823, -0.2541108, 10.022045
1464877492639981, 5.9988065, 1.5122639, 8.374879, -1.106454, 0.23760414, 10.350387
1464877495049721, 5.690132, -0.46181476, 8.106883, 0.74838555, -0.3733139, 9.879929
1464877497459460, 5.9916277, 0.21296121, 8.279166, 0.15148687, -0.05167818, 10.220759
1464877499869200, 5.977271, 1.2634103, 8.338987, -0.8684683, 0.1948781, 10.299051
1464877502278940, 5.7140603, -0.6771688, 7.9561353, 0.9826906, -0.3276024, 9.764023
1464877504688679, 6.099305, 0.8350951, 8.336594, -0.42412996, 0.1657567, 10.353278
1464877507098419, 5.8743796, 0.78723866, 8.32463, -0.42943537, -0.014387608, 10.209944
1464877509508158, 5.7140603, -0.60059845, 7.932207, 0.91986275, -0.28078747, 9.747109
1464877511917898, 6.068198, 1.3184453, 8.338987, -0.90065074, 0.269372, 10.35453
1464877514327585, 5.7690954, 0.19142582, 8.193025, 0.13325548, -0.17773104, 10.019751
1464877516737325, 5.7667027, -0.2943172, 8.039884, 0.6147996, -0.22550917, 9.876863
1464877519147065, 6.0155563, 1.5553347, 8.269595, -1.132626, 0.34306335, 10.275782
1464877521556804, 5.6781683, -0.31345975, 8.049456, 0.61385524, -0.3051157, 9.831768
1464877523966544, 5.907879, 0.1268196, 8.1738825, 0.2299583, -0.078262806, 10.083277
1464877526376283, 5.9724855, 1.430908, 8.250452, -1.0183791, 0.27444983, 10.231111
1464877528786023, 5.692525, -0.60059845, 7.9011, 0.91731966, -0.28083372, 9.709408
1464877531195710, 6.0658054, 0.66999036, 8.221739, -0.26502967, 0.16200638, 10.234423
1464877533605450, 5.922236, 0.96430755, 8.262417, -0.58765674, 0.105864525, 10.19381
1464877536015190, 5.7188463, -0.62452674, 7.8460655, 0.94534993, -0.24387503, 9.680021
1464877538424929, 6.113662, 1.2083755, 8.262417, -0.77352643, 0.3187213, 10.315263
1464877540834669, 5.831309, 0.3469593, 8.17149, -0.001262188, -0.08165455, 10.044457
1464877543244408, 5.790631, -0.40438703, 7.960921, 0.7365258, -0.19973135, 9.822873
1464877545654148, 6.0634127, 1.5002998, 8.262417, -1.0777297, 0.32894897, 10.296295
1464877548063888, 5.716453, -0.21774685, 8.070991, 0.52547693, -0.25756407, 9.875406
1464877550473627, 5.8887367, -0.021535404, 8.147561, 0.36468077, -0.11887121, 10.045561
1464877552883367, 5.9964137, 1.4596218, 8.281559, -1.0610268, 0.25555277, 10.270374
1464877555293054, 5.6877394, -0.56470615, 7.999206, 0.85838234, -0.3426652, 9.787867
1464877557702794, 6.029913, 0.47856453, 8.274381, -0.10154855, 0.040863514, 10.249014
1464877560112533, 5.9294147, 1.0959128, 8.34138, -0.7267033, 0.084783554, 10.266563
1464877562522273, 5.7140603, -0.67477596, 7.9154572, 0.9773303, -0.30829144, 9.731909
1464877564932013, 6.1184473, 1.0025927, 8.322237, -0.59875196, 0.21659231, 10.358322
1464877567341752, 5.8839507, 0.48095736, 8.276773, -0.14451158, -0.080239296, 10.16513
1464877569751492, 5.7930236, -0.55034924, 7.960921, 0.87073255, -0.22737312, 9.819796
1464877572161231, 6.128019, 1.3782659, 8.30788, -0.96181744, 0.31659985, 10.365703
1464877574570919, 5.7930236, -0.1268196, 8.135597, 0.44290072, -0.223495, 9.975823
1464877576980658, 5.895915, -0.19860429, 8.10449, 0.5386408, -0.1431055, 10.008667
1464877579390398, 6.0370917, 1.4596218, 8.255239, -1.0541841, 0.28756046, 10.272875
1464877581800138, 5.7116675, -0.5407779, 8.01117, 0.8338282, -0.31787634, 9.813161
1464877584209877, 6.029913, 0.27996024, 8.23131, 0.083162785, 0.005543232, 10.207143
1464877586619617, 5.977271, 1.1724831, 8.32463, -0.80385196, 0.13070154, 10.282932
1464877589029356, 5.7116675, -0.715454, 7.9346, 1.0115857, -0.31869316, 9.745153
1464877591439096, 6.108876, 0.8039884, 8.310273, -0.41636807, 0.1499753, 10.335838
1464877593848835, 5.9342003, 0.6436693, 8.32463, -0.29845876, -0.035940647, 10.239049
1464877596258575, 5.7954164, -0.63170516, 7.9657063, 0.9469647, -0.25667238, 9.8222065
1464877598668263, 6.135197, 1.308874, 8.322237, -0.9003961, 0.2912383, 10.378723
1464877601078002, 5.8265233, 0.0526421, 8.178668, 0.26228315, -0.18346357, 10.036898
1464877603487742, 5.8911295, -0.32063824, 8.087741, 0.6442468, -0.17552853, 9.988689
1464877605897481, 6.1064835, 1.4380864, 8.267202, -1.0268148, 0.33303356, 10.321754
1464877608307221, 5.7690954, -0.48095736, 8.02792, 0.7816896, -0.27723026, 9.862728
1464877610716960, 6.003592, 0.1268196, 8.178668, 0.22846788, -0.028139591, 10.143807
1464877613126700, 6.0083776, 1.2753744, 8.219346, -0.88421273, 0.24160814, 10.219816
1464877615536440, 5.7379885, -0.69152576, 7.8723865, 0.9944722, -0.2603588, 9.71187
1464877617946179, 6.1160545, 0.66999036, 8.207381, -0.2802773, 0.17784977, 10.252118
1464877620355919, 5.9318075, 0.8135597, 8.224132, -0.4636472, 0.059732437, 10.161987
1464877622765606, 5.761917, -0.6963114, 7.8699937, 1.0028372, -0.24291754, 9.724024
1464877625175346, 6.135197, 1.1581261, 8.269595, -0.7518109, 0.29298592, 10.330395
1464877627585085, 5.8672013, 0.19860429, 8.159525, 0.12593591, -0.11096096, 10.05053
1464877629994825, 5.8169518, -0.45702913, 7.9944205, 0.7669258, -0.23051786, 9.864849
1464877632404565, 6.101698, 1.4117653, 8.224132, -0.99734735, 0.35702705, 10.282897
1464877634814304, 5.7762737, -0.37088752, 8.042277, 0.6593368, -0.2695222, 9.883003
1464877637224044, 5.986842, -0.03589234, 8.142776, 0.37502456, -0.06685543, 10.099666
1464877639633783, 6.058627, 1.3351951, 8.2145605, -0.94433206, 0.2907772, 10.24658
1464877642043523, 5.7547383, -0.66999036, 7.941778, 0.96182084, -0.29175663, 9.778933
1464877644453210, 6.099305, 0.4953143, 8.228917, -0.12406856, 0.1014967, 10.253596
1464877646862950, 5.9748783, 0.93320084, 8.276773, -0.5779035, 0.09188223, 10.233895
1464877649272690, 5.7427745, -0.73459655, 7.905886, 1.0181738, -0.3153696, 9.740946
1464877651682429, 6.128019, 1.0049855, 8.300702, -0.6199382, 0.21499443, 10.345712
1464877654092169, 5.8743796, 0.33499518, 8.228917, -0.023968458, -0.116931915, 10.115404
1464877656501908, 5.7930236, -0.60059845, 7.972885, 0.88818204, -0.2812705, 9.829484
1464877658911648, 6.099305, 1.3304094, 8.260024, -0.93622434, 0.29917383, 10.306964
1464877661321388, 5.7762737, -0.25842485, 8.10449, 0.53996944, -0.28127623, 9.937012
1464877663731127, 5.9030933, -0.23449662, 8.133204, 0.5421561, -0.19530392, 10.035857
1464877666140867, 6.0634127, 1.3830515, 8.240881, -0.9923668, 0.2980523, 10.272114
1464877668550606, 5.757131, -0.64845496, 8.003992, 0.9227679, -0.34617472, 9.831461
1464877670960294, 6.053841, 0.31106696, 8.200203, 0.03621149, 0.02727747, 10.197404
1464877673370033, 5.977271, 1.0767702, 8.226524, -0.72235584, 0.15930367, 10.198811
1464877675779773, 5.7355957, -0.7728817, 7.865208, 1.0545058, -0.2970209, 9.703386
1464877678189513, 6.135197, 0.863809, 8.226524, -0.4825676, 0.20945978, 10.285221
1464877680599252, 5.9174504, 0.5096712, 8.202596, -0.18483555, -0.033861637, 10.125377
1464877683008992, 5.8241305, -0.6556334, 7.881958, 0.9613875, -0.21074915, 9.772765
1464877685418731, 6.1495543, 1.2849457, 8.228917, -0.8910583, 0.3225069, 10.309471
1464877687828471, 5.84088, -0.086141616, 8.111669, 0.37415636, -0.19831705, 9.987149
1464877690238210, 5.9294147, -0.33260235, 8.078169, 0.63658226, -0.17516375, 10.004473
1464877692647950, 6.128019, 1.442872, 8.250452, -1.0524466, 0.34425354, 10.318832
1464877695057690, 5.802595, -0.50009996, 8.049456, 0.77263653, -0.3147459, 9.900398
1464877697467377, 6.0729837, 0.2009971, 8.200203, 0.14194179, -0.0037236214, 10.20513
1464877699877117, 6.046663, 1.2610176, 8.262417, -0.89250517, 0.2270813, 10.274808
1464877702286856, 5.7834525, -0.6963114, 7.905886, 0.9762136, -0.29970503, 9.766953
1464877704696596, 6.168697, 0.7896315, 8.219346, -0.40992093, 0.21754122, 10.296534
1464877707106335, 6.003592, 0.7609176, 8.200203, -0.42133456, 0.089231014, 10.182335
1464877709516075, 5.8265233, -0.6269195, 7.8053875, 0.92679656, -0.18821621, 9.7144785
1464877711925815, 6.218946, 1.2873386, 8.147561, -0.87134063, 0.42581272, 10.284684
1464877714335554, 5.9318075, 0.17467605, 8.047063, 0.15031886, -0.036827564, 9.997406
1464877716745294, 5.948557, -0.35174492, 7.932207, 0.6755974, -0.10396385, 9.897562
1464877719155033, 6.195018, 1.5337993, 8.183454, -1.1129867, 0.45594454, 10.307915
1464877721564773, 5.8743796, -0.3493521, 8.047063, 0.63796186, -0.23032427, 9.946135
1464877723974460, 6.0777693, 0.06699903, 8.178668, 0.26264596, -0.037992954, 10.1864605
1464877726384200, 6.113662, 1.3663018, 8.255239, -0.98723435, 0.3048296, 10.311405
1464877728793940, 5.8337016, -0.6723832, 7.941778, 0.951095, -0.2856369, 9.826996
1464877731203679, 6.1998034, 0.5838487, 8.200203, -0.20866936, 0.17989397, 10.293
1464877733613419, 6.06102, 0.9068798, 8.209774, -0.5508213, 0.14927197, 10.2290325
1464877736023158, 5.8600225, -0.6963114, 7.8077803, 0.99400973, -0.2071271, 9.734228
1464877738432898, 6.250053, 1.1174482, 8.159525, -0.7050345, 0.3846264, 10.307507
1464877740842638, 5.9653068, 0.26799613, 8.087741, 0.053578973, -0.024744034, 10.053099
1464877743252377, 5.9294147, -0.5168497, 7.8580294, 0.82721424, -0.13609505, 9.82196
1464877745662117, 6.2261243, 1.4069797, 8.118847, -0.9851254, 0.46418142, 10.270053
1464877748071856, 5.881558, -0.28235307, 8.006385, 0.5719439, -0.19785213, 9.920101
1464877750481544, 6.017949, -0.1052842, 8.0614195, 0.42672014, -0.076508045, 10.051138
1464877752891283, 6.1471615, 1.4237294, 8.195417, -1.0312641, 0.3599701, 10.28525
1464877755301023, 5.838487, -0.6149554, 7.9633136, 0.87779, -0.3076439, 9.849635
1464877757710763, 6.192625, 0.4331009, 8.202596, -0.07587874, 0.11816168, 10.285866
1464877760120502, 6.1064835, 1.0935199, 8.271988, -0.74189806, 0.19367647, 10.3112955
1464877762530242, 5.8672013, -0.6891329, 7.891529, 0.9645567, -0.26820278, 9.806779
1464877764939981, 6.276374, 0.9882358, 8.240881, -0.59677184, 0.29982567, 10.384391
1464877767349721, 6.0418773, 0.4881358, 8.216953, -0.16640192, 8.535385E-5, 10.209466
1464877769759460, 5.960521, -0.5694918, 7.905886, 0.87515736, -0.1637001, 9.877373
