timestamp_acc,device_acc_x,device_acc_y,device_acc_z,earth_acc_x,earth_acc_y,earth_acc_z
1464904481678106, 6.4701924, 0.4331009, 7.635497, 0.0057457685, 0.050714016, 10.017443
1464904484087846, 6.474978, 0.43070808, 7.6331043, 0.009314835, 0.055221558, 10.018581
1464904486497585, 6.503692, 0.4546363, 7.6307116, -0.0068026185, 0.083340645, 10.036209
1464904488907325, 6.498906, 0.45224348, 7.618747, -0.0047564507, 0.0862689, 10.02388
1464904491317065, 6.513263, 0.44985065, 7.60439, 0.0025894046, 0.10525656, 10.022008
1464904493726804, 6.5228343, 0.45942193, 7.597212, -0.0036215186, 0.119222164, 10.023066
1464904496136544, 6.513263, 0.46660042, 7.597212, -0.013507307, 0.11316633, 10.017233
1464904498546283, 6.5228343, 0.485743, 7.597212, -0.030473113, 0.12383938, 10.024204
1464904500955971, 6.5276203, 0.48095736, 7.5996046, -0.025109947, 0.12465191, 10.028906
1464904503365710, 6.532406, 0.48095736, 7.623533, -0.027487338, 0.11176586, 10.050306
1464904505775450, 6.532406, 0.4761717, 7.645068, -0.025870144, 0.09692764, 10.066583
1464904508185190, 6.530013, 0.485743, 7.6546397, -0.036876142, 0.09150028, 10.072776
1464904510594929, 6.5252275, 0.5072784, 7.6594253, -0.059492648, 0.08901358, 10.074287
1464904513004669, 6.5347986, 0.526421, 7.661818, -0.07625687, 0.09928036, 10.083079
1464904515414408, 6.5515485, 0.51445687, 7.6737823, -0.061592102, 0.10073805, 10.102497
1464904517824148, 6.5347986, 0.5168497, 7.678568, -0.06828022, 0.08605957, 10.095497
1464904520233888, 6.532406, 0.5072784, 7.6713896, -0.05804056, 0.085700035, 10.08807
1464904522643627, 6.5371914, 0.5024927, 7.6546397, -0.050113082, 0.0985322, 10.078128
1464904525053367, 6.5276203, 0.49052864, 7.6594253, -0.039994836, 0.08470678, 10.07514
1464904527463106, 6.532406, 0.50488555, 7.664211, -0.053431988, 0.08887243, 10.08249
1464904529872846, 6.532406, 0.53359944, 7.6737823, -0.0824371, 0.09018755, 10.091038
1464904532282585, 6.5228343, 0.5288138, 7.6737823, -0.07916844, 0.08180809, 10.084691
1464904534692325, 6.541977, 0.5288138, 7.661818, -0.072158754, 0.10324955, 10.087849
1464904537102065, 6.541977, 0.5240282, 7.661818, -0.06753683, 0.102025986, 10.087643
1464904539511752, 6.539584, 0.52163535, 7.661818, -0.065758586, 0.09965992, 10.086003
1464904541921544, 6.5347986, 0.50488555, 7.6666036, -0.05128312, 0.088852406, 10.085871
1464904544331231, 6.532406, 0.485743, 7.676175, -0.033463955, 0.075770855, 10.090841
1464904546741023, 6.530013, 0.485743, 7.6833534, -0.03513807, 0.06939745, 10.094794
1464904549150710, 6.515656, 0.49052864, 7.7072816, -0.045032024, 0.04441881, 10.104088
1464904551560450, 6.506085, 0.49052864, 7.704889, -0.045893252, 0.038463116, 10.096111
1464904553970190, 6.5108705, 0.4761717, 7.7001033, -0.030336142, 0.04136896, 10.094906
1464904556379929, 6.5252275, 0.46899325, 7.6977105, -0.020172536, 0.051502705, 10.101992
1464904558789669, 6.5347986, 0.4833502, 7.704889, -0.03178084, 0.057435513, 10.11426
1464904561199408, 6.515656, 0.47377887, 7.7144604, -0.026865065, 0.034866333, 10.108869
1464904563609148, 6.4941206, 0.46899325, 7.704889, -0.025681913, 0.023898602, 10.0875
1464904566018888, 6.4797635, 0.4642076, 7.7072816, -0.024463058, 0.010653019, 10.079897
1464904568428627, 6.489335, 0.48095736, 7.7072816, -0.03812635, 0.020786285, 10.086779
1464904570838367, 6.489335, 0.4833502, 7.692925, -0.037921846, 0.030746937, 10.075903
1464904573248106, 6.4701924, 0.47377887, 7.7001033, -0.03313774, 0.009902954, 10.068677
1464904575657846, 6.463014, 0.485743, 7.7096744, -0.04629773, 0.0014367104, 10.071913
1464904578067585, 6.4606214, 0.47856453, 7.6977105, -0.03846407, 0.0056943893, 10.060908
1464904580477325, 6.448657, 0.485743, 7.702496, -0.04749745, -0.0042066574, 10.057201
1464904582887065, 6.439086, 0.49052864, 7.7144604, -0.055348277, -0.017832756, 10.060416
1464904585296804, 6.45105, 0.48095736, 7.7096744, -0.042429686, -0.0071368217, 10.064023
1464904587706544, 6.439086, 0.46181476, 7.704889, -0.02572012, -0.017371655, 10.051838
1464904590116283, 6.431907, 0.4546363, 7.719246, -0.021883845, -0.03342676, 10.057896
1464904592525971, 6.4343, 0.46181476, 7.692925, -0.024610221, -0.012957096, 10.039614
1464904594935710, 6.439086, 0.44506502, 7.685746, -0.0061423182, -0.008358479, 10.036458
1464904597345450, 6.431907, 0.4331009, 7.692925, 0.003375709, -0.020943642, 10.036816
1464904599755190, 6.4366927, 0.4235296, 7.7001033, 0.012854099, -0.02408123, 10.044961
1464904602164929, 6.4343, 0.42831525, 7.6833534, 0.009679258, -0.014075279, 10.030817
1464904604574669, 6.448657, 0.43788654, 7.664211, 0.00530833, 0.010825157, 10.025812
1464904606984408, 6.4534426, 0.42831525, 7.6666036, 0.015326083, 0.010706425, 10.030294
1464904609394148, 6.458228, 0.42592242, 7.664211, 0.018672824, 0.015263557, 10.031435
1464904611803888, 6.4438715, 0.44027936, 7.647461, 0.003354609, 0.018175602, 10.010027
1464904614213627, 6.431907, 0.45224348, 7.645068, -0.010465622, 0.013466358, 10.001037
1464904616623367, 6.4414787, 0.45224348, 7.647461, -0.009319842, 0.018502235, 10.009016
1464904619033106, 6.4438715, 0.4546363, 7.645068, -0.01123935, 0.021728516, 10.008829
1464904621442846, 6.4366927, 0.45702913, 7.6426754, -0.014716864, 0.018453121, 10.002491
1464904623852585, 6.4414787, 0.47856453, 7.6570325, -0.036376715, 0.01750803, 10.017495
1464904626262325, 6.431907, 0.47856453, 7.652247, -0.038006186, 0.012870789, 10.007683
1464904628672065, 6.4271216, 0.47856453, 7.647461, -0.038422048, 0.012362003, 10.000946
1464904631081804, 6.4366927, 0.49292147, 7.6426754, -0.050144553, 0.025146008, 10.004066
1464904633491544, 6.4462643, 0.4953143, 7.645068, -0.050758243, 0.031044006, 10.012154
1464904635901283, 6.4534426, 0.5024927, 7.635497, -0.055412352, 0.043919563, 10.009757
1464904638311023, 6.458228, 0.4881358, 7.6163545, -0.038459778, 0.05653906, 9.997559
1464904640720763, 6.45105, 0.49292147, 7.6139617, -0.043964624, 0.053462505, 9.991329
1464904643130450, 6.463014, 0.485743, 7.623533, -0.035669982, 0.054710865, 10.006023
1464904645540190, 6.4534426, 0.4977071, 7.6331043, -0.049919546, 0.04356289, 10.007723
1464904647949929, 6.4558353, 0.47138608, 7.635497, -0.023651302, 0.037608147, 10.009937
1464904650359669, 6.4701924, 0.45702913, 7.635497, -0.0068902373, 0.04518795, 10.018532
1464904652769408, 6.4606214, 0.44985065, 7.652247, -0.0034750104, 0.025906563, 10.024878
1464904655179148, 6.45105, 0.45224348, 7.6666036, -0.008708417, 0.009737968, 10.029816
1464904657588888, 6.4677997, 0.45942193, 7.6666036, -0.012468874, 0.023708344, 10.040896
1464904659998627, 6.45105, 0.47138608, 7.6666036, -0.027136147, 0.013607025, 10.030659
1464904662408367, 6.4462643, 0.45702913, 7.6713896, -0.014568269, 0.0039134026, 10.030611
1464904664818106, 6.45105, 0.44027936, 7.676175, 0.0031268597, 0.0015258789, 10.036612
1464904667227846, 6.4534426, 0.46181476, 7.6713896, -0.016983569, 0.010831833, 10.035439
1464904669637585, 6.458228, 0.45702913, 7.668997, -0.011169374, 0.014913082, 10.036471
1464904672047325, 6.45105, 0.44506502, 7.6953177, -0.0034825206, -0.009654522, 10.051465
1464904674457065, 6.439086, 0.44027936, 7.716853, -0.0027083755, -0.032500744, 10.060041
1464904676866804, 6.4462643, 0.4331009, 7.719246, 0.0058927536, -0.029288769, 10.066172
1464904679276544, 6.4414787, 0.4331009, 7.719246, 0.004984498, -0.032841682, 10.063097
1464904681686283, 6.4343, 0.4354937, 7.726424, 0.0011699796, -0.04098177, 10.064085
1464904684096023, 6.4343, 0.43070808, 7.735996, 0.0045527816, -0.048107147, 10.0711975
1464904686505763, 6.4414787, 0.4211368, 7.7503524, 0.013747275, -0.053981304, 10.08637
1464904688915502, 6.4534426, 0.40677986, 7.743174, 0.03152299, -0.042392254, 10.087931
1464904691325242, 6.448657, 0.4019942, 7.7312098, 0.03718692, -0.037908077, 10.075493
1464904693734929, 6.45105, 0.39720857, 7.7312098, 0.042318463, -0.03717327, 10.076817
1464904696144721, 6.463014, 0.3900301, 7.7216387, 0.0526641, -0.023785114, 10.076857
1464904698554408, 6.4534426, 0.39720857, 7.7312098, 0.04348272, -0.033619404, 10.078358
1464904700964148, 6.45105, 0.38524446, 7.7383885, 0.05400014, -0.042452812, 10.081785
1464904703373888, 6.4438715, 0.3924229, 7.7312098, 0.046593785, -0.040421963, 10.072005
1464904705783627, 6.4271216, 0.40917268, 7.752745, 0.025314808, -0.061736584, 10.078487
1464904708193367, 6.424729, 0.4019942, 7.759924, 0.031184077, -0.06955147, 10.08213
1464904710603106, 6.4151573, 0.39960137, 7.769495, 0.03080982, -0.083250046, 10.083208
1464904713012846, 6.4199433, 0.3684947, 7.7910304, 0.060146928, -0.09843302, 10.101402
1464904715422585, 6.4462643, 0.38524446, 7.795816, 0.04821813, -0.077032566, 10.122709
1464904717832325, 6.4366927, 0.3924229, 7.800602, 0.038948655, -0.08572006, 10.12055
1464904720242065, 6.407979, 0.3924229, 7.812566, 0.032430768, -0.114691734, 10.11129
1464904722651804, 6.393622, 0.39960137, 7.800602, 0.023888469, -0.11471224, 10.093252
1464904725061544, 6.4031935, 0.38763726, 7.8173513, 0.035427988, -0.119065285, 10.111711
1464904727471283, 6.4055862, 0.3924229, 7.850851, 0.027827024, -0.13755798, 10.139116
1464904729881023, 6.407979, 0.38524446, 7.853244, 0.035044253, -0.13687706, 10.142193
1464904732290763, 6.4151573, 0.38524446, 7.8484583, 0.03687334, -0.12849808, 10.143129
1464904734700502, 6.4055862, 0.3900301, 7.82453, 0.032211185, -0.11745548, 10.118898
1464904737110242, 6.393622, 0.41156548, 7.826923, 0.008656561, -0.12328148, 10.114013
1464904739519981, 6.407979, 0.40917268, 7.8221374, 0.014231861, -0.11008406, 10.119444
1464904741929721, 6.4031935, 0.40677986, 7.8221374, 0.015473902, -0.11242533, 10.116291
1464904744339460, 6.4031935, 0.41874397, 7.8053875, 0.006079495, -0.09922552, 10.103981
1464904746749200, 6.4008007, 0.41635114, 7.798209, 0.008647084, -0.095664024, 10.096853
1464904749158888, 6.393622, 0.3924229, 7.798209, 0.03046906, -0.105101585, 10.091208
1464904751568627, 6.3864436, 0.39960137, 7.800602, 0.021871567, -0.11047411, 10.088758
1464904753978367, 6.3720865, 0.41156548, 7.812566, 0.0057453513, -0.126297, 10.089256
1464904756388106, 6.391229, 0.41156548, 7.8197446, 0.008173108, -0.11613417, 10.107031
1464904758797846, 6.398408, 0.4211368, 7.8221374, -5.173683E-5, -0.1102829, 10.113884
1464904761207585, 6.3888364, 0.4211368, 7.82453, -0.002727151, -0.11856985, 10.109589
1464904763617325, 6.3864436, 0.44027936, 7.8221374, -0.022244096, -0.11474419, 10.10706
1464904766027065, 6.393622, 0.43788654, 7.812566, -0.017551899, -0.10384607, 10.1042185
1464904768436804, 6.391229, 0.4426722, 7.798209, -0.021137714, -0.09575224, 10.091889
1464904770846544, 6.3864436, 0.4235296, 7.8077803, -0.004279971, -0.10935354, 10.095322
1464904773256283, 6.4031935, 0.40917268, 7.800602, 0.013189673, -0.09562397, 10.099921
1464904775666023, 6.3888364, 0.4235296, 7.783852, -0.0035079122, -0.092924595, 10.078508
1464904778075763, 6.398408, 0.41635114, 7.776674, 0.006134093, -0.08284521, 10.078827
1464904780485502, 6.410372, 0.40677986, 7.769495, 0.018576026, -0.0715127, 10.080572
1464904782895242, 6.4175506, 0.4235296, 7.7671022, 0.003909886, -0.061001778, 10.084071
1464904785304981, 6.4199433, 0.42831525, 7.759924, -3.5762787E-5, -0.053696632, 10.080311
1464904787714721, 6.422336, 0.4235296, 7.7503524, 0.005821228, -0.046947002, 10.074301
1464904790124460, 6.424729, 0.42592242, 7.7623167, 0.0020636916, -0.052277565, 10.085108
1464904792534200, 6.431907, 0.41156548, 7.7479596, 0.01867038, -0.041130066, 10.078077
1464904794943940, 6.431907, 0.41874397, 7.7479596, 0.011659026, -0.039518833, 10.07839
1464904797353627, 6.4271216, 0.42592242, 7.728817, 0.0058692098, -0.029335499, 10.060965
1464904799763367, 6.4055862, 0.41874397, 7.7240314, 0.00864464, -0.0438385, 10.043184
1464904802173106, 6.4031935, 0.41635114, 7.7120676, 0.011463523, -0.03869009, 10.032378
1464904804582846, 6.407979, 0.42592242, 7.692925, 0.0047727823, -0.021012783, 10.021191
1464904806992585, 6.410372, 0.4211368, 7.676175, 0.011852741, -0.009763718, 10.009679
1464904809402325, 6.407979, 0.40677986, 7.678568, 0.025042117, -0.016359806, 10.009356
1464904811812065, 6.407979, 0.4019942, 7.704889, 0.026267707, -0.034588814, 10.029319
1464904814221804, 6.4127645, 0.42831525, 7.7120676, 8.2981586E-4, -0.029506683, 10.03903
1464904816631544, 6.410372, 0.4331009, 7.6953177, -0.0027709007, -0.01996994, 10.024867
1464904819041283, 6.4295144, 0.42831525, 7.6953177, 0.0057617426, -0.0068917274, 10.03693
1464904821451023, 6.422336, 0.4211368, 7.7120676, 0.009372711, -0.024435997, 10.044853
1464904823860763, 6.4295144, 0.43070808, 7.688139, 0.004065454, -0.0022025108, 10.03153
1464904826270502, 6.407979, 0.4426722, 7.6594253, -0.008764684, 0.0023646355, 9.996243
1464904828680242, 6.4199433, 0.42592242, 7.661818, 0.009693682, 0.005783081, 10.005018
1464904831089981, 6.4127645, 0.4235296, 7.6570325, 0.011099279, 0.002939701, 9.996647
1464904833499721, 6.424729, 0.4331009, 7.645068, 0.005762458, 0.020999432, 9.995565
1464904835909460, 6.4343, 0.45224348, 7.63789, -0.009986997, 0.03708744, 9.99703
1464904838319200, 6.4343, 0.43788654, 7.628319, 0.00513947, 0.03919649, 9.989075
1464904840728940, 6.4414787, 0.44027936, 7.62114, 0.0053411126, 0.048763752, 9.988285
1464904843138679, 6.439086, 0.45942193, 7.6139617, -0.012897909, 0.056013584, 9.982084
1464904845548419, 6.4438715, 0.46660042, 7.609176, -0.01796168, 0.06338215, 9.981806
1464904847958106, 6.4438715, 0.44985065, 7.6067834, -0.0014168024, 0.060935974, 9.979244
1464904850367846, 6.4606214, 0.46899325, 7.597212, -0.015364289, 0.083872795, 9.983484
1464904852777585, 6.448657, 0.4642076, 7.594819, -0.012561679, 0.0742445, 9.97378
1464904855187325, 6.4701924, 0.45224348, 7.580462, 0.0057851076, 0.0963583, 9.976072
1464904857597065, 6.458228, 0.4426722, 7.5828547, 0.012596905, 0.08240986, 9.969826
1464904860006804, 6.45105, 0.44506502, 7.5756764, 0.009632945, 0.0822258, 9.959827
1464904862416544, 6.4462643, 0.4331009, 7.5756764, 0.020617366, 0.07437897, 9.956245
1464904864826283, 6.448657, 0.4235296, 7.587641, 0.029101849, 0.064920425, 9.966534
1464904867236023, 6.448657, 0.42831525, 7.609176, 0.02183652, 0.052471638, 9.983234
1464904869645763, 6.4534426, 0.45224348, 7.62114, -0.0018128753, 0.054193497, 9.996513
1464904872055502, 6.45105, 0.46660042, 7.62114, -0.016080678, 0.054721832, 9.995614
1464904874465242, 6.4606214, 0.4642076, 7.6163545, -0.011499703, 0.064163685, 9.997986
1464904876874981, 6.4773707, 0.45702913, 7.6163545, -7.0667267E-4, 0.074203014, 10.008425
1464904879284721, 6.489335, 0.44745782, 7.6019974, 0.01347506, 0.08959961, 10.00469
1464904881694460, 6.4797635, 0.45224348, 7.587641, 0.008538663, 0.09273291, 9.987766
1464904884104200, 6.474978, 0.46660042, 7.594819, -0.0073131323, 0.08802557, 9.990822
1464904886513940, 6.465407, 0.45702913, 7.5900335, 0.00114429, 0.08159304, 9.980597
1464904888923679, 6.4677997, 0.45942193, 7.609176, -0.002935648, 0.07181406, 9.996894
1464904891333367, 6.4677997, 0.45942193, 7.6163545, -0.0031778812, 0.06733179, 10.002391
1464904893743158, 6.4677997, 0.46181476, 7.618747, -0.0061652064, 0.06634331, 10.00433
1464904896152846, 6.463014, 0.46899325, 7.6259255, -0.01445502, 0.060326576, 10.007068
1464904898562585, 6.4797635, 0.4881358, 7.647461, -0.03179151, 0.06413698, 10.035147
1464904900972325, 6.506085, 0.5024927, 7.6331043, -0.038794458, 0.09597063, 10.041674
1464904903382065, 6.503692, 0.5288138, 7.6426754, -0.065968394, 0.09414244, 10.048629
1464904905791804, 6.498906, 0.5192425, 7.652247, -0.058279037, 0.08307123, 10.052461
1464904908201544, 6.489335, 0.51206404, 7.6546397, -0.05247003, 0.07363129, 10.047836
1464904910611283, 6.4821568, 0.526421, 7.664211, -0.06901771, 0.065621376, 10.051195
1464904913021023, 6.4797635, 0.5383851, 7.6809607, -0.083091974, 0.056050777, 10.063017
1464904915430763, 6.4821568, 0.526421, 7.6737823, -0.07005769, 0.059878826, 10.058525
1464904917840502, 6.4941206, 0.50009996, 7.685746, -0.043384552, 0.055193424, 10.074198
1464904920250242, 6.4965134, 0.5096712, 7.692925, -0.052478552, 0.055524826, 10.081653
1464904922659981, 6.489335, 0.50009996, 7.7072816, -0.04597056, 0.040041447, 10.08762
1464904925069721, 6.4965134, 0.51445687, 7.7216387, -0.06009704, 0.04069662, 10.103851
1464904927479460, 6.491728, 0.5024927, 7.728817, -0.05021596, 0.029911518, 10.105753
1464904929889200, 6.491728, 0.4977071, 7.7240314, -0.045023263, 0.031861782, 10.101874
1464904932298940, 6.4869423, 0.50009996, 7.728817, -0.048847795, 0.025827885, 10.102579
1464904934708679, 6.4869423, 0.485743, 7.7240314, -0.034454167, 0.02766037, 10.098271
1464904937118419, 6.501299, 0.485743, 7.7240314, -0.031642377, 0.03831482, 10.107474
1464904939528106, 6.5084777, 0.47856453, 7.7216387, -0.022982001, 0.043585777, 10.109926
1464904941937898, 6.489335, 0.46899325, 7.726424, -0.018098772, 0.02474451, 10.100897
1464904944347585, 6.491728, 0.4642076, 7.733603, -0.013738632, 0.020924568, 10.10772
1464904946757325, 6.4797635, 0.45224348, 7.743174, -0.005749762, 0.0033082962, 10.106857
1464904949167065, 6.491728, 0.4642076, 7.771888, -0.018199086, -0.0033073425, 10.137057
1464904951576804, 6.489335, 0.45224348, 7.7886376, -0.0092330575, -0.018680573, 10.147831
1464904953986544, 6.491728, 0.44745782, 7.795816, -0.004895568, -0.022525787, 10.154654
1464904956396283, 6.5084777, 0.45702913, 7.8029947, -0.011960328, -0.012856007, 10.171312
1464904958806023, 6.5252275, 0.46660042, 7.8173513, -0.01948601, -0.007326126, 10.193472
1464904961215763, 6.513263, 0.4642076, 7.8149586, -0.019404173, -0.015522957, 10.183864
1464904963625502, 6.530013, 0.45224348, 7.800602, -0.0026741624, 0.0031666756, 10.183075
1464904966035242, 6.5252275, 0.46181476, 7.7790666, -0.010356903, 0.0152487755, 10.163927
1464904968444981, 6.503692, 0.47856453, 7.769495, -0.029892683, 0.009077072, 10.143526
1464904970854721, 6.506085, 0.46899325, 7.759924, -0.01870662, 0.014653206, 10.137305
1464904973264460, 6.503692, 0.47856453, 7.7671022, -0.029293358, 0.010467529, 10.141693
1464904975674200, 6.501299, 0.4761717, 7.7551384, -0.025298357, 0.015770912, 10.130889
1464904978083940, 6.489335, 0.4833502, 7.7551384, -0.034724414, 0.00857687, 10.123537
1464904980493679, 6.4869423, 0.47377887, 7.7407813, -0.024257421, 0.01367712, 10.110579
1464904982903419, 6.491728, 0.46181476, 7.7479596, -0.011724412, 0.0095973015, 10.118619
1464904985313106, 6.489335, 0.46181476, 7.757531, -0.012598276, 0.0011658669, 10.12442
1464904987722846, 6.4941206, 0.47138608, 7.752745, -0.020434499, 0.00988245, 10.124246
1464904990132585, 6.4941206, 0.485743, 7.7312098, -0.03135854, 0.02610588, 10.108387
1464904992542325, 6.4869423, 0.485743, 7.7407813, -0.033845782, 0.014725685, 10.111118
1464904994952065, 6.4941206, 0.4977071, 7.752745, -0.04462844, 0.014285564, 10.125423
1464904997361804, 6.503692, 0.4881358, 7.7623167, -0.03448522, 0.013102055, 10.138466
1464904999771544, 6.498906, 0.46899325, 7.7742805, -0.017178297, -0.0031590462, 10.143711
1464905002181283, 6.489335, 0.47138608, 7.7407813, -0.017762482, 0.011497021, 10.112019
1464905004591023, 6.491728, 0.46181476, 7.728817, -0.006697178, 0.018724918, 10.10396
1464905007000763, 6.4869423, 0.4546363, 7.726424, 3.4314394E-4, 0.014334202, 10.09874
1464905009410502, 6.4869423, 0.44027936, 7.716853, 0.015982151, 0.016453266, 10.090767
1464905011820242, 6.4845495, 0.42592242, 7.702496, 0.031045914, 0.020633698, 10.077593
1464905014229981, 6.4773707, 0.45224348, 7.6809607, 0.006642401, 0.03373909, 10.057675
1464905016639721, 6.472585, 0.47138608, 7.6809607, -0.012955129, 0.03436756, 10.055465
1464905019049460, 6.474978, 0.45942193, 7.692925, -0.0019282103, 0.024658203, 10.06563
1464905021459200, 6.4797635, 0.46899325, 7.690532, -0.010067403, 0.03181362, 10.067297
1464905023868471, 6.463014, 0.47856453, 7.690532, -0.02267462, 0.021478653, 10.056983
1464905026278679, 6.4701924, 0.47138608, 7.6953177, -0.014778137, 0.020570755, 10.064933
1464905028688419, 6.463014, 0.4761717, 7.704889, -0.021624982, 0.008602142, 10.067873
1464905031098158, 6.4677997, 0.47138608, 7.7072816, -0.016287923, 0.009637833, 10.072561
1464905033507846, 6.4677997, 0.47856453, 7.7144604, -0.024023771, 0.0065789223, 10.078381
1464905035917585, 6.4773707, 0.4833502, 7.704889, -0.026034653, 0.019247055, 10.077412
1464905038327325, 6.4845495, 0.46899325, 7.702496, -0.010487914, 0.022080898, 10.079544
1464905040737065, 6.4701924, 0.47377887, 7.6977105, -0.017355025, 0.015416622, 10.06688
1464905043146804, 6.4701924, 0.4642076, 7.6809607, -0.006540537, 0.02310419, 10.053629
1464905045556544, 6.4414787, 0.45224348, 7.676175, 3.3283234E-4, 0.00233984, 10.030994
1464905047966283, 6.4462643, 0.47138608, 7.6594253, -0.015975833, 0.019683838, 10.02211
1464905050376023, 6.4366927, 0.46899325, 7.647461, -0.014238775, 0.019675732, 10.0067
1464905052785763, 6.45105, 0.44985065, 7.6426754, 0.007658422, 0.029369354, 10.011393
1464905055195502, 6.45105, 0.45224348, 7.6426754, 0.0050321817, 0.029022217, 10.011503
1464905057605242, 6.4438715, 0.44027936, 7.6307116, 0.016570508, 0.028773785, 9.9972
1464905060014981, 6.4558353, 0.41874397, 7.6426754, 0.038208365, 0.024505615, 10.013071
1464905062424721, 6.45105, 0.43788654, 7.6331043, 0.01958245, 0.03107071, 10.003536
1464905064834460, 6.4343, 0.44745782, 7.6331043, 0.0064759254, 0.019712448, 9.993212
1464905067244200, 6.431907, 0.44506502, 7.6307116, 0.0078104734, 0.018231869, 9.98974
1464905069653940, 6.4414787, 0.4354937, 7.628319, 0.019221604, 0.024836063, 9.993628
1464905072063679, 6.4295144, 0.42831525, 7.618747, 0.024934351, 0.02052164, 9.978296
1464905074473419, 6.4151573, 0.44027936, 7.6067834, 0.01125586, 0.019536495, 9.960459
1464905076883106, 6.4127645, 0.43070808, 7.6067834, 0.020115435, 0.015667439, 9.958492
1464905079292846, 6.4151573, 0.42592242, 7.594819, 0.02581942, 0.02390337, 9.950663
1464905081702585, 6.4031935, 0.4235296, 7.585248, 0.026115358, 0.020593166, 9.93555
1464905084112325, 6.4127645, 0.41156548, 7.5900335, 0.03913802, 0.02202034, 9.944824
1464905086522065, 6.4055862, 0.41635114, 7.5900335, 0.03306526, 0.017752647, 9.940426
1464905088931804, 6.4008007, 0.40917268, 7.6019974, 0.03688085, 0.00504303, 9.946188
1464905091341544, 6.4199433, 0.41874397, 7.609176, 0.029400766, 0.016557693, 9.964409
1464905093751283, 6.4151573, 0.43788654, 7.594819, 0.011340499, 0.02630043, 9.951203
1464905096161023, 6.4008007, 0.4331009, 7.6019974, 0.012438953, 0.010059357, 9.947258
1464905098570763, 6.4127645, 0.43788654, 7.594819, 0.009657979, 0.024226665, 9.949667
1464905100980502, 6.4295144, 0.4546363, 7.5924263, -0.0031290054, 0.041824818, 9.959343
1464905103390242, 6.4295144, 0.46660042, 7.5900335, -0.015562236, 0.04542303, 9.958046
1464905105799981, 6.439086, 0.48095736, 7.5828547, -0.027581394, 0.05951786, 9.959343
1464905108209721, 6.4606214, 0.47138608, 7.5756764, -0.013146162, 0.07784033, 9.96727
1464905110619460, 6.4701924, 0.46181476, 7.5756764, -0.001912713, 0.082761765, 9.972998
1464905113029200, 6.4606214, 0.45702913, 7.585248, -0.0011225939, 0.067287445, 9.973964
1464905115438888, 6.4845495, 0.47377887, 7.5828547, -0.012770176, 0.08890438, 9.988266
1464905117848627, 6.491728, 0.45942193, 7.580462, 0.0029293299, 0.09240723, 9.9904175
1464905120258367, 6.4965134, 0.45942193, 7.578069, 0.003414452, 0.09619951, 9.991676
1464905122668106, 6.513263, 0.4642076, 7.568498, 0.0032972693, 0.115735054, 9.99534
1464905125077846, 6.532406, 0.4642076, 7.5613194, 0.0074905753, 0.13317442, 10.002178
1464905127487585, 6.518049, 0.4642076, 7.5756764, 0.0028751493, 0.11347866, 10.0039215
1464905129897325, 6.518049, 0.45942193, 7.580462, 0.0064890385, 0.10810757, 10.007383
1464905132307065, 6.5084777, 0.45224348, 7.6163545, 0.007318735, 0.07662344, 10.028348
1464905134716804, 6.498906, 0.45224348, 7.62114, 0.0045692325, 0.06579256, 10.025854
1464905137126544, 6.5108705, 0.44745782, 7.628319, 0.010838211, 0.06895256, 10.038826
1464905139536283, 6.5228343, 0.44506502, 7.6331043, 0.015062034, 0.07418585, 10.050076
1464905141946023, 6.5347986, 0.44506502, 7.628319, 0.018039584, 0.08611584, 10.054112
1464905144355763, 6.515656, 0.44745782, 7.611569, 0.013833284, 0.08315849, 10.0291
1464905146765502, 6.5108705, 0.4546363, 7.609176, 0.006240785, 0.08327246, 10.024506
1464905149175242, 6.506085, 0.45224348, 7.618747, 0.0067326427, 0.07359505, 10.028634
1464905151584981, 6.4965134, 0.45702913, 7.6163545, 3.9064884E-4, 0.06917095, 10.020859
1464905153994721, 6.498906, 0.45224348, 7.635497, 0.0031718612, 0.057690144, 10.036821
1464905156404460, 6.503692, 0.44027936, 7.6570325, 0.013705015, 0.045246124, 10.055833
1464905158814200, 6.4869423, 0.45224348, 7.6809607, -0.0035724044, 0.020897865, 10.063879
1464905161223888, 6.489335, 0.46181476, 7.6953177, -0.0140532255, 0.01577425, 10.076816
1464905163633627, 6.489335, 0.46660042, 7.7072816, -0.02009499, 0.009295464, 10.086173
1464905166043367, 6.491728, 0.46660042, 7.7216387, -0.020777822, 0.0026373863, 10.098688
1464905168453106, 6.4965134, 0.48095736, 7.728817, -0.034594834, 0.0048766136, 10.107887
1464905170862846, 6.491728, 0.47856453, 7.743174, -0.034166455, -0.007311344, 10.115686
1464905173272585, 6.489335, 0.4761717, 7.7551384, -0.033674598, -0.017213345, 10.12319
1464905175682325, 6.474978, 0.47377887, 7.7790666, -0.036037266, -0.042488575, 10.132156
1464905178092065, 6.474978, 0.4642076, 7.798209, -0.028844893, -0.05678034, 10.146371
1464905180501804, 6.463014, 0.47856453, 7.836494, -0.048686206, -0.08541155, 10.168606
1464905182911544, 6.4438715, 0.47377887, 7.8580294, -0.050226867, -0.11430931, 10.17256
1464905185321283, 6.4271216, 0.46181476, 7.874779, -0.042710245, -0.13868046, 10.174097
1464905187731023, 6.422336, 0.44506502, 7.879565, -0.027851224, -0.14895391, 10.173941
1464905190140763, 6.4295144, 0.4426722, 7.8987074, -0.025519669, -0.15449667, 10.193117
1464905192550502, 6.4175506, 0.44985065, 7.9130645, -0.035995483, -0.16871595, 10.196772
1464905194960242, 6.4127645, 0.43788654, 7.9274216, -0.026837349, -0.18400669, 10.204153
1464905197369929, 6.4151573, 0.4426722, 7.944171, -0.032010853, -0.19195223, 10.218718
1464905199779669, 6.4175506, 0.44506502, 7.948957, -0.034107387, -0.19056606, 10.224064
1464905202189408, 6.410372, 0.44745782, 7.9537425, -0.03833556, -0.19841242, 10.223223
1464905204599148, 6.393622, 0.44745782, 7.9633136, -0.04195243, -0.21357298, 10.219864
1464905207008888, 6.393622, 0.42831525, 7.9657063, -0.02352947, -0.21921158, 10.220847
1464905209418627, 6.3864436, 0.4331009, 7.958528, -0.028826594, -0.21895266, 10.210957
1464905211828367, 6.3960147, 0.4331009, 7.9633136, -0.027484834, -0.21488667, 10.220764
1464905214238106, 6.381658, 0.4354937, 7.9680996, -0.033432424, -0.22691727, 10.2153425
1464905216647846, 6.367301, 0.44985065, 7.972885, -0.050734878, -0.23748207, 10.210427
1464905219057585, 6.355337, 0.44985065, 7.972885, -0.052961707, -0.24580097, 10.202763
1464905221467325, 6.3481584, 0.46899325, 7.9657063, -0.07203078, -0.242167, 10.193514
1464905223877065, 6.34098, 0.46181476, 7.960921, -0.065671325, -0.24608183, 10.184926
1464905226286804, 6.350551, 0.45224348, 7.975278, -0.05576539, -0.24994183, 10.201643
1464905228696544, 6.3625154, 0.46899325, 7.9561353, -0.06775564, -0.22529459, 10.195406
1464905231106283, 6.350551, 0.4761717, 7.9537425, -0.07659447, -0.23092699, 10.18622
1464905233516023, 6.352944, 0.4642076, 7.9346, -0.062434673, -0.21959305, 10.172568
1464905235925763, 6.3601227, 0.45224348, 7.9154572, -0.047408223, -0.20462608, 10.161989
1464905238335450, 6.3481584, 0.44745782, 7.9034934, -0.043796837, -0.20695639, 10.144939
1464905240745190, 6.35773, 0.44985065, 7.8891363, -0.042720914, -0.19022894, 10.140196
1464905243154929, 6.35773, 0.4546363, 7.8699937, -0.0450415, -0.17718744, 10.12575
1464905245564669, 6.364908, 0.4426722, 7.874779, -0.034068584, -0.1773243, 10.133488
1464905247974408, 6.3720865, 0.43070808, 7.8556366, -0.018806756, -0.16261911, 10.122906
1464905250384148, 6.3744793, 0.4426722, 7.850851, -0.02938056, -0.15529442, 10.121306
1464905252793888, 6.367301, 0.4354937, 7.8221374, -0.020596743, -0.14405775, 10.094397
1464905255203627, 6.3768725, 0.4211368, 7.7790666, 7.0929527E-6, -0.11334801, 10.06692
1464905257613367, 6.3625154, 0.42831525, 7.759924, -0.0077127814, -0.11020994, 10.043369
1464905260023106, 6.3290157, 0.4354937, 7.745567, -0.019902825, -0.12425327, 10.011196
1464905262432846, 6.34098, 0.4331009, 7.716853, -0.012369633, -0.09848738, 9.9967785
1464905264842585, 6.3481584, 0.4331009, 7.690532, -0.008894861, -0.0775938, 9.981227
1464905267252325, 6.3625154, 0.4211368, 7.6594253, 0.009320021, -0.05009222, 9.966101
1464905269662065, 6.35773, 0.43070808, 7.6331043, 0.0021060705, -0.034742832, 9.943306
1464905272071804, 6.3457656, 0.4019942, 7.62114, 0.02806431, -0.04446125, 9.925188
1464905274481492, 6.355337, 0.40917268, 7.6067834, 0.023558259, -0.029021263, 9.92066
1464905276891231, 6.3744793, 0.40438703, 7.597212, 0.033259988, -0.01001358, 9.925419
1464905279300971, 6.35773, 0.39720857, 7.5756764, 0.039297163, -0.010429382, 9.897863
1464905281710710, 6.3768725, 0.4019942, 7.5493555, 0.040253222, 0.01891756, 9.890244
1464905284120450, 6.3888364, 0.3589234, 7.5230346, 0.087697506, 0.03422594, 9.875893
1464905286530190, 6.3864436, 0.3589234, 7.5062847, 0.087507606, 0.040439606, 9.861567
1464905288939929, 6.3888364, 0.37567315, 7.470392, 0.076028705, 0.06888199, 9.836391
1464905291349669, 6.4008007, 0.3804588, 7.4344997, 0.07621211, 0.098781586, 9.816885
1464905293759408, 6.4055862, 0.3804588, 7.4105716, 0.08007473, 0.11746073, 9.801666
1464905296169148, 6.4175506, 0.3900301, 7.391429, 0.072962224, 0.13805294, 9.795198
1464905298578888, 6.4055862, 0.37567315, 7.396215, 0.08179021, 0.11952782, 9.79059
1464905300988627, 6.4295144, 0.37567315, 7.3986077, 0.08644515, 0.13564777, 9.807817
1464905303398367, 6.4414787, 0.3900301, 7.405786, 0.074120104, 0.1432724, 9.821629
1464905305808106, 6.4462643, 0.38524446, 7.408179, 0.07741594, 0.14065838, 9.826397
1464905308217846, 6.4534426, 0.36610186, 7.396215, 0.09979105, 0.14846373, 9.821046
1464905310627533, 6.4773707, 0.38524446, 7.396215, 0.08438808, 0.16726685, 9.83736
1464905313037273, 6.4773707, 0.3804588, 7.3746796, 0.091676176, 0.1797657, 9.820705
1464905315447013, 6.489335, 0.3804588, 7.367501, 0.095148325, 0.18918467, 9.823005
1464905317856752, 6.4965134, 0.3900301, 7.3603225, 0.0883764, 0.20137548, 9.822565
1464905320266492, 6.489335, 0.38285163, 7.353144, 0.09331763, 0.19605398, 9.81222
1464905322676231, 6.501299, 0.40917268, 7.3363943, 0.07155377, 0.219563, 9.808346
1464905325085971, 6.515656, 0.41874397, 7.3603225, 0.061113834, 0.21766424, 9.836278
1464905327495710, 6.5371914, 0.41874397, 7.34118, 0.067495525, 0.24367714, 9.835609
1464905329905450, 6.5515485, 0.4139583, 7.3363943, 0.075805545, 0.25607443, 9.841011
1464905332315190, 6.5443697, 0.4139583, 7.338787, 0.07396853, 0.24929094, 9.838207
1464905334724929, 6.532406, 0.4331009, 7.348358, 0.052329898, 0.23623371, 9.838684
1464905337134669, 6.5228343, 0.4211368, 7.3746796, 0.058428705, 0.20956516, 9.85207
1464905339544408, 6.5228343, 0.39960137, 7.3770723, 0.07895613, 0.20268536, 9.852965
1464905341954148, 6.5204415, 0.41635114, 7.3986077, 0.05952984, 0.19110537, 9.868578
1464905344363835, 6.513263, 0.43788654, 7.436893, 0.03219354, 0.1669507, 9.894079
1464905346773575, 6.5084777, 0.4546363, 7.4679995, 0.010819793, 0.14820385, 9.915438
1464905349183315, 6.515656, 0.42831525, 7.503892, 0.03324884, 0.1241951, 9.94631
1464905351593054, 6.5276203, 0.4211368, 7.5230346, 0.04033166, 0.1190505, 9.968322
1464905354002794, 6.5228343, 0.4642076, 7.5326056, -0.0029937625, 0.121305466, 9.974381
1464905356412533, 6.513263, 0.46181476, 7.5182486, 7.867813E-6, 0.12489128, 9.957125
1464905358822273, 6.515656, 0.44985065, 7.5062847, 0.0136499405, 0.13123512, 9.949022
1464905361232013, 6.503692, 0.44985065, 7.499106, 0.011971831, 0.1270175, 9.935828
1464905363641752, 6.5204415, 0.4426722, 7.5110703, 0.022114933, 0.13236904, 9.955416
1464905366051492, 6.518049, 0.44745782, 7.520642, 0.015728712, 0.12574863, 9.961385
1464905368461231, 6.5108705, 0.43788654, 7.54457, 0.0213601, 0.10521793, 9.974578
1464905370870971, 6.5252275, 0.42592242, 7.570891, 0.03265345, 0.09607983, 10.003405
1464905373280710, 6.532406, 0.45702913, 7.611569, -5.554557E-4, 0.08524895, 10.040414
1464905375690450, 6.5252275, 0.47856453, 7.635497, -0.025332987, 0.071718216, 10.054982
1464905378100190, 6.539584, 0.46899325, 7.6570325, -0.015761375, 0.066161156, 10.080261
1464905380509929, 6.546763, 0.4833502, 7.6953177, -0.032629848, 0.05184698, 10.114737
1464905382919617, 6.546763, 0.485743, 7.7240314, -0.038767815, 0.0343194, 10.136766
1464905385329356, 6.5539412, 0.4977071, 7.726424, -0.048312068, 0.041982174, 10.143736
1464905387739096, 6.5611196, 0.50488555, 7.7383885, -0.05523932, 0.041544914, 10.157808
1464905390148835, 6.5443697, 0.48095736, 7.7671022, -0.0390507, 0.005703926, 10.16791
1464905392558575, 6.5659056, 0.4833502, 7.7623167, -0.035840034, 0.025084496, 10.17823
1464905394968315, 6.558727, 0.47856453, 7.7647095, -0.032182455, 0.017947197, 10.175229
1464905397378054, 6.5491557, 0.4761717, 7.759924, -0.03145665, 0.013188362, 10.165305
1464905399787794, 6.570691, 0.46899325, 7.7479596, -0.018152952, 0.03468132, 10.1697235
1464905402197533, 6.570691, 0.4642076, 7.733603, -0.01061368, 0.043519497, 10.158547
1464905404607273, 6.5778694, 0.48095736, 7.728817, -0.023138285, 0.057065964, 10.160242
1464905407017013, 6.573084, 0.46660042, 7.728817, -0.010380268, 0.049819946, 10.156533
1464905409426700, 6.5611196, 0.46899325, 7.735996, -0.0153570175, 0.037603855, 10.15442
1464905411836440, 6.5491557, 0.4546363, 7.733603, -0.0039016008, 0.026623726, 10.144262
1464905414246179, 6.5371914, 0.46660042, 7.745567, -0.019729018, 0.013532639, 10.146223
1464905416655919, 6.5228343, 0.47377887, 7.7551384, -0.030331492, -9.255409E-4, 10.1446085
1464905419065658, 6.5347986, 0.45942193, 7.769495, -0.015737057, -0.0050377846, 10.162649
1464905421475398, 6.541977, 0.44027936, 7.7886376, 0.0025533438, -0.01691866, 10.181055
1464905423885138, 6.5228343, 0.45942193, 7.800602, -0.02100408, -0.03342104, 10.178717
1464905426294877, 6.541977, 0.4642076, 7.8053875, -0.021929383, -0.02120161, 10.194906
1464905428704617, 6.5611196, 0.4642076, 7.8077803, -0.017252564, -0.008702278, 10.209057
1464905431114356, 6.5443697, 0.44985065, 7.7886376, -0.0046103, -0.01260519, 10.183018
1464905433524096, 6.539584, 0.4426722, 7.793423, 0.0012227297, -0.021070004, 10.183277
1464905435933835, 6.5371914, 0.43788654, 7.7886376, 0.0059746504, -0.021036625, 10.17787
1464905438343575, 6.5491557, 0.44985065, 7.793423, -0.0035151243, -0.0122118, 10.1897545
1464905440753315, 6.532406, 0.4546363, 7.798209, -0.012160182, -0.026431084, 10.18284
1464905443163002, 6.503692, 0.44745782, 7.7886376, -0.010099888, -0.04344225, 10.156729
1464905445572742, 6.530013, 0.4546363, 7.793423, -0.011735797, -0.025357246, 10.177644
1464905447982481, 6.5252275, 0.4642076, 7.810173, -0.024508595, -0.036812782, 10.187785
1464905450392221, 6.5276203, 0.44745782, 7.793423, -0.005239129, -0.029061317, 10.175786
1464905452801960, 6.532406, 0.4642076, 7.798209, -0.0209378, -0.024162292, 10.183264
1464905455211700, 6.515656, 0.46181476, 7.8149586, -0.02403164, -0.047977924, 10.185173
1464905457621440, 6.518049, 0.4642076, 7.8149586, -0.025527716, -0.045861244, 10.18682
1464905460031179, 6.5443697, 0.4761717, 7.8029947, -0.02961874, -0.015980244, 10.195152
1464905462440919, 6.530013, 0.49052864, 7.7814593, -0.04352963, -0.009270191, 10.170095
1464905464850658, 6.546763, 0.49292147, 7.7742805, -0.04089558, 0.0071635246, 10.175499
1464905467260398, 6.5778694, 0.51206404, 7.7814593, -0.053645253, 0.03014803, 10.201857
1464905469670138, 6.570691, 0.51445687, 7.776674, -0.056908667, 0.028490543, 10.193686
1464905472079825, 6.5515485, 0.51206404, 7.7742805, -0.058407903, 0.015362263, 10.179428
1464905474489617, 6.541977, 0.52163535, 7.776674, -0.069666386, 0.008250713, 10.175526
1464905476899304, 6.532406, 0.5240282, 7.7814593, -0.074213624, -0.0026931763, 10.173128
1464905479309044, 6.5204415, 0.5288138, 7.7671022, -0.079636335, -0.0012421608, 10.154671
1464905481718783, 6.506085, 0.52163535, 7.752745, -0.0739634, -0.0044226646, 10.134141
1464905484128523, 6.518049, 0.5240282, 7.759924, -0.074046016, -5.917549E-4, 10.147438
1464905486538263, 6.5108705, 0.5240282, 7.7479596, -0.073475, 1.7166138E-4, 10.133682
1464905488948002, 6.4941206, 0.5240282, 7.7383885, -0.075799406, -0.006096363, 10.115587
1464905491357742, 6.4941206, 0.526421, 7.7383885, -0.077503085, -0.00646019, 10.115696
1464905493767481, 6.4821568, 0.5072784, 7.7216387, -0.059409797, -0.009068966, 10.094343
1464905496177221, 6.4845495, 0.5024927, 7.704889, -0.052348256, 0.0015945435, 10.082878
1464905498586960, 6.4773707, 0.5024927, 7.704889, -0.05310911, -0.00461483, 10.0782585
1464905500996700, 6.472585, 0.49292147, 7.7001033, -0.04420173, -0.0072073936, 10.071093
1464905503406440, 6.4677997, 0.47856453, 7.690532, -0.029786587, -0.008845806, 10.060059
1464905505816127, 6.448657, 0.485743, 7.6833534, -0.039626002, -0.018030167, 10.042567
1464905508225867, 6.4414787, 0.47856453, 7.676175, -0.033260226, -0.020337582, 10.03214
1464905510635606, 6.431907, 0.46181476, 7.6570325, -0.016872346, -0.020078659, 10.010601
1464905513045346, 6.422336, 0.47377887, 7.647461, -0.029375076, -0.01843977, 9.997665
1464905515455085, 6.398408, 0.5192425, 7.6402826, -0.07802206, -0.022526264, 9.9788065
1464905517864825, 6.3696938, 0.27038896, 7.623533, 0.16044754, -0.08856964, 9.9363365
1464905520274565, 6.4343, 0.5168497, 7.623533, -0.066853344, 0.01279974, 9.989041
1464905522684304, 6.3960147, 0.81834537, 7.6426754, -0.3701707, 0.039599895, 9.992525
1464905525094044, 6.2548385, -0.3182454, 7.515856, 0.7202688, -0.24155235, 9.753731
1464905527503783, 6.5084777, 0.971486, 7.728817, -0.5074502, 0.10261774, 10.137587
1464905529913523, 6.35773, 0.5288138, 7.5900335, -0.094454825, -0.021581173, 9.914616
1464905532323210, 6.2811594, -0.35174492, 7.4823565, 0.75890946, -0.20985079, 9.743837
1464905534732950, 6.532406, 1.3328022, 7.771888, -0.86077684, 0.166677, 10.20207
1464905537142690, 6.245267, 0.033499517, 7.4656067, 0.38186532, -0.13772106, 9.724968
1464905539552429, 6.3218374, -0.02632105, 7.5589266, 0.44469708, -0.15549183, 9.842854
1464905541962169, 6.518049, 1.4117653, 7.7312098, -0.9363928, 0.19789362, 10.165318
1464905544371908, 6.209375, -0.41635114, 7.365108, 0.82078385, -0.21293736, 9.604971
1464905546781648, 6.424729, 0.485743, 7.6259255, -0.046858013, -0.008671761, 9.983263
1464905549191388, 6.463014, 1.1700903, 7.664211, -0.70775795, 0.15679932, 10.067487
1464905551601127, 6.235696, -0.6412765, 7.2909307, 1.0472572, -0.20252705, 9.555891
1464905554010867, 6.5252275, 1.0097711, 7.6402826, -0.5371216, 0.17784595, 10.082264
1464905556420606, 6.3625154, 0.6963114, 7.5661054, -0.254497, 0.029672623, 9.906905
1464905558830346, 6.2524457, -0.5623133, 7.2957163, 0.9736537, -0.17625189, 9.573803
1464905561240085, 6.5443697, 1.3423735, 7.618747, -0.853577, 0.28098917, 10.092993
1464905563649773, 6.2524457, 0.11006984, 7.391429, 0.30940747, -0.07893276, 9.676594
1464905566059513, 6.3074803, -0.25124636, 7.408179, 0.66338265, -0.14313793, 9.709169
1464905568469252, 6.556334, 1.375873, 7.5661054, -0.8777701, 0.34160233, 10.061675
1464905570878992, 6.2261243, -0.41635114, 7.2765737, 0.8247922, -0.16162014, 9.548828
1464905573288731, 6.4008007, 0.24646074, 7.530213, 0.1900447, -0.032628536, 9.884224
1464905575698471, 6.498906, 1.2059826, 7.5469627, -0.71835715, 0.26906252, 10.002918
1464905578108210, 6.2213387, -0.72023964, 7.1784678, 1.1307452, -0.18517399, 9.457341
1464905580517950, 6.503692, 0.7537391, 7.554141, -0.2860871, 0.15463686, 9.991268
1464905582927690, 6.3864436, 0.7752745, 7.499106, -0.32735187, 0.108635426, 9.874479
1464905585337429, 6.24766, -0.7298109, 7.1449685, 1.142885, -0.15171814, 9.449194
1464905587747169, 6.587441, 1.1700903, 7.554141, -0.66742164, 0.31999063, 10.063831
1464905590156908, 6.302695, 0.22253251, 7.3698936, 0.20921546, -0.012169361, 9.697675
1464905592566596, 6.302695, -0.39720857, 7.245467, 0.82305, -0.09198761, 9.575628
1464905594976335, 6.6089764, 1.3710874, 7.5182486, -0.85334575, 0.4089775, 10.059177
1464905597386075, 6.2955165, -0.29671, 7.257431, 0.7184354, -0.07784128, 9.584866
1464905599795815, 6.4773707, 0.09332009, 7.4153576, 0.36080468, 0.053689003, 9.83969
1464905602205554, 6.6281185, 1.3256238, 7.5086775, -0.8091348, 0.41685343, 10.061859
1464905604615294, 6.309873, -0.634098, 7.204789, 1.060976, -0.11133337, 9.538737
1464905607025033, 6.6017976, 0.6269195, 7.5254273, -0.13818944, 0.20726013, 10.027302
1464905609434773, 6.556334, 1.0145568, 7.5062847, -0.5209988, 0.2809577, 10.000439
1464905611844513, 6.35773, -0.66759753, 7.140183, 1.1118116, -0.043427944, 9.518961
1464905614254252, 6.695118, 1.1485549, 7.578069, -0.6333487, 0.37198544, 10.15044
1464905616663992, 6.4845495, 0.51445687, 7.4249287, -0.04348761, 0.15989113, 9.869963
1464905619073679, 6.4343, -0.39960137, 7.2382884, 0.85099435, 0.009497166, 9.655487
1464905621483419, 6.7525454, 1.4835501, 7.5924263, -0.9442246, 0.4988737, 10.21285
1464905623893158, 6.4199433, -0.07178468, 7.3363943, 0.5226293, 0.021781445, 9.734982
1464905626302898, 6.5276203, 0.047856454, 7.472785, 0.41350627, 0.052486897, 9.9136715
1464905628712638, 6.690332, 1.4979069, 7.60439, -0.97547656, 0.43283796, 10.182933
1464905631122377, 6.352944, -0.46899325, 7.3363943, 0.8905087, -0.110524654, 9.67457
1464905633532117, 6.606583, 0.5383851, 7.6833534, -0.0760116, 0.09549093, 10.146715
1464905635941856, 6.5922265, 1.2011969, 7.726424, -0.7245514, 0.22429085, 10.199151
1464905638351596, 6.355337, -0.62931234, 7.389036, 1.0387409, -0.18982267, 9.709232
1464905640761283, 6.687939, 1.0360922, 7.8293157, -0.5572325, 0.18809748, 10.332197
1464905643171023, 6.5084777, 0.6987042, 7.7503524, -0.25483584, 0.024331093, 10.141544
1464905645580763, 6.3601227, -0.4953143, 7.475178, 0.9048313, -0.18711281, 9.783714
1464905647990502, 6.73101, 1.4452649, 7.879565, -0.9527097, 0.2780738, 10.416231
1464905650400242, 6.448657, 0.11485548, 7.661818, 0.30444014, -0.095285416, 10.009999
1464905652809981, 6.498906, -0.09571291, 7.692925, 0.51566154, -0.1269784, 10.057038
1464905655219721, 6.6999035, 1.564906, 7.84128, -1.074287, 0.31249142, 10.371673
1464905657629460, 6.384051, -0.37567315, 7.580462, 0.776737, -0.2077856, 9.885045
1464905660039200, 6.5778694, 0.39960137, 7.850851, 0.03850794, -0.048180103, 10.249886
1464905662448940, 6.613762, 1.3471591, 7.8699937, -0.87658983, 0.18813801, 10.329071
1464905664858679, 6.343373, -0.57906306, 7.5326056, 0.97770256, -0.25048256, 9.813012
1464905667268419, 6.6759753, 0.9212367, 7.946564, -0.4589774, 0.08663416, 10.408989
1464905669678158, 6.546763, 0.8853444, 7.905886, -0.45083177, 0.013747215, 10.292889
1464905672087846, 6.3625154, -0.5192425, 7.6019974, 0.90931296, -0.26024628, 9.88165
1464905674497585, 6.7238317, 1.3543376, 8.04467, -0.8869948, 0.17077589, 10.53304
1464905676907325, 6.4534426, 0.28713873, 7.8699937, 0.116949975, -0.17001104, 10.179569
1464905679317065, 6.424729, -0.23449662, 7.8173513, 0.62224126, -0.28195572, 10.098339
1464905681726804, 6.7094746, 1.5816557, 8.051848, -1.1062597, 0.2202816, 10.539385
1464905684136544, 6.381658, -0.22971097, 7.776674, 0.614954, -0.2835641, 10.0397415
1464905686546283, 6.5228343, 0.2727818, 7.975278, 0.12772596, -0.18194771, 10.304243
1464905688956023, 6.6257257, 1.4620147, 8.003992, -1.0078384, 0.15991831, 10.443195
1464905691365763, 6.3338017, -0.5312066, 7.668997, 0.9073258, -0.3168621, 9.914085
1464905693775502, 6.6257257, 0.79441714, 8.063812, -0.36570323, -0.03536749, 10.46047
1464905696185190, 6.5443697, 1.038485, 8.006385, -0.6082427, 0.0015702248, 10.374946
1464905698594929, 6.3361945, -0.5694918, 7.652247, 0.9510205, -0.3119154, 9.900851
1464905701004669, 6.6927247, 1.2753744, 8.111669, -0.82323384, 0.10450363, 10.560761
1464905703414408, 6.4797635, 0.47138608, 7.9369926, -0.06952047, -0.13214159, 10.25588
1464905705824148, 6.4175506, -0.3278167, 7.771888, 0.7100836, -0.2726426, 10.055651
1464905708233888, 6.7262244, 1.5936198, 8.078169, -1.1209787, 0.24088478, 10.569954
1464905710643627, 6.439086, -0.05503492, 7.798209, 0.4522184, -0.20392466, 10.101032
1464905713053367, 6.5515485, 0.13399807, 7.9274216, 0.27955616, -0.1548047, 10.280207
1464905715463106, 6.7022963, 1.579263, 8.01117, -1.0981482, 0.25720644, 10.50341
1464905717872846, 6.391229, -0.43070808, 7.7120676, 0.8160042, -0.27220678, 9.988461
1464905720282533, 6.65444, 0.67477596, 8.068598, -0.24327034, -0.032989025, 10.477543
1464905722692273, 6.613762, 1.2418749, 8.059027, -0.7983841, 0.08172178, 10.468424
1464905725102013, 6.3625154, -0.52163535, 7.6833534, 0.90872943, -0.3004942, 9.943418
1464905727511752, 6.7166533, 1.2155539, 8.154739, -0.755636, 0.092978954, 10.607127
1464905729921492, 6.513263, 0.6987042, 8.020741, -0.2825318, -0.10009098, 10.351485
1464905732331231, 6.391229, -0.35413775, 7.776674, 0.7409835, -0.2967553, 10.040556
1464905734740971, 6.73101, 1.5672989, 8.169097, -1.0943832, 0.19086266, 10.642508
1464905737150710, 6.45105, 0.09810573, 7.920243, 0.29607832, -0.23005009, 10.208591
1464905739560450, 6.4701924, -0.016749758, 7.9680996, 0.40504885, -0.275249, 10.252535
1464905741970190, 6.687939, 1.6223338, 8.094919, -1.1473925, 0.21992636, 10.560461
1464905744379877, 6.367301, -0.35174492, 7.7623167, 0.7395092, -0.30444717, 10.014004
1464905746789617, 6.5778694, 0.4977071, 8.023134, -0.061457217, -0.09993744, 10.386194
1464905749199356, 6.5898337, 1.3806586, 8.003992, -0.9119575, 0.13610601, 10.418533
1464905751609096, 6.2955165, -0.56470615, 7.6139617, 0.9577911, -0.3084278, 9.844407
1464905754018835, 6.6424756, 1.0073783, 8.035098, -0.54391444, 0.06595564, 10.45944
1464905756428575, 6.4558353, 0.8279166, 7.9393854, -0.39809376, -0.056274414, 10.258434
1464905758838315, 6.2691956, -0.4881358, 7.62114, 0.8792278, -0.3090849, 9.836376
1464905761248054, 6.611369, 1.4356936, 8.047063, -0.96546555, 0.13582945, 10.467859
1464905763657794, 6.32423, 0.20817557, 7.8149586, 0.20013827, -0.22508383, 10.050975
1464905766067533, 6.3050876, -0.18424734, 7.7814593, 0.580793, -0.31157064, 9.995239
1464905768477221, 6.5515485, 1.6127625, 7.972885, -1.1310998, 0.17209387, 10.381796
1464905770886960, 6.233303, -0.28235307, 7.668997, 0.6781715, -0.31542683, 9.858393
1464905773296700, 6.3864436, 0.2632105, 7.879565, 0.153382, -0.20748615, 10.142825
1464905775706440, 6.4271216, 1.4261223, 7.9106717, -0.9665622, 0.079174995, 10.245972
1464905778116179, 6.125626, -0.5623133, 7.5493555, 0.9410612, -0.3912325, 9.68471
1464905780525919, 6.4295144, 0.81595254, 7.944171, -0.37834674, -0.08646679, 10.245178
1464905782935658, 6.3074803, 0.96430755, 7.905886, -0.5375135, -0.118842125, 10.144664
1464905785345398, 6.099305, -0.567099, 7.52782, 0.9466063, -0.39892292, 9.6507
1464905787755138, 6.465407, 1.2801601, 7.982456, -0.8218205, 0.019341946, 10.319117
1464905790164877, 6.218946, 0.3397808, 7.786245, 0.06324464, -0.25708532, 9.967259
1464905792574617, 6.1567326, -0.30388847, 7.6402826, 0.6904106, -0.36052704, 9.785958
1464905794984304, 6.4175506, 1.579263, 7.908279, -1.1157055, 0.10131931, 10.245234
1464905797394044, 6.128019, -0.17706887, 7.635497, 0.5661399, -0.3500147, 9.76943
1464905799803783, 6.257231, 0.13399807, 7.786245, 0.27583045, -0.27900934, 9.982113
1464905802213523, 6.364908, 1.5122639, 7.8604226, -1.0495348, 0.072983265, 10.172433
1464905804623263, 6.0729837, -0.5072784, 7.520642, 0.88252217, -0.40454817, 9.630991
1464905807033002, 6.355337, 0.64845496, 7.891529, -0.22219783, -0.15228796, 10.149604
1464905809442742, 6.259624, 1.1318051, 7.865208, -0.70803374, -0.089529514, 10.090393
1464905811852481, 6.0251274, -0.59342, 7.456035, 0.9636499, -0.4217553, 9.546741
1464905814262221, 6.4175506, 1.1629118, 7.891529, -0.7076537, 0.0078077316, 10.213359
1464905816671908, 6.209375, 0.5312066, 7.7551384, -0.11621368, -0.2078166, 9.946053
1464905819081648, 6.111269, -0.4211368, 7.496713, 0.8186017, -0.335279, 9.640702
1464905821491388, 6.4199433, 1.4955142, 7.8197446, -1.0192428, 0.1266613, 10.175744
1464905823901127, 6.1208405, -0.083748795, 7.5613194, 0.48363668, -0.29371548, 9.712111
1464905826310867, 6.2261243, -0.047856454, 7.628319, 0.45503753, -0.2585659, 9.832815
1464905828720606, 6.364908, 1.5266209, 7.716853, -1.0506706, 0.17277765, 10.062738
1464905831130346, 6.053841, -0.49292147, 7.3986077, 0.8800301, -0.3514371, 9.525409
1464905833540085, 6.326623, 0.43788654, 7.649854, 0.010511458, -0.086200714, 9.936329
1464905835949773, 6.326623, 1.2299109, 7.623533, -0.75360906, 0.12312508, 9.953592
1464905838359565, 6.0897336, -0.64845496, 7.200003, 1.0666795, -0.23936129, 9.38884
1464905840769252, 6.463014, 0.9499506, 7.6019974, -0.45403987, 0.16682911, 10.011461
1464905843178992, 6.3050876, 0.64845496, 7.4847493, -0.18241149, 0.048204422, 9.806147
1464905845588731, 6.1806607, -0.56470615, 7.164111, 1.0032182, -0.1493802, 9.424181
1464905847998471, 6.5491557, 1.3806586, 7.542177, -0.84094757, 0.38095617, 10.041403
1464905850408210, 6.3122663, 0.019142581, 7.32443, 0.45324302, -0.008424282, 9.658512
1464905852817950, 6.3481584, -0.2321038, 7.314859, 0.7063017, -0.044155598, 9.662264
1464905855227690, 6.597012, 1.4955142, 7.446464, -0.9303938, 0.48178005, 10.00546
1464905857637429, 6.317052, -0.45702913, 7.1569324, 0.9333843, -0.013128281, 9.511273
1464905860047117, 6.5443697, 0.25124636, 7.379465, 0.26878196, 0.18367958, 9.861156
1464905862456856, 6.587441, 1.3160524, 7.381858, -0.7543061, 0.47100735, 9.941196
1464905864866596, 6.326623, -0.6269195, 6.9894347, 1.1276464, 0.044770718, 9.380714
1464905867276335, 6.704689, 0.8063812, 7.3746796, -0.22380918, 0.43338442, 9.987547
1464905869686075, 6.6017976, 0.83030945, 7.34118, -0.26543516, 0.3852296, 9.896829
1464905872095815, 6.410372, -0.61016977, 6.9655066, 1.1328676, 0.12542915, 9.417236
1464905874505554, 6.8051877, 1.308874, 7.365108, -0.6885332, 0.6361637, 10.069249
1464905876915294, 6.556334, 0.25124636, 7.2023964, 0.29679853, 0.29334116, 9.73391
1464905879325033, 6.515656, -0.29192436, 7.092326, 0.8273724, 0.19985819, 9.597686
1464905881734721, 6.778867, 1.5720844, 7.3340015, -0.9496692, 0.6975813, 10.041093
1464905884144460, 6.489335, -0.25842485, 7.1306114, 0.7881903, 0.16258621, 9.611255
1464905886554200, 6.65444, 0.18185452, 7.3603225, 0.37163794, 0.24304962, 9.914223
1464905888963940, 6.754938, 1.4620147, 7.4656067, -0.85857093, 0.56491566, 10.121546
1464905891373679, 6.506085, -0.5479564, 7.1808605, 1.0677837, 0.068728924, 9.646205
1464905893783419, 6.855437, 0.74416786, 7.5661054, -0.15993685, 0.39829063, 10.228027
1464905896193158, 6.7573314, 1.0743774, 7.542177, -0.49979085, 0.42298222, 10.16226
1464905898602898, 6.539584, -0.5479564, 7.166504, 1.0695087, 0.096261024, 9.657747
1464905901012638, 6.8889365, 1.268196, 7.611569, -0.66262656, 0.52410316, 10.309607
1464905903422325, 6.6424756, 0.5240282, 7.489535, 0.017718375, 0.23484612, 10.021714
1464905905832065, 6.556334, -0.33260235, 7.298109, 0.8480588, 0.078133106, 9.779225
1464905908241804, 6.862615, 1.5720844, 7.6307116, -0.96447533, 0.5748873, 10.321531
1464905910651544, 6.530013, -0.083748795, 7.429714, 0.58509886, 0.034733295, 9.874474
1464905913061283, 6.6257257, 0.04546363, 7.5517483, 0.45954764, 0.061318398, 10.035749
1464905915471023, 6.7908306, 1.5744773, 7.6833534, -1.000648, 0.48424482, 10.314673
1464905917880763, 6.4797635, -0.47377887, 7.4010005, 0.94785196, -0.074800014, 9.802174
1464905920290502, 6.762117, 0.5886344, 7.7383885, -0.060342968, 0.18252134, 10.291668
1464905922700242, 6.7118673, 1.2418749, 7.7407813, -0.7032065, 0.30795002, 10.291832
1464905925109929, 6.448657, -0.55034924, 7.367501, 1.0126047, -0.08801842, 9.753718
1464905927519669, 6.814759, 1.1653047, 7.812566, -0.624656, 0.31921148, 10.4087925
1464905929929408, 6.6041903, 0.69152576, 7.702496, -0.20312321, 0.12128544, 10.166908
1464905932339148, 6.4701924, -0.39481574, 7.4584284, 0.8500107, -0.09016132, 9.844633
1464905934748888, 6.798009, 1.5577276, 7.8436728, -1.0097342, 0.40624046, 10.439255
1464905937158627, 6.5084777, 0.124426775, 7.6307116, 0.33412766, -0.047088623, 10.024453
1464905939568367, 6.5443697, -0.014356935, 7.692925, 0.46763635, -0.09675264, 10.088708
1464905941978106, 6.7525454, 1.6917256, 7.838887, -1.1514245, 0.4146471, 10.411976
1464905944387846, 6.4127645, -0.27756742, 7.554141, 0.70796704, -0.16821575, 9.88616
1464905946797533, 6.6305118, 0.4977071, 7.867601, -0.04149151, -0.0030055046, 10.300913
1464905949207273, 6.6424756, 1.4524434, 7.877172, -0.9628601, 0.25079966, 10.358182
1464905951617013, 6.34098, -0.4833502, 7.503892, 0.8864682, -0.23744106, 9.793257
1464905954026752, 6.664011, 1.0600204, 7.9393854, -0.58559537, 0.13062716, 10.402237
1464905956436492, 6.5108705, 0.9068798, 7.8460655, -0.46045005, 0.037238598, 10.225516
1464905958846231, 6.3290157, -0.4139583, 7.5469627, 0.80581677, -0.25416756, 9.821941
1464905961255971, 6.6927247, 1.5122639, 7.9800634, -1.025429, 0.2509737, 10.47122
1464905963665710, 6.4199433, 0.28235307, 7.7742805, 0.11864412, -0.1421113, 10.084669
1464905966075450, 6.381658, -0.124426775, 7.769495, 0.5020102, -0.2758541, 10.038823
1464905968485138, 6.6352973, 1.6797615, 7.9776707, -1.2076443, 0.24945784, 10.438935
1464905970894877, 6.3338017, -0.21296121, 7.719246, 0.5875671, -0.29540968, 9.965775
1464905973304617, 6.513263, 0.30149564, 7.989635, 0.09492922, -0.20194149, 10.310091
1464905975714356, 6.580262, 1.5002998, 8.035098, -1.0514941, 0.13457918, 10.439817
1464905978124096, 6.285945, -0.50009996, 7.6809607, 0.85208035, -0.38038063, 9.89392
1464905980533835, 6.6041903, 0.8422736, 8.097312, -0.42652428, -0.056052208, 10.4740715
1464905982943575, 6.506085, 1.0432707, 8.023134, -0.6323272, -0.027929783, 10.362801
1464905985353315, 6.2979093, -0.51206404, 7.6546397, 0.87485594, -0.3419652, 9.881147
1464905987763002, 6.649654, 1.3160524, 8.114061, -0.8727796, 0.07813835, 10.536606
1464905990172742, 6.422336, 0.39481574, 7.91785, -0.004935503, -0.19200754, 10.2008705
1464905992582481, 6.3481584, -0.27517462, 7.771888, 0.6462927, -0.31947374, 10.012858
1464905994992221, 6.6305118, 1.6103697, 8.018349, -1.1501163, 0.19798517, 10.4636965
1464905997401960, 6.3290157, -0.15553348, 7.7144604, 0.52429056, -0.27620554, 9.962046
1464905999811700, 6.4366927, 0.10049855, 7.865208, 0.2813419, -0.22445154, 10.157415
1464906002221440, 6.5515485, 1.5218352, 7.905886, -1.0633488, 0.20943832, 10.323139
1464906004631179, 6.2668023, -0.5024927, 7.537391, 0.8788097, -0.30110788, 9.771111
1464906007040867, 6.5611196, 0.61734825, 7.884351, -0.18147951, -0.011748791, 10.274206
1464906009450606, 6.5108705, 1.1389836, 7.834101, -0.68900144, 0.11962557, 10.226086
1464906011860346, 6.276374, -0.6221339, 7.408179, 1.0139952, -0.2439642, 9.67333
1464906014270085, 6.647261, 1.1030912, 7.8221374, -0.6241441, 0.21743393, 10.303005
1464906016679825, 6.448657, 0.5096712, 7.664211, -0.07632655, 0.014737606, 10.02891
1464906019089565, 6.32423, -0.45702913, 7.3842506, 0.8666463, -0.14804506, 9.693241
1464906021499304, 6.647261, 1.4715859, 7.7001033, -0.9654374, 0.38460207, 10.225616
1464906023909044, 6.3720865, -0.11964113, 7.436893, 0.54966486, -0.061450005, 9.77851
1464906026318783, 6.45105, -0.1052842, 7.496713, 0.5473589, -0.038904667, 9.875561
1464906028728471, 6.6424756, 1.4883357, 7.5828547, -0.9614305, 0.45115662, 10.134564
1464906031138210, 6.35773, -0.5288138, 7.2622166, 0.961814, -0.068526745, 9.618231
1464906033547950, 6.6185474, 0.3589234, 7.537391, 0.1257428, 0.17471552, 10.034935
1464906035957690, 6.5898337, 1.1892328, 7.5254273, -0.6784135, 0.37429142, 10.043501
1464906038367429, 6.3338017, -0.701097, 7.135397, 1.1397226, -0.059631348, 9.498419
1464906040777169, 6.690332, 0.88295156, 7.5349984, -0.36156088, 0.36177492, 10.102215
1464906043186908, 6.5611196, 0.6125626, 7.4392858, -0.11363721, 0.25415754, 9.934234
1464906045596648, 6.422336, -0.60059845, 7.109076, 1.0664688, 0.039583206, 9.539768
1464906048006335, 6.786045, 1.3280165, 7.5110703, -0.763988, 0.56078815, 10.165238
1464906050416075, 6.4965134, 0.0071784677, 7.2957163, 0.46701849, 0.13467932, 9.756844
1464906052825815, 6.5084777, -0.2847459, 7.298109, 0.75061107, 0.064432144, 9.753779
1464906055235554, 6.7334027, 1.4548361, 7.487142, -0.8983166, 0.56842566, 10.1184225
1464906057645294, 6.4271216, -0.46181476, 7.233503, 0.9126365, -0.003686428, 9.644262
1464906060055033, 6.652047, 0.2105684, 7.5182486, 0.27754736, 0.15746784, 10.035751
1464906062464773, 6.680761, 1.282553, 7.556534, -0.7536763, 0.4387579, 10.130062
1464906064874513, 6.3960147, -0.6963114, 7.2263246, 1.1251117, -0.09945774, 9.609258
1464906067284252, 6.728617, 0.72023964, 7.664211, -0.21969604, 0.26017284, 10.2184725
1464906069693940, 6.5754766, 0.7920243, 7.6259255, -0.32216716, 0.1939888, 10.093439
1464906072103679, 6.3720865, -0.6723832, 7.281359, 1.0855231, -0.144804, 9.637138
1464906074513419, 6.7118673, 1.1916257, 7.7407813, -0.6919396, 0.3280468, 10.28603
1464906076923158, 6.4534426, 0.18424734, 7.5756764, 0.24217176, -0.029768944, 9.950489
1464906079332898, 6.4055862, -0.41874397, 7.4943204, 0.8223047, -0.17762947, 9.831785
1464906081742638, 6.6831536, 1.4668003, 7.752745, -0.9644387, 0.37841225, 10.288235
1464906084152377, 6.3744793, -0.33499518, 7.513463, 0.72913516, -0.18835497, 9.830118
1464906086562065, 6.515656, 0.09092726, 7.7240314, 0.3162886, -0.09734249, 10.100159
1464906088971804, 6.5898337, 1.416551, 7.7647095, -0.9443431, 0.29890633, 10.23436
1464906091381544, 6.273981, -0.5838487, 7.4344997, 0.95068586, -0.27428627, 9.695177
1464906093791283, 6.580262, 0.64845496, 7.8293157, -0.218624, 0.038730145, 10.245449
1464906096201023, 6.515656, 1.012164, 7.798209, -0.57567805, 0.11212063, 10.195406
1464906098610763, 6.290731, -0.62931234, 7.446464, 0.9968966, -0.27160358, 9.713474
1464906101020502, 6.647261, 1.1629118, 7.941778, -0.7147658, 0.16331863, 10.395803
1464906103430242, 6.4199433, 0.4331009, 7.8029947, -0.04604447, -0.11318827, 10.113112
1464906105839929, 6.314659, -0.43070808, 7.6594253, 0.7776935, -0.33111668, 9.900139
1464906108249669, 6.623333, 1.5026926, 7.9968133, -1.0576904, 0.20879889, 10.436155
1464906110659408, 6.300302, -0.13878371, 7.757531, 0.483186, -0.32110882, 9.977764
1464906113069148, 6.364908, -0.011964113, 7.932207, 0.35106146, -0.34926987, 10.158094
1464906115478888, 6.498906, 1.5290136, 8.013563, -1.1093049, 0.121688366, 10.370415
1464906117888627, 6.178268, -0.50009996, 7.7216387, 0.807919, -0.48320198, 9.856906
1464906120298367, 6.407979, 0.5288138, 8.068598, -0.18275726, -0.24627161, 10.312617
1464906122708106, 6.3457656, 1.1772687, 8.030313, -0.8147993, -0.08968592, 10.269794
1464906125117794, 6.0801625, -0.6221339, 7.6570325, 0.91820335, -0.5244012, 9.739994
1464906127527533, 6.4127645, 1.0408778, 8.128419, -0.6745434, -0.13927889, 10.38286
1464906129937273, 6.204589, 0.6053841, 7.984849, -0.28218472, -0.31611395, 10.121348
1464906132347013, 6.0490556, -0.49292147, 7.7120676, 0.7789426, -0.5477333, 9.767461
1464906134756752, 6.384051, 1.4285151, 8.090134, -1.0547467, -0.023064137, 10.350556
1464906137166492, 6.1184473, 0.0071784677, 7.8197446, 0.29177463, -0.4249401, 9.915551
1464906139576231, 6.113662, -0.17228323, 7.8723865, 0.45615673, -0.50908136, 9.94554
1464906141985919, 6.3290157, 1.5170496, 8.003992, -1.1404979, 0.014178276, 10.252846
1464906144395658, 6.0251274, -0.44745782, 7.692925, 0.73529613, -0.5244546, 9.740009
1464906146805398, 6.235696, 0.3182454, 8.01117, -5.658865E-4, -0.37511683, 10.150042
1464906149215138, 6.2548385, 1.3016955, 8.006385, -0.9430498, -0.10728741, 10.198959
1464906151624877, 5.986842, -0.63170516, 7.628319, 0.91654444, -0.5571265, 9.658269
1464906154034617, 6.3338017, 0.88295156, 8.063812, -0.53388, -0.18864489, 10.276241
1464906156444356, 6.1878395, 0.7896315, 7.958528, -0.46130264, -0.25449896, 10.098192
1464906158854044, 6.0251274, -0.54317075, 7.6259255, 0.83410144, -0.5009432, 9.68531
1464906161263783, 6.407979, 1.3639089, 8.037491, -0.975526, 0.0038704872, 10.323372
1464906163673523, 6.1591253, 0.19142582, 7.783852, 0.1370523, -0.3152933, 9.921774
1464906166083263, 6.128019, -0.25124636, 7.7216387, 0.56752706, -0.40805817, 9.836203
1464906168493002, 6.4175506, 1.5625132, 7.9011, -1.1481189, 0.14407158, 10.233029
1464906170902742, 6.1328044, -0.33260235, 7.5828547, 0.66028035, -0.33630228, 9.729981
1464906173312481, 6.3290157, 0.15314065, 7.793423, 0.20540643, -0.20274544, 10.036634
1464906175722221, 6.4199433, 1.3710874, 7.776674, -0.951197, 0.17774725, 10.130936
1464906178131908, 6.166304, -0.6412765, 7.3986077, 0.9922542, -0.2711029, 9.597702
1464906180541648, 6.4965134, 0.6867401, 7.7886376, -0.26897824, 0.055532455, 10.161877
1464906182951388, 6.3960147, 0.91166544, 7.7096744, -0.4981851, 0.08682537, 10.046068
1464906185361127, 6.204589, -0.6436693, 7.3196445, 1.0108949, -0.20012522, 9.561717
1464906187770867, 6.6041903, 1.2035898, 7.7742805, -0.74709415, 0.27675867, 10.240538
1464906190180606, 6.3768725, 0.30388847, 7.5900335, 0.09699571, -0.0029120445, 9.9174595
1464906192590346, 6.3338017, -0.3900301, 7.4536424, 0.7726089, -0.12604046, 9.757723
1464906195000085, 6.6281185, 1.4859428, 7.7383885, -1.0216942, 0.3665743, 10.239357
1464906197409773, 6.3290157, -0.2656033, 7.470392, 0.65421903, -0.095621586, 9.772238
1464906199819513, 6.4366927, -0.011964113, 7.618747, 0.41194767, -0.05061674, 9.965151
1464906202229252, 6.5682983, 1.4093726, 7.6737823, -0.9480685, 0.34098768, 10.148926
1464906204638992, 6.285945, -0.6364908, 7.350751, 1.011106, -0.16761112, 9.638535
1464906207048731, 6.5659056, 0.44745782, 7.716853, -0.022308946, 0.089886665, 10.141626
1464906209458471, 6.532406, 1.026521, 7.6977105, -0.5863204, 0.22774363, 10.128435
1464906211868210, 6.3218374, -0.7178468, 7.3052874, 1.1034155, -0.13424301, 9.623546
1464906214277898, 6.690332, 1.0049855, 7.7814593, -0.5459242, 0.27721977, 10.293045
1464906216687638, 6.515656, 0.4426722, 7.628319, -0.015075624, 0.10681486, 10.041383
1464906219097377, 6.4031935, -0.55513483, 7.396215, 0.9550333, -0.073654175, 9.751694
1464906221507117, 6.735796, 1.3806586, 7.7551384, -0.8951711, 0.42017412, 10.317047
1464906223916856, 6.4438715, -0.15792629, 7.515856, 0.5634979, -0.024867058, 9.88526
1464906226326596, 6.515656, -0.17706887, 7.6019974, 0.5819173, -0.030027866, 9.996798
1464906228736335, 6.6975107, 1.4596218, 7.735996, -0.9789289, 0.43156528, 10.280478
1464906231146023, 6.393622, -0.552742, 7.4536424, 0.94092464, -0.120769024, 9.789831
1464906233555763, 6.6089764, 0.3278167, 7.7814593, 0.09627533, 0.052558422, 10.213966
1464906235965502, 6.611369, 1.1940185, 7.776674, -0.74364835, 0.2655034, 10.246415
1464906238375242, 6.367301, -0.6939186, 7.393822, 1.0802212, -0.12414217, 9.721645
1464906240784981, 6.73101, 0.8805587, 7.865208, -0.4298588, 0.22515059, 10.3782425
1464906243194721, 6.5659056, 0.68195444, 7.7671022, -0.26044208, 0.11808443, 10.189323
1464906245604460, 6.398408, -0.55752766, 7.487142, 0.941768, -0.126863, 9.818592
1464906248014200, 6.754938, 1.3782659, 7.8867435, -0.90791667, 0.35816956, 10.429619
1464906250423888, 6.472585, 0.083748795, 7.6594253, 0.31835514, -0.0295887, 10.023272
1464906252833627, 6.4845495, -0.22492532, 7.6594253, 0.61968416, -0.0974288, 10.018647
1464906255243367, 6.6927247, 1.5553347, 7.836494, -1.0850495, 0.3739419, 10.358818
1464906257653106, 6.3768725, -0.37806597, 7.5732837, 0.75438845, -0.15112448, 9.87776
1464906260062846, 6.5635123, 0.27038896, 7.850851, 0.12950706, -0.033941746, 10.235759
1464906262472585, 6.5946193, 1.3950156, 7.8628154, -0.95698, 0.2489667, 10.309275
1464906264882325, 6.300302, -0.57906306, 7.5182486, 0.94814163, -0.22057724, 9.77781
1464906267292013, 6.63769, 0.80877405, 7.944171, -0.3812427, 0.088875294, 10.3764
1464906269701752, 6.489335, 0.9236295, 7.8699937, -0.5143765, 0.053182602, 10.2290745
1464906272111492, 6.290731, -0.55034924, 7.530213, 0.9168284, -0.22839689, 9.7820015
1464906274521231, 6.666404, 1.3280165, 7.989635, -0.8869414, 0.20584679, 10.45035
1464906276930971, 6.424729, 0.31345975, 7.793423, 0.07022083, -0.09101534, 10.104437
1464906279340710, 6.326623, -0.31106696, 7.7144604, 0.66103756, -0.2713914, 9.956165
1464906281750450, 6.611369, 1.5696917, 7.9680996, -1.1222943, 0.2559061, 10.408638
1464906284160138, 6.314659, -0.2632105, 7.7001033, 0.6249479, -0.24530983, 9.939069
1464906286569877, 6.45105, 0.11485548, 7.920243, 0.26312816, -0.19416094, 10.210413
1464906288979617, 6.5347986, 1.4763715, 7.9561353, -1.0472023, 0.1613698, 10.347012
1464906291389356, 6.235696, -0.56470615, 7.5996046, 0.9176949, -0.30911827, 9.798931
1464906293799096, 6.546763, 0.6412765, 7.989635, -0.24077159, -0.04200363, 10.346296
1464906296208835, 6.431907, 1.0576276, 7.9274216, -0.6612056, 0.01588583, 10.241806
1464906298618575, 6.175875, -0.5910272, 7.5469627, 0.9322703, -0.33244562, 9.719453
1464906301028263, 6.5682983, 1.1916257, 8.003992, -0.7700486, 0.10184479, 10.393415
1464906303438002, 6.3601227, 0.4761717, 7.834101, -0.092666626, -0.11798048, 10.100917
1464906305847742, 6.2404814, -0.41874397, 7.63789, 0.7729697, -0.30206108, 9.837052
1464906308257481, 6.5682983, 1.5266209, 7.975278, -1.0831674, 0.2073741, 10.38566
1464906310667221, 6.2691956, -0.09092726, 7.7120676, 0.44947338, -0.24578762, 9.925957
1464906313076960, 6.35773, -0.011964113, 7.838887, 0.37583804, -0.24067974, 10.083145
1464906315486700, 6.530013, 1.5888343, 7.9274216, -1.1420236, 0.23461676, 10.327158
1464906317896388, 6.2261243, -0.46899325, 7.6067834, 0.821309, -0.31233263, 9.801817
1464906320306127, 6.501299, 0.5312066, 7.948957, -0.12948692, -0.06963253, 10.2817
1464906322715867, 6.4677997, 1.2394822, 7.9011, -0.80979526, 0.114274025, 10.25316
1464906325125606, 6.2213387, -0.5910272, 7.4943204, 0.96312183, -0.2589202, 9.706934
1464906327535346, 6.599405, 1.0743774, 7.941778, -0.6290414, 0.13223982, 10.361713
1464906329945085, 6.424729, 0.66999036, 7.7790666, -0.25672728, 0.009899616, 10.108111
1464906332354825, 6.290731, -0.45224348, 7.4919276, 0.8394677, -0.17423582, 9.755601
1464906334764513, 6.666404, 1.4979069, 7.8628154, -1.020241, 0.33206034, 10.361341
1464906337174252, 6.3888364, 0.078963146, 7.611569, 0.32807684, -0.061069965, 9.932175
1464906339583992, 6.4271216, -0.12203395, 7.63789, 0.5334759, -0.10581303, 9.968168
1464906341993731, 6.6687965, 1.6223338, 7.7671022, -1.1095641, 0.45203876, 10.295496
1464906344403471, 6.3601227, -0.37567315, 7.448857, 0.7901564, -0.091537, 9.769598
1464906346813210, 6.6041903, 0.36370903, 7.735996, 0.086521626, 0.09195471, 10.177294
1464906349222950, 6.6257257, 1.3782659, 7.7240314, -0.8884311, 0.36980104, 10.224209
1464906351632638, 6.3457656, -0.5814559, 7.3770723, 0.99204224, -0.11191416, 9.696978
1464906354042377, 6.6927247, 0.9212367, 7.8293157, -0.4452263, 0.23375416, 10.328918
1464906356452117, 6.5347986, 0.85184485, 7.7312098, -0.39555752, 0.15904379, 10.14983
1464906358861856, 6.3314085, -0.4953143, 7.4010005, 0.9070677, -0.11367178, 9.709333
1464906361271596, 6.695118, 1.3950156, 7.8436728, -0.90454304, 0.33946753, 10.361486
1464906363681335, 6.431907, 0.21535404, 7.647461, 0.2059794, -0.02137661, 9.992825
1464906366091075, 6.424729, -0.24646074, 7.587641, 0.6549143, -0.107492924, 9.923191
1464906368500763, 6.6592255, 1.5816557, 7.810173, -1.0898192, 0.38722754, 10.320276
1464906370910502, 6.34098, -0.30867413, 7.5254273, 0.7078359, -0.14635563, 9.819008
1464906373320242, 6.530013, 0.16510476, 7.745567, 0.26255393, -0.026287556, 10.128796
1464906375729981, 6.606583, 1.4356936, 7.786245, -0.9525752, 0.3237958, 10.262627
1464906378139721, 6.2955165, -0.57427746, 7.429714, 0.96774924, -0.1930852, 9.705162
1464906380549460, 6.6329045, 0.7106683, 7.8221374, -0.25529796, 0.1413045, 10.276242
1464906382959148, 6.5371914, 0.9810573, 7.769495, -0.5316987, 0.17412233, 10.185743
1464906385368888, 6.3122663, -0.59342, 7.405786, 0.98802507, -0.16065454, 9.697449
1464906387778627, 6.6759753, 1.2418749, 7.874779, -0.76597095, 0.26754427, 10.366522
1464906390188367, 6.4343, 0.36370903, 7.6977105, 0.054217994, -0.017125607, 10.039125
1464906392598106, 6.3338017, -0.3493521, 7.5517483, 0.73912895, -0.17733955, 9.833119
1464906395007846, 6.613762, 1.5672989, 7.8556366, -1.0939076, 0.31451464, 10.325394
1464906397417585, 6.2979093, -0.15314065, 7.5900335, 0.5303519, -0.18149567, 9.847919
1464906399827273, 6.4295144, 0.07178468, 7.7383885, 0.32235098, -0.120895386, 10.055244
1464906402237013, 6.5515485, 1.5529419, 7.8173513, -1.0906851, 0.2936473, 10.255221
1464906404646752, 6.2380886, -0.485743, 7.4847493, 0.85332835, -0.26080275, 9.714681
1464906407056492, 6.5371914, 0.58624154, 7.8436728, -0.15923715, 0.022853374, 10.226236
1464906409466231, 6.4941206, 1.1724831, 7.8317084, -0.731446, 0.15739965, 10.2139225
1464906411875971, 6.250053, -0.5982057, 7.4249287, 0.96854794, -0.24544477, 9.672241
1464906414285710, 6.62094, 1.1126626, 7.879565, -0.65768135, 0.19726753, 10.32913
1464906416695398, 6.4271216, 0.5814559, 7.7503524, -0.17120862, -0.0018253326, 10.083879
1464906419105138, 6.2979093, -0.4426722, 7.5230346, 0.8166362, -0.22044468, 9.784691
1464906421514877, 6.6281185, 1.5050855, 7.8891363, -1.0379349, 0.29894876, 10.357077
1464906423924617, 6.3457656, -0.047856454, 7.6426754, 0.4341426, -0.1593504, 9.923086
1464906426334356, 6.3864436, -0.076570325, 7.7120676, 0.46151304, -0.18061686, 10.001144
1464906428744096, 6.5611196, 1.564906, 7.8197446, -1.0953257, 0.30892658, 10.264036
1464906431153835, 6.2404814, -0.44985065, 7.513463, 0.81687355, -0.26071024, 9.739756
1464906433563523, 6.4869423, 0.3924229, 7.810173, 0.014968038, -0.044590473, 10.160267
1464906435973263, 6.474978, 1.2921243, 7.810173, -0.855101, 0.18283415, 10.189657
1464906438383002, 6.202196, -0.6149554, 7.4273214, 0.97493863, -0.28066683, 9.642679
1464906440792742, 6.5611196, 0.9236295, 7.8867435, -0.4840114, 0.10135126, 10.288712
1464906443202481, 6.393622, 0.7513463, 7.7886376, -0.34271908, -0.0053272247, 10.0989275
1464906445612221, 6.2117677, -0.51445687, 7.470392, 0.87837493, -0.26992083, 9.685716
1464906448021908, 6.5778694, 1.3998013, 7.891529, -0.9425553, 0.23413181, 10.32283
1464906450431648, 6.3074803, 0.10049855, 7.678568, 0.2784623, -0.16980934, 9.932192
1464906452841388, 6.302695, -0.2416751, 7.685746, 0.6036664, -0.2664919, 9.920567
1464906455251127, 6.539584, 1.5529419, 7.850851, -1.0923688, 0.27015305, 10.273626
1464906457660867, 6.209375, -0.37567315, 7.585248, 0.73020256, -0.30569506, 9.777874
1464906460070606, 6.4031935, 0.2632105, 7.834101, 0.12717128, -0.15401936, 10.119457
1464906462480346, 6.45105, 1.402194, 7.838887, -0.9618708, 0.17280579, 10.20173
1464906464890033, 6.151947, -0.6125626, 7.472785, 0.962679, -0.33093643, 9.6451
1464906467299773, 6.503692, 0.77766734, 7.8867435, -0.3579976, 0.019610405, 10.245729
1464906469709513, 6.4008007, 0.93559366, 7.8053875, -0.5224206, 0.035559654, 10.124005
1464906472119252, 6.1830535, -0.57906306, 7.4344997, 0.94236356, -0.2750535, 9.637093
1464906474528992, 6.5539412, 1.3016955, 7.879565, -0.8470478, 0.19261122, 10.294733
1464906476938731, 6.302695, 0.31345975, 7.690532, 0.07778752, -0.12254238, 9.947133
1464906479348419, 6.259624, -0.33499518, 7.578069, 0.70960593, -0.24790382, 9.805981
1464906481758158, 6.556334, 1.5577276, 7.8077803, -1.0842746, 0.30501795, 10.252062
1464906484167898, 6.259624, -0.23449662, 7.520642, 0.62132967, -0.18237591, 9.766199
1464906486577638, 6.393622, 0.10289137, 7.7001033, 0.29663068, -0.11324978, 10.003987
1464906488987377, 6.4941206, 1.4811572, 7.7216387, -1.0185559, 0.288342, 10.142511
1464906491397117, 6.1902323, -0.552742, 7.3746796, 0.93150353, -0.22166681, 9.5965395
1464906493806856, 6.518049, 0.62931234, 7.7503524, -0.1899659, 0.07512951, 10.1443205
1464906496216544, 6.4366927, 1.0504491, 7.7216387, -0.608466, 0.13050127, 10.088156
1464906498626283, 6.206982, -0.6149554, 7.3196445, 1.0078664, -0.18351221, 9.562035
1464906501036023, 6.6041903, 1.160519, 7.798209, -0.69306695, 0.23213768, 10.258654
1464906503445763, 6.3744793, 0.4881358, 7.628319, -0.070682764, 0.007883072, 9.952812
1464906505855502, 6.2787666, -0.4331009, 7.4249287, 0.8276219, -0.15578985, 9.696951
1464906508265242, 6.6352973, 1.5146568, 7.7503524, -1.017608, 0.3800187, 10.257162
1464906510674929, 6.3314085, -0.10289137, 7.501499, 0.5122042, -0.093421936, 9.802996
1464906513084669, 6.4462643, -0.03589234, 7.597212, 0.4615484, -0.053438663, 9.952755
1464906515494408, 6.6281185, 1.5553347, 7.6666036, -1.0463469, 0.4361539, 10.190327
1464906517904148, 6.2979093, -0.4953143, 7.3435726, 0.9019534, -0.11403704, 9.644197
1464906520313888, 6.5754766, 0.47856453, 7.676175, -0.023347795, 0.12137413, 10.118019
1464906522723627, 6.530013, 1.2346965, 7.645068, -0.76117694, 0.29437876, 10.09686
1464906525133367, 6.262017, -0.6197411, 7.2646093, 1.025557, -0.12258482, 9.555347
1464906527543054, 6.63769, 1.0480564, 7.735996, -0.5680488, 0.26869345, 10.22781
1464906529952794, 6.439086, 0.6771688, 7.623533, -0.23306191, 0.09931183, 9.998722
1464906532362533, 6.276374, -0.49052864, 7.350751, 0.89781594, -0.13222647, 9.63553
1464906534772273, 6.623333, 1.4548361, 7.7407813, -0.96723676, 0.3504057, 10.239455
1464906537182013, 6.350551, 0.059820566, 7.5182486, 0.3543573, -0.04944706, 9.835096
1464906539591752, 6.3720865, -0.17467605, 7.52782, 0.5849864, -0.09664583, 9.846346
1464906542001440, 6.597012, 1.5960127, 7.692925, -1.1036677, 0.39553738, 10.191877
1464906544411179, 6.2715883, -0.4019942, 7.4177504, 0.80133355, -0.15656328, 9.687662
1464906546820919, 6.5084777, 0.32063824, 7.692925, 0.120824575, 0.01698494, 10.081137
1464906549230658, 6.5347986, 1.3543376, 7.702496, -0.8717909, 0.2986374, 10.149733
1464906551640398, 6.2380886, -0.61016977, 7.3292155, 1.0069156, -0.19418955, 9.589154
1464906554050138, 6.606583, 0.8757731, 7.7910304, -0.4102317, 0.17318392, 10.242841
1464906556459825, 6.463014, 0.8446664, 7.7240314, -0.40607435, 0.09583759, 10.098049
1464906558869565, 6.300302, -0.526421, 7.408179, 0.926736, -0.16147327, 9.693665
1464906561279304, 6.6855464, 1.3663018, 7.8628154, -0.88100374, 0.30026388, 10.369226
1464906563689044, 6.4199433, 0.22731815, 7.676175, 0.19304478, -0.057828903, 10.007518
1464906566098783, 6.381658, -0.26799613, 7.628319, 0.66913867, -0.1822753, 9.925102
1464906568508523, 6.6448684, 1.5984055, 7.8604226, -1.1078862, 0.33431292, 10.351631
1464906570918263, 6.343373, -0.2847459, 7.6019974, 0.6803488, -0.19804382, 9.879663
1464906573327950, 6.498906, 0.15314065, 7.8173513, 0.25835443, -0.108705044, 10.16325
1464906575737690, 6.5922265, 1.4715859, 7.8556366, -1.0006711, 0.2583108, 10.30854
1464906578147429, 6.262017, -0.55513483, 7.501499, 0.9370483, -0.25458813, 9.73913
1464906580557169, 6.6017976, 0.7082755, 7.891529, -0.26344466, 0.057017803, 10.309654
1464906582966908, 6.498906, 1.0049855, 7.865208, -0.5648599, 0.06907177, 10.23638
1464906585376648, 6.262017, -0.6053841, 7.4847493, 0.9884522, -0.25998402, 9.724001
1464906587786335, 6.613762, 1.2394822, 7.948957, -0.7800704, 0.16355753, 10.384066
1464906590196075, 6.381658, 0.41635114, 7.7790666, -0.01204586, -0.10418081, 10.069845
1464906592605815, 6.302695, -0.33738798, 7.6139617, 0.71959186, -0.24357891, 9.8606825
1464906595015554, 6.6257257, 1.5936198, 7.908279, -1.1210251, 0.27089548, 10.375483
1464906597425294, 6.3194447, -0.13160525, 7.647461, 0.5280375, -0.19165468, 9.905594
1464906599835033, 6.4199433, 0.05742774, 7.795816, 0.35075802, -0.1656475, 10.091742
1464906602244721, 6.546763, 1.5625132, 7.891529, -1.0970731, 0.21646595, 10.311517
1464906604654460, 6.2261243, -0.49292147, 7.578069, 0.86205566, -0.31148195, 9.777248
1464906607064200, 6.5347986, 0.53599226, 7.932207, -0.11163932, -0.051133156, 10.2905655
1464906609473940, 6.472585, 1.1844472, 7.9106717, -0.7482426, 0.07927227, 10.262057
1464906611883679, 6.209375, -0.5982057, 7.4943204, 0.97265196, -0.295578, 9.69771
1464906614293419, 6.597012, 1.1006985, 7.9561353, -0.6464521, 0.11865711, 10.373052
1464906616703158, 6.3960147, 0.5814559, 7.836494, -0.1660245, -0.080379486, 10.130338
1464906619112846, 6.273981, -0.45942193, 7.585248, 0.8475714, -0.26533604, 9.814333
1464906621522585, 6.597012, 1.4907285, 7.944171, -1.0185834, 0.22279215, 10.38102
1464906623932325, 6.300302, -0.019142581, 7.704889, 0.4093787, -0.20682001, 9.94229
1464906626342065, 6.3792653, -0.08135597, 7.7671022, 0.47875476, -0.20216274, 10.037902
1464906628751804, 6.5754766, 1.5816557, 7.867601, -1.1083894, 0.26691628, 10.312028
1464906631161544, 6.250053, -0.4211368, 7.5637126, 0.80949605, -0.24792671, 9.784351
1464906633571231, 6.515656, 0.4019942, 7.8604226, 0.033002973, -0.047804356, 10.217546
1464906635980971, 6.5204415, 1.3160524, 7.867601, -0.8523431, 0.177073, 10.265936
1464906638390710, 6.2237315, -0.60059845, 7.4847493, 0.98169535, -0.27543402, 9.699352
1464906640800450, 6.5922265, 0.94277215, 7.932207, -0.48852527, 0.09828043, 10.344944
1464906643210190, 6.4295144, 0.80877405, 7.853244, -0.38423145, -0.0051879883, 10.174406
1464906645619929, 6.276374, -0.4977071, 7.530213, 0.88689584, -0.23737288, 9.772501
1464906648029617, 6.649654, 1.4189439, 7.9393854, -0.9400201, 0.2518525, 10.407597
1464906650439356, 6.3625154, 0.14596218, 7.7312098, 0.26108885, -0.14256144, 10.009296
1464906652849096, 6.364908, -0.22731815, 7.692925, 0.6275599, -0.20870161, 9.965311
1464906655258835, 6.623333, 1.5936198, 7.881958, -1.1003971, 0.32199192, 10.354656
1464906657668575, 6.300302, -0.3493521, 7.62114, 0.73803246, -0.24946451, 9.863606
1464906660078315, 6.498906, 0.25124636, 7.834101, 0.16875851, -0.082401276, 10.180216
1464906662488054, 6.5443697, 1.402194, 7.838887, -0.93274105, 0.24431372, 10.262231
1464906664897742, 6.2644095, -0.5838487, 7.4823565, 0.97678137, -0.23981857, 9.724081
1464906667307481, 6.6161547, 0.782453, 7.9011, -0.32263148, 0.09295511, 10.329588
1464906669717221, 6.4941206, 0.9451649, 7.850851, -0.5002264, 0.0748539, 10.219931
1464906672126960, 6.2715883, -0.567099, 7.496713, 0.9603078, -0.23943424, 9.740411
1464906674536700, 6.678368, 1.2777673, 7.925029, -0.7953843, 0.24677849, 10.40893
1464906676946440, 6.422336, 0.31585258, 7.733603, 0.10289097, -0.06216812, 10.056855
1464906679356127, 6.3601227, -0.35413775, 7.60439, 0.74766064, -0.20929098, 9.889415
1464906681765867, 6.652047, 1.5481563, 7.8556366, -1.0443506, 0.36432076, 10.350563
1464906684175606, 6.32423, -0.2321038, 7.597212, 0.6266403, -0.19820595, 9.865871
1464906686585346, 6.463014, 0.083748795, 7.7479596, 0.33416736, -0.10516167, 10.083933
1464906688995085, 6.5635123, 1.4883357, 7.7886376, -1.0015116, 0.30844498, 10.240096
1464906691404825, 6.2548385, -0.5599205, 7.460821, 0.9454422, -0.2373538, 9.7031
1464906693814513, 6.587441, 0.6197411, 7.8221374, -0.16702175, 0.083837986, 10.243504
1464906696224252, 6.4965134, 1.0719845, 7.783852, -0.61873996, 0.15795898, 10.175184
1464906698633992, 6.250053, -0.6221339, 7.408179, 1.0114176, -0.22414827, 9.657023
1464906701043731, 6.6568327, 1.1485549, 7.8484583, -0.66530013, 0.25484705, 10.330698
1464906703453471, 6.439086, 0.5024927, 7.6953177, -0.06570554, 0.023809433, 10.046261
1464906705863210, 6.3338017, -0.44985065, 7.4943204, 0.85542876, -0.1704359, 9.783836
1464906708272898, 6.6448684, 1.4907285, 7.834101, -0.9945657, 0.3401165, 10.326899
1464906710682638, 6.3481584, -0.086141616, 7.6019974, 0.49310052, -0.13468266, 9.891188
1464906713092377, 6.4271216, -0.06460621, 7.704889, 0.4716307, -0.13579607, 10.021801
1464906715502117, 6.587441, 1.5529419, 7.8029947, -1.066389, 0.33006668, 10.268721
1464906717911856, 6.2811594, -0.48095736, 7.503892, 0.8708828, -0.221663, 9.756287
1464906720321596, 6.5635123, 0.48095736, 7.8436728, -0.037737727, 0.014501095, 10.238779
1464906722731335, 6.518049, 1.2442678, 7.82453, -0.78314805, 0.18573141, 10.227836
1464906725141023, 6.2261243, -0.6125626, 7.4536424, 0.99567235, -0.26423454, 9.676542
1464906727550763, 6.597012, 1.0049855, 7.91785, -0.5511829, 0.12581015, 10.339405
1464906729960502, 6.4151573, 0.66759753, 7.8053875, -0.2502274, -0.02606535, 10.122289
1464906732370242, 6.257231, -0.5072784, 7.515856, 0.8896999, -0.24255085, 9.749255
1464906734779981, 6.6161547, 1.4452649, 7.9011, -0.96908873, 0.25432634, 10.357888
1464906737189721, 6.3122663, 0.06699903, 7.6737823, 0.32834285, -0.16643095, 9.929783
1464906739599408, 6.32423, -0.2105684, 7.692925, 0.59722835, -0.2381587, 9.940216
1464906742009148, 6.5682983, 1.5720844, 7.8604226, -1.0963769, 0.2751484, 10.3015785
1464906744418888, 6.2548385, -0.38763726, 7.570891, 0.77173126, -0.2508545, 9.794548
1464906746828627, 6.4606214, 0.27517462, 7.8556366, 0.1325888, -0.11922693, 10.173229
1464906749238367, 6.4845495, 1.3495519, 7.881958, -0.90748274, 0.1400299, 10.254405
1464906751648106, 6.1998034, -0.62452674, 7.501499, 0.99550897, -0.30523872, 9.696179
1464906754057794, 6.5778694, 0.8422736, 7.9369926, -0.40146035, 0.043937683, 10.334919
1464906756467533, 6.4008007, 0.8446664, 7.8580294, -0.42491114, -0.03810215, 10.161218
1464906758877273, 6.206982, -0.56470615, 7.5062847, 0.94850993, -0.2717185, 9.70651
1464906761287013, 6.580262, 1.3304094, 7.9369926, -0.8736744, 0.153471, 10.35755
1464906763696752, 6.3050876, 0.22253251, 7.7216387, 0.17492378, -0.16049099, 9.9685
1464906766106492, 6.285945, -0.29910284, 7.63789, 0.6871428, -0.23478842, 9.869784
1464906768516231, 6.5515485, 1.5696917, 7.838887, -1.1045027, 0.24474764, 10.273998
1464906770925919, 6.250053, -0.28235307, 7.5589266, 0.67725766, -0.20745134, 9.786652
1464906773335658, 6.4366927, 0.11964113, 7.735996, 0.3025819, -0.093276024, 10.059359
1464906775745398, 6.5371914, 1.457229, 7.759924, -0.98123044, 0.25692415, 10.200293
1464906778155138, 6.2261243, -0.5814559, 7.4105716, 0.97952306, -0.19593525, 9.644762
1464906780564877, 6.5754766, 0.6867401, 7.800602, -0.2309748, 0.09322214, 10.2223215
1464906782974565, 6.4606214, 1.0456635, 7.7503524, -0.59783787, 0.11806345, 10.125692
1464906785384304, 6.242874, -0.61016977, 7.3770723, 1.0149558, -0.16917276, 9.628512
1464906787794044, 6.613762, 1.2179468, 7.82453, -0.7434462, 0.22151995, 10.288185
1464906790203783, 6.3744793, 0.42831525, 7.664211, 0.002497077, -0.028227806, 9.977814
1464906792613523, 6.285945, -0.3804588, 7.4943204, 0.79166204, -0.16097212, 9.755514
1464906795023263, 6.62094, 1.564906, 7.800602, -1.0752671, 0.30791378, 10.290003
1464906797433002, 6.302695, -0.12921242, 7.5517483, 0.54413754, -0.12916374, 9.821241
1464906799842690, 6.407979, 0.021535404, 7.664211, 0.4012416, -0.090734005, 9.981662
1464906802252429, 6.541977, 1.5529419, 7.757531, -1.075196, 0.2726617, 10.205782
1464906804662169, 6.202196, -0.48095736, 7.429714, 0.8821705, -0.21015072, 9.647634
1464906807071908, 6.5084777, 0.5455636, 7.7671022, -0.09483755, 0.028098583, 10.147711
1464906809481648, 6.474978, 1.2155539, 7.7503524, -0.752659, 0.16052818, 10.14291
1464906811891388, 6.192625, -0.5910272, 7.348358, 0.99634856, -0.18980455, 9.574318
1464906814301075, 6.5898337, 1.0935199, 7.810173, -0.62180793, 0.18227196, 10.256735
1464906816710815, 6.3888364, 0.61734825, 7.692925, -0.18439656, 0.0038013458, 10.017257
1464906819120554, 6.257231, -0.44985065, 7.432107, 0.855301, -0.16924286, 9.68666
1464906821530294, 6.606583, 1.5122639, 7.8029947, -1.0223044, 0.29619598, 10.280457
1464906823940033, 6.302695, 0.0071784677, 7.578069, 0.4070981, -0.12502432, 9.847324
1464906826349773, 6.364908, -0.08135597, 7.6331043, 0.5005594, -0.1317215, 9.925477
1464906828759460, 6.558727, 1.6199409, 7.771888, -1.1340957, 0.2995205, 10.230714
1464906831169200, 6.2285175, -0.3924229, 7.475178, 0.79401064, -0.20149231, 9.703386
1464906833578940, 6.472585, 0.40438703, 7.7647095, 0.028350174, -0.026690483, 10.116674
1464906835988679, 6.458228, 1.3567305, 7.769495, -0.8993881, 0.18463993, 10.152412
1464906838398419, 6.1902323, -0.5694918, 7.372287, 0.96186966, -0.21839237, 9.592759
1464906840808158, 6.5754766, 0.94755775, 7.8149586, -0.48321134, 0.14566898, 10.244688
1464906843217846, 6.391229, 0.8063812, 7.7479596, -0.3727876, 0.018067837, 10.0692425
1464906845627585, 6.2117677, -0.5168497, 7.432107, 0.90751135, -0.23073769, 9.654667
1464906848037325, 6.5922265, 1.4069797, 7.853244, -0.92893565, 0.24692345, 10.3046875
1464906850447065, 6.34098, 0.18424734, 7.63789, 0.22986895, -0.09662628, 9.925581
1464906852856804, 6.343373, -0.22492532, 7.580462, 0.6298944, -0.15621614, 9.865658
1464906855266544, 6.580262, 1.5936198, 7.769495, -1.1026227, 0.34130192, 10.240717
1464906857676231, 6.2644095, -0.33499518, 7.496713, 0.7322233, -0.18999243, 9.745949
1464906860085971, 6.463014, 0.24646074, 7.726424, 0.18452686, -0.04629183, 10.07436
1464906862495710, 6.4965134, 1.457229, 7.7647095, -0.98619336, 0.24916697, 10.177634
1464906864905450, 6.1974106, -0.567099, 7.4129643, 0.9469893, -0.2497921, 9.629245
1464906867315190, 6.5515485, 0.7704889, 7.812566, -0.31998014, 0.09730053, 10.219626
1464906869724929, 6.410372, 0.9738788, 7.771888, -0.54240143, 0.070504665, 10.106649
1464906872134617, 6.209375, -0.58624154, 7.3866434, 0.97037476, -0.2286644, 9.616061
1464906874544356, 6.599405, 1.2658032, 7.8317084, -0.791834, 0.2467866, 10.286018
1464906876954096, 6.34098, 0.34217364, 7.6546397, 0.07011032, -0.06595945, 9.945317
1464906879363835, 6.285945, -0.35413775, 7.52782, 0.7442391, -0.2091279, 9.783096
1464906881773575, 6.558727, 1.5601203, 7.8149586, -1.0779651, 0.31388998, 10.259821
1464906884183315, 6.2644095, -0.21774685, 7.5661054, 0.59535563, -0.21658278, 9.804838
1464906886593002, 6.4055862, 0.086141616, 7.7383885, 0.311566, -0.13888454, 10.040182
1464906889002742, 6.530013, 1.4979069, 7.7886376, -1.024104, 0.3032298, 10.217972
1464906891412481, 6.2117677, -0.53599226, 7.472785, 0.90372217, -0.2829566, 9.686026
1464906893822221, 6.5443697, 0.5982057, 7.82453, -0.15639412, 0.046319008, 10.216814
1464906896231960, 6.4701924, 1.0935199, 7.786245, -0.6473789, 0.13796806, 10.161036
1464906898641700, 6.2285175, -0.62931234, 7.3842506, 1.0172592, -0.22177076, 9.624636
1464906901051388, 6.6089764, 1.1078769, 7.850851, -0.6439929, 0.20466614, 10.299768
1464906903461127, 6.391229, 0.49292147, 7.7096744, -0.079184055, -0.022541046, 10.026121
1464906905870867, 6.2691956, -0.4642076, 7.472785, 0.8407699, -0.2291565, 9.726325
1464906908280606, 6.5946193, 1.4883357, 7.8173513, -1.001952, 0.33843803, 10.2808895
1464906910690346, 6.300302, -0.06699903, 7.570891, 0.45568526, -0.15703249, 9.837904
1464906913100085, 6.381658, -0.06460621, 7.6666036, 0.45874906, -0.1568675, 9.963507
1464906915509825, 6.5611196, 1.5409778, 7.771888, -1.0592269, 0.34004593, 10.226807
1464906917919513, 6.233303, -0.5096712, 7.472785, 0.8768399, -0.25464916, 9.701683
1464906920329252, 6.5228343, 0.42831525, 7.7742805, -0.0022859573, 0.017624378, 10.157261
1464906922738992, 6.4821568, 1.2323036, 7.769495, -0.7855545, 0.20436192, 10.160862
1464906925148731, 6.216553, -0.62931234, 7.4010005, 0.9953799, -0.2640972, 9.630983
1464906927558471, 6.599405, 0.9810573, 7.8580294, -0.5236081, 0.17235422, 10.293657
1464906929968210, 6.4151573, 0.6867401, 7.752745, -0.26919442, 0.022806168, 10.082556
1464906932377898, 6.2787666, -0.5168497, 7.4656067, 0.89353096, -0.22759724, 9.724976
1464906934787638, 6.65444, 1.4237294, 7.8580294, -0.9385513, 0.33573198, 10.347156
1464906937197377, 6.3601227, 0.09092726, 7.6426754, 0.30320847, -0.11154461, 9.938086
1464906939607117, 6.384051, -0.20338993, 7.6570325, 0.58531415, -0.18347454, 9.952455
1464906942016856, 6.606583, 1.5696917, 7.8317084, -1.0867077, 0.35944986, 10.302251
1464906944426544, 6.2979093, -0.37567315, 7.542177, 0.7504146, -0.22206306, 9.801876
1464906946836283, 6.515656, 0.27996024, 7.82453, 0.13075662, -0.059509754, 10.185028
1464906949246023, 6.5371914, 1.3782659, 7.8436728, -0.916584, 0.25437355, 10.259283
1464906951655763, 6.259624, -0.6149554, 7.4656067, 0.97881556, -0.27337265, 9.7089405
1464906954065502, 6.6089764, 0.8422736, 7.893922, -0.3974985, 0.12646055, 10.321239
1464906956475242, 6.45105, 0.86141616, 7.834101, -0.44633, 0.04691267, 10.174961
1464906958884929, 6.262017, -0.5814559, 7.463214, 0.95188797, -0.24296808, 9.710067
1464906961294669, 6.649654, 1.3232309, 7.920243, -0.852324, 0.26023197, 10.38773
1464906963704408, 6.3792653, 0.23928227, 7.7120676, 0.15891397, -0.094567776, 10.009699
1464906966114148, 6.3361945, -0.34217364, 7.6163545, 0.7225162, -0.22091961, 9.884457
1464906968523888, 6.6017976, 1.5314065, 7.8484583, -1.0529034, 0.3276143, 10.310738
1464906970933627, 6.283552, -0.30867413, 7.5924263, 0.6814779, -0.23556232, 9.833786
1464906973343315, 6.465407, 0.09810573, 7.776674, 0.30183542, -0.10790062, 10.108662
1464906975753054, 6.5443697, 1.4620147, 7.8293157, -0.9939698, 0.29418516, 10.256214
1464906978162794, 6.2309103, -0.5886344, 7.479964, 0.94962144, -0.28985882, 9.702309
1464906980572533, 6.582655, 0.6436693, 7.853244, -0.20337415, 0.078297615, 10.265067
1464906982982273, 6.4773707, 1.0145568, 7.836494, -0.5772522, 0.11452007, 10.200488
1464906985392013, 6.2261243, -0.63170516, 7.436893, 1.0039172, -0.25492954, 9.664276
1464906987801752, 6.623333, 1.2083755, 7.9154572, -0.7479794, 0.20999765, 10.362413
1464906990211440, 6.3888364, 0.40917268, 7.7742805, -0.009870529, -0.07932186, 10.070637
1464906992621179, 6.300302, -0.41635114, 7.587641, 0.7903718, -0.23957205, 9.836533
1464906995030919, 6.62094, 1.5170496, 7.9011, -1.0383655, 0.30842018, 10.363029
1464906997440658, 6.3050876, -0.17706887, 7.661818, 0.5524013, -0.22803116, 9.90615
1464906999850398, 6.4295144, -0.043070808, 7.798209, 0.4351338, -0.18655014, 10.095963
1464907002260085, 6.5611196, 1.5194423, 7.8963146, -1.0519845, 0.26739168, 10.321368
1464907004669825, 6.2691956, -0.5288138, 7.580462, 0.8909856, -0.29724407, 9.806307
1464907007079565, 6.5635123, 0.46660042, 7.932207, -0.047950864, -0.034377575, 10.30601
1464907009489304, 6.515656, 1.1629118, 7.9298143, -0.7300532, 0.11350775, 10.302536
1464907011899044, 6.2380886, -0.6580262, 7.5469627, 1.0166382, -0.3245225, 9.75523
1464907014308783, 6.62094, 1.0336994, 8.001599, -0.590332, 0.113268375, 10.419676
1464907016718523, 6.4151573, 0.5886344, 7.9106717, -0.19079876, -0.09773588, 10.199681
1464907019128210, 6.300302, -0.4977071, 7.6331043, 0.8685738, -0.29193068, 9.867429
1464907021537950, 6.63769, 1.4644074, 8.006385, -0.999773, 0.23639059, 10.452281
1464907023947690, 6.3481584, -0.011964113, 7.776674, 0.389436, -0.21859884, 10.028782
1464907026357429, 6.4008007, -0.14117654, 7.8053875, 0.52042687, -0.22497797, 10.079325
1464907028767169, 6.573084, 1.5625132, 7.9274216, -1.1008368, 0.25715685, 10.354366
1464907031176908, 6.2548385, -0.44506502, 7.628319, 0.8087562, -0.2969923, 9.837175
1464907033586596, 6.515656, 0.32542387, 7.9130645, 0.0841583, -0.08892107, 10.254816
1464907035996335, 6.5276203, 1.3016955, 7.9274216, -0.8526161, 0.17177677, 10.31464
1464907038406075, 6.235696, -0.62452674, 7.539784, 0.9833766, -0.31447077, 9.749685
1464907040815815, 6.582655, 0.8805587, 8.001599, -0.44962227, 0.055648327, 10.388795
1464907043225554, 6.422336, 0.782453, 7.9346, -0.3841647, -0.04537201, 10.230682
1464907045635294, 6.245267, -0.567099, 7.611569, 0.91899145, -0.3363552, 9.813422
1464907048044981, 6.6089764, 1.3782659, 8.039884, -0.9268228, 0.17389917, 10.456036
1464907050454721, 6.3361945, 0.18903299, 7.8460655, 0.18646693, -0.2102952, 10.082899
1464907052864460, 6.326623, -0.23928227, 7.793423, 0.6049361, -0.29420233, 10.0184
1464907055274200, 6.5515485, 1.5840486, 7.9633136, -1.1340389, 0.23144484, 10.368546
1464907057683940, 6.242874, -0.3182454, 7.6809607, 0.67365766, -0.3005128, 9.875616
1464907060093679, 6.424729, 0.23688944, 7.8891363, 0.1498195, -0.15657473, 10.174713
1464907062503367, 6.489335, 1.4285151, 7.9226356, -0.99047136, 0.17125797, 10.291255
1464907064913106, 6.1830535, -0.60777694, 7.585248, 0.95460063, -0.357646, 9.751736
1464907067322846, 6.5347986, 0.7322037, 7.989635, -0.31201202, -0.014407635, 10.34294
1464907069732585, 6.398408, 0.9738788, 7.9369926, -0.5688421, -0.019494057, 10.225454
1464907072142325, 6.204589, -0.59342, 7.5732837, 0.9462403, -0.33334303, 9.756905
1464907074552065, 6.587441, 1.2562319, 8.013563, -0.8138366, 0.14468479, 10.416641
1464907076961752, 6.3481584, 0.3493521, 7.84128, 0.032259345, -0.15489769, 10.093651
1464907079371492, 6.2979093, -0.3493521, 7.676175, 0.7150539, -0.26548624, 9.905937
1464907081781231, 6.606583, 1.5720844, 7.9274216, -1.106864, 0.2916441, 10.375559
1464907084190971, 6.2787666, -0.15792629, 7.6594253, 0.531809, -0.22150803, 9.888515
1464907086600710, 6.4462643, 0.11485548, 7.810173, 0.2867005, -0.12604475, 10.122661
1464907089010450, 6.5491557, 1.5601203, 7.853244, -1.0921345, 0.2918496, 10.282068
1464907091420138, 6.2404814, -0.47856453, 7.501499, 0.85506845, -0.2354536, 9.729263
1464907093829877, 6.5635123, 0.64606214, 7.834101, -0.20843852, 0.08089161, 10.238176
1464907096239617, 6.463014, 1.1796615, 7.8221374, -0.7446214, 0.1507721, 10.186794
1464907098649356, 6.24766, -0.552742, 7.4177504, 0.9350928, -0.19915438, 9.666837
1464907101059096, 6.6329045, 1.1892328, 7.836494, -0.71288586, 0.2631259, 10.307421
1464907103468835, 6.4031935, 0.5766702, 7.6953177, -0.15337038, 0.02678585, 10.026321
1464907105878523, 6.2787666, -0.41635114, 7.456035, 0.80923355, -0.16687441, 9.72142
1464907108288263, 6.649654, 1.5290136, 7.783852, -1.0332499, 0.3891554, 10.291992
1464907110698002, 6.3338017, -0.019142581, 7.542177, 0.42201608, -0.08234882, 9.839561
1464907113107742, 6.3960147, -0.05742774, 7.587641, 0.46673828, -0.074783325, 9.912676
1464907115517481, 6.582655, 1.579263, 7.692925, -1.0916235, 0.38935423, 10.181515
1464907117927221, 6.2691956, -0.44985065, 7.365108, 0.8520575, -0.1170063, 9.644184
1464907120336960, 6.5371914, 0.44745782, 7.6570325, 0.0017118454, 0.10987854, 10.077358
1464907122746648, 6.5084777, 1.2586247, 7.63789, -0.78616345, 0.29005766, 10.078671
1464907125156388, 6.262017, -0.61734825, 7.233503, 1.0271163, -0.08886051, 9.531773
1464907127566127, 6.652047, 0.9667004, 7.6737823, -0.4799388, 0.30667973, 10.185617
1464907129975867, 6.439086, 0.6795616, 7.5756764, -0.23474735, 0.14158678, 9.961895
1464907132385606, 6.285945, -0.53359944, 7.298109, 0.94106764, -0.09384966, 9.600304
1464907134795294, 6.6448684, 1.3854443, 7.7001033, -0.88902664, 0.38125372, 10.219079
1464907137205033, 6.35773, 0.07178468, 7.479964, 0.35046792, -0.010681629, 9.81085
1464907139614773, 6.3744793, -0.26081768, 7.463214, 0.6787016, -0.06608486, 9.794722
1464907142024513, 6.623333, 1.5337993, 7.649854, -1.0331533, 0.4272132, 10.173073
1464907144434252, 6.309873, -0.4235296, 7.3340015, 0.8325421, -0.07434416, 9.6479435
1464907146843992, 6.541977, 0.20817557, 7.594819, 0.23645431, 0.083809376, 10.022932
1464907149253679, 6.570691, 1.3160524, 7.6139617, -0.8339961, 0.35631895, 10.102272
1464907151663419, 6.2811594, -0.6795616, 7.259824, 1.0844333, -0.11210489, 9.56197
1464907154073158, 6.6257257, 0.75613195, 7.7072816, -0.29070365, 0.20397186, 10.1856785
1464907156482898, 6.4845495, 0.81595254, 7.6426754, -0.36740327, 0.15260315, 10.048252
1464907158892638, 6.302695, -0.6436693, 7.283752, 1.0542074, -0.104715824, 9.595259
1464907161302377, 6.707082, 1.2658032, 7.726424, -0.77123713, 0.37195158, 10.273835
1464907163712117, 6.439086, 0.21296121, 7.539784, 0.2127276, 0.038939, 9.915077
1464907166121804, 6.391229, -0.38763726, 7.420143, 0.80053407, -0.05676508, 9.767933
1464907168531544, 6.661618, 1.5122639, 7.676175, -1.0187345, 0.41726398, 10.21645
1464907170941283, 6.3481584, -0.31106696, 7.4153576, 0.72125185, -0.06834793, 9.739534
1464907173351023, 6.5084777, 0.059820566, 7.62114, 0.36902893, 0.005209446, 10.015459
1464907175760763, 6.5946193, 1.4380864, 7.7096744, -0.9607743, 0.33303976, 10.196185
1464907178170502, 6.283552, -0.61016977, 7.3627152, 1.0063492, -0.15606213, 9.645094
1464907180580190, 6.6161547, 0.6269195, 7.7503524, -0.17826116, 0.13523579, 10.207077
1464907182989929, 6.518049, 1.0313065, 7.728817, -0.588597, 0.17135048, 10.144327
1464907185399669, 6.2787666, -0.63888365, 7.338787, 1.0314984, -0.14987183, 9.623016
1464907187809408, 6.6735826, 1.160519, 7.8149586, -0.69223005, 0.26209497, 10.315485
1464907190219148, 6.4199433, 0.41635114, 7.668997, 0.0013251305, -0.007037163, 10.01012
1464907192628835, 6.326623, -0.4139583, 7.4679995, 0.8127555, -0.14236021, 9.761543
1464907195038575, 6.623333, 1.5074782, 7.7814593, -1.0308626, 0.3275938, 10.272398
1464907197448315, 6.326623, -0.1698904, 7.539784, 0.56597865, -0.1329112, 9.826767
1464907199858054, 6.431907, -0.059820566, 7.652247, 0.46425855, -0.09798908, 9.985228
1464907202267794, 6.587441, 1.5098711, 7.752745, -1.0383472, 0.3285179, 10.227076
1464907204677533, 6.2644095, -0.5240282, 7.432107, 0.915069, -0.1895833, 9.689186
1464907207087221, 6.5611196, 0.46899325, 7.776674, -0.028729796, 0.046838284, 10.185375
1464907209496960, 6.515656, 1.2059826, 7.776674, -0.75358737, 0.18754292, 10.187332
1464907211906700, 6.2668023, -0.6221339, 7.391429, 1.0157006, -0.18533325, 9.6554165
1464907214316440, 6.65444, 1.0432707, 7.8628154, -0.5811783, 0.19813824, 10.335222
1464907216726179, 6.4343, 0.634098, 7.757531, -0.21658039, 0.0059452057, 10.09627
1464907219135919, 6.2931237, -0.48095736, 7.4847493, 0.86900526, -0.1867547, 9.750187
1464907221545658, 6.65444, 1.4787644, 7.8604226, -1.0046643, 0.30313158, 10.351488
1464907223955346, 6.343373, 0.0047856453, 7.661818, 0.39152724, -0.14705849, 9.938155
1464907226365085, 6.3744793, -0.15074782, 7.719246, 0.5424153, -0.1960721, 9.995539
1464907228774825, 6.5682983, 1.5696917, 7.884351, -1.1076441, 0.24291182, 10.319087
1464907231184565, 6.2404814, -0.43070808, 7.597212, 0.80284154, -0.2828622, 9.804191
1464907233594304, 6.4965134, 0.33499518, 7.874779, 0.07377285, -0.08919382, 10.213505
1464907236004044, 6.5108705, 1.3399807, 7.881958, -0.8987113, 0.15144014, 10.270424
1464907238413731, 6.2237315, -0.60777694, 7.487142, 0.9815757, -0.2650242, 9.701947
1464907240823471, 6.606583, 0.8853444, 7.932207, -0.4432959, 0.084694386, 10.351183
1464907243233210, 6.448657, 0.83748794, 7.8580294, -0.41536433, 0.003757, 10.191303
1464907245642950, 6.259624, -0.55034924, 7.503892, 0.9297472, -0.24823618, 9.740026
1464907248052690, 6.63769, 1.3974084, 7.9346, -0.92837894, 0.24272013, 10.39465
1464907250462429, 6.384051, 0.21535404, 7.7503524, 0.18415946, -0.12159395, 10.041004
1464907252872117, 6.3888364, -0.22013968, 7.702496, 0.6098975, -0.19433689, 9.989214
1464907255281856, 6.6305118, 1.6247265, 7.908279, -1.1481652, 0.3022313, 10.37953
1464907257691596, 6.3218374, -0.29192436, 7.63789, 0.67934746, -0.21342516, 9.89349
1464907260101335, 6.5084777, 0.22492532, 7.8699937, 0.1888398, -0.098314285, 10.212852
1464907262511075, 6.5659056, 1.4763715, 7.9154572, -1.0156567, 0.21445608, 10.337685
1464907264920815, 6.2644095, -0.5407779, 7.5732837, 0.9120372, -0.28216457, 9.79686
1464907267330502, 6.606583, 0.7704889, 7.9800634, -0.33433002, 0.04168749, 10.383086
1464907269740242, 6.5108705, 1.0145568, 7.932207, -0.5849427, 0.063173294, 10.295364
1464907272149981, 6.2931237, -0.57427746, 7.5589266, 0.9527488, -0.25941753, 9.802834
1464907274559721, 6.6759753, 1.2777673, 8.013563, -0.8090446, 0.19884968, 10.474945
1464907276969460, 6.4271216, 0.40917268, 7.853244, -0.0021888018, -0.09976721, 10.155729
1464907279379200, 6.3481584, -0.34456646, 7.6833534, 0.73284495, -0.23510838, 9.942808
1464907281788940, 6.6329045, 1.5888343, 7.958528, -1.1143163, 0.27492285, 10.418287
1464907284198627, 6.3361945, -0.15314065, 7.688139, 0.54358214, -0.19931221, 9.947014
1464907286608367, 6.458228, 0.09810573, 7.84128, 0.30253386, -0.14314985, 10.153421
1464907289018106, 6.5754766, 1.5720844, 7.8963146, -1.103183, 0.27337265, 10.332879
1464907291427846, 6.245267, -0.47856453, 7.568498, 0.8522184, -0.27081823, 9.7834015
1464907293837585, 6.5635123, 0.6269195, 7.9369926, -0.19167376, 0.005322933, 10.31658
1464907296247325, 6.491728, 1.2179468, 7.9106717, -0.77610075, 0.1145463, 10.275661
1464907298657013, 6.2404814, -0.53359944, 7.513463, 0.91171455, -0.25201368, 9.735796
1464907301066752, 6.611369, 1.1940185, 7.9968133, -0.7418847, 0.14477539, 10.416985
1464907303476492, 6.4008007, 0.6364908, 7.8556366, -0.2297759, -0.05960083, 10.150372
1464907305886231, 6.3050876, -0.4019942, 7.62114, 0.78286886, -0.2391262, 9.865467
1464907308295971, 6.661618, 1.5314065, 7.982456, -1.0534993, 0.29011583, 10.452174
1464907310705710, 6.350551, -0.06460621, 7.716853, 0.4560287, -0.18862247, 9.981983
1464907313115398, 6.4151573, -0.12203395, 7.7814593, 0.5184182, -0.19676256, 10.070391
1464907315525138, 6.6041903, 1.579263, 7.8867435, -1.0945027, 0.31747103, 10.344631
1464907317934877, 6.273981, -0.4331009, 7.5732837, 0.80895555, -0.25000525, 9.807556
1464907320344617, 6.556334, 0.48095736, 7.879565, -0.050427675, 0.0035214424, 10.261669
1464907322754356, 6.532406, 1.3519448, 7.874779, -0.8953235, 0.21578264, 10.2793045
1464907325164096, 6.2691956, -0.5407779, 7.499106, 0.9250534, -0.22525024, 9.742966
1464907327573783, 6.652047, 1.038485, 7.958528, -0.5785841, 0.16187477, 10.406988
1464907329983523, 6.463014, 0.7704889, 7.865208, -0.34390825, 0.012347221, 10.203297
1464907332393263, 6.2787666, -0.49292147, 7.5493555, 0.87899894, -0.2385807, 9.789234
1464907334803002, 6.6448684, 1.4261223, 7.948957, -0.9538046, 0.26195383, 10.411324
1464907337212742, 6.3601227, 0.10767702, 7.719246, 0.28709447, -0.139256, 9.997385
1464907339622481, 6.3385873, -0.2536392, 7.678568, 0.6367519, -0.22162628, 9.937197
1464907342032169, 6.582655, 1.5553347, 7.8293157, -1.0732706, 0.321733, 10.285582
1464907344441908, 6.276374, -0.4019942, 7.52782, 0.7898007, -0.21146107, 9.775175
1464907346851648, 6.4869423, 0.18903299, 7.7886376, 0.23176914, -0.067911625, 10.135121
1464907349261388, 6.541977, 1.3567305, 7.8053875, -0.887116, 0.24596977, 10.233025
1464907351671127, 6.2524457, -0.6269195, 7.432107, 1.014076, -0.21716022, 9.677129
1464907354080867, 6.62094, 0.782453, 7.865208, -0.32644272, 0.12751913, 10.304745
1464907356490554, 6.4869423, 0.85902333, 7.7910304, -0.4201988, 0.09628534, 10.165268
1464907358900294, 6.2787666, -0.6125626, 7.4033933, 1.0074093, -0.18372679, 9.672628
1464907361310033, 6.652047, 1.2801601, 7.8580294, -0.79562306, 0.27931738, 10.340509
1464907363719773, 6.3768725, 0.22492532, 7.6570325, 0.1906212, -0.061422348, 9.965197
1464907366129513, 6.3074803, -0.37567315, 7.542177, 0.7715773, -0.18720579, 9.807115
1464907368539252, 6.5850477, 1.5266209, 7.786245, -1.0421684, 0.3293481, 10.253021
1464907370948992, 6.2644095, -0.30388847, 7.5062847, 0.6973024, -0.17881536, 9.755064
1464907373358679, 6.4366927, 0.043070808, 7.702496, 0.36843568, -0.09072828, 10.030821
1464907375768419, 6.546763, 1.442872, 7.757531, -0.9630517, 0.31560564, 10.202658
1464907378178158, 6.2404814, -0.6053841, 7.420143, 0.987519, -0.2366767, 9.66113
1464907380587898, 6.5611196, 0.58624154, 7.8317084, -0.14079684, 0.05201769, 10.232552
1464907382997638, 6.4534426, 1.0145568, 7.8077803, -0.5749682, 0.10049343, 10.163513
1464907385407377, 6.206982, -0.6795616, 7.4105716, 1.0554173, -0.26291275, 9.629225
1464907387817065, 6.6041903, 1.1413764, 7.8699937, -0.678246, 0.19714546, 10.312904
1464907390226804, 6.367301, 0.38763726, 7.7072816, 0.019949675, -0.06388855, 10.004524
1464907392636544, 6.262017, -0.47377887, 7.503892, 0.8535662, -0.22971106, 9.7449665
1464907395046283, 6.5922265, 1.4955142, 7.826923, -1.0152634, 0.32181215, 10.286905
1464907397456023, 6.2931237, -0.16749759, 7.5661054, 0.55715215, -0.17818403, 9.825237
1464907399865763, 6.3888364, -0.086141616, 7.661818, 0.48753154, -0.14641953, 9.963384
1464907402275450, 6.5515485, 1.5002998, 7.7814593, -1.0181274, 0.31969786, 10.226729
1464907404685190, 6.2141604, -0.5288138, 7.4656067, 0.89544976, -0.27271986, 9.682692
1464907407094929, 6.513263, 0.44027936, 7.8029947, -0.014629126, -0.0022382736, 10.17364
1464907409504669, 6.472585, 1.2179468, 7.8077803, -0.772102, 0.17579556, 10.183916
1464907411914408, 6.204589, -0.634098, 7.4177504, 1.0018449, -0.27835417, 9.635396
1464907414324148, 6.5754766, 1.0145568, 7.893922, -0.55930036, 0.14453983, 10.307596
1464907416733888, 6.367301, 0.6364908, 7.769495, -0.22780585, -0.0341568, 10.062785
1464907419143575, 6.2237315, -0.5072784, 7.4775705, 0.87870944, -0.2727275, 9.698441
1464907421553315, 6.5754766, 1.4452649, 7.8556366, -0.9691627, 0.28900433, 10.296305
1464907423963054, 6.2787666, 0.019142581, 7.6331043, 0.36199212, -0.18272686, 9.8753805
1464907426372794, 6.3314085, -0.16031912, 7.6570325, 0.53983414, -0.20741606, 9.920088
1464907428782533, 6.5491557, 1.5672989, 7.8029947, -1.0854942, 0.33568382, 10.2442
1464907431192273, 6.216553, -0.4211368, 7.52782, 0.785501, -0.28203535, 9.736242
1464907433601960, 6.4701924, 0.3062813, 7.8077803, 0.10630047, -0.07177496, 10.144072
1464907436011700, 6.4773707, 1.3136597, 7.8197446, -0.85844886, 0.19981956, 10.200666
1464907438421440, 6.1854467, -0.64606214, 7.4512496, 1.0097967, -0.31541014, 9.647751
1464907440831179, 6.546763, 0.8350951, 7.891529, -0.39660305, 0.07790089, 10.27961
1464907443240919, 6.393622, 0.8063812, 7.8293157, -0.39610213, -0.002972126, 10.132618
1464907445650658, 6.209375, -0.57427746, 7.4943204, 0.9314146, -0.31495667, 9.699703
1464907448060346, 6.580262, 1.3351951, 7.9274216, -0.8678639, 0.22665262, 10.3499775
1464907450470085, 6.32423, 0.19381863, 7.733603, 0.19252014, -0.16204882, 9.988932
1464907452879825, 6.302695, -0.26799613, 7.6713896, 0.6391175, -0.2696514, 9.907816
1464907455289565, 6.5659056, 1.5936198, 7.884351, -1.1192986, 0.2908635, 10.318736
1464907457699304, 6.24766, -0.29192436, 7.5996046, 0.6659143, -0.25541258, 9.816506
1464907460109044, 6.4175506, 0.2009971, 7.8173513, 0.19522691, -0.1369791, 10.113332
1464907462518783, 6.4821568, 1.4715859, 7.8580294, -1.0182152, 0.21640348, 10.23958
1464907464928471, 6.192625, -0.5623133, 7.503892, 0.9286113, -0.311625, 9.696071
1464907467338210, 6.5276203, 0.7465607, 7.9106717, -0.31031454, 0.029864311, 10.278559
1464907469747950, 6.4271216, 1.038485, 7.865208, -0.6082671, 0.06293583, 10.191855
1464907472157690, 6.216553, -0.5455636, 7.489535, 0.9200622, -0.28062487, 9.701086
1464907474567429, 6.6257257, 1.2777673, 7.9369926, -0.80634487, 0.23065948, 10.383902
1464907476977169, 6.4055862, 0.44745782, 7.786245, -0.03645003, -0.060039043, 10.092197
1464907479386856, 6.3361945, -0.32303107, 7.60439, 0.71656257, -0.19272566, 9.87562
1464907481796596, 6.65444, 1.6175481, 7.879565, -1.1241841, 0.36180925, 10.372602
1464907484206335, 6.343373, -0.11964113, 7.6163545, 0.5252201, -0.14309692, 9.897738
1464907486616075, 6.472585, 0.124426775, 7.7503524, 0.30340886, -0.07015419, 10.093602
1464907489025815, 6.599405, 1.5984055, 7.8077803, -1.1013778, 0.3575449, 10.2823925
1464907491435554, 6.273981, -0.46899325, 7.472785, 0.8653963, -0.19072723, 9.728312
1464907493845242, 6.570691, 0.61734825, 7.812566, -0.16356891, 0.08830452, 10.2253
1464907496254981, 6.4869423, 1.1940185, 7.793423, -0.73702955, 0.18405724, 10.181673
1464907498664721, 6.24766, -0.55752766, 7.393822, 0.95794904, -0.17671251, 9.646957
1464907501074460, 6.6161547, 1.1437693, 7.853244, -0.6678716, 0.22421646, 10.308191
1464907503484200, 6.4127645, 0.5910272, 7.726424, -0.15511513, 0.017451763, 10.057144
1464907505893940, 6.283552, -0.4426722, 7.475178, 0.8496345, -0.16655636, 9.736923
1464907508303679, 6.62094, 1.5098711, 7.8460655, -1.018692, 0.3140788, 10.321868
1464907510713367, 6.3314085, -0.016749758, 7.6163545, 0.4294322, -0.118701935, 9.894312
1464907513123106, 6.410372, -0.10289137, 7.685746, 0.5173657, -0.12383747, 9.994556
1464907515532846, 6.5898337, 1.5888343, 7.82453, -1.0983953, 0.32978106, 10.288748
1464907517942585, 6.24766, -0.44985065, 7.5326056, 0.84023434, -0.23444891, 9.757807
1464907520352325, 6.506085, 0.4139583, 7.8173513, 0.026373506, -0.013160706, 10.178929
1464907522762065, 6.491728, 1.2849457, 7.810173, -0.8200067, 0.19172812, 10.20212
1464907525171752, 6.216553, -0.61734825, 7.4440713, 1.0080854, -0.22901964, 9.662927
1464907527581492, 6.5778694, 0.971486, 7.9011, -0.5153161, 0.11787844, 10.313102
1464907529991231, 6.4008007, 0.7609176, 7.82453, -0.33798522, -0.0137376785, 10.132032
1464907532400971, 6.235696, -0.52163535, 7.501499, 0.9106016, -0.22888088, 9.723525
1464907534810710, 6.6305118, 1.4093726, 7.9034934, -0.9279434, 0.25604677, 10.36767
1464907537220450, 6.3625154, 0.13878371, 7.6953177, 0.2764619, -0.10434008, 9.981556
1464907539630190, 6.367301, -0.22013968, 7.661818, 0.62785935, -0.17130756, 9.943384
1464907542039877, 6.6281185, 1.5888343, 7.8436728, -1.0914279, 0.34854555, 10.327966
1464907544449617, 6.3122663, -0.36610186, 7.5732837, 0.7690578, -0.18868876, 9.833937
1464907546859356, 6.5252275, 0.21296121, 7.826923, 0.21606928, -0.051674366, 10.1899605
1464907549269096, 6.541977, 1.3782659, 7.8580294, -0.913142, 0.22032881, 10.274403
1464907551678835, 6.250053, -0.6221339, 7.515856, 1.0065846, -0.2617116, 9.739437
1464907554088575, 6.613762, 0.78723866, 7.9274216, -0.33392107, 0.085206985, 10.34828
1464907556498263, 6.4821568, 0.89013004, 7.8460655, -0.44806194, 0.061489105, 10.206218
1464907558908002, 6.2668023, -0.59342, 7.4847493, 0.9909616, -0.21698475, 9.727144
1464907561317742, 6.63769, 1.2777673, 7.9346, -0.8067767, 0.21225119, 10.39007
1464907563727481, 6.367301, 0.24885355, 7.7312098, 0.1605835, -0.1010623, 10.016989
1464907566137221, 6.317052, -0.3804588, 7.6019974, 0.7725478, -0.20699406, 9.859037
1464907568546960, 6.5922265, 1.5290136, 7.836494, -1.0478544, 0.30161953, 10.296454
1464907570956648, 6.259624, -0.2847459, 7.5661054, 0.6753819, -0.2043705, 9.798572
1464907573366388, 6.4199433, 0.02632105, 7.735996, 0.3865816, -0.119019985, 10.044818
1464907575776127, 6.530013, 1.4668003, 7.810173, -0.99514943, 0.2591443, 10.233959
1464907578185867, 6.242874, -0.60059845, 7.448857, 0.9935083, -0.22059965, 9.684212
1464907580595606, 6.5635123, 0.5766702, 7.798209, -0.12896109, 0.079853535, 10.207905
1464907583005346, 6.465407, 1.0360922, 7.786245, -0.59372, 0.12545872, 10.155411
1464907585415085, 6.235696, -0.6580262, 7.372287, 1.0475891, -0.208601, 9.619073
1464907587824773, 6.6329045, 1.1246266, 7.826923, -0.64548707, 0.25564146, 10.297521
1464907590234513, 6.3960147, 0.4235296, 7.688139, 9.405613E-4, -0.011693001, 10.009781
1464907592644252, 6.285945, -0.47377887, 7.4775705, 0.8708545, -0.1900034, 9.739462
1464907595053992, 6.597012, 1.4715859, 7.793423, -0.9867894, 0.32643366, 10.263687
1464907597463731, 6.2955165, -0.14356937, 7.54457, 0.53964907, -0.13204432, 9.811524
1464907599873471, 6.381658, -0.0741775, 7.63789, 0.47915632, -0.11015606, 9.941162
1464907602283210, 6.5515485, 1.5314065, 7.745567, -1.0532941, 0.3404498, 10.199827
1464907604692898, 6.245267, -0.526421, 7.4273214, 0.91625386, -0.20072126, 9.672941
1464907607102638, 6.5347986, 0.4139583, 7.735996, 0.03205633, 0.06047392, 10.134886
1464907609512377, 6.491728, 1.2035898, 7.728817, -0.73896563, 0.23639965, 10.135277
1464907611922117, 6.2309103, -0.6723832, 7.3363943, 1.0604029, -0.19148159, 9.588426
1464907614331856, 6.599405, 0.95712906, 7.7910304, -0.49075294, 0.21553612, 10.241147
1464907616741596, 6.410372, 0.60777694, 7.7001033, -0.18720406, 0.042233944, 10.035789
1464907619151335, 6.283552, -0.53599226, 7.393822, 0.9315687, -0.14276314, 9.672163
1464907621561023, 6.623333, 1.4189439, 7.7671022, -0.934756, 0.35851288, 10.257072
1464907623970763, 6.34098, 0.0, 7.52782, 0.4107561, -0.05111313, 9.833859
1464907626380502, 6.3720865, -0.2009971, 7.5349984, 0.6103812, -0.080034256, 9.850945
1464907628790242, 6.580262, 1.5337993, 7.6833534, -1.0442556, 0.40489006, 10.170149
1464907631199981, 6.24766, -0.46181476, 7.393822, 0.8473317, -0.14622974, 9.6527605
1464907633609721, 6.4701924, 0.25603202, 7.6713896, 0.16463226, 0.020371914, 10.037512
1464907636019460, 6.4965134, 1.3040884, 7.685746, -0.8449725, 0.2957616, 10.108143
1464907638429148, 6.2309103, -0.65324056, 7.298109, 1.039432, -0.1530304, 9.560833
1464907640838888, 6.6017976, 0.7920243, 7.7240314, -0.33195257, 0.21947002, 10.183973
1464907643248627, 6.448657, 0.7896315, 7.661818, -0.35300887, 0.14567518, 10.038242
1464907645658367, 6.2404814, -0.61016977, 7.3172517, 0.9936455, -0.1485753, 9.583772
1464907648068106, 6.6041903, 1.3136597, 7.759924, -0.8422533, 0.337296, 10.233977
1464907650477846, 6.3338017, 0.17467605, 7.5661054, 0.21754086, -0.031502247, 9.866365
1464907652887533, 6.3074803, -0.31106696, 7.5062847, 0.68860126, -0.13910866, 9.7842655
1464907655297273, 6.556334, 1.5433706, 7.733603, -1.0819745, 0.36382818, 10.191816
1464907657707013, 6.2261243, -0.33499518, 7.501499, 0.69869924, -0.18830585, 9.727575
1464907660116752, 6.4008007, 0.15314065, 7.7623167, 0.2296167, -0.1050477, 10.059002
1464907662526492, 6.448657, 1.4237294, 7.8053875, -0.99755585, 0.21248055, 10.173299
1464907664936231, 6.13759, -0.5814559, 7.4775705, 0.9148459, -0.2928934, 9.643621
1464907667345971, 6.4965134, 0.6963114, 7.9011, -0.30126733, 0.018427849, 10.248211
1464907669755658, 6.391229, 1.0001999, 7.8699937, -0.61594784, 0.03941822, 10.168778
1464907672165398, 6.168697, -0.6053841, 7.5086775, 0.9377364, -0.29478407, 9.686758
1464907674575138, 6.539584, 1.2251252, 7.982456, -0.8131666, 0.1373806, 10.35889
1464907676984877, 6.317052, 0.41874397, 7.8173513, -0.060015798, -0.12147093, 10.058484
1464907679394617, 6.2261243, -0.37328035, 7.692925, 0.7013296, -0.31470394, 9.873912
1464907681804356, 6.546763, 1.5696917, 7.9968133, -1.1463534, 0.23724079, 10.38762
1464907684214096, 6.2213387, -0.15074782, 7.7479596, 0.47978503, -0.28469658, 9.922066
1464907686623783, 6.3314085, 0.04546363, 7.9106717, 0.28737402, -0.2520113, 10.125286
1464907689033523, 6.4462643, 1.5409778, 7.975278, -1.1421021, 0.16345978, 10.305478
1464907691443263, 6.1304116, -0.5096712, 7.6666036, 0.81651485, -0.38090754, 9.788092
1464907693853002, 6.4343, 0.56470615, 8.054241, -0.20458764, -0.13074112, 10.321384
1464907696262742, 6.3601227, 1.1796615, 8.018349, -0.8113227, -0.01149416, 10.270264
1464907698672481, 6.1232333, -0.59342, 7.628319, 0.9019028, -0.3765936, 9.751007
1464907701082221, 6.503692, 1.0959128, 8.114061, -0.71482337, 0.019699097, 10.431954
1464907703491908, 6.3122663, 0.5910272, 7.9561353, -0.24665374, -0.14833784, 10.169133
1464907705901648, 6.1830535, -0.47138608, 7.716853, 0.78499776, -0.35369587, 9.862093
1464907708311388, 6.546763, 1.4859428, 8.056634, -1.0663893, 0.20560741, 10.43063
1464907710721127, 6.2715883, -0.0071784677, 7.759924, 0.35252655, -0.20290041, 9.969145
1464907713130867, 6.300302, -0.09810573, 7.834101, 0.4364878, -0.25162697, 10.041052
1464907715540606, 6.503692, 1.579263, 7.9298143, -1.1461957, 0.27429438, 10.3094635
1464907717950346, 6.2117677, -0.44506502, 7.60439, 0.78744745, -0.2590108, 9.794066
1464907720360033, 6.4558353, 0.38524446, 7.9154572, -0.003921747, -0.055767536, 10.221426
1464907722769773, 6.4606214, 1.2921243, 7.908279, -0.8775048, 0.18567324, 10.254052
1464907725179513, 6.2141604, -0.6149554, 7.503892, 0.9705363, -0.2225213, 9.71138
1464907727589252, 6.5850477, 0.9499506, 7.9704924, -0.5253922, 0.14511728, 10.3680725
1464907729998992, 6.4295144, 0.75613195, 7.8604226, -0.3493005, 0.05075836, 10.177036
1464907732408731, 6.259624, -0.53359944, 7.5349984, 0.9051466, -0.18634081, 9.766771
1464907734818419, 6.6305118, 1.3998013, 7.958528, -0.9337064, 0.32347488, 10.406002
1464907737228158, 6.3696938, 0.148355, 7.7120676, 0.24444437, -0.053816795, 10.000418
1464907739637898, 6.35773, -0.2416751, 7.690532, 0.6199229, -0.15465117, 9.960684
1464907742047638, 6.597012, 1.5960127, 7.8604226, -1.1163046, 0.41268158, 10.316862
1464907744457377, 6.300302, -0.35174492, 7.5613194, 0.73959595, -0.134408, 9.819676
1464907746867117, 6.5084777, 0.22253251, 7.8293157, 0.19541192, -0.001531601, 10.181838
1464907749276856, 6.570691, 1.416551, 7.8221374, -0.93865275, 0.35071516, 10.264618
1464907751686544, 6.2883377, -0.6125626, 7.446464, 1.0072079, -0.13563347, 9.71264
1464907754096283, 6.6305118, 0.7848458, 7.891529, -0.32615227, 0.19415379, 10.330141
1464907756506023, 6.4677997, 0.9379865, 7.8197446, -0.50017124, 0.15878582, 10.177685
1464907758915763, 6.24766, -0.55513483, 7.479964, 0.9394763, -0.17450905, 9.714846
1464907761325502, 6.6329045, 1.308874, 7.941778, -0.82962966, 0.29911757, 10.392433
1464907763735242, 6.381658, 0.31345975, 7.726424, 0.10448539, -0.0060634613, 10.025492
1464907766144981, 6.32423, -0.33499518, 7.6139617, 0.7338228, -0.14447546, 9.875279
1464907768554669, 6.623333, 1.5720844, 7.867601, -1.0735481, 0.41057682, 10.340118
1464907770964408, 6.3194447, -0.24885355, 7.587641, 0.6530894, -0.10944128, 9.855511
1464907773374148, 6.4462643, 0.043070808, 7.786245, 0.37038434, -0.06108904, 10.101527
1464907775783888, 6.556334, 1.4811572, 7.82453, -0.99466693, 0.36862707, 10.260475
1464907778193627, 6.2285175, -0.58624154, 7.4679995, 0.9742613, -0.1873498, 9.691482
1464907780603367, 6.5491557, 0.57188463, 7.891529, -0.12721163, 0.087664604, 10.269899
1464907783013106, 6.458228, 1.052842, 7.834101, -0.59958375, 0.18207598, 10.188116
1464907785422846, 6.1974106, -0.6771688, 7.4656067, 1.0597467, -0.21046638, 9.666145
1464907787832533, 6.5682983, 1.1150553, 7.9657063, -0.65912366, 0.19108105, 10.361824
1464907790242273, 6.355337, 0.42592242, 7.8077803, -0.017534733, -0.037012577, 10.0762825
1464907792652013, 6.242874, -0.4761717, 7.6331043, 0.85136014, -0.22961283, 9.8329525
1464907795061752, 6.5515485, 1.4763715, 7.984849, -1.0155383, 0.26668406, 10.380648
1464907797471492, 6.245267, -0.1268196, 7.7407813, 0.50206876, -0.2110734, 9.931894
1464907799881231, 6.32423, -0.06460621, 7.8723865, 0.4423704, -0.21864843, 10.086181
1464907802290919, 6.4965134, 1.5337993, 7.972885, -1.0774903, 0.2514863, 10.339241
1464907804700658, 6.175875, -0.5072784, 7.664211, 0.85574675, -0.31481123, 9.813638
1464907807110398, 6.4438715, 0.42592242, 8.015956, -0.03025198, -0.08819723, 10.293287
1464907809520138, 6.424729, 1.2179468, 8.013563, -0.797367, 0.11100721, 10.311625
1464907811929877, 6.15434, -0.6652047, 7.63789, 1.0068061, -0.3533802, 9.773291
1464907814339617, 6.5252275, 0.97866446, 8.128419, -0.55994636, 0.045316696, 10.454279
1464907816749356, 6.3314085, 0.66041905, 8.001599, -0.27473712, -0.09794474, 10.220736
1464907819159096, 6.161518, -0.53599226, 7.716853, 0.8779856, -0.34658337, 9.844311
1464907821568783, 6.530013, 1.4213367, 8.116454, -0.98396873, 0.17603397, 10.4660845
1464907823978523, 6.250053, 0.019142581, 7.8460655, 0.34303975, -0.22201157, 10.0228405
1464907826388263, 6.262017, -0.19142582, 7.874779, 0.5410104, -0.2809515, 10.044403
1464907828798002, 6.4773707, 1.5481563, 8.008778, -1.1036049, 0.25057173, 10.354367
1464907831207742, 6.1878395, -0.45702913, 7.7001033, 0.80714715, -0.2935195, 9.851507
1464907833617481, 6.4127645, 0.22971097, 8.015956, 0.15604544, -0.14126396, 10.265844
1464907836027221, 6.4462643, 1.3112668, 8.008778, -0.8787042, 0.17059612, 10.325358
1464907838436908, 6.1830535, -0.66999036, 7.6402826, 1.0162027, -0.3128214, 9.793999
1464907840846648, 6.5252275, 0.7848458, 8.085348, -0.368823, 0.048213005, 10.412928
1464907843256388, 6.367301, 0.81595254, 7.999206, -0.4242807, -0.0054807663, 10.247711
1464907845666127, 6.1591253, -0.6125626, 7.649854, 0.9516785, -0.3234148, 9.788772
1464907848075867, 6.5443697, 1.3184453, 8.097312, -0.8764895, 0.20078993, 10.45586
1464907850485606, 6.3074803, 0.21774685, 7.8628154, 0.16137195, -0.12250471, 10.080404
1464907852895346, 6.2668023, -0.2847459, 7.776674, 0.6477711, -0.23151684, 9.967816
1464907855305085, 6.5347986, 1.564906, 7.9776707, -1.0993333, 0.33575392, 10.366991
1464907857714773, 6.2213387, -0.32063824, 7.676175, 0.68124986, -0.21166372, 9.860153
1464907860124513, 6.384051, 0.15074782, 7.9106717, 0.2324878, -0.10959339, 10.163242
1464907862534252, 6.4606214, 1.4500505, 7.9226356, -1.0022628, 0.28746843, 10.272451
1464907864943992, 6.1639113, -0.5886344, 7.568498, 0.9493941, -0.2526188, 9.729197
1464907867353731, 6.501299, 0.6867401, 7.989635, -0.26076764, 0.070455074, 10.319874
1464907869763471, 6.393622, 1.0049855, 7.925029, -0.58348644, 0.11346865, 10.21475
