1464941259229801, -0.043070808, 6.802795, 7.216753, -0.015823126, 0.10238361, 9.917191
timestamp_acc,device_acc_x,device_acc_y,device_acc_z,earth_acc_x,earth_acc_y,earth_acc_z
1464941261639540, -0.016749758, 6.798009, 7.207182, 0.008139849, 0.09197903, 9.906975
1464941264049332, -0.016749758, 6.798009, 7.1808605, 0.015055656, 0.105721, 9.887696
1464941266459072, -0.0047856453, 6.7908306, 7.173682, 0.025692701, 0.10019684, 9.877571
1464941268868811, -0.011964113, 6.786045, 7.1688967, 0.019119024, 0.10306597, 9.870796
1464941271278603, 0.016749758, 6.7740808, 7.1545396, 0.044050932, 0.08878851, 9.852211
1464941273688342, 0.023928227, 6.7669024, 7.152147, 0.048919678, 0.08237028, 9.845587
1464941276098134, 0.0526421, 6.7669024, 7.149754, 0.07331276, 0.06887865, 9.843912
1464941278507874, 0.05742774, 6.7645097, 7.1449685, 0.07610631, 0.06610489, 9.838818
1464941280917613, 0.062213387, 6.7525454, 7.140183, 0.07800698, 0.059045315, 9.827177
1464941283327405, 0.076570325, 6.759724, 7.1306114, 0.094536304, 0.060830593, 9.825108
1464941285737144, 0.09571291, 6.7573314, 7.125826, 0.112336874, 0.053603172, 9.820011
1464941288146936, 0.124426775, 6.74776, 7.1282187, 0.13415456, 0.033020973, 9.815304
1464941290556676, 0.11485548, 6.754938, 7.123433, 0.12767744, 0.04371977, 9.816694
1464941292966467, 0.11724831, 6.759724, 7.1282187, 0.12815595, 0.043034077, 9.823484
1464941295376207, 0.124426775, 6.7669024, 7.1377897, 0.1340146, 0.03874111, 9.835398
1464941297785947, 0.12203395, 6.7812595, 7.1449685, 0.13432431, 0.04485798, 9.850426
1464941300195738, 0.11485548, 6.759724, 7.1425757, 0.120709896, 0.034914494, 9.834005
1464941302605478, 0.09810573, 6.7645097, 7.152147, 0.104010105, 0.039488316, 9.84424
1464941305015269, 0.076570325, 6.7740808, 7.173682, 0.08126545, 0.04219389, 9.866478
1464941307425009, 0.06460621, 6.762117, 7.2023964, 0.057959557, 0.02213049, 9.879327
1464941309834801, 0.050249275, 6.759724, 7.21436, 0.041032314, 0.020035267, 9.88642
1464941312244540, 0.038285162, 6.7501526, 7.2023964, 0.031929255, 0.027085781, 9.871111
1464941314654280, 0.02871387, 6.74776, 7.233503, 0.013175964, 0.010750771, 9.892239
1464941317064072, 0.0071784677, 6.7262244, 7.2502527, -0.016401052, -0.0033392906, 9.889794
1464941319473811, -0.02871387, 6.695118, 7.2502527, -0.058622837, -0.007973194, 9.868541
1464941321883603, -0.059820566, 6.6831536, 7.281359, -0.09752679, -0.020758152, 9.883136
1464941324293342, -0.059820566, 6.6999035, 7.312466, -0.10145712, -0.028749943, 9.917324
1464941326703134, -0.08853444, 6.6927247, 7.3172517, -0.13101578, -0.023940086, 9.915888
1464941329112874, -0.11006984, 6.6735826, 7.338787, -0.16015673, -0.039315224, 9.91864
1464941331522613, -0.11485548, 6.6711893, 7.353144, -0.1667893, -0.046406746, 9.927574
1464941333932405, -0.12203395, 6.664011, 7.3579297, -0.17688549, -0.051188946, 9.926186
1464941336342144, -0.13160525, 6.6735826, 7.365108, -0.18460917, -0.045119286, 9.937943
1464941338751936, -0.124426775, 6.6759753, 7.381858, -0.17980492, -0.05569029, 9.95191
1464941341161676, -0.11006984, 6.6687965, 7.3986077, -0.1712352, -0.077589035, 9.959368
1464941343571467, -0.086141616, 6.680761, 7.3986077, -0.14585233, -0.07976246, 9.967534
1464941345981207, -0.08135597, 6.678368, 7.389036, -0.13804173, -0.07651806, 9.958925
1464941348390999, -0.06699903, 6.6927247, 7.381858, -0.1185205, -0.06862545, 9.963442
1464941350800738, -0.050249275, 6.6831536, 7.3627152, -0.10104656, -0.06990433, 9.942915
1464941353210478, -0.033499517, 6.6975107, 7.348358, -0.07662177, -0.058034897, 9.942178
1464941355620269, -0.0047856453, 6.719046, 7.3340015, -0.039942503, -0.046939373, 9.946325
1464941358030009, 0.021535404, 6.721439, 7.3100734, -0.008433342, -0.041861534, 9.930435
1464941360439801, 0.040677983, 6.7405815, 7.298109, 0.01832962, -0.02996254, 9.9347
1464941362849540, 0.0741775, 6.759724, 7.2861447, 0.05714369, -0.024097443, 9.938986
1464941365259332, 0.078963146, 6.7836523, 7.2861447, 0.06694341, -0.0107626915, 9.955273
1464941367669072, 0.10289137, 6.786045, 7.2622166, 0.096260786, -0.004512787, 9.93939
1464941370078811, 0.10767702, 6.788438, 7.2502527, 0.10477877, 0.0024342537, 9.932253
1464941372488603, 0.11006984, 6.778867, 7.243074, 0.10354328, -0.0021152496, 9.920511
1464941374898342, 0.11485548, 6.788438, 7.240681, 0.10893011, 0.0024733543, 9.925304
1464941377308134, 0.10767702, 6.7740808, 7.2287173, 0.101451874, 0.0033774376, 9.906755
1464941379717874, 0.11006984, 6.7740808, 7.2263246, 0.10431409, 0.0038237572, 9.905006
1464941382127665, 0.13160525, 6.7764735, 7.2119675, 0.12636518, 0.002881527, 9.896182
1464941384537405, 0.11485548, 6.778867, 7.204789, 0.11224222, 0.014875889, 9.892543
1464941386947144, 0.10767702, 6.7740808, 7.204789, 0.10425925, 0.0148386955, 9.889271
1464941389356936, 0.10049855, 6.771688, 7.192825, 0.100595, 0.023706436, 9.878862
1464941391766676, 0.086141616, 6.762117, 7.1784678, 0.08728957, 0.031503677, 9.861818
1464941394176467, 0.076570325, 6.7262244, 7.159325, 0.07299709, 0.023657322, 9.823341
1464941396586207, 0.06699903, 6.7238317, 7.1473613, 0.06636381, 0.03247595, 9.812937
1464941398995999, 0.0526421, 6.7334027, 7.1377897, 0.059111834, 0.04994583, 9.812418
1464941401405738, 0.040677983, 6.728617, 7.135397, 0.04813695, 0.05287981, 9.807383
1464941403815530, 0.033499517, 6.71426, 7.1210403, 0.041414022, 0.05538082, 9.787077
1464941406225269, 0.016749758, 6.71426, 7.123433, 0.026099205, 0.060623646, 9.788795
1464941408635009, 0.0047856453, 6.707082, 7.125826, 0.012328386, 0.059750557, 9.785635
1464941411044801, -0.009571291, 6.707082, 7.135397, -0.002390623, 0.05983925, 9.792618
1464941413454540, -0.03589234, 6.6975107, 7.152147, -0.034124374, 0.055015564, 9.798313
1464941415864332, -0.059820566, 6.6975107, 7.173682, -0.060584784, 0.052515984, 9.814048
1464941418274072, -0.050249275, 6.6927247, 7.1808605, -0.053819656, 0.041049004, 9.8160715
1464941420683863, -0.06460621, 6.6831536, 7.1856465, -0.07123542, 0.038200855, 9.813037
1464941423093603, -0.059820566, 6.6831536, 7.1880393, -0.065172195, 0.035851955, 9.81481
1464941425503342, -0.0526421, 6.7094746, 7.1856465, -0.0493505, 0.05128193, 9.830986
1464941427913134, -0.038285162, 6.721439, 7.1856465, -0.032593966, 0.05262804, 9.839151
1464941430322874, -0.043070808, 6.7238317, 7.190432, -0.03550291, 0.054222107, 9.84428
1464941432732665, -0.05742774, 6.7381887, 7.200003, -0.045547247, 0.06461811, 9.861049
1464941435142405, -0.038285162, 6.745367, 7.192825, -0.023890018, 0.065190315, 9.860697
1464941437552197, -0.023928227, 6.745367, 7.192825, -0.011030912, 0.058805466, 9.860714
1464941439961936, -0.02632105, 6.754938, 7.216753, -0.016271353, 0.052163124, 9.884756
1464941442371676, -0.014356935, 6.7645097, 7.233503, -0.0072920322, 0.04342985, 9.903557
1464941444781467, -0.0023928226, 6.771688, 7.2502527, 7.05719E-4, 0.032643795, 9.920729
1464941447191207, 0.0023928226, 6.7740808, 7.2789664, -0.0028924942, 0.01458931, 9.943405
1464941449600999, -0.0047856453, 6.7932234, 7.2933235, -0.007839203, 0.022084713, 9.966942
1464941452010738, 0.014356935, 6.7812595, 7.312466, -0.0013341904, -0.0054602623, 9.972855
1464941454420530, 0.033499517, 6.771688, 7.32443, 0.009190083, -0.027488232, 9.975136
1464941456830269, 0.02871387, 6.769295, 7.3268228, 0.001967907, -0.028038025, 9.975255
1464941459240009, 0.047856454, 6.7836523, 7.3603225, 0.013712883, -0.047459126, 10.009602
1464941461649801, 0.050249275, 6.7836523, 7.379465, 0.009088039, -0.059728146, 10.02364
1464941464059540, 0.059820566, 6.7812595, 7.3770723, 0.01769209, -0.06393528, 10.020273
1464941466469332, 0.078963146, 6.786045, 7.381858, 0.035095215, -0.07188511, 10.027068
1464941468879072, 0.062213387, 6.7836523, 7.381858, 0.017172337, -0.06611824, 10.025417
1464941471288863, 0.09092726, 6.8051877, 7.381858, 0.047818422, -0.06440067, 10.040132
1464941473698603, 0.11246266, 6.800402, 7.367501, 0.06997824, -0.06802654, 10.026398
1464941476108342, 0.124426775, 6.7908306, 7.3340015, 0.08610964, -0.0595603, 9.995375
1464941478518134, 0.11485548, 6.7836523, 7.298109, 0.08578563, -0.038165092, 9.964172
1464941480927874, 0.10767702, 6.7764735, 7.271788, 0.084802866, -0.023673534, 9.939988
1464941483337665, 0.09092726, 6.7836523, 7.23111, 0.08261514, 0.011541367, 9.915049
1464941485747405, 0.086141616, 6.7812595, 7.207182, 0.08473945, 0.02668333, 9.895882
1464941488157197, 0.0741775, 6.7740808, 7.192825, 0.07495117, 0.03466034, 9.880465
1464941490566936, 0.050249275, 6.7669024, 7.176075, 0.056423664, 0.050423622, 9.863256
1464941492976728, 0.040677983, 6.771688, 7.1712894, 0.05010867, 0.05913925, 9.863001
1464941495386467, 0.02871387, 6.7501526, 7.166504, 0.033872128, 0.053216934, 9.844805
1464941497796259, 0.02871387, 6.73101, 7.173682, 0.025145054, 0.03472328, 9.837031
1464941500205999, 0.038285162, 6.7262244, 7.164111, 0.03508067, 0.03316927, 9.826786
1464941502615738, 0.019142581, 6.73101, 7.159325, 0.021478176, 0.046122074, 9.826506
1464941505025530, 0.0, 6.728617, 7.1425757, 0.008844614, 0.06341267, 9.8125725
1464941507435269, -0.019142581, 6.7262244, 7.164111, -0.0155406, 0.056711197, 9.826672
1464941509845061, -0.031106694, 6.71426, 7.176075, -0.033884525, 0.0470891, 9.827255
1464941512254801, -0.033499517, 6.7118673, 7.204789, -0.045591354, 0.028549194, 9.846643
1464941514664592, -0.043070808, 6.7262244, 7.21436, -0.052585125, 0.03610611, 9.863413
1464941517074332, -0.050249275, 6.7405815, 7.240681, -0.06202221, 0.03255987, 9.892448
1464941519484072, -0.05742774, 6.721439, 7.274181, -0.084682465, 0.003109455, 9.903917
1464941521893863, -0.043070808, 6.735796, 7.2789664, -0.068597555, 0.0036625862, 9.917232
1464941524303603, -0.03589234, 6.7429743, 7.3028946, -0.0672667, -0.009419441, 9.9396515
1464941526713394, -0.04546363, 6.7405815, 7.300502, -0.0754416, -0.004667759, 9.9362545
1464941529123134, -0.023928227, 6.762117, 7.300502, -0.04911828, -4.029274E-4, 9.950967
1464941531532926, -0.0071784677, 6.7405815, 7.3100734, -0.044367313, -0.026535988, 9.943338
1464941533942665, 0.0, 6.762117, 7.3196445, -0.033778667, -0.021605968, 9.965029
1464941536352457, 0.019142581, 6.7740808, 7.3172517, -0.012014151, -0.021178246, 9.971465
1464941538762197, 0.02871387, 6.7812595, 7.314859, -3.540516E-4, -0.019463062, 9.974622
1464941541171936, 0.03589234, 6.7645097, 7.3100734, 8.0156326E-4, -0.029912472, 9.959727
1464941543581728, 0.038285162, 6.7740808, 7.3028946, 0.008319616, -0.020481586, 9.960995
1464941545991467, 0.047856454, 6.7812595, 7.300502, 0.019986153, -0.018812656, 9.964152
1464941548401259, 0.06460621, 6.7812595, 7.298109, 0.035587072, -0.025133133, 9.962437
1464941550810999, 0.05742774, 6.8051877, 7.2670026, 0.046398163, 0.012712479, 9.955949
1464941553220738, 0.05742774, 6.800402, 7.2670026, 0.044787884, 0.0096001625, 9.952689
1464941555630530, 0.05503492, 6.798009, 7.257431, 0.044060707, 0.014847755, 9.94405
1464941558040269, 0.069391854, 6.788438, 7.24786, 0.055686712, 0.007229805, 9.93056
1464941560450061, 0.059820566, 6.795616, 7.2502527, 0.048856497, 0.01487112, 9.93718
1464941562859801, 0.062213387, 6.778867, 7.2382884, 0.04903388, 0.010520458, 9.917017
1464941565269592, 0.07178468, 6.771688, 7.2263246, 0.05811286, 0.008112431, 9.903397
1464941567679332, 0.09571291, 6.759724, 7.2263246, 0.0754714, -0.010565758, 9.895303
1464941570089124, 0.10049855, 6.771688, 7.223932, 0.08363795, -0.0041742325, 9.901719
1464941572498863, 0.10289137, 6.7812595, 7.233503, 0.08502245, -0.004734516, 9.91526
1464941574908655, 0.11485548, 6.778867, 7.2382884, 0.09346962, -0.014572144, 9.917162
1464941577318394, 0.11246266, 6.762117, 7.2215385, 0.09100485, -0.014282703, 9.893483
1464941579728134, 0.10289137, 6.7501526, 7.233503, 0.073709965, -0.025595665, 9.89407
1464941582137926, 0.062213387, 6.7405815, 7.2526455, 0.027113676, -0.025606155, 9.901453
1464941584547665, 0.03589234, 6.74776, 7.283752, -0.0033826828, -0.028060436, 9.929037
1464941586957457, 0.016749758, 6.7334027, 7.3100734, -0.033118963, -0.04515791, 9.938461
1464941589367197, -0.009571291, 6.728617, 7.331609, -0.06559467, -0.050026894, 9.950883
1464941591776988, -0.0023928226, 6.721439, 7.367501, -0.07292247, -0.07949591, 9.972269
1464941594186728, -0.016749758, 6.707082, 7.389036, -0.09701443, -0.09563351, 9.978202
1464941596596467, -0.031106694, 6.687939, 7.4010005, -0.11973405, -0.10907745, 9.973869
1464941599006259, -0.05503492, 6.6735826, 7.3986077, -0.14459991, -0.10639763, 9.962275
1464941601415999, -0.078963146, 6.6711893, 7.3842506, -0.16149545, -0.08831453, 9.95009
1464941603825790, -0.0741775, 6.6735826, 7.355537, -0.147645, -0.07139826, 9.930722
1464941606235530, -0.09332009, 6.6687965, 7.3363943, -0.15885735, -0.05468607, 9.913425
1464941608645322, -0.083748795, 6.678368, 7.3052874, -0.13766623, -0.033737183, 9.897209
1464941611055061, -0.09332009, 6.6735826, 7.2646093, -0.13536763, -0.007446289, 9.864158
1464941613464853, -0.09332009, 6.678368, 7.2215385, -0.11891961, 0.021142483, 9.83592
1464941615874592, -0.086141616, 6.6855464, 7.190432, -0.099292755, 0.040452003, 9.818084
1464941618284332, -0.08853444, 6.6999035, 7.1688967, -0.09012699, 0.06402874, 9.812105
1464941620694124, -0.08853444, 6.7262244, 7.1617184, -0.079395294, 0.08555937, 9.824791
1464941623103863, -0.059820566, 6.7429743, 7.1473613, -0.0430727, 0.0910697, 9.825777
1464941625513655, -0.0526421, 6.7645097, 7.152147, -0.03089714, 0.09758997, 9.843988
1464941627923394, -0.05742774, 6.7669024, 7.1688967, -0.039526224, 0.09109688, 9.857864
1464941630333186, -0.059820566, 6.7812595, 7.173682, -0.03878951, 0.097424984, 9.87116
1464941632742926, -0.031106694, 6.7932234, 7.1880393, -0.013647318, 0.08359003, 9.8898735
1464941635152717, -0.011964113, 6.812366, 7.190432, 0.008990288, 0.08603382, 9.904712
1464941637562457, 0.021535404, 6.8219376, 7.1976104, 0.038838625, 0.07154274, 9.916563
1464941639972197, 0.033499517, 6.8075805, 7.21436, 0.039645195, 0.0465827, 9.919046
1464941642381988, 0.059820566, 6.8171515, 7.2023964, 0.06851196, 0.047166824, 9.916892
1464941644791728, 0.09810573, 6.8171515, 7.200003, 0.10139942, 0.03088808, 9.915239
1464941647201519, 0.10767702, 6.8195443, 7.190432, 0.113670826, 0.0340147, 9.909894
1464941649611259, 0.14596218, 6.812366, 7.1880393, 0.1442473, 0.012683868, 9.903364
1464941652021051, 0.14117654, 6.814759, 7.1784678, 0.14165545, 0.020772934, 9.898019
1464941654430790, 0.16271193, 6.838687, 7.159325, 0.17464519, 0.038344383, 9.900408
1464941656840582, 0.16271193, 6.8506513, 7.1377897, 0.18522692, 0.0592618, 9.892832
1464941659250322, 0.148355, 6.829116, 7.149754, 0.15957093, 0.043365, 9.886883
1464941661660061, 0.17228323, 6.8410797, 7.140183, 0.18781471, 0.046207905, 9.888117
1464941664069853, 0.18424734, 6.826723, 7.152147, 0.188128, 0.023056507, 9.887131
1464941666479592, 0.148355, 6.8219376, 7.1688967, 0.14913559, 0.027087212, 9.896007
1464941668889384, 0.12203395, 6.826723, 7.173682, 0.123817205, 0.038180828, 9.902727
1464941671299124, 0.11246266, 6.8195443, 7.173682, 0.11176348, 0.037415028, 9.89781
1464941673708915, 0.08135597, 6.8075805, 7.1688967, 0.08147025, 0.046234608, 9.886053
1464941676118655, 0.076570325, 6.802795, 7.173682, 0.07418823, 0.042281628, 9.886268
1464941678528394, 0.062213387, 6.8051877, 7.183254, 0.058731794, 0.043573856, 9.894858
1464941680938186, 0.04546363, 6.7812595, 7.1712894, 0.039658785, 0.042594433, 9.869728
1464941683347926, 0.038285162, 6.762117, 7.1569324, 0.031398773, 0.041310787, 9.846152
1464941685757717, 0.009571291, 6.7525454, 7.1473613, 0.005421877, 0.053462505, 9.832541
1464941688167457, 0.0023928226, 6.7525454, 7.149754, -0.0012176037, 0.054412365, 9.834272
1464941690577249, -0.0023928226, 6.728617, 7.1569324, -0.015357971, 0.036346436, 9.823157
1464941692986988, -0.04546363, 6.728617, 7.1617184, -0.054772854, 0.05151224, 9.826541
1464941695396780, -0.062213387, 6.735796, 7.1856465, -0.074741125, 0.048853874, 9.848876
1464941697806519, -0.078963146, 6.719046, 7.2119675, -0.10301018, 0.028982162, 9.856614
1464941700216259, -0.076570325, 6.721439, 7.233503, -0.10581517, 0.01591301, 9.873993
1464941702626051, -0.08135597, 6.7334027, 7.259824, -0.11347151, 0.008570194, 9.901385
1464941705035790, -0.076570325, 6.7334027, 7.2622166, -0.10985279, 0.0050439835, 9.903145
1464941707445582, -0.078963146, 6.7262244, 7.259824, -0.11354661, 0.002802372, 9.896488
1464941709855322, -0.0741775, 6.728617, 7.283752, -0.114951134, -0.012467861, 9.915617
1464941712265113, -0.086141616, 6.735796, 7.2909307, -0.12537014, -0.008088589, 9.925737
1464941714674853, -0.069391854, 6.719046, 7.3100734, -0.12087524, -0.038099766, 9.928319
1464941717084644, -0.06460621, 6.735796, 7.314859, -0.11301041, -0.03210354, 9.943263
1464941719494384, -0.03589234, 6.7238317, 7.30768, -0.08857012, -0.04771614, 9.929918
1464941721904124, -0.02871387, 6.7118673, 7.300502, -0.08448744, -0.05401039, 9.916516
1464941724313915, -0.021535404, 6.7262244, 7.3172517, -0.07844663, -0.057904243, 9.938575
1464941726723655, -0.0023928226, 6.728617, 7.312466, -0.058983564, -0.061505318, 9.936762
1464941729133447, 0.016749758, 6.7429743, 7.3028946, -0.035696745, -0.054318905, 9.939619
1464941731543186, 0.02871387, 6.745367, 7.3028946, -0.025695562, -0.058037758, 9.94128
1464941733952978, 0.043070808, 6.762117, 7.274181, 9.961128E-4, -0.035337448, 9.931795
1464941736362717, 0.05742774, 6.754938, 7.2693954, 0.011481285, -0.04369688, 9.923434
1464941738772457, 0.06460621, 6.7764735, 7.2526455, 0.029468536, -0.022108078, 9.92594
1464941741182249, 0.062213387, 6.769295, 7.2287173, 0.030263424, -0.01219511, 9.903563
1464941743591988, 0.06699903, 6.786045, 7.200003, 0.048413277, 0.014418125, 9.89406
1464941746001780, 0.0741775, 6.795616, 7.173682, 0.06574583, 0.033792973, 9.881405
1464941748411519, 0.086141616, 6.8051877, 7.140183, 0.08823252, 0.054400444, 9.863543
1464941750821311, 0.09810573, 6.795616, 7.109076, 0.10540986, 0.061821938, 9.83433
1464941753231051, 0.10767702, 6.7908306, 7.0731835, 0.12229514, 0.07507992, 9.804913
1464941755640790, 0.12203395, 6.7764735, 7.0348988, 0.14216137, 0.08289671, 9.7672
1464941758050582, 0.11485548, 6.7764735, 7.01097, 0.1419878, 0.0992012, 9.749743
1464941760460322, 0.09571291, 6.786045, 6.9966135, 0.13209939, 0.12265825, 9.74575
1464941762870113, 0.09571291, 6.7669024, 6.984649, 0.12880373, 0.115989685, 9.723962
1464941765279853, 0.07178468, 6.7836523, 6.987042, 0.11118746, 0.13476086, 9.737111
1464941767689644, 0.06460621, 6.788438, 6.9990063, 0.102647305, 0.13368702, 9.74909
1464941770099384, 0.040677983, 6.771688, 7.0061846, 0.07366133, 0.1287036, 9.742795
1464941772509176, 0.019142581, 6.745367, 7.0348988, 0.03697753, 0.10238743, 9.745682
1464941774918915, 0.011964113, 6.7429743, 7.0612197, 0.020740509, 0.087666035, 9.763224
1464941777328707, -0.011964113, 6.7405815, 7.085148, -0.008662939, 0.08146477, 9.778967
1464941779738447, -0.021535404, 6.754938, 7.1018977, -0.017807722, 0.08467007, 9.800975
1464941782148186, -0.047856454, 6.7381887, 7.1282187, -0.054000378, 0.06874704, 9.808636
1464941784557978, -0.062213387, 6.728617, 7.1545396, -0.0771749, 0.052950382, 9.821245
1464941786967717, -0.086141616, 6.7405815, 7.190432, -0.1049273, 0.04973936, 9.855541
1464941789377509, -0.1052842, 6.7429743, 7.200003, -0.12328577, 0.054623127, 9.864111
1464941791787249, -0.09810573, 6.7166533, 7.223932, -0.1322124, 0.019453049, 9.86359
1464941794197040, -0.09332009, 6.7166533, 7.2526455, -0.13645577, 6.246567E-4, 9.884554
1464941796606780, -0.09332009, 6.7022963, 7.245467, -0.13776135, -0.0034265518, 9.869513
1464941799016519, -0.10289137, 6.6927247, 7.24786, -0.15013194, -0.0069789886, 9.864686
1464941801426311, -0.083748795, 6.6975107, 7.240681, -0.12833047, -0.0066080093, 9.862789
1464941803836051, -0.076570325, 6.6975107, 7.2358956, -0.12043047, -0.006905079, 9.859318
1464941806245842, -0.05742774, 6.680761, 7.223932, -0.10427642, -0.017724514, 9.8392
1464941808655582, -0.0526421, 6.678368, 7.219146, -0.099292755, -0.018455982, 9.834085
1464941811065374, -0.059820566, 6.6687965, 7.2119675, -0.107328415, -0.01391983, 9.822279
1464941813475113, -0.040677983, 6.6687965, 7.2215385, -0.09309268, -0.028263569, 9.829327
1464941815884905, -0.016749758, 6.6759753, 7.243074, -0.07590747, -0.047341824, 9.850027
1464941818294644, -0.03589234, 6.6855464, 7.240681, -0.090447426, -0.029577255, 9.854755
1464941820704436, -0.021535404, 6.678368, 7.2670026, -0.0879302, -0.05674267, 9.869116
1464941823114176, 0.0, 6.687939, 7.2789664, -0.07019687, -0.06648064, 9.884459
1464941825523915, -0.0071784677, 6.6975107, 7.271788, -0.0715003, -0.052648067, 9.885733
1464941827933707, 0.031106694, 6.6975107, 7.257431, -0.03456354, -0.05882597, 9.875387
1464941830343447, 0.05742774, 6.719046, 7.2095747, 0.010256529, -0.026691914, 9.855255
1464941832753238, 0.06460621, 6.745367, 7.192825, 0.028233528, -8.9740753E-4, 9.861038
1464941835162978, 0.09571291, 6.7645097, 7.21436, 0.055673838, -0.015324116, 9.889964
1464941837572769, 0.09810573, 6.7669024, 7.243074, 0.04818344, -0.03095007, 9.912589
1464941839982509, 0.05742774, 6.7812595, 7.257431, 0.011970997, -0.012225151, 9.932713
1464941842392249, 0.0526421, 6.7908306, 7.2670026, 0.0069565773, -0.007870197, 9.946224
1464941844802040, 0.02871387, 6.7836523, 7.2646093, -0.01605463, -4.7636032E-4, 9.93947
1464941847211780, 0.019142581, 6.795616, 7.257431, -0.018204689, 0.017846584, 9.942354
1464941849621572, -0.0047856453, 6.800402, 7.2646093, -0.040296316, 0.027241707, 9.950762
1464941852031311, 0.019142581, 6.7812595, 7.2789664, -0.027867794, -0.0027446747, 9.948286
1464941854441103, 0.021535404, 6.786045, 7.2789664, -0.02418971, -3.695488E-4, 9.951565
1464941856850842, 0.014356935, 6.769295, 7.2693954, -0.03310752, -0.0022153854, 9.933105
1464941859260582, -0.0047856453, 6.7525454, 7.2646093, -0.051267147, 5.1259995E-4, 9.918104
1464941861670374, 0.0, 6.74776, 7.24786, -0.043339014, 0.0053725243, 9.9026165
1464941864080113, 0.0047856453, 6.74776, 7.240681, -0.036840677, 0.007490635, 9.897389
1464941866489905, 0.0023928226, 6.7334027, 7.219146, -0.028974295, 0.016881943, 9.871862
1464941868899644, -0.0047856453, 6.7238317, 7.23111, -0.042238474, 0.0066103935, 9.874061
1464941871309436, -0.009571291, 6.7262244, 7.2526455, -0.048326254, -2.4271011E-4, 9.891447
1464941873719176, -0.02632105, 6.7381887, 7.259824, -0.061555862, 0.010800362, 9.9047985
1464941876128915, -0.014356935, 6.754938, 7.281359, -0.048676968, 0.005779743, 9.932028
1464941878538707, -0.0071784677, 6.786045, 7.298109, -0.037235975, 0.0127129555, 9.965506
1464941880948447, 0.0071784677, 6.800402, 7.3052874, -0.021932364, 0.011257172, 9.980587
1464941883358238, 0.033499517, 6.795616, 7.300502, 0.004117012, 0.0016002655, 9.973907
1464941885767978, 0.023928227, 6.7812595, 7.3028946, -0.009807587, -0.0050821304, 9.965852
1464941888177769, 0.033499517, 6.769295, 7.30768, -0.004722357, -0.01804781, 9.961241
1464941890587509, 0.038285162, 6.7836523, 7.3100734, 0.0034356117, -0.012176514, 9.972784
1464941892997301, 0.0526421, 6.788438, 7.2957163, 0.022953749, -0.0049705505, 9.965572
1464941895407040, 0.059820566, 6.8051877, 7.298109, 0.034065723, 0.0014095306, 9.978749
1464941897816780, 0.059820566, 6.8075805, 7.3172517, 0.028882504, -0.0074596405, 9.994398
1464941900226572, 0.05503492, 6.8075805, 7.3268228, 0.020374537, -0.010534763, 10.0014
1464941902636311, 0.05742774, 6.795616, 7.3292155, 0.017898321, -0.020952702, 9.995016
1464941905046103, 0.069391854, 6.8075805, 7.331609, 0.031758785, -0.01986456, 10.0049515
1464941907455842, 0.083748795, 6.8099732, 7.3340015, 0.042588472, -0.0258708, 10.0083885
1464941909865634, 0.078963146, 6.814759, 7.3268228, 0.04204178, -0.016228676, 10.006371
1464941912275374, 0.10289137, 6.8315086, 7.3363943, 0.06337285, -0.021471024, 10.024885
1464941914685165, 0.11006984, 6.8458657, 7.331609, 0.07586551, -0.012259483, 10.03118
1464941917094905, 0.09810573, 6.8578296, 7.3052874, 0.07381344, 0.016436577, 10.020027
1464941919504644, 0.12203395, 6.8650084, 7.2957163, 0.1004889, 0.01644516, 10.018
1464941921914436, 0.11485548, 6.8745794, 7.259824, 0.10459614, 0.047513008, 9.998244
1464941924324176, 0.11485548, 6.879365, 7.245467, 0.1077168, 0.058133125, 9.991032
1464941926733967, 0.10767702, 6.8913293, 7.219146, 0.11298084, 0.085253716, 9.979883
1464941929143707, 0.086141616, 6.9056864, 7.200003, 0.10393453, 0.11584473, 9.975559
1464941931553499, 0.0741775, 6.903293, 7.1712894, 0.095309496, 0.13525534, 9.95294
1464941933963238, 0.08853444, 6.903293, 7.159325, 0.111807585, 0.1365161, 9.944251
1464941936372978, 0.09092726, 6.8865438, 7.140183, 0.11441541, 0.13616657, 9.9188385
1464941938782769, 0.09571291, 6.879365, 7.140183, 0.116533995, 0.1293683, 9.913967
1464941941192509, 0.09332009, 6.8458657, 7.159325, 0.09791279, 0.09447861, 9.905152
1464941943602301, 0.09810573, 6.8410797, 7.176075, 0.095847845, 0.078958035, 9.914165
1464941946012040, 0.05742774, 6.829116, 7.1976104, 0.049031258, 0.07510328, 9.921577
1464941948421832, 0.05742774, 6.800402, 7.219146, 0.033841133, 0.042809486, 9.917756
1464941950831572, 0.06699903, 6.778867, 7.240681, 0.030376434, 0.011692047, 9.918867
1464941953241311, 0.05742774, 6.7669024, 7.2622166, 0.011715889, -0.0054306984, 9.926422
1464941955651103, 0.06460621, 6.754938, 7.283752, 0.010010958, -0.02844143, 9.934057
1464941958060842, 0.047856454, 6.7334027, 7.3028946, -0.015182257, -0.045374393, 9.933329
1464941960470634, 0.050249275, 6.7381887, 7.331609, -0.01993084, -0.06088829, 9.957616
1464941962880374, 0.05503492, 6.728617, 7.353144, -0.022973537, -0.07983446, 9.966904
1464941965290165, 0.050249275, 6.7238317, 7.3698936, -0.033755064, -0.09120989, 9.975887
1464941967699905, 0.0526421, 6.7238317, 7.4129643, -0.0417459, -0.11575699, 10.007475
1464941970109697, 0.033499517, 6.7238317, 7.429714, -0.06397867, -0.117782116, 10.019667
1464941972519436, 0.033499517, 6.721439, 7.4584284, -0.07108188, -0.13369513, 10.039129
1464941974929176, 0.021535404, 6.719046, 7.503892, -0.09613562, -0.1579299, 10.070765
1464941977338967, 0.02871387, 6.6999035, 7.537391, -0.10318494, -0.19137383, 10.082388
1464941979748707, 0.016749758, 6.6975107, 7.554141, -0.119696856, -0.19803476, 10.09299
1464941982158499, 0.021535404, 6.6759753, 7.5661054, -0.12216544, -0.21969986, 10.0872135
1464941984568238, 0.009571291, 6.6735826, 7.568498, -0.13442779, -0.2176466, 10.087296
1464941986978030, 0.014356935, 6.6711893, 7.5589266, -0.1260035, -0.2132473, 10.078739
1464941989387769, 0.021535404, 6.680761, 7.5469627, -0.11303687, -0.20261097, 10.0765
1464941991797561, 0.016749758, 6.6424756, 7.539784, -0.12715983, -0.22159576, 10.04519
1464941994207301, 0.011964113, 6.6305118, 7.520642, -0.12749839, -0.21700382, 10.023002
1464941996617040, 0.009571291, 6.623333, 7.4847493, -0.12005854, -0.19732714, 9.991836
1464941999026832, 0.033499517, 6.647261, 7.4392858, -0.07725787, -0.1628952, 9.9748535
1464942001436572, 0.050249275, 6.65444, 7.396215, -0.047408104, -0.13898516, 9.948193
1464942003846363, 0.031106694, 6.652047, 7.3579297, -0.05421877, -0.10916233, 9.918416
1464942006256103, 0.02871387, 6.6855464, 7.322037, -0.03709078, -0.06514311, 9.914835
1464942008665842, 0.038285162, 6.7118673, 7.2765737, -0.007504225, -0.023448944, 9.899422
1464942011075634, 0.031106694, 6.7405815, 7.2358956, 0.0045728683, 0.021232605, 9.8890915
1464942013485374, 0.03589234, 6.769295, 7.1856465, 0.03204775, 0.06938076, 9.871796
1464942015895165, 0.047856454, 6.778867, 7.133004, 0.058490276, 0.09959459, 9.839804
1464942018304905, 0.05742774, 6.800402, 7.066005, 0.09296155, 0.15128326, 9.805389
1464942020714697, 0.059820566, 6.812366, 7.02772, 0.10677624, 0.17743349, 9.785595
1464942023124436, 0.08135597, 6.829116, 6.9894347, 0.14243841, 0.20320368, 9.769035
1464942025534228, 0.083748795, 6.826723, 6.9655066, 0.14744782, 0.21036863, 9.750048
1464942027943967, 0.09092726, 6.8219376, 6.9415784, 0.15940332, 0.2189436, 9.7293
1464942030353759, 0.11964113, 6.829116, 6.8985076, 0.1979866, 0.2318883, 9.702968
1464942032763499, 0.1268196, 6.838687, 6.8865438, 0.21094632, 0.24254036, 9.7007675
1464942035173238, 0.12921242, 6.838687, 6.862615, 0.21647286, 0.25160456, 9.683474
1464942037583030, 0.12921242, 6.843473, 6.869794, 0.2158444, 0.2503562, 9.691988
1464942039992769, 0.13878371, 6.8315086, 6.8602223, 0.22361135, 0.2442379, 9.6768675
1464942042402561, 0.16749759, 6.802795, 6.8650084, 0.23807478, 0.20326614, 9.6610775
1464942044812301, 0.13878371, 6.7908306, 6.8745794, 0.20258045, 0.19880629, 9.659913
1464942047222040, 0.11964113, 6.788438, 6.903293, 0.17594528, 0.1880207, 9.679171
1464942049631832, 0.11246266, 6.795616, 6.9248285, 0.16299272, 0.18062067, 9.699852
1464942052041572, 0.10767702, 6.771688, 6.95115, 0.1420579, 0.14971352, 9.702745
1464942054451363, 0.10289137, 6.762117, 6.9822564, 0.12384343, 0.1279006, 9.718902
1464942056861103, 0.08135597, 6.7573314, 6.9990063, 0.09795046, 0.12362862, 9.727763
1464942059270894, 0.06699903, 6.762117, 7.0085773, 0.083529234, 0.12685442, 9.737956
1464942061680634, 0.047856454, 6.762117, 7.04447, 0.05807209, 0.11241388, 9.7640705
1464942064090426, 0.038285162, 6.7740808, 7.0803623, 0.04237771, 0.10254526, 9.798411
1464942066500165, 0.016749758, 6.7836523, 7.0899334, 0.02319479, 0.11247921, 9.811839
1464942068909905, 0.009571291, 6.778867, 7.1066833, 0.010125637, 0.10226011, 9.82077
1464942071319697, 0.0, 6.778867, 7.133004, -0.0028538704, 0.09190893, 9.839935
1464942073729436, -0.016749758, 6.759724, 7.1569324, -0.031410933, 0.07228041, 9.844269
1464942076139228, -0.021535404, 6.74776, 7.1784678, -0.04620385, 0.05346203, 9.851809
1464942078548967, -0.02871387, 6.7501526, 7.204789, -0.059962273, 0.042197704, 9.872639
1464942080958759, -0.021535404, 6.7381887, 7.240681, -0.06658292, 0.010212421, 9.890732
1464942083368499, -0.019142581, 6.7118673, 7.2502527, -0.07607031, -0.013030052, 9.879764
1464942085778238, -0.047856454, 6.687939, 7.2550383, -0.10918403, -0.01734829, 9.866823
1464942088188030, -0.047856454, 6.6592255, 7.2526455, -0.11794758, -0.034599304, 9.845474
1464942090597769, -0.040677983, 6.661618, 7.23111, -0.10226202, -0.022080421, 9.831419
1464942093007561, -0.016749758, 6.666404, 7.219146, -0.07413435, -0.020570278, 9.826056
1464942095417301, 0.016749758, 6.680761, 7.1976104, -0.032724142, -0.013971329, 9.820244
1464942097827092, 0.014356935, 6.680761, 7.204789, -0.037148, -0.017173767, 9.825481
1464942100236832, 0.02871387, 6.7166533, 7.216753, -0.015257835, -0.0066657066, 9.858778
1464942102646572, 0.0071784677, 6.721439, 7.243074, -0.041492224, -0.007978439, 9.881201
1464942105056363, 0.02632105, 6.7262244, 7.281359, -0.035363197, -0.03688574, 9.912537
1464942107466103, 0.03589234, 6.74776, 7.2957163, -0.024207115, -0.03609228, 9.937763
1464942109875894, 0.021535404, 6.771688, 7.312466, -0.035063267, -0.0227952, 9.966275
1464942112285634, 0.038285162, 6.7740808, 7.3172517, -0.022175074, -0.030935287, 9.9714775
1464942114695426, 0.05503492, 6.7669024, 7.30768, -0.006747246, -0.03771019, 9.959654
1464942117105165, 0.038285162, 6.7669024, 7.3052874, -0.020752668, -0.028393269, 9.957832
1464942119514957, 0.040677983, 6.762117, 7.3268228, -0.028391123, -0.044986725, 9.970325
1464942121924332, 0.040677983, 6.7645097, 7.3292155, -0.029125452, -0.04484129, 9.973703
1464942124334436, 0.02871387, 6.745367, 7.3052874, -0.038534164, -0.037312508, 9.943094
1464942126744228, 0.021535404, 6.719046, 7.2957163, -0.050678015, -0.04532242, 9.91811
1464942129153967, 0.033499517, 6.71426, 7.283752, -0.038854122, -0.046682358, 9.906148
1464942131563759, 0.02632105, 6.7094746, 7.2693954, -0.042976618, -0.037825108, 9.892348
1464942133973499, 0.031106694, 6.6999035, 7.2550383, -0.037368536, -0.03759718, 9.875343
1464942136383290, 0.02871387, 6.6975107, 7.24786, -0.038005114, -0.033714294, 9.868452
1464942138793030, 0.038285162, 6.690332, 7.240681, -0.030269146, -0.038485527, 9.85835
1464942141202769, 0.033499517, 6.6927247, 7.24786, -0.03604746, -0.03938389, 9.865207
1464942143612561, 0.03589234, 6.687939, 7.240681, -0.033243656, -0.039239407, 9.856705
1464942146022301, 0.047856454, 6.704689, 7.2358956, -0.016052008, -0.030607224, 9.864693
1464942148432092, 0.05742774, 6.690332, 7.233503, -0.011489153, -0.04287243, 9.853195
1464942150841832, 0.06460621, 6.6975107, 7.2263246, -3.8456917E-4, -0.037085056, 9.852879
1464942153251624, 0.05503492, 6.704689, 7.219146, -0.00488472, -0.023350239, 9.85248
1464942155661363, 0.069391854, 6.7094746, 7.219146, 0.009493351, -0.026692867, 9.855816
1464942158071103, 0.09092726, 6.7094746, 7.216753, 0.02880025, -0.03443241, 9.854179
1464942160480894, 0.08135597, 6.707082, 7.2287173, 0.01617217, -0.038775444, 9.861244
1464942162890634, 0.0741775, 6.7022963, 7.24786, 0.0017006397, -0.049859047, 9.8719425
1464942165300426, 0.083748795, 6.704689, 7.2550383, 0.008867025, -0.05689335, 9.878873
1464942167710165, 0.06460621, 6.7166533, 7.271788, -0.010253191, -0.049964905, 9.899187
1464942170119957, 0.0741775, 6.7166533, 7.2765737, -0.0033817291, -0.05607319, 9.902742
1464942172529697, 0.083748795, 6.719046, 7.2933235, 8.664131E-4, -0.068948746, 9.916674
1464942174939436, 0.08135597, 6.73101, 7.2933235, 0.0030379295, -0.05890894, 9.924828
1464942177349228, 0.07178468, 6.745367, 7.2933235, -0.0010378361, -0.045262337, 9.934568
1464942179758967, 0.05503492, 6.762117, 7.2957163, -0.01108551, -0.02705288, 9.947657
1464942182168759, 0.047856454, 6.7669024, 7.3100734, -0.020355701, -0.029548168, 9.961384
1464942184578499, 0.03589234, 6.788438, 7.30768, -0.022848606, -0.007437229, 9.9742565
1464942186988290, 0.011964113, 6.786045, 7.2933235, -0.04072237, 0.010299206, 9.961996
1464942189398030, 0.0, 6.800402, 7.288538, -0.044359207, 0.028961658, 9.968223
1464942191807769, -0.0047856453, 6.800402, 7.288538, -0.048798084, 0.030846596, 9.968197
1464942194217561, -0.014356935, 6.8099732, 7.2789664, -0.05150032, 0.047194958, 9.967669
1464942196627301, -0.011964113, 6.798009, 7.2789664, -0.051896095, 0.038823605, 9.95953
1464942199037092, -0.038285162, 6.798009, 7.2765737, -0.07485795, 0.051774025, 9.957642
1464942201446832, -0.043070808, 6.7836523, 7.2693954, -0.08023739, 0.049316406, 9.942587
1464942203856624, -0.03589234, 6.7908306, 7.2646093, -0.0700562, 0.053819656, 9.944014
1464942206266363, -0.050249275, 6.788438, 7.2622166, -0.08197975, 0.06018257, 9.940567
1464942208676155, -0.04546363, 6.762117, 7.2670026, -0.087495565, 0.03781128, 9.926155
1464942211085894, -0.047856454, 6.7573314, 7.281359, -0.09476519, 0.027056694, 9.9333935
1464942213495634, -0.023928227, 6.759724, 7.298109, -0.07714152, 0.008460999, 9.947403
1464942215905426, -0.0047856453, 6.754938, 7.312466, -0.06591344, -0.011923313, 9.954742
1464942218315165, 0.0, 6.771688, 7.322037, -0.059161186, -0.008866787, 9.973185
1464942220724957, -0.0023928226, 6.7501526, 7.338787, -0.07350469, -0.031821728, 9.970757
1464942223134697, 0.043070808, 6.7645097, 7.338787, -0.028197765, -0.042521, 9.980764
1464942225544436, 0.050249275, 6.778867, 7.353144, -0.022359133, -0.044566154, 10.001091
1464942227954228, 0.05742774, 6.771688, 7.365108, -0.021914005, -0.059758186, 10.004991
1464942230363967, 0.06460621, 6.7573314, 7.367501, -0.022133589, -0.07338667, 9.996994
1464942232773759, 0.0741775, 6.7764735, 7.3579297, -0.006611347, -0.058975697, 10.003084
1464942235183499, 0.1052842, 6.771688, 7.355537, 0.020295143, -0.07474899, 9.998238
1464942237593290, 0.1268196, 6.7740808, 7.365108, 0.037289858, -0.088739395, 10.006989
1464942240003030, 0.1363909, 6.7908306, 7.3435726, 0.05623746, -0.069141865, 10.002703
1464942242412769, 0.13878371, 6.7908306, 7.3340015, 0.05935979, -0.06462908, 9.995725
1464942244822561, 0.13399807, 6.7932234, 7.3363943, 0.054861546, -0.06258106, 9.999079
1464942247232301, 0.14117654, 6.7740808, 7.3292155, 0.05716753, -0.07401514, 9.980819
1464942249642092, 0.1363909, 6.786045, 7.3172517, 0.058520555, -0.05734825, 9.980204
1464942252051832, 0.11964113, 6.762117, 7.3196445, 0.033140898, -0.067435265, 9.965545
1464942254461572, 0.10767702, 6.762117, 7.3100734, 0.025531054, -0.0561738, 9.958473
1464942256871363, 0.10767702, 6.754938, 7.312466, 0.021059752, -0.06324482, 9.955326
1464942259281103, 0.08853444, 6.754938, 7.298109, 0.008586884, -0.04580021, 9.94471
1464942261690894, 0.078963146, 6.7573314, 7.2693954, 0.009957075, -0.022506237, 9.925285
1464942264100634, 0.05503492, 6.762117, 7.233503, 7.107258E-4, 0.012172699, 9.902155
1464942266510426, 0.033499517, 6.7908306, 7.2095747, -0.0024106503, 0.053756237, 9.9041195
1464942268920165, 0.016749758, 6.800402, 7.183254, -0.0063049793, 0.08351421, 9.891303
1464942271329957, 0.021535404, 6.800402, 7.1569324, 0.006147146, 0.09547043, 9.872106
1464942273739697, 0.0023928226, 6.795616, 7.1306114, -0.0044813156, 0.11685467, 9.849485
1464942276149436, 0.009571291, 6.786045, 7.092326, 0.01066637, 0.12832737, 9.815041
1464942278559228, 0.009571291, 6.7812595, 7.066005, 0.01719141, 0.14123774, 9.792536
1464942280968967, 0.021535404, 6.7764735, 7.0372915, 0.035107613, 0.14790106, 9.768389
1464942283378759, 0.04546363, 6.7573314, 7.0348988, 0.051383495, 0.12609625, 9.753709
1464942285788499, 0.04546363, 6.771688, 7.0348988, 0.05599785, 0.13551855, 9.763509
1464942288198290, 0.047856454, 6.795616, 7.0325055, 0.06607103, 0.14933491, 9.778149
1464942290608030, 0.050249275, 6.7908306, 7.042077, 0.06373429, 0.13929462, 9.781887
1464942293017769, 0.0526421, 6.7836523, 7.0540414, 0.059077263, 0.12441635, 9.7857685
1464942295427561, 0.078963146, 6.8745794, 7.094719, 0.09940839, 0.14748335, 9.8777275
1464942297837301, 0.050249275, 6.5108705, 7.082755, -0.04128623, -0.07221508, 9.6204195
1464942300247092, 0.069391854, 6.9702926, 7.1449685, 0.10481906, 0.18237162, 9.979786
1464942302656832, 0.16031912, 7.1377897, 7.1784678, 0.22840762, 0.22979832, 10.119247
1464942305066572, -0.0023928226, 5.9653068, 7.025327, -0.2485882, -0.37191725, 9.205433
1464942307476363, 0.16031912, 7.5110703, 7.283752, 0.31504202, 0.40992355, 10.451202
1464942309886103, 0.15074782, 6.7645097, 7.1976104, 0.09013748, -0.020731926, 9.878176
1464942312295894, -0.043070808, 6.0370917, 7.099505, -0.28669775, -0.35145116, 9.30836
1464942314705634, 0.21535404, 7.8460655, 7.3627152, 0.4427259, 0.55775976, 10.73823
1464942317115426, 0.078963146, 6.218946, 7.135397, -0.13184929, -0.30970907, 9.459498
1464942319525165, -0.0023928226, 6.4438715, 7.216753, -0.15754938, -0.17564487, 9.672091
1464942321934905, 0.2536392, 7.8293157, 7.3698936, 0.46621156, 0.53003883, 10.732174
1464942324344697, 0.0071784677, 5.759524, 7.056434, -0.31705403, -0.5304942, 9.087546
1464942326754436, 0.069391854, 7.01097, 7.2382884, 0.08094454, 0.15365839, 10.075772
1464942329164228, 0.20817557, 7.472785, 7.3579297, 0.31576085, 0.3229885, 10.479549
1464942331573967, -0.08853444, 5.611169, 7.0085773, -0.44331932, -0.55282545, 8.950479
1464942333983759, 0.11485548, 7.5493555, 7.2933235, 0.2802863, 0.44871426, 10.484209
1464942336393499, 0.11246266, 6.903293, 7.3052874, 0.064022064, 0.020392895, 10.051409
1464942338803238, -0.13878371, 5.804988, 7.1066833, -0.45484722, -0.4623704, 9.154311
1464942341213030, 0.14356937, 7.8460655, 7.3196445, 0.3958614, 0.61770105, 10.706087
1464942343622769, 0.014356935, 6.2644095, 7.1569324, -0.18833923, -0.25568533, 9.505991
1464942346032561, -0.11006984, 6.2524457, 7.2287173, -0.32558942, -0.24842405, 9.549441
1464942348442301, 0.16749759, 7.905886, 7.314859, 0.45011878, 0.6390681, 10.743708
1464942350852040, -0.05503492, 5.8097734, 7.02772, -0.36013162, -0.4423101, 9.100551
1464942353261832, -0.03589234, 6.798009, 7.233503, -0.077629805, 0.065610886, 9.9261
1464942355671572, 0.17706887, 7.6259255, 7.3052874, 0.36650658, 0.458035, 10.545578
1464942358081363, -0.05742774, 5.5872407, 6.8745794, -0.38691545, -0.4951167, 8.836604
1464942360491103, 0.10289137, 7.3842506, 7.2119675, 0.25069833, 0.39416885, 10.311741
1464942362900894, 0.16271193, 7.109076, 7.21436, 0.20967531, 0.18698359, 10.125883
1464942365310634, -0.076570325, 5.709275, 6.8650084, -0.35938048, -0.39936948, 8.912989
1464942367720374, 0.2009971, 7.8077803, 7.1856465, 0.48711538, 0.63978624, 10.582474
1464942370130165, 0.1268196, 6.4414787, 7.058827, 0.0028471947, -0.1384201, 9.555971
1464942372539905, -0.031106694, 6.1064835, 7.003792, -0.23024786, -0.25158048, 9.285845
1464942374949697, 0.26799613, 7.944171, 7.1569324, 0.5940578, 0.71520185, 10.655466
1464942377359436, 0.0741775, 5.9174504, 6.9966135, -0.19679046, -0.41848183, 9.152075
1464942379769228, 0.016749758, 6.6305118, 7.135397, -0.057147026, -0.009144306, 9.740356
1464942382178967, 0.23449662, 7.769495, 7.245467, 0.4756708, 0.56576157, 10.600494
1464942384588707, -0.011964113, 5.6327047, 6.91765, -0.34526694, -0.51411796, 8.899319
1464942386998499, 0.11964113, 7.1976104, 7.243074, 0.18541121, 0.24748898, 10.207174
1464942389408238, 0.20338993, 7.2646093, 7.32443, 0.2552576, 0.20166731, 10.312971
1464942391818030, -0.0741775, 5.6350975, 6.9822564, -0.4152528, -0.5268705, 8.94772
1464942394227769, 0.17706887, 7.6953177, 7.338787, 0.36419654, 0.49241352, 10.61753
1464942396637509, 0.13160525, 6.611369, 7.2502527, 8.4900856E-4, -0.14301968, 9.811892
1464942399047301, -0.076570325, 5.919843, 7.140183, -0.3746649, -0.43256092, 9.257708
1464942401457040, 0.24885355, 7.9346, 7.314859, 0.52257085, 0.62607, 10.763917
1464942403866832, 0.09092726, 6.017949, 7.135397, -0.19898224, -0.43788147, 9.322367
1464942406276572, 0.023928227, 6.422336, 7.2502527, -0.160362, -0.21348095, 9.682036
1464942408686363, 0.22492532, 7.8293157, 7.34118, 0.45854878, 0.5529609, 10.711006
1464942411096103, -0.02632105, 5.666204, 7.02772, -0.37463927, -0.54963374, 9.002942
1464942413505842, 0.05742774, 7.001399, 7.314859, 0.041534424, 0.11370516, 10.1249895
1464942415915634, 0.18185452, 7.4273214, 7.4273214, 0.255239, 0.26894522, 10.498848
1464942418325374, -0.11485548, 5.601598, 7.0348988, -0.47701287, -0.55554414, 8.963521
1464942420735165, 0.11246266, 7.5517483, 7.436893, 0.22842717, 0.37823343, 10.590263
1464942423144905, 0.11485548, 6.795616, 7.4033933, -4.2438507E-5, -0.10034275, 10.049566
1464942425554697, -0.14596218, 5.800202, 7.216753, -0.49314618, -0.5236621, 9.231889
1464942427964436, 0.14117654, 7.8987074, 7.4416785, 0.36500025, 0.5917072, 10.830732
1464942430374176, 0.009571291, 6.1806607, 7.3028946, -0.25722408, -0.39585495, 9.555631
1464942432783967, -0.11724831, 6.259624, 7.379465, -0.36868107, -0.3311839, 9.664759
1464942435193707, 0.15074782, 7.9298143, 7.470392, 0.37324834, 0.5961318, 10.872755
1464942437603499, -0.059820566, 5.761917, 7.207182, -0.42274964, -0.5795984, 9.19957
1464942440013238, 0.0023928226, 6.8602223, 7.4177504, -0.08281255, -0.013494492, 10.103398
1464942442422978, 0.18185452, 7.6019974, 7.487142, 0.29242086, 0.35376263, 10.661616
1464942444832769, -0.06699903, 5.6207404, 7.056434, -0.4277296, -0.57620335, 8.993081
1464942447242509, 0.16031912, 7.4440713, 7.4177504, 0.24448705, 0.30435753, 10.50288
1464942449652301, 0.22492532, 7.0205417, 7.389036, 0.1757381, 0.015122414, 10.1933975
1464942452062040, -0.038285162, 5.7427745, 7.058827, -0.36519563, -0.509213, 9.078287
1464942454471780, 0.2656033, 7.867601, 7.314859, 0.5078974, 0.5967827, 10.717403
1464942456881572, 0.18903299, 6.3601227, 7.1856465, -0.007742405, -0.2823558, 9.5937805
1464942459291311, 0.0, 6.108876, 7.1688967, -0.2525878, -0.3525629, 9.408684
1464942461701103, 0.28953153, 7.982456, 7.2765737, 0.57351565, 0.6819763, 10.768377
1464942464110842, 0.1052842, 5.8624153, 7.066005, -0.20594049, -0.5002098, 9.165959
1464942466520634, 0.124426775, 6.666404, 7.2382884, 0.0144581795, -0.082906246, 9.840841
1464942468930374, 0.29910284, 7.719246, 7.322037, 0.4799974, 0.4785838, 10.622101
1464942471340113, 0.0023928226, 5.6183476, 6.948757, -0.34398866, -0.54159236, 8.912879
1464942473749905, 0.1698904, 7.257431, 7.298109, 0.22913599, 0.24234009, 10.288361
1464942476159644, 0.23928227, 7.1545396, 7.3363943, 0.24186015, 0.11758709, 10.24671
1464942478569436, -0.0526421, 5.6590257, 6.9990063, -0.40921855, -0.51398015, 8.976738
1464942480979176, 0.21774685, 7.752745, 7.3196445, 0.4282663, 0.5274434, 10.642748
1464942483388915, 0.17467605, 6.530013, 7.233503, 0.010538101, -0.19410658, 9.744607
1464942485798707, -0.0526421, 5.9581285, 7.149754, -0.3531661, -0.41212964, 9.291203
1464942488208447, 0.23928227, 7.975278, 7.298109, 0.51821876, 0.68478346, 10.7790165
1464942490618238, 0.076570325, 5.986842, 7.133004, -0.22465014, -0.4430709, 9.299522
1464942493027978, 0.023928227, 6.4701924, 7.2861447, -0.16554618, -0.19313574, 9.741005
1464942495437717, 0.22492532, 7.810173, 7.3627152, 0.4397192, 0.53362465, 10.713583
1464942497847509, -0.0526421, 5.639883, 7.0492554, -0.43619025, -0.55402803, 9.000324
1464942500257249, 0.07178468, 7.056434, 7.365108, 0.050198317, 0.11957979, 10.199333
1464942502667040, 0.17228323, 7.3268228, 7.422536, 0.21157122, 0.21326685, 10.426685
1464942505076780, -0.12921242, 5.613562, 7.0372915, -0.5055448, -0.52601886, 8.973292
1464942507486572, 0.13399807, 7.628319, 7.405786, 0.28339314, 0.43865347, 10.619894
1464942509896311, 0.11246266, 6.687939, 7.34118, -0.028859615, -0.1249609, 9.930643
1464942512306103, -0.148355, 5.855237, 7.1617184, -0.4850663, -0.42931533, 9.229107
1464942514715842, 0.14356937, 7.9537425, 7.3627152, 0.42707205, 0.6644578, 10.810564
1464942517125582, 0.014356935, 6.125626, 7.183254, -0.2544098, -0.3427577, 9.430822
1464942519535374, -0.09332009, 6.290731, 7.2526455, -0.31518054, -0.22630262, 9.593348
1464942521945113, 0.17228323, 7.9298143, 7.3268228, 0.45760107, 0.6601243, 10.767952
1464942524354853, -0.050249275, 5.7667027, 7.02772, -0.37912035, -0.45530057, 9.071671
1464942526764644, 0.040677983, 6.9391856, 7.2646093, 0.020904303, 0.11965561, 10.045584
1464942529174384, 0.20578274, 7.5828547, 7.331609, 0.36352754, 0.41657162, 10.535126
1464942531584176, -0.076570325, 5.682954, 6.908079, -0.3963802, -0.42265248, 8.926793
1464942533993915, 0.17467605, 7.5828547, 7.2933235, 0.3542564, 0.44967222, 10.506906
1464942536403655, 0.20578274, 6.984649, 7.259824, 0.18498898, 0.07226658, 10.074387
1464942538813447, -0.047856454, 5.8935223, 6.991828, -0.32644272, -0.34852695, 9.132006
1464942541223186, 0.27038896, 8.02792, 7.2550383, 0.60572267, 0.7102523, 10.783546
1464942543632978, 0.18664017, 6.3792653, 7.1186476, 0.0024511814, -0.22653341, 9.557914
1464942546042717, 0.043070808, 6.2691956, 7.1688967, -0.17845845, -0.2575426, 9.518382
1464942548452509, 0.32063824, 8.099705, 7.257431, 0.6724837, 0.728539, 10.834912
1464942550862249, 0.10767702, 5.946164, 7.02772, -0.18632531, -0.41302848, 9.195215
1464942553271988, 0.14117654, 6.8051877, 7.2526455, 0.06353736, -0.009048939, 9.946218
1464942555681780, 0.33020952, 7.7551384, 7.355537, 0.52166176, 0.45246363, 10.671375
1464942558091519, 0.03589234, 5.690132, 6.9655066, -0.31984913, -0.50780296, 8.974241
1464942560501311, 0.21296121, 7.4010005, 7.3340015, 0.3011167, 0.2911644, 10.413083
1464942562911051, 0.2943172, 7.149754, 7.3770723, 0.27026558, 0.06057024, 10.273758
1464942565320790, 0.0, 5.7284174, 7.075577, -0.37944508, -0.5320585, 9.08028
1464942567730582, 0.2656033, 7.84128, 7.3866434, 0.48061156, 0.5143976, 10.75282
1464942570140322, 0.20817557, 6.4295144, 7.288538, -0.02721262, -0.3050251, 9.716534
1464942572550113, -0.009571291, 6.0346985, 7.24786, -0.34078622, -0.4302163, 9.415304
1464942574959853, 0.24885355, 7.975278, 7.3746796, 0.51357675, 0.6170311, 10.835516
1464942577369644, 0.031106694, 5.879165, 7.164111, -0.33214402, -0.5012288, 9.248161
1464942579779384, 0.02632105, 6.4845495, 7.32443, -0.17986369, -0.20653343, 9.778667
1464942582189124, 0.22492532, 7.7503524, 7.3986077, 0.4071133, 0.46820545, 10.699206
1464942584598915, -0.06699903, 5.6207404, 7.0396843, -0.465106, -0.54785657, 8.979861
1464942587008655, 0.062213387, 7.1066833, 7.353144, 0.059003115, 0.1625948, 10.2248535
1464942589418394, 0.1363909, 7.2502527, 7.393822, 0.16011643, 0.19517422, 10.353244
1464942591828186, -0.17467605, 5.601598, 6.9990063, -0.5500088, -0.48140526, 8.936456
1464942594237926, 0.076570325, 7.6594253, 7.338787, 0.26556563, 0.5199084, 10.59196
1464942596647717, 0.047856454, 6.580262, 7.2646093, -0.10300374, -0.11948919, 9.800602
1464942599057457, -0.19142582, 5.879165, 7.1306114, -0.5086082, -0.37910414, 9.221954
1464942601467249, 0.10289137, 7.9393854, 7.30768, 0.39645982, 0.7067704, 10.7605715
1464942603876988, -0.040677983, 5.9916277, 7.1473613, -0.34299922, -0.38207173, 9.312487
1464942606286728, -0.11964113, 6.3361945, 7.2550383, -0.32837582, -0.18656635, 9.625727
1464942608696519, 0.10767702, 7.838887, 7.331609, 0.3676057, 0.6241493, 10.709227
1464942611106259, -0.11964113, 5.649454, 7.02772, -0.4773878, -0.50692606, 8.9908085
1464942613515999, -0.014356935, 6.9344, 7.312466, -0.048885822, 0.10800552, 10.076916
1464942615925790, 0.12921242, 7.405786, 7.3842506, 0.2115624, 0.3060031, 10.452328
1464942618335530, -0.15314065, 5.56092, 6.9798636, -0.5200784, -0.5225134, 8.895071
1464942620745322, 0.09571291, 7.515856, 7.3340015, 0.23947477, 0.4236946, 10.490375
1464942623155061, 0.1268196, 6.7812595, 7.3028946, 0.029838085, -0.04711771, 9.96648
1464942625564801, -0.14117654, 5.76431, 7.0803623, -0.47731686, -0.44812727, 9.107694
1464942627974592, 0.1698904, 7.908279, 7.314859, 0.44330692, 0.65684414, 10.744717
1464942630384332, 0.0741775, 6.1902323, 7.1880393, -0.17908001, -0.3386705, 9.478693
1464942632794124, -0.043070808, 6.242874, 7.240681, -0.28209257, -0.28141212, 9.552174
1464942635203863, 0.2321038, 7.972885, 7.3268228, 0.5154886, 0.6596012, 10.798256
1464942637613603, 0.009571291, 5.7810597, 7.082755, -0.33970797, -0.50849605, 9.122071
1464942640023394, 0.0741775, 6.812366, 7.3172517, -0.011505604, -0.010340214, 9.997787
1464942642433134, 0.23928227, 7.6163545, 7.396215, 0.38092136, 0.3830142, 10.605577
1464942644842926, -0.009571291, 5.625526, 6.975078, -0.380134, -0.5330982, 8.936981
1464942647252665, 0.19621146, 7.396215, 7.3363943, 0.28635502, 0.29443502, 10.411362
1464942649662457, 0.25603202, 7.0085773, 7.3363943, 0.20647192, 0.01573515, 10.147191
1464942652072197, -0.033499517, 5.7260246, 7.0468626, -0.38994336, -0.5027509, 9.057702
1464942654481936, 0.24885355, 7.874779, 7.3268228, 0.4962778, 0.5873146, 10.731505
1464942656891728, 0.19142582, 6.3960147, 7.21436, -0.02016306, -0.2732978, 9.639376
1464942659301467, 0.016749758, 6.101698, 7.204789, -0.2709341, -0.37582397, 9.430023
1464942661711207, 0.2847459, 7.9968133, 7.2933235, 0.57596684, 0.6702919, 10.790813
1464942664120999, 0.10289137, 5.905486, 7.0779696, -0.22124958, -0.46968174, 9.203991
1464942666530738, 0.11006984, 6.6448684, 7.2693954, -0.027416945, -0.1089921, 9.84875
1464942668940530, 0.30149564, 7.757531, 7.348358, 0.49092174, 0.47187948, 10.667936
1464942671350269, 0.0071784677, 5.656633, 6.9726853, -0.35925972, -0.522887, 8.956193
1464942673760009, 0.16749759, 7.271788, 7.312466, 0.22085857, 0.24328423, 10.30879
1464942676169801, 0.2416751, 7.2215385, 7.353144, 0.25401902, 0.15134239, 10.304871
1464942678579540, -0.043070808, 5.7140603, 7.0061846, -0.39701915, -0.47947955, 9.019505
1464942680989332, 0.22971097, 7.812566, 7.355537, 0.44348955, 0.5343995, 10.710304
1464942683399072, 0.1698904, 6.5922265, 7.2765737, 1.6999245E-4, -0.17770815, 9.818516
1464942685808863, -0.069391854, 5.9820566, 7.190432, -0.39022303, -0.40673614, 9.336724
1464942688218603, 0.23449662, 8.006385, 7.3579297, 0.51247025, 0.6555743, 10.844534
1464942690628342, 0.043070808, 6.0155563, 7.1976104, -0.28799105, -0.4366989, 9.365933
1464942693038134, -0.016749758, 6.4438715, 7.350751, -0.24208188, -0.22389221, 9.769777
1464942695447874, 0.19381863, 7.8460655, 7.446464, 0.3995304, 0.51451063, 10.79925
1464942697857613, -0.086141616, 5.6614184, 7.109076, -0.49574435, -0.54944634, 9.058167
1464942700267405, 0.043070808, 7.0372915, 7.432107, -0.010414839, 0.07790899, 10.235006
1464942702677144, 0.148355, 7.3363943, 7.4919276, 0.1664021, 0.18077517, 10.483954
1464942705086936, -0.13878371, 5.6063833, 7.097112, -0.55590856, -0.5545933, 9.011282
1464942707496676, 0.11006984, 7.60439, 7.470392, 0.23529029, 0.38613605, 10.650877
1464942709906415, 0.11724831, 6.6855464, 7.4010005, -0.05599451, -0.16554976, 9.972691
1464942712316207, -0.13399807, 5.8097734, 7.216753, -0.51758325, -0.49598646, 9.237914
1464942714725947, 0.148355, 7.9369926, 7.408179, 0.4049642, 0.6205354, 10.832817
1464942717135738, 0.038285162, 6.108876, 7.2382884, -0.2698686, -0.40185356, 9.459298
1464942719545478, -0.0741775, 6.2524457, 7.3196445, -0.34571385, -0.3037343, 9.61582
1464942721955269, 0.16510476, 7.9274216, 7.3746796, 0.42781162, 0.6226225, 10.802151
1464942724365009, -0.076570325, 5.7403817, 7.0731835, -0.44167697, -0.48700976, 9.086006
1464942726774749, 0.021535404, 6.8578296, 7.322037, -0.05020404, 0.03832245, 10.031877
1464942729184540, 0.17228323, 7.54457, 7.381858, 0.30005097, 0.37166977, 10.545799
1464942731594280, -0.1363909, 5.639883, 6.948757, -0.4848075, -0.4535215, 8.925882
1464942734004072, 0.1052842, 7.5062847, 7.3028946, 0.25093365, 0.42247295, 10.461655
1464942736413811, 0.16271193, 6.9415784, 7.243074, 0.1274054, 0.0668931, 10.032617
1464942738823551, -0.11485548, 5.8097734, 6.9702926, -0.41482008, -0.3679042, 9.057825
1464942741233342, 0.19621146, 7.9537425, 7.223932, 0.5211489, 0.7061224, 10.710533
1464942743643082, 0.11485548, 6.32423, 7.1018977, -0.084681034, -0.22237372, 9.507336
1464942746052822, -0.009571291, 6.168697, 7.123433, -0.2554233, -0.2733147, 9.415747
1464942748462613, 0.24646074, 8.008778, 7.2215385, 0.582695, 0.714304, 10.74719
1464942750872353, 0.03589234, 5.8672013, 6.991828, -0.2803161, -0.41298938, 9.113827
1464942753282144, 0.086141616, 6.7118673, 7.192825, -0.0076818466, -0.020859241, 9.838335
1464942755691884, 0.23688944, 7.7216387, 7.298109, 0.43614173, 0.49460125, 10.606949
1464942758101624, -0.05503492, 5.642276, 6.9056864, -0.40331042, -0.47063255, 8.896216
1464942760511415, 0.13399807, 7.3100734, 7.2526455, 0.21842432, 0.30753183, 10.291439
1464942762921155, 0.21774685, 7.092326, 7.2693954, 0.21244502, 0.11611223, 10.155491
1464942765330947, -0.09092726, 5.65424, 6.9296145, -0.4448352, -0.45598674, 8.921461
1464942767740686, 0.18424734, 7.800602, 7.24786, 0.43139458, 0.59626245, 10.62418
1464942770150426, 0.1363909, 6.407979, 7.1856465, -0.07272267, -0.23700571, 9.625637
1464942772560217, -0.059820566, 5.9748783, 7.1473613, -0.38317275, -0.39607, 9.299669
1464942774969957, 0.23688944, 7.9704924, 7.2789664, 0.5262592, 0.65840816, 10.763725
1464942777379749, 0.06460621, 5.9294147, 7.1306114, -0.2866001, -0.47640634, 9.257357
1464942779789488, 0.021535404, 6.489335, 7.3172517, -0.19415665, -0.20474768, 9.77622
1464942782199228, 0.22013968, 7.810173, 7.408179, 0.40588045, 0.48888063, 10.7482395
1464942784609019, -0.02871387, 5.663811, 7.042077, -0.43066633, -0.5510795, 9.010065
1464942787018759, 0.13399807, 7.1138616, 7.350751, 0.10538316, 0.120633125, 10.229021
1464942789428499, 0.2536392, 7.298109, 7.396215, 0.2554252, 0.15231085, 10.389527
1464942791838290, -0.05742774, 5.6327047, 6.9655066, -0.44223583, -0.51513577, 8.932413
1464942794248030, 0.20817557, 7.6977105, 7.3100734, 0.3766842, 0.48503637, 10.599911
1464942796657822, 0.19621146, 6.6568327, 7.2358956, 0.036924124, -0.1359849, 9.83312
1464942799067561, -0.03589234, 5.9413786, 7.04447, -0.3507334, -0.37159896, 9.201344
1464942801477301, 0.27517462, 8.037491, 7.207182, 0.58719087, 0.7225332, 10.758884
1464942803887092, 0.12921242, 6.1208405, 7.0372915, -0.15077901, -0.33116436, 9.320539
1464942806296832, 0.05503492, 6.422336, 7.1545396, -0.15035105, -0.17186594, 9.611696
1464942808706624, 0.2943172, 7.9800634, 7.219146, 0.576283, 0.66545486, 10.728895
1464942811116363, 0.059820566, 5.804988, 6.908079, -0.2840991, -0.42363524, 9.009044
1464942813526103, 0.16271193, 7.0325055, 7.192825, 0.13684273, 0.1413064, 10.058861
1464942815935894, 0.27756742, 7.5661054, 7.2861447, 0.39121437, 0.37093258, 10.493821
1464942818345634, -0.050249275, 5.709275, 6.855437, -0.39916658, -0.401345, 8.903647
1464942820755426, 0.18185452, 7.611569, 7.21436, 0.33622527, 0.49270535, 10.471877
1464942823165165, 0.20578274, 6.893722, 7.1808605, 0.122890234, 0.034994125, 9.95561
1464942825574905, -0.076570325, 5.814559, 6.9391856, -0.41140652, -0.38181138, 9.036161
1464942827984697, 0.19621146, 7.984849, 7.164111, 0.48862052, 0.7510872, 10.691956
1464942830394436, 0.08853444, 6.24766, 7.056434, -0.1637969, -0.24832153, 9.420504
1464942832804176, -0.06460621, 6.242874, 7.1186476, -0.32093525, -0.21112871, 9.46072
1464942835213967, 0.18185452, 8.013563, 7.233503, 0.47565842, 0.7237525, 10.762146
1464942837623707, -0.031106694, 5.812166, 7.0085773, -0.407048, -0.43874383, 9.085385
1464942840033499, 0.016749758, 6.798009, 7.245467, -0.10053277, 0.021922588, 9.93476
1464942842443238, 0.1698904, 7.6259255, 7.331609, 0.28729653, 0.4268155, 10.567471
1464942844852978, -0.11964113, 5.6279187, 6.936793, -0.51637554, -0.48088026, 8.905561
1464942847262769, 0.09571291, 7.381858, 7.312466, 0.14568114, 0.3196559, 10.385073
1464942849672509, 0.17467605, 7.0133634, 7.3196445, 0.08602166, 0.041502476, 10.138336
1464942852082301, -0.1268196, 5.7140603, 7.02772, -0.52028203, -0.47798586, 9.030849
1464942854492040, 0.18903299, 7.8197446, 7.322037, 0.36877418, 0.55404234, 10.693615
1464942856901780, 0.13399807, 6.350551, 7.2263246, -0.14314127, -0.31200457, 9.615061
1464942859311572, -0.06699903, 6.046663, 7.2119675, -0.41775393, -0.40435767, 9.393673
1464942861721311, 0.23449662, 7.9800634, 7.3100734, 0.45948482, 0.6473403, 10.7955265
1464942864131103, 0.047856454, 5.8767724, 7.1186476, -0.3398174, -0.51222277, 9.210648
1464942866540842, 0.05742774, 6.613762, 7.300502, -0.14670157, -0.14918661, 9.848791
1464942868950582, 0.22971097, 7.7671022, 7.381858, 0.36121702, 0.46835566, 10.701525
1464942871360374, -0.031106694, 5.6614184, 7.003792, -0.45677292, -0.5408714, 8.978003
1464942873770113, 0.15074782, 7.259824, 7.331609, 0.13914585, 0.20073748, 10.316035
1464942876179905, 0.24885355, 7.2382884, 7.3459654, 0.21291542, 0.13114834, 10.312876
1464942878589644, -0.0526421, 5.7140603, 6.9655066, -0.4457128, -0.47297454, 8.986054
1464942880999384, 0.23449662, 7.812566, 7.288538, 0.4154024, 0.5415263, 10.6652775
1464942883409176, 0.21774685, 6.652047, 7.1856465, 0.042870045, -0.13167477, 9.793442
1464942885818915, -0.0071784677, 6.02752, 7.042077, -0.31376123, -0.35021925, 9.257472
1464942888228655, 0.28713873, 8.1020975, 7.183254, 0.5664015, 0.78667116, 10.788229
1464942890638447, 0.13160525, 6.1208405, 6.9726853, -0.14070392, -0.31238604, 9.272701
1464942893048186, 0.078963146, 6.5371914, 7.097112, -0.09482169, -0.09214401, 9.648454
1464942895457978, 0.29910284, 7.9944205, 7.166504, 0.54827976, 0.71024895, 10.702989
1464942897867717, 0.04546363, 5.802595, 6.826723, -0.27829087, -0.39230633, 8.946786
1464942900277457, 0.18424734, 7.164111, 7.1186476, 0.19166017, 0.2528596, 10.096182
1464942902687249, 0.29671, 7.5086775, 7.1784678, 0.38429403, 0.38451052, 10.378013
1464942905096988, 0.0, 5.761917, 6.7669024, -0.3179332, -0.36072755, 8.874652
1464942907506780, 0.2656033, 7.7551384, 7.152147, 0.44627118, 0.5744982, 10.527902
1464942909916519, 0.27756742, 6.8650084, 7.1066833, 0.17736125, 0.016281605, 9.88325
1464942912326259, -0.0023928226, 5.9724855, 6.9320073, -0.30655408, -0.32811022, 9.139021
1464942914736051, 0.30149564, 8.111669, 7.166504, 0.58399105, 0.777864, 10.784375
1464942917145790, 0.18185452, 6.283552, 7.0348988, -0.075011015, -0.27338338, 9.430035
1464942919555530, 0.076570325, 6.3744793, 7.1377897, -0.17365551, -0.22623348, 9.565906
1464942921965322, 0.3182454, 8.066205, 7.2550383, 0.55552125, 0.6839528, 10.81777
1464942924375061, 0.083748795, 5.852844, 6.984649, -0.29251075, -0.4750774, 9.095982
1464942926784853, 0.16749759, 6.9415784, 7.2550383, 0.051514387, 0.026700974, 10.042201
1464942929194592, 0.31345975, 7.63789, 7.353144, 0.3767135, 0.34767294, 10.594411
1464942931604332, 0.009571291, 5.6781683, 6.95115, -0.40645564, -0.5323734, 8.950506
1464942934014124, 0.2416751, 7.54457, 7.338787, 0.28869104, 0.33061123, 10.518751
1464942936423863, 0.31345975, 6.9798636, 7.34118, 0.16281366, -0.06867981, 10.133039
1464942938833603, 0.033499517, 5.804988, 7.0779696, -0.38999236, -0.5341897, 9.130127
1464942941243394, 0.31106696, 7.948957, 7.3698936, 0.48194122, 0.5305004, 10.820551
1464942943653134, 0.23928227, 6.3601227, 7.24786, -0.08888507, -0.37514687, 9.638012
1464942946062926, 0.078963146, 6.1806607, 7.2622166, -0.29650545, -0.4199171, 9.522729
1464942948472665, 0.31345975, 8.059027, 7.3603225, 0.5248444, 0.6050048, 10.8894005
1464942950882405, 0.1052842, 5.9174504, 7.109076, -0.29673696, -0.51844335, 9.230896
1464942953292197, 0.14356937, 6.71426, 7.3028946, -0.06562328, -0.13362026, 9.920283
1464942955701936, 0.3062813, 7.7742805, 7.3866434, 0.398304, 0.42720222, 10.7123575
1464942958111728, -0.0047856453, 5.690132, 6.9535427, -0.4193225, -0.51782274, 8.960213
1464942960521467, 0.17706887, 7.348358, 7.298109, 0.18024135, 0.25818682, 10.353403
1464942962931207, 0.2536392, 7.1712894, 7.331609, 0.17342353, 0.085427284, 10.257038
1464942965340999, -0.062213387, 5.7355957, 6.9583282, -0.47155166, -0.45225692, 8.994019
1464942967750738, 0.19381863, 7.8867435, 7.2550383, 0.3972335, 0.6168556, 10.692781
1464942970160478, 0.14356937, 6.5276203, 7.1449685, -0.08071613, -0.1575551, 9.677276
1464942972570269, -0.05503492, 6.0753765, 7.0492554, -0.3752098, -0.29477882, 9.293953
1464942974980009, 0.21774685, 8.109276, 7.1712894, 0.5175071, 0.80294466, 10.785297
1464942977389801, 0.0526421, 6.0227346, 6.9702926, -0.2724855, -0.3359909, 9.201843
1464942979799540, 0.021535404, 6.5611196, 7.1282187, -0.1691835, -0.07369709, 9.686394
1464942982209280, 0.2105684, 7.8867435, 7.219146, 0.41459727, 0.6315808, 10.667257
1464942984619072, -0.059820566, 5.7355957, 6.8578296, -0.42790306, -0.40374637, 8.921008
1464942987028811, 0.086141616, 7.164111, 7.2023964, 0.06751108, 0.23935461, 10.156013
1464942989438603, 0.16510476, 7.365108, 7.298109, 0.17252994, 0.2733569, 10.364844
1464942991848342, -0.12921242, 5.682954, 6.9391856, -0.53392494, -0.4516008, 8.942926
1464942994258082, 0.1268196, 7.719246, 7.30768, 0.25101924, 0.5124173, 10.615058
1464942996667874, 0.1363909, 6.680761, 7.257431, -0.06984806, -0.13108397, 9.864046
1464942999077613, -0.10767702, 5.9294147, 7.123433, -0.4908905, -0.41965413, 9.246393
1464943001487353, 0.19621146, 8.025527, 7.3172517, 0.41460562, 0.67052555, 10.833664
1464943003897144, 0.07178468, 6.087341, 7.173682, -0.2960434, -0.42755628, 9.39426
1464943006306884, 0.0023928226, 6.350551, 7.271788, -0.3016882, -0.28422976, 9.645548
1464943008716676, 0.25603202, 7.9130645, 7.3435726, 0.42170906, 0.557992, 10.775947
1464943011126415, 0.0047856453, 5.7260246, 7.042077, -0.43137848, -0.5503249, 9.049271
1464943013536155, 0.09571291, 6.9344, 7.331609, -0.042876482, 0.010241985, 10.09186
1464943015945947, 0.25124636, 7.487142, 7.4249287, 0.2478404, 0.23681164, 10.541941
1464943018355686, -0.05503492, 5.642276, 7.0229344, -0.50466394, -0.5653591, 8.976949
1464943020765426, 0.19142582, 7.5589266, 7.3986077, 0.22932959, 0.330894, 10.57125
1464943023175217, 0.22492532, 6.867401, 7.3770723, 0.037220478, -0.11471653, 10.080597
1464943025584957, -0.05742774, 5.804988, 7.1425757, -0.48168314, -0.5342312, 9.176064
1464943027994749, 0.26081768, 7.9513497, 7.3842506, 0.41717696, 0.56825686, 10.831537
1464943030404488, 0.18664017, 6.2404814, 7.243074, -0.15641618, -0.42453313, 9.551747
1464943032814228, 0.0526421, 6.216553, 7.2861447, -0.2972486, -0.4050088, 9.564718
1464943035224019, 0.29192436, 7.9920278, 7.3579297, 0.47728515, 0.58786774, 10.840824
1464943037633759, 0.076570325, 5.8217373, 7.0779696, -0.34502506, -0.54096293, 9.142453
1464943040043551, 0.148355, 6.814759, 7.298109, -0.02255416, -0.06360674, 9.986031
1464943042453290, 0.29910284, 7.685746, 7.353144, 0.38247204, 0.3945632, 10.626709
1464943044863030, 0.016749758, 5.6997037, 6.91765, -0.38472712, -0.493366, 8.941441
1464943047272822, 0.20578274, 7.448857, 7.271788, 0.24718785, 0.33338547, 10.40358
1464943049682561, 0.25603202, 7.1186476, 7.2622166, 0.18388939, 0.099123, 10.170391
1464943052092301, -0.04546363, 5.7930236, 6.908079, -0.4102353, -0.39744353, 8.997582
1464943054502092, 0.25124636, 7.948957, 7.204789, 0.48126245, 0.66670704, 10.699623
1464943056911832, 0.18664017, 6.498906, 7.0875406, -0.027702093, -0.16293716, 9.616472
1464943059321572, -0.009571291, 6.1471615, 7.042077, -0.30483818, -0.2669642, 9.338861
1464943061731363, 0.27038896, 8.085348, 7.1377897, 0.5699384, 0.7829666, 10.74505
1464943064141103, 0.1052842, 5.9724855, 6.943971, -0.23391914, -0.3773527, 9.148951
1464943066550894, 0.09092726, 6.6592255, 7.1018977, -0.06520128, -0.02534151, 9.73579
1464943068960634, 0.2727818, 7.836494, 7.159325, 0.47688603, 0.6016793, 10.590163
1464943071370374, -0.016749758, 5.704489, 6.7812595, -0.37571812, -0.39658952, 8.844688
1464943073780165, 0.15792629, 7.2670026, 7.135397, 0.1877358, 0.30970764, 10.179243
1464943076189905, 0.23688944, 7.2646093, 7.1617184, 0.24731278, 0.25456858, 10.19779
1464943078599697, -0.062213387, 5.704489, 6.798009, -0.42240262, -0.38583708, 8.856111
1464943081009436, 0.21535404, 7.798209, 7.140183, 0.41563916, 0.61865187, 10.549178
1464943083419176, 0.18903299, 6.623333, 7.042077, 0.025960445, -0.06681728, 9.669022
1464943085828967, -0.0526421, 5.977271, 6.943971, -0.37405133, -0.30294323, 9.149733
1464943088238707, 0.22731815, 8.054241, 7.1066833, 0.5304904, 0.7879815, 10.701639
1464943090648447, 0.09092726, 6.0753765, 6.9583282, -0.21376729, -0.32369733, 9.229643
1464943093058238, 0.014356935, 6.463014, 7.1138616, -0.20398998, -0.12923193, 9.608302
1464943095467978, 0.21296121, 7.9298143, 7.219146, 0.42462134, 0.6590023, 10.697139
1464943097877717, -0.02632105, 5.723632, 6.9224358, -0.4237883, -0.47226572, 8.959806
1464943100287509, 0.09810573, 7.068398, 7.2526455, 0.024129868, 0.1343317, 10.126902
1464943102697249, 0.2440679, 7.436893, 7.3292155, 0.25048804, 0.25602818, 10.438202
1464943105106988, -0.05742774, 5.6685967, 6.9248285, -0.47145057, -0.49236417, 8.923276
1464943107516780, 0.20817557, 7.661818, 7.34118, 0.2908945, 0.4134078, 10.601141
1464943109926519, 0.2321038, 6.8051877, 7.2933235, 0.040587902, -0.11781263, 9.977049
1464943112336311, -0.06699903, 5.8839507, 7.094719, -0.46011055, -0.45431328, 9.194689
1464943114746051, 0.2440679, 8.025527, 7.3172517, 0.44435263, 0.6508913, 10.834652
1464943117155790, 0.14117654, 6.2285175, 7.159325, -0.18472195, -0.36806703, 9.481597
1464943119565582, 0.03589234, 6.309873, 7.216753, -0.26968098, -0.3018279, 9.57776
1464943121975322, 0.29910284, 8.020741, 7.300502, 0.4979689, 0.63624954, 10.819717
1464943124385113, 0.076570325, 5.8360944, 7.01097, -0.32095957, -0.49901247, 9.103161
1464943126794853, 0.13878371, 6.9128647, 7.2789664, -5.412102E-4, 0.006802559, 10.039435
1464943129204592, 0.30867413, 7.647461, 7.3698936, 0.35666418, 0.35286188, 10.613319
1464943131614384, 0.011964113, 5.6997037, 6.943971, -0.38915086, -0.52804756, 8.959645
1464943134024124, 0.25603202, 7.5469627, 7.3052874, 0.29276776, 0.35234976, 10.496645
1464943136433863, 0.31585258, 7.0301127, 7.2646093, 0.1979065, 0.0123438835, 10.112245
1464943138843655, 0.040677983, 5.8600225, 6.9678993, -0.32088375, -0.45041823, 9.087755
1464943141253394, 0.32542387, 8.023134, 7.245467, 0.52247214, 0.6743951, 10.781726
1464943143663134, 0.24885355, 6.422336, 7.140183, -0.013086319, -0.27580547, 9.602829
1464943146072926, 0.09332009, 6.209375, 7.140183, -0.21904731, -0.34645414, 9.454061
1464943148482665, 0.37328035, 8.10449, 7.2502527, 0.58805823, 0.70193434, 10.842035
1464943150892457, 0.15074782, 5.9700923, 7.042077, -0.21280289, -0.46974373, 9.218982
1464943153302197, 0.17228323, 6.7525454, 7.2646093, -0.019393682, -0.10457945, 9.919163
1464943155711936, 0.33499518, 7.826923, 7.3627152, 0.4322133, 0.46596766, 10.732128
1464943158121728, 0.016749758, 5.7355957, 6.9822564, -0.38847613, -0.52799153, 9.012189
1464943160531467, 0.18664017, 7.365108, 7.353144, 0.15796804, 0.23924589, 10.405104
1464943162941207, 0.2440679, 7.2263246, 7.4010005, 0.14891028, 0.09663296, 10.345175
1464943165350999, -0.08135597, 5.757131, 7.051648, -0.48107028, -0.51845074, 9.07616
1464943167760738, 0.21296121, 7.8604226, 7.408179, 0.30921674, 0.5237894, 10.786231
1464943170170530, 0.17706887, 6.506085, 7.3028946, -0.097970724, -0.2905736, 9.777462
1464943172580269, -0.047856454, 6.029913, 7.2358956, -0.43013144, -0.46086812, 9.398027
1464943174990009, 0.23928227, 8.042277, 7.3627152, 0.4141822, 0.6539984, 10.878685
1464943177399801, 0.09092726, 5.977271, 7.1569324, -0.29558063, -0.504879, 9.306742
1464943179809540, 0.05742774, 6.489335, 7.298109, -0.21044827, -0.24074364, 9.760887
1464943182219280, 0.23928227, 7.8604226, 7.3746796, 0.35165358, 0.5330963, 10.762041
1464943184629072, -0.02632105, 5.7116675, 7.0061846, -0.4321611, -0.53916407, 9.012935
1464943187038811, 0.1268196, 7.123433, 7.3268228, 0.04028201, 0.12405348, 10.218841
1464943189448551, 0.21535404, 7.372287, 7.391429, 0.1763494, 0.20964289, 10.438159
1464943191858342, -0.10289137, 5.6781683, 6.9822564, -0.50312614, -0.5153191, 8.971365
1464943194268082, 0.15314065, 7.728817, 7.3196445, 0.25156617, 0.5154319, 10.630442
1464943196677874, 0.17706887, 6.6999035, 7.245467, -0.01933527, -0.124530315, 9.869192
1464943199087613, -0.0741775, 5.9030933, 7.082755, -0.44272494, -0.43419576, 9.199615
1464943201497353, 0.23928227, 8.042277, 7.2789664, 0.44496155, 0.70601463, 10.817689
1464943203907144, 0.09810573, 6.1399827, 7.123433, -0.22661257, -0.3830254, 9.394374
1464943206316884, 0.016749758, 6.381658, 7.2287173, -0.25713658, -0.2531848, 9.63587
1464943208726624, 0.2416751, 7.9537425, 7.30768, 0.41080904, 0.62743473, 10.777763
1464943211136415, 0.0071784677, 5.759524, 7.0133634, -0.39869034, -0.521436, 9.051441
1464943213546155, 0.09571291, 6.946364, 7.3052874, -0.03275633, 0.036886692, 10.080971
1464943215955894, 0.23449662, 7.542177, 7.389036, 0.2549069, 0.31124735, 10.553457
1464943218365686, -0.07178468, 5.6303115, 6.9726853, -0.49754333, -0.5425863, 8.932074
1464943220775426, 0.17467605, 7.5254273, 7.353144, 0.2023325, 0.34934282, 10.515147
1464943223185217, 0.21296121, 6.862615, 7.348358, 0.031981945, -0.09922266, 10.056259
1464943225594957, -0.09810573, 5.757131, 7.1066833, -0.5147382, -0.5382571, 9.116165
1464943228004697, 0.19381863, 7.9106717, 7.3746796, 0.33356738, 0.5812974, 10.795973
1464943230414488, 0.11006984, 6.1854467, 7.2526455, -0.2393465, -0.4354849, 9.519758
1464943232824228, -0.03589234, 6.13759, 7.281359, -0.39958274, -0.41514206, 9.505655
1464943235233967, 0.20578274, 7.9537425, 7.348358, 0.37473702, 0.618248, 10.806484
1464943237643759, 0.0047856453, 5.759524, 7.097112, -0.42503846, -0.56867886, 9.11247
1464943240053499, 0.0741775, 6.71426, 7.331609, -0.13195515, -0.12190151, 9.940172
1464943242463290, 0.23688944, 7.6163545, 7.391429, 0.2815044, 0.35688114, 10.606206
1464943244873030, -0.023928227, 5.5944195, 6.946364, -0.45165217, -0.5712416, 8.889307
1464943247282769, 0.18664017, 7.3603225, 7.2933235, 0.18767762, 0.27550554, 10.35812
1464943249692561, 0.25842485, 7.058827, 7.2789664, 0.1600728, 0.05596733, 10.141422
1464943252102301, -0.03589234, 5.716453, 6.9415784, -0.4219439, -0.48289418, 8.969582
1464943254512040, 0.2536392, 7.8891363, 7.245467, 0.42996597, 0.62106085, 10.687798
1464943256921832, 0.20817557, 6.465407, 7.1449685, -0.031651497, -0.22951221, 9.635441
1464943259331572, 0.019142581, 6.094519, 7.1138616, -0.30841422, -0.36784887, 9.35522
1464943261741311, 0.29671, 8.094919, 7.223932, 0.5391667, 0.7453151, 10.814562
1464943264151103, 0.12203395, 5.9916277, 7.0085773, -0.22612739, -0.41283035, 9.209402
1464943266560842, 0.11006984, 6.661618, 7.1976104, -0.077373266, -0.08606386, 9.807217
1464943268970634, 0.29910284, 7.8891363, 7.274181, 0.47026682, 0.5689721, 10.709658
1464943271380374, 0.02632105, 5.759524, 6.8913293, -0.35359943, -0.4485755, 8.96309
1464943273790113, 0.20578274, 7.338787, 7.2263246, 0.22177267, 0.28142118, 10.295219
1464943276199905, 0.30388847, 7.3698936, 7.2550383, 0.30871534, 0.23720932, 10.338844
1464943278609644, -0.031106694, 5.7858453, 6.8650084, -0.39054394, -0.38477063, 8.961292
1464943281019384, 0.24885355, 7.874779, 7.21436, 0.44491267, 0.61242914, 10.655893
1464943283429176, 0.23688944, 6.7094746, 7.1186476, 0.07173061, -0.07245588, 9.7845745
1464943285838915, -0.0071784677, 6.0346985, 6.987042, -0.32782125, -0.3083191, 9.22138
1464943288248655, 0.29671, 8.157132, 7.1449685, 0.60696507, 0.81181145, 10.800461
1464943290658447, 0.14356937, 6.1710896, 6.9726853, -0.14362669, -0.28823352, 9.306858
1464943293068186, 0.069391854, 6.518049, 7.125826, -0.14343858, -0.124283314, 9.655628
1464943295477978, 0.28713873, 8.018349, 7.183254, 0.53329396, 0.7020459, 10.733044
1464943297887717, 0.021535404, 5.7930236, 6.862615, -0.34082448, -0.40942836, 8.965003
1464943300297457, 0.15553348, 7.1162543, 7.1808605, 0.11600423, 0.18891287, 10.108458
1464943302707249, 0.28235307, 7.496713, 7.2502527, 0.33674002, 0.32649183, 10.422408
1464943305116988, -0.03589234, 5.7020965, 6.8315086, -0.41620564, -0.4143119, 8.879178
1464943307526728, 0.21774685, 7.688139, 7.2119675, 0.36029983, 0.5007763, 10.52553
1464943309936519, 0.2440679, 6.8219376, 7.166504, 0.10006356, -0.037724495, 9.896753
1464943312346259, -0.021535404, 5.8600225, 6.9559355, -0.38108575, -0.40447927, 9.078355
1464943314755999, 0.2727818, 8.035098, 7.192825, 0.5209856, 0.7188873, 10.75108
1464943317165790, 0.18664017, 6.2309103, 7.066005, -0.10944533, -0.3256879, 9.416445
1464943319575530, 0.059820566, 6.2715883, 7.152147, -0.2365408, -0.29204178, 9.505175
1464943321985322, 0.30388847, 8.013563, 7.24786, 0.53482366, 0.65169716, 10.776377
1464943324395061, 0.076570325, 5.8265233, 6.977471, -0.31936026, -0.47743702, 9.0724535
1464943326804801, 0.14596218, 6.8650084, 7.2646093, -0.0016076565, -0.017598629, 9.996195
1464943329214592, 0.28953153, 7.6307116, 7.3627152, 0.35291433, 0.34381056, 10.596152
1464943331624332, 0.0, 5.649454, 6.9678993, -0.43878484, -0.5486572, 8.942841
1464943334034072, 0.21296121, 7.4823565, 7.3603225, 0.23506474, 0.29246998, 10.491165
1464943336443863, 0.26081768, 6.9559355, 7.372287, 0.0950315, -0.073723316, 10.138502
1464943338853603, -0.038285162, 5.7523456, 7.0875406, -0.47833467, -0.5341034, 9.100007
1464943341263342, 0.2632105, 7.91785, 7.393822, 0.41463852, 0.53056335, 10.815582
1464943343673134, 0.2009971, 6.3314085, 7.288538, -0.14088535, -0.39718485, 9.6474
1464943346082874, 0.02871387, 6.096912, 7.271788, -0.3637159, -0.4572084, 9.471574
1464943348492665, 0.29910284, 8.032705, 7.381858, 0.48585057, 0.59584284, 10.886438
1464943350902405, 0.09332009, 5.8935223, 7.140183, -0.3296032, -0.53662586, 9.237311
1464943353312144, 0.11724831, 6.6711893, 7.331609, -0.11293411, -0.1612773, 9.911219
1464943355721936, 0.28235307, 7.798209, 7.420143, 0.3789916, 0.4348979, 10.75256
1464943358131676, -0.0023928226, 5.6877394, 6.9966135, -0.43634176, -0.53848124, 8.99014
1464943360541415, 0.17228323, 7.3292155, 7.3340015, 0.14902973, 0.23751831, 10.3661
1464943362951207, 0.25842485, 7.21436, 7.3627152, 0.17839885, 0.10332966, 10.30926
1464943365360947, -0.05742774, 5.7403817, 6.9942207, -0.4600414, -0.48603296, 9.023665
1464943367770686, 0.2321038, 7.8580294, 7.3100734, 0.37995172, 0.566401, 10.713285
1464943370180478, 0.17706887, 6.5252275, 7.200003, -0.06524587, -0.20688629, 9.716118
1464943372590217, -0.038285162, 6.017949, 7.1066833, -0.3948549, -0.37701416, 9.296455
1464943375000009, 0.23449662, 8.049456, 7.240681, 0.47264028, 0.7244644, 10.794811
1464943377409749, 0.06699903, 5.994021, 7.04447, -0.29055476, -0.40674877, 9.236204
1464943379819488, 0.03589234, 6.4797635, 7.176075, -0.20089078, -0.15773582, 9.665373
1464943382229280, 0.23688944, 7.8628154, 7.2526455, 0.40803313, 0.5933223, 10.675314
1464943384639019, -0.02871387, 5.682954, 6.8889365, -0.4249127, -0.47025275, 8.908005
1464943387048759, 0.09332009, 7.0731835, 7.2095747, 0.035639048, 0.17828369, 10.09869
1464943389458551, 0.22731815, 7.3459654, 7.2670026, 0.22486949, 0.2569003, 10.32994
1464943391868290, -0.078963146, 5.6279187, 6.855437, -0.48252773, -0.4566455, 8.845076
1464943394278030, 0.19142582, 7.678568, 7.200003, 0.33199072, 0.52263594, 10.509697
1464943396687822, 0.2105684, 6.6855464, 7.166504, 0.024616003, -0.104192734, 9.802458
1464943399097561, -0.0526421, 5.852844, 7.0085773, -0.43466067, -0.41864848, 9.111229
1464943401507353, 0.23449662, 7.9800634, 7.207182, 0.47075224, 0.691669, 10.722867
1464943403917092, 0.11724831, 6.087341, 7.0731835, -0.22569919, -0.38388634, 9.322075
1464943406326832, 0.04546363, 6.309873, 7.1952176, -0.25472045, -0.27977085, 9.562666
1464943408736624, 0.27996024, 7.9393854, 7.3028946, 0.46578145, 0.5908127, 10.764687
1464943411146363, 0.033499517, 5.7403817, 7.0133634, -0.39634395, -0.53110313, 9.038872
1464943413556103, 0.14117654, 6.9224358, 7.2957163, 0.0026245117, 0.007773876, 10.058204
1464943415965894, 0.27996024, 7.542177, 7.4105716, 0.29865718, 0.26775122, 10.569698
1464943418375634, -0.014356935, 5.6685967, 6.9942207, -0.45829725, -0.536098, 8.975236
1464943420785374, 0.23688944, 7.568498, 7.372287, 0.28483295, 0.332479, 10.559223
1464943423195165, 0.29192436, 6.9415784, 7.350751, 0.12658668, -0.07839918, 10.1134615
1464943425604905, 0.011964113, 5.831309, 7.0731835, -0.3990519, -0.49525428, 9.14493
1464943428014644, 0.3278167, 8.001599, 7.2957163, 0.53136516, 0.62120914, 10.802422
1464943430424436, 0.24885355, 6.326623, 7.1688967, -0.052564144, -0.34710217, 9.558134
1464943432834176, 0.12203395, 6.257231, 7.21436, -0.20247793, -0.36178398, 9.541643
1464943435243967, 0.37088752, 8.075776, 7.274181, 0.59315205, 0.6666808, 10.838503
1464943437653707, 0.15553348, 5.910272, 7.0205417, -0.22337413, -0.48198724, 9.16304
1464943440063447, 0.20817557, 6.853044, 7.24786, 0.05726242, -0.032042503, 9.976709
1464943442473238, 0.3804588, 7.769495, 7.32443, 0.49376702, 0.4220662, 10.664667
1464943444882978, 0.09571291, 5.74756, 6.9224358, -0.31328845, -0.49337578, 8.978984
1464943447292717, 0.2943172, 7.4656067, 7.2957163, 0.32370996, 0.28665924, 10.433716
1464943449702509, 0.35413775, 7.1952176, 7.2933235, 0.28169775, 0.082906246, 10.247093
1464943452112249, 0.014356935, 5.838487, 6.977471, -0.3670919, -0.43777204, 9.080024
1464943454521988, 0.28235307, 7.987242, 7.2861447, 0.48083282, 0.6377902, 10.785439
1464943456931780, 0.22492532, 6.5611196, 7.183254, -0.009531498, -0.19403458, 9.729351
1464943459341519, 0.019142581, 6.15434, 7.140183, -0.31374645, -0.3330462, 9.415365
1464943461751259, 0.27038896, 8.128419, 7.2502527, 0.5286255, 0.7510781, 10.856653
1464943464161051, 0.08135597, 5.9988065, 7.0229344, -0.2751708, -0.39397764, 9.224043
1464943466570790, 0.06460621, 6.6329045, 7.204789, -0.13845468, -0.086979866, 9.791928
1464943468980582, 0.24885355, 7.8604226, 7.2550383, 0.41780496, 0.5822263, 10.675684
1464943471390322, -0.0526421, 5.7140603, 6.879365, -0.44083297, -0.43053102, 8.921841
1464943473800061, 0.11485548, 7.23111, 7.2215385, 0.10017824, 0.26085806, 10.216394
1464943476209853, 0.20338993, 7.2861447, 7.274181, 0.17860818, 0.2237463, 10.293737
1464943478619592, -0.13399807, 5.682954, 6.9056864, -0.53148735, -0.42738032, 8.918368
1464943481029332, 0.12921242, 7.7503524, 7.2646093, 0.27183795, 0.56353426, 10.605082
1464943483439124, 0.11006984, 6.6017976, 7.2095747, -0.108181, -0.138587, 9.774606
1464943485848863, -0.14117654, 5.912665, 7.085148, -0.5120435, -0.39644527, 9.206491
1464943488258655, 0.16510476, 8.008778, 7.2550383, 0.38147187, 0.72280025, 10.776614
1464943490668394, 0.06699903, 6.0514483, 7.1018977, -0.2870109, -0.4118662, 9.31716
1464943493078134, 0.023928227, 6.3864436, 7.233503, -0.2582221, -0.25105524, 9.64267
1464943495487874, 0.27756742, 7.91785, 7.2933235, 0.4412148, 0.5929122, 10.743173
1464943497897665, 0.038285162, 5.723632, 6.9655066, -0.37168813, -0.52667546, 8.992452
1464943500307405, 0.19142582, 7.0348988, 7.2550383, 0.09294152, 0.08086681, 10.106772
1464943502717144, 0.34456646, 7.479964, 7.314859, 0.3573587, 0.25874615, 10.45854
1464943505126936, 0.02871387, 5.690132, 6.896115, -0.3739375, -0.49840856, 8.918889
1464943507536676, 0.27517462, 7.6809607, 7.2933235, 0.3704791, 0.43752432, 10.580019
1464943509946467, 0.30388847, 6.867401, 7.2550383, 0.14035177, -0.07900858, 9.993158
1464943512356207, 0.05742774, 5.905486, 7.056434, -0.33926702, -0.45709252, 9.184078
1464943514765947, 0.35174492, 8.085348, 7.2933235, 0.5855231, 0.6536541, 10.859053
1464943517175738, 0.2727818, 6.32423, 7.1425757, -0.03708291, -0.34586167, 9.537593
1464943519585478, 0.1268196, 6.367301, 7.223932, -0.17730856, -0.2963109, 9.6241665
1464943521995217, 0.36370903, 8.140383, 7.3172517, 0.59417033, 0.6836734, 10.914204
1464943524405009, 0.14356937, 5.9246287, 7.042077, -0.24228477, -0.48038793, 9.188211
1464943526814749, 0.19860429, 6.943971, 7.2909307, 0.061219692, 0.0030560493, 10.070357
1464943529224540, 0.3397808, 7.752745, 7.3746796, 0.42523456, 0.40902758, 10.689168
1464943531634280, 0.047856454, 5.7667027, 6.9415784, -0.3560083, -0.47254086, 9.005144
1464943534044019, 0.25842485, 7.568498, 7.3196445, 0.31818247, 0.35209227, 10.521451
1464943536453811, 0.32063824, 7.092326, 7.2909307, 0.21859407, 0.034486294, 10.174114
1464943538863551, -0.0023928226, 5.8672013, 6.991828, -0.38259435, -0.41381645, 9.11
1464943541273290, 0.29671, 8.018349, 7.2765737, 0.51169515, 0.65774393, 10.799816
1464943543683082, 0.18664017, 6.4462643, 7.159325, -0.07068944, -0.2341857, 9.63251
1464943546092822, -0.009571291, 6.1806607, 7.164111, -0.3339138, -0.3159666, 9.450599
1464943548502561, 0.22971097, 8.099705, 7.283752, 0.47643113, 0.73474693, 10.860211
1464943550912353, 0.0071784677, 5.936593, 7.082755, -0.37443304, -0.43458986, 9.223857
1464943553322092, 0.0071784677, 6.649654, 7.3100734, -0.21234179, -0.11372805, 9.879124
1464943555731832, 0.16749759, 7.7503524, 7.4105716, 0.26389813, 0.45897865, 10.711315
1464943558141624, -0.11724831, 5.625526, 7.051648, -0.5784824, -0.55918217, 8.985472
1464943560551363, 0.05742774, 7.2215385, 7.4153576, -0.010949135, 0.16998434, 10.349513
1464943562961155, 0.1268196, 7.1186476, 7.472785, -0.0037641525, 0.036402702, 10.321455
1464943565370894, -0.18424734, 5.6183476, 7.109076, -0.66062844, -0.5622704, 9.021429
1464943567780634, 0.086141616, 7.7407813, 7.4344997, 0.18308377, 0.4788518, 10.720826
1464943570190426, 0.08135597, 6.4175506, 7.3459654, -0.23757839, -0.3189621, 9.74662
1464943572600165, -0.12203395, 5.8743796, 7.2526455, -0.5708792, -0.5122278, 9.302462
1464943575009905, 0.1794617, 7.9298143, 7.3603225, 0.3584981, 0.5948591, 10.798431
1464943577419697, 0.023928227, 5.9030933, 7.164111, -0.40239358, -0.5085001, 9.260188
1464943579829436, 0.0, 6.381658, 7.2933235, -0.3039329, -0.26745796, 9.682676
1464943582239176, 0.2105684, 7.8197446, 7.353144, 0.33447862, 0.525692, 10.7178955
1464943584648967, -0.062213387, 5.639883, 6.984649, -0.49146795, -0.544729, 8.947582
1464943587058707, 0.0741775, 7.0301127, 7.288538, -0.020371437, 0.113217354, 10.126083
1464943589468447, 0.19381863, 7.355537, 7.3459654, 0.17240667, 0.23277187, 10.393306
1464943591878238, -0.09571291, 5.639883, 6.9224358, -0.49229002, -0.5029967, 8.90181
1464943594287978, 0.16510476, 7.6666036, 7.2765737, 0.26135015, 0.49657393, 10.556406
1464943596697717, 0.18185452, 6.7118673, 7.21436, -4.5967102E-4, -0.09927893, 9.854917
1464943599107509, -0.059820566, 5.8839507, 7.02772, -0.4162655, -0.4213028, 9.146722
1464943601517249, 0.24646074, 8.025527, 7.219146, 0.47714472, 0.7238269, 10.762634
1464943603927040, 0.12921242, 6.13759, 7.0372915, -0.1773138, -0.3429711, 9.330654
1464943606336780, 0.047856454, 6.35773, 7.097112, -0.19805598, -0.19905376, 9.524346
1464943608746519, 0.28235307, 8.001599, 7.152147, 0.52346253, 0.7275944, 10.698369
1464943611156311, 0.0526421, 5.8169518, 6.836294, -0.2764299, -0.3981974, 8.96324
1464943613566051, 0.14356937, 6.9583282, 7.0803623, 0.085427046, 0.15997124, 9.926611
1464943615975790, 0.28953153, 7.594819, 7.164111, 0.38854003, 0.45977068, 10.427236
1464943618385582, -0.011964113, 5.7020965, 6.7334027, -0.33853078, -0.38296628, 8.808603
1464943620795322, 0.22492532, 7.597212, 7.109076, 0.3512237, 0.52187824, 10.388044
1464943623205113, 0.26081768, 6.991828, 7.085148, 0.1997199, 0.12184954, 9.954812
1464943625614853, -0.021535404, 5.8600225, 6.8339014, -0.33085752, -0.3378582, 8.989935
1464943628024592, 0.28713873, 8.020741, 7.099505, 0.54434776, 0.77365494, 10.673466
1464943630434384, 0.18664017, 6.3361945, 6.9702926, -0.036063194, -0.20322943, 9.419373
1464943632844124, 0.033499517, 6.2237315, 7.0229344, -0.22496736, -0.23898935, 9.378159
1464943635253863, 0.30149564, 8.051848, 7.1186476, 0.55767035, 0.77841043, 10.70894
1464943637663655, 0.09332009, 5.8624153, 6.8985076, -0.24638844, -0.42730737, 9.040062
1464943640073394, 0.14356937, 6.7573314, 7.140183, 0.0037543774, -0.013344288, 9.831793
1464943642483134, 0.28953153, 7.6977105, 7.245467, 0.4052117, 0.46523046, 10.557211
1464943644892926, -0.016749758, 5.6279187, 6.853044, -0.4122845, -0.49452615, 8.844402
1464943647302665, 0.17228323, 7.3268228, 7.24786, 0.1805191, 0.28122568, 10.302031
1464943649712405, 0.2321038, 7.082755, 7.30768, 0.13461447, 0.05911112, 10.178403
1464943652122197, -0.09332009, 5.6709895, 7.01097, -0.5059111, -0.5364182, 8.987704
1464943654531936, 0.18424734, 7.812566, 7.3292155, 0.3118534, 0.5499439, 10.695225
1464943656941676, 0.13160525, 6.4151573, 7.257431, -0.14846826, -0.29918623, 9.681442
1464943659351467, -0.09092726, 5.9653068, 7.2382884, -0.48062873, -0.48341584, 9.355281
1464943661761207, 0.16271193, 7.975278, 7.3770723, 0.34894633, 0.63461304, 10.841043
1464943664170999, -0.02632105, 5.8767724, 7.190432, -0.4477067, -0.52417135, 9.2609
1464943666580738, -0.019142581, 6.474978, 7.381858, -0.3073008, -0.2556424, 9.811104
1464943668990478, 0.16749759, 7.716853, 7.460821, 0.24069166, 0.41441393, 10.724367
1464943671400269, -0.09571291, 5.5776696, 7.099505, -0.573634, -0.6330533, 8.988476
1464943673810009, 0.06699903, 7.1066833, 7.456035, -0.045631886, 0.06832886, 10.300248
1464943676219749, 0.17467605, 7.200003, 7.4823565, 0.07183099, 0.06330013, 10.384941
1464943678629540, -0.1363909, 5.5896335, 7.082755, -0.6003603, -0.5963943, 8.983979
1464943681039280, 0.14596218, 7.692925, 7.429714, 0.22617888, 0.43161488, 10.684832
1464943683449019, 0.148355, 6.611369, 7.3603225, -0.10214996, -0.22691727, 9.891645
1464943685858811, -0.11724831, 5.8935223, 7.216753, -0.5258169, -0.4836676, 9.290773
1464943688268551, 0.18185452, 8.037491, 7.3698936, 0.39085507, 0.6777849, 10.878305
1464943690678290, 0.0526421, 6.0897336, 7.164111, -0.29458666, -0.40424275, 9.389459
1464943693088082, -0.016749758, 6.4199433, 7.259824, -0.2804842, -0.21607733, 9.684814
1464943695497822, 0.23449662, 7.9704924, 7.3028946, 0.4400699, 0.644454, 10.784574
1464943697907561, -0.009571291, 5.759524, 6.9415784, -0.38774264, -0.45491314, 9.000024
1464943700317353, 0.11485548, 7.0612197, 7.219146, 0.060986042, 0.16468573, 10.0974865
1464943702727092, 0.26799613, 7.515856, 7.288538, 0.3244083, 0.34532166, 10.462229
1464943705136884, -0.023928227, 5.7116675, 6.838687, -0.3855344, -0.41545987, 8.892138
1464943707546624, 0.2416751, 7.6977105, 7.1952176, 0.38815212, 0.5260048, 10.5193615
1464943709956363, 0.29671, 6.8913293, 7.123433, 0.19302225, 0.022331715, 9.913828
1464943712366155, 0.033499517, 5.919843, 6.884151, -0.28842616, -0.33531046, 9.068714
1464943714775894, 0.34456646, 8.094919, 7.097112, 0.65156054, 0.78448915, 10.722663
1464943717185634, 0.24646074, 6.3385873, 6.9320073, 0.024546146, -0.19720411, 9.394236
1464943719595426, 0.1268196, 6.3194447, 6.9942207, -0.10995364, -0.18772817, 9.424609
1464943722005165, 0.39960137, 8.111669, 7.070791, 0.69503665, 0.7960224, 10.716259
1464943724414905, 0.16510476, 5.9007006, 6.7932234, -0.14711523, -0.35962057, 8.991243
1464943726824697, 0.22492532, 6.9009004, 7.0540414, 0.14672565, 0.1004405, 9.86919
1464943729234436, 0.38763726, 7.7312098, 7.1617184, 0.5280051, 0.497427, 10.520735
1464943731644228, 0.09092726, 5.761917, 6.7501526, -0.24598145, -0.39114785, 8.863352
1464943734053967, 0.34217364, 7.5589266, 7.1569324, 0.4319396, 0.4127841, 10.398037
1464943736463707, 0.39960137, 7.1162543, 7.173682, 0.33331704, 0.084067345, 10.106646
1464943738873447, 0.10049855, 5.879165, 6.903293, -0.25810957, -0.40397954, 9.055403
1464943741283238, 0.37088752, 8.035098, 7.2215385, 0.5946603, 0.66531277, 10.772869
1464943743692978, 0.32063824, 6.4869423, 7.1210403, 0.06798625, -0.24923086, 9.634609
1464943746102769, 0.13160525, 6.1878395, 7.1473613, -0.20705843, -0.36793256, 9.445274
1464943748512509, 0.37328035, 8.140383, 7.283752, 0.61118865, 0.6958151, 10.890387
1464943750922249, 0.18424734, 6.0107703, 7.085148, -0.19779277, -0.47003055, 9.279147
1464943753332040, 0.20817557, 6.7262244, 7.3268228, -0.018866539, -0.15903997, 9.946963
1464943755741780, 0.3804588, 7.891529, 7.4440713, 0.48072743, 0.44426346, 10.835438
1464943758151519, 0.10049855, 5.7786665, 7.066005, -0.341712, -0.56276774, 9.104836
1464943760561311, 0.25842485, 7.3746796, 7.448857, 0.19936061, 0.16681099, 10.481916
1464943762971051, 0.34217364, 7.300502, 7.5110703, 0.22929716, 0.042431355, 10.477413
1464943765380842, 0.0023928226, 5.7690954, 7.176075, -0.4611343, -0.59362006, 9.17679
1464943767790582, 0.2536392, 7.8963146, 7.54457, 0.33544827, 0.4543848, 10.909521
1464943770200322, 0.19860429, 6.611369, 7.479964, -0.10832524, -0.31244326, 9.979486
1464943772610113, -0.031106694, 6.056234, 7.4033933, -0.46868622, -0.52095056, 9.539293
1464943775019853, 0.2440679, 8.097312, 7.556534, 0.3924818, 0.5865102, 11.055731
1464943777429592, 0.083748795, 6.053841, 7.3770723, -0.35742784, -0.5596926, 9.520304
1464943779839384, 0.0, 6.4773707, 7.515856, -0.33625174, -0.33016634, 9.910719
1464943782249124, 0.18664017, 7.905886, 7.5756764, 0.2802751, 0.47381115, 10.937353
1464943784658863, -0.05503492, 5.709275, 7.204789, -0.54039204, -0.61079764, 9.156569
1464943787068655, 0.06460621, 7.051648, 7.496713, -0.08234835, 0.030058384, 10.291887
1464943789478394, 0.17467605, 7.3770723, 7.54457, 0.108519554, 0.16038084, 10.55153
1464943791888134, -0.13160525, 5.6327047, 7.094719, -0.57865596, -0.56969166, 9.023323
1464943794297926, 0.12203395, 7.649854, 7.4392858, 0.1782186, 0.42692423, 10.661337
1464943796707665, 0.13399807, 6.73101, 7.3627152, -0.07718253, -0.13400745, 9.975476
1464943799117457, -0.1268196, 5.8887367, 7.1449685, -0.5079211, -0.43699646, 9.235527
1464943801527197, 0.19142582, 8.039884, 7.314859, 0.41313076, 0.72191906, 10.839358
1464943803936936, 0.11246266, 6.1734824, 7.1449685, -0.20664883, -0.35523677, 9.43431
1464943806346728, 0.040677983, 6.343373, 7.2215385, -0.23947167, -0.2564125, 9.6056
1464943808756467, 0.30149564, 7.984849, 7.2693954, 0.50854707, 0.66529465, 10.769939
1464943811166207, 0.083748795, 5.800202, 6.9678993, -0.29066265, -0.48603034, 9.048771
1464943813575999, 0.18664017, 6.9224358, 7.216753, 0.0760653, 0.052430153, 10.001396
1464943815985738, 0.32303107, 7.5996046, 7.3028946, 0.3840282, 0.38341808, 10.530724
1464943818395478, 0.021535404, 5.6877394, 6.8985076, -0.35994685, -0.48980618, 8.920245
1464943820805269, 0.26799613, 7.5493555, 7.2789664, 0.32546973, 0.39116478, 10.4780245
1464943823215009, 0.3062813, 6.9726853, 7.2861447, 0.17425585, -0.008870602, 10.088093
1464943825624749, 0.019142581, 5.8097734, 7.0301127, -0.37007833, -0.4853804, 9.099658
1464943828034540, 0.32303107, 7.9680996, 7.30768, 0.49820304, 0.62200737, 10.787126
1464943830444280, 0.23928227, 6.3122663, 7.190432, -0.069845915, -0.35436678, 9.564196
1464943832854019, 0.059820566, 6.178268, 7.2382884, -0.2885244, -0.38951087, 9.504337
1464943835263811, 0.30388847, 8.020741, 7.353144, 0.4874103, 0.6290612, 10.8563385
1464943837673551, 0.08135597, 5.8337016, 7.1186476, -0.34215474, -0.5512383, 9.181116
1464943840083342, 0.10767702, 6.7118673, 7.34118, -0.1061008, -0.122718334, 9.946224
1464943842493082, 0.24646074, 7.6594253, 7.4273214, 0.29586625, 0.37840796, 10.661234
1464943844902822, -0.050249275, 5.615955, 7.025327, -0.5026119, -0.57049394, 8.962066
1464943847312613, 0.15074782, 7.2957163, 7.391429, 0.10598731, 0.20632076, 10.384106
1464943849722353, 0.19621146, 7.0612197, 7.396215, 0.06936598, 0.028074265, 10.227303
1464943852132092, -0.13878371, 5.65424, 7.056434, -0.574818, -0.52454615, 9.0098505
1464943854541884, 0.14356937, 7.786245, 7.3435726, 0.27965164, 0.55650854, 10.685802
1464943856951624, 0.08853444, 6.4175506, 7.223932, -0.1748743, -0.23365307, 9.658821
1464943859361363, -0.12203395, 5.962914, 7.166504, -0.49099624, -0.39854312, 9.302156
1464943861771155, 0.16749759, 7.987242, 7.2622166, 0.3922491, 0.729198, 10.764679
1464943864180894, -0.0047856453, 5.881558, 7.042077, -0.37293637, -0.42989683, 9.1574955
1464943866590634, -0.009571291, 6.489335, 7.207182, -0.23013544, -0.13720036, 9.694494
1464943869000426, 0.2105684, 7.776674, 7.2622166, 0.3574183, 0.57297945, 10.620957
1464943871410165, -0.038285162, 5.6279187, 6.876972, -0.43171906, -0.47728825, 8.863042
1464943873819905, 0.12921242, 7.149754, 7.216753, 0.108367205, 0.22611761, 10.156492
1464943876229697, 0.25124636, 7.3028946, 7.2693954, 0.24969053, 0.23675442, 10.30151
1464943878639436, -0.06699903, 5.6853466, 6.879365, -0.43940818, -0.42828226, 8.903752
1464943881049228, 0.19621146, 7.7647095, 7.245467, 0.3604362, 0.57298946, 10.600367
1464943883458967, 0.19621146, 6.7022963, 7.176075, 0.03261113, -0.072907925, 9.820843
1464943885868707, -0.038285162, 5.9700923, 7.042077, -0.36936903, -0.36316013, 9.217701
1464943888278499, 0.25842485, 8.094919, 7.207182, 0.52638483, 0.7875056, 10.800034
1464943890688238, 0.12203395, 6.15434, 7.02772, -0.16751075, -0.30448556, 9.335892
1464943893097978, 0.0526421, 6.458228, 7.152147, -0.1694467, -0.14783192, 9.63401
1464943895507769, 0.28235307, 8.023134, 7.2215385, 0.52893543, 0.71277523, 10.761654
1464943897917509, 0.038285162, 5.814559, 6.8985076, -0.31442153, -0.40683198, 9.00753
1464943900327249, 0.18664017, 7.070791, 7.1784678, 0.14142299, 0.16367722, 10.075441
1464943902737040, 0.33260235, 7.5589266, 7.2550383, 0.40836215, 0.36335087, 10.468275
1464943905146780, 0.019142581, 5.721239, 6.8099732, -0.3363291, -0.40606713, 8.878663
1464943907556572, 0.2847459, 7.6737823, 7.1712894, 0.43196058, 0.51145506, 10.485573
1464943909966311, 0.32303107, 6.8889365, 7.125826, 0.21500492, 0.014775753, 9.91427
1464943912376051, 0.033499517, 5.871987, 6.8745794, -0.29732442, -0.35312963, 9.02929
1464943914785842, 0.34456646, 8.018349, 7.123433, 0.6113479, 0.73116493, 10.688667
1464943917195582, 0.25124636, 6.257231, 6.984649, -0.015650034, -0.27651906, 9.376817
1464943919605322, 0.11246266, 6.2668023, 7.0348988, -0.15296936, -0.2365315, 9.4178505
1464943922015113, 0.36610186, 8.039884, 7.133004, 0.6155813, 0.74154854, 10.7109585
1464943924424853, 0.13878371, 5.8217373, 6.8721867, -0.21435666, -0.4433329, 8.994238
1464943926834592, 0.19381863, 6.786045, 7.1306114, 0.05977583, 0.006427765, 9.8453045
1464943929244384, 0.32542387, 7.635497, 7.24786, 0.41176462, 0.42956018, 10.5159
1464943931654124, 0.0023928226, 5.6327047, 6.869794, -0.40751874, -0.49392653, 8.860667
1464943934063915, 0.24646074, 7.4344997, 7.283752, 0.26826835, 0.3054366, 10.4029
1464943936473655, 0.31345975, 7.01097, 7.3052874, 0.17965722, -0.012666702, 10.128511
1464943938883394, -0.0023928226, 5.7284174, 7.018149, -0.4297402, -0.52049065, 9.034025
1464943941293186, 0.28713873, 7.8987074, 7.331609, 0.446671, 0.56227684, 10.7568035
1464943943702926, 0.23449662, 6.3720865, 7.216753, -0.072024345, -0.32925844, 9.624261
1464943946112665, 0.019142581, 6.058627, 7.1976104, -0.36026216, -0.4183433, 9.391918
1464943948522457, 0.27517462, 8.015956, 7.3028946, 0.4854319, 0.660563, 10.816262
1464943950932197, 0.0741775, 5.8863435, 7.0779696, -0.32890892, -0.48405027, 9.187475
1464943953341936, 0.05742774, 6.6041903, 7.2693954, -0.164536, -0.12942219, 9.819313
1464943955751728, 0.24646074, 7.776674, 7.331609, 0.369627, 0.5040679, 10.672355
1464943958161467, -0.031106694, 5.6446686, 6.9128647, -0.4394809, -0.4913981, 8.900354
1464943960571207, 0.13399807, 7.233503, 7.24786, 0.12111211, 0.25937557, 10.23675
1464943962980999, 0.22013968, 7.240681, 7.281359, 0.19113636, 0.2013526, 10.267279
1464943965390738, -0.08853444, 5.7020965, 6.8817577, -0.4645952, -0.4022572, 8.916428
1464943967800478, 0.19142582, 7.84128, 7.219146, 0.39144135, 0.64010286, 10.633693
1464943970210269, 0.148355, 6.5635123, 7.099505, -0.03704381, -0.092522144, 9.669268
1464943972620009, -0.09092726, 5.989235, 6.9990063, -0.40442467, -0.291121, 9.19875
1464943975029749, 0.19621146, 8.075776, 7.1617184, 0.49168015, 0.82425547, 10.752939
1464943977439540, 0.06460621, 6.058627, 6.9966135, -0.24207616, -0.3151064, 9.246939
1464943979849280, 0.009571291, 6.4701924, 7.1425757, -0.20164919, -0.11078787, 9.634675
1464943982259072, 0.2321038, 7.925029, 7.24786, 0.4447565, 0.6606078, 10.71248
1464943984668811, -0.0023928226, 5.759524, 6.927222, -0.37785697, -0.4369912, 8.990261
1464943987078551, 0.148355, 7.099505, 7.257431, 0.09165931, 0.16089582, 10.1518955
1464943989488342, 0.2656033, 7.422536, 7.353144, 0.2707441, 0.25579882, 10.444835
1464943991898082, -0.031106694, 5.651847, 6.9702926, -0.44649184, -0.5239506, 8.94737
1464943994307822, 0.22731815, 7.6426754, 7.3627152, 0.30104017, 0.41781902, 10.602194
1464943996717613, 0.24646074, 6.735796, 7.34118, 0.031567097, -0.16889668, 9.964691
1464943999127353, 0.009571291, 5.869594, 7.1808605, -0.4090104, -0.52527404, 9.25061
1464944001537092, 0.3062813, 8.013563, 7.4010005, 0.47776055, 0.6034317, 10.88547
1464944003946884, 0.2105684, 6.1447687, 7.2670026, -0.1842699, -0.4843223, 9.504911
1464944006356624, 0.11724831, 6.3122663, 7.3698936, -0.24501586, -0.39283562, 9.693268
1464944008766415, 0.33738798, 7.987242, 7.4584284, 0.49307728, 0.52251387, 10.909716
1464944011176155, 0.11246266, 5.7810597, 7.1808605, -0.35239184, -0.6218996, 9.191688
1464944013585894, 0.1698904, 6.908079, 7.4440713, -0.01769185, -0.07466936, 10.156709
1464944015995686, 0.3278167, 7.5828547, 7.5517483, 0.3077333, 0.22733545, 10.699985
1464944018405426, 0.0071784677, 5.6614184, 7.1377897, -0.47164226, -0.6235304, 9.076812
1464944020815165, 0.2440679, 7.5086775, 7.503892, 0.22633147, 0.24539566, 10.613046
1464944023224957, 0.28235307, 6.9391856, 7.496713, 0.073845625, -0.1378007, 10.218039
1464944025634697, -0.040677983, 5.7786665, 7.207182, -0.49934447, -0.56270504, 9.207178
1464944028044436, 0.2440679, 7.941778, 7.4584284, 0.38749385, 0.55519104, 10.876635
1464944030454228, 0.15074782, 6.290731, 7.30768, -0.19377494, -0.37603736, 9.634275
1464944032863967, -0.016749758, 6.1591253, 7.314859, -0.3879006, -0.38614583, 9.546868
1464944035273759, 0.2321038, 8.01117, 7.3866434, 0.4304347, 0.64972925, 10.871422
1464944037683499, -0.019142581, 5.8241305, 7.125826, -0.43828952, -0.48941207, 9.179687
1464944040093238, 0.0071784677, 6.6855464, 7.32443, -0.19209194, -0.06374216, 9.914782
1464944042503030, 0.1794617, 7.6594253, 7.3746796, 0.27114654, 0.4534688, 10.621004
1464944044912769, -0.09810573, 5.6207404, 6.936793, -0.50607157, -0.4711814, 8.901871
1464944047322509, 0.124426775, 7.2909307, 7.2861447, 0.13222218, 0.2969575, 10.303173
1464944049732301, 0.21296121, 7.111469, 7.2789664, 0.15469527, 0.14411163, 10.176294
1464944052142040, -0.09092726, 5.709275, 6.9296145, -0.46808934, -0.4100747, 8.957477
1464944054551780, 0.19142582, 7.8556366, 7.2502527, 0.39683652, 0.6516981, 10.664505
1464944056961572, 0.18664017, 6.506085, 7.176075, -0.036453247, -0.17561293, 9.68648
1464944059371311, -0.021535404, 6.053841, 7.1617184, -0.36625528, -0.36074758, 9.363512
1464944061781103, 0.2632105, 8.087741, 7.314859, 0.50757694, 0.73521376, 10.871513
1464944064190842, 0.09810573, 6.0155563, 7.1473613, -0.26186967, -0.43375182, 9.328698
1464944066600582, 0.09332009, 6.606583, 7.3340015, -0.13331628, -0.15888739, 9.869155
1464944069010374, 0.27756742, 7.905886, 7.405786, 0.43107843, 0.5594125, 10.813278
1464944071420113, 0.016749758, 5.749953, 7.058827, -0.3978603, -0.51409626, 9.081118
1464944073829853, 0.18903299, 7.2263246, 7.396215, 0.13499999, 0.16003466, 10.340004
1464944076239644, 0.30867413, 7.348358, 7.4536424, 0.26239228, 0.14863157, 10.467068
1464944078649384, 0.0047856453, 5.706882, 7.0540414, -0.4203869, -0.5317545, 9.048124
1464944081059124, 0.25842485, 7.7671022, 7.4273214, 0.35811424, 0.47067213, 10.733591
1464944083468915, 0.25842485, 6.690332, 7.3459654, 0.038334846, -0.18515015, 9.937544
1464944085878655, 0.0071784677, 5.9007006, 7.2023964, -0.39352286, -0.50168896, 9.289041
1464944088288447, 0.30867413, 8.020741, 7.3842506, 0.49741888, 0.6378784, 10.8766
1464944090698186, 0.18185452, 6.068198, 7.2095747, -0.1923995, -0.47501707, 9.411239
1464944093107926, 0.10049855, 6.3361945, 7.32443, -0.21387386, -0.3321104, 9.677226
1464944095517717, 0.3182454, 7.920243, 7.389036, 0.47881818, 0.5577822, 10.811522
1464944097927457, 0.09092726, 5.721239, 7.04447, -0.33301365, -0.5608232, 9.052072
1464944100337197, 0.22492532, 6.9702926, 7.3268228, 0.104688406, 0.023490906, 10.114663
1464944102746988, 0.37088752, 7.4679995, 7.389036, 0.37468338, 0.2467432, 10.502627
1464944105156728, 0.0526421, 5.6183476, 6.9583282, -0.3672496, -0.55968904, 8.918454
1464944107566467, 0.30149564, 7.5732837, 7.34118, 0.36007214, 0.3729806, 10.53896
1464944109976259, 0.3493521, 6.838687, 7.2909307, 0.18261933, -0.098938465, 10.000212
1464944112385999, 0.062213387, 5.8337016, 7.066005, -0.3246454, -0.49030566, 9.1443205
1464944114795790, 0.34217364, 8.02792, 7.314859, 0.5398395, 0.6775918, 10.83149
1464944117205530, 0.22492532, 6.290731, 7.173682, -0.06156397, -0.3280201, 9.538042
1464944119615269, 0.09092726, 6.262017, 7.223932, -0.20646334, -0.31896353, 9.553112
1464944122025061, 0.32303107, 8.059027, 7.322037, 0.5268817, 0.7053032, 10.857691
1464944124434801, 0.11006984, 5.845666, 7.0612197, -0.26680267, -0.5052414, 9.149771
1464944126844540, 0.16271193, 6.8219376, 7.3196445, 0.0034992695, -0.043065548, 10.0070305
1464944129254332, 0.3182454, 7.702496, 7.3986077, 0.39059782, 0.42290497, 10.669476
1464944131664072, 0.019142581, 5.666204, 6.9798636, -0.3742032, -0.5388074, 8.966292
1464944134073811, 0.23928227, 7.436893, 7.3579297, 0.25042439, 0.31154633, 10.456767
1464944136483603, 0.30388847, 7.0325055, 7.3435726, 0.19032979, 0.024550438, 10.17053
1464944138893342, -0.0071784677, 5.7523456, 7.0229344, -0.38101256, -0.49318027, 9.056641
1464944141303082, 0.27996024, 7.905886, 7.34118, 0.45269752, 0.6050377, 10.7658415
1464944143712874, 0.21296121, 6.407979, 7.233503, -0.051484585, -0.28183842, 9.661731
1464944146122613, -0.0071784677, 6.0921264, 7.2215385, -0.34225833, -0.382874, 9.434031
1464944148532405, 0.24646074, 8.087741, 7.353144, 0.47983742, 0.7324877, 10.898359
1464944150942144, 0.0526421, 5.962914, 7.123433, -0.29741693, -0.43608093, 9.274901
1464944153351884, 0.021535404, 6.6257257, 7.338787, -0.17972398, -0.11329603, 9.885006
1464944155761676, 0.18903299, 7.865208, 7.4440713, 0.3296585, 0.56336355, 10.811354
1464944158171415, -0.08853444, 5.7260246, 7.085148, -0.48191142, -0.5021925, 9.083506
1464944160581155, 0.076570325, 7.2861447, 7.4775705, 0.03696847, 0.2120099, 10.438463
1464944162990947, 0.16031912, 7.2765737, 7.539784, 0.09327912, 0.12844181, 10.478424
1464944165400686, -0.16271193, 5.733203, 7.1617184, -0.5711044, -0.50839996, 9.143394
1464944167810426, 0.124426775, 7.834101, 7.530213, 0.24624133, 0.51837635, 10.851885
1464944170220217, 0.11724831, 6.5850477, 7.436893, -0.1317048, -0.24091625, 9.930186
1464944172629957, -0.10767702, 5.979664, 7.314859, -0.48641467, -0.46068835, 9.42477
1464944175039749, 0.19381863, 8.039884, 7.460821, 0.39849305, 0.6646695, 10.942604
1464944177449488, 0.076570325, 6.0323057, 7.2550383, -0.28554988, -0.47467685, 9.419306
1464944179859228, 0.031106694, 6.4534426, 7.3842506, -0.23177409, -0.25629663, 9.800798
1464944182269019, 0.26081768, 7.908279, 7.4536424, 0.41909552, 0.5502987, 10.848375
1464944184678759, 0.023928227, 5.721239, 7.0899334, -0.38101435, -0.5559242, 9.085487
1464944187088499, 0.14356937, 7.04447, 7.3842506, 0.05936885, 0.08076239, 10.205992
1464944189498290, 0.2727818, 7.4273214, 7.436893, 0.2814405, 0.24127579, 10.507591
1464944191908030, -0.050249275, 5.663811, 7.01097, -0.44775534, -0.5068741, 8.987635
1464944194317822, 0.19621146, 7.649854, 7.3698936, 0.30896592, 0.45730257, 10.609879
1464944196727561, 0.22971097, 6.754938, 7.298109, 0.06537795, -0.101984024, 9.946341
1464944199137301, -0.019142581, 5.8600225, 7.085148, -0.38122964, -0.44153714, 9.176016
1464944201547092, 0.2656033, 8.013563, 7.274181, 0.51891565, 0.7133584, 10.789963
1464944203956832, 0.16510476, 6.1495543, 7.1162543, -0.1381557, -0.35673332, 9.398884
1464944206366572, 0.047856454, 6.2883377, 7.176075, -0.21535397, -0.24638462, 9.535957
1464944208776363, 0.28953153, 7.9944205, 7.233503, 0.5555272, 0.7077317, 10.747498
1464944211186103, 0.043070808, 5.8097734, 6.9320073, -0.30822492, -0.41048932, 9.030201
1464944213595842, 0.10049855, 6.884151, 7.1784678, 0.03085351, 0.1042099, 9.945864
1464944216005634, 0.2656033, 7.578069, 7.240681, 0.39475203, 0.43196106, 10.468176
1464944218415374, -0.050249275, 5.623133, 6.8171515, -0.4153993, -0.4166119, 8.817572
1464944220825165, 0.15792629, 7.448857, 7.1688967, 0.2747202, 0.44822407, 10.32604
1464944223234905, 0.18664017, 6.920043, 7.1545396, 0.12603664, 0.101540565, 9.954048
1464944225644644, -0.12921242, 5.7284174, 6.8889365, -0.4666562, -0.36056662, 8.94098
1464944228054436, 0.15553348, 7.8891363, 7.164111, 0.4229617, 0.7357559, 10.623883
1464944230464176, 0.05742774, 6.2524457, 7.066005, -0.18393159, -0.21975183, 9.430943
1464944232873915, -0.11964113, 6.068198, 7.1162543, -0.4201498, -0.28302526, 9.339262
1464944235283707, 0.124426775, 7.9393854, 7.233503, 0.3976822, 0.73190737, 10.708832
1464944237693447, -0.083748795, 5.7834525, 7.0396843, -0.46078396, -0.43766618, 9.088929
1464944240103186, -0.07178468, 6.6185474, 7.271788, -0.2395165, -0.04240179, 9.830059
1464944242512978, 0.1052842, 7.628319, 7.365108, 0.22849965, 0.46678257, 10.591366
1464944244922717, -0.17706887, 5.5633125, 6.975078, -0.58998275, -0.49882483, 8.890253
1464944247332509, 0.016749758, 7.2382884, 7.3627152, 0.019225597, 0.25845575, 10.321604
1464944249742249, 0.13160525, 7.0779696, 7.379465, 0.062283278, 0.08830929, 10.225449
1464944252151988, -0.1698904, 5.623133, 7.04447, -0.580624, -0.5080378, 8.982083
1464944254561780, 0.11246266, 7.745567, 7.3627152, 0.27755904, 0.54106, 10.669876
1464944256971519, 0.0741775, 6.4271216, 7.243074, -0.16032577, -0.22201777, 9.679903
1464944259381259, -0.1363909, 5.938986, 7.1712894, -0.4855014, -0.3933792, 9.291237
1464944261791051, 0.17228323, 7.975278, 7.2861447, 0.4337716, 0.7083602, 10.771847
1464944264200790, -0.0071784677, 5.9150577, 7.0803623, -0.35213852, -0.414649, 9.2099695
1464944266610530, 0.0, 6.4773707, 7.2382884, -0.207165, -0.14977837, 9.709984
1464944269020322, 0.21774685, 7.783852, 7.3028946, 0.40750813, 0.5487466, 10.653679
1464944271430061, -0.043070808, 5.625526, 6.9391856, -0.43733203, -0.49942303, 8.908424
1464944273839853, 0.148355, 7.092326, 7.283752, 0.118757725, 0.14959335, 10.165612
1464944276249592, 0.26799613, 7.281359, 7.338787, 0.27011108, 0.18096876, 10.336445
1464944278659332, -0.047856454, 5.608776, 6.948757, -0.4515314, -0.5109601, 8.903985
1464944281069124, 0.21296121, 7.6594253, 7.3052874, 0.3471918, 0.47800255, 10.570258
1464944283478863, 0.22731815, 6.623333, 7.216753, 0.051021338, -0.15088987, 9.796753
1464944285888603, -0.0071784677, 5.871987, 7.058827, -0.3517232, -0.43851447, 9.164679
1464944288298394, 0.28713873, 8.01117, 7.2287173, 0.5521767, 0.7200966, 10.756033
1464944290708134, 0.15314065, 6.099305, 7.0492554, -0.13176036, -0.35754156, 9.315138
1464944293117874, 0.08135597, 6.343373, 7.1712894, -0.15533042, -0.236372, 9.570392
1464944295527665, 0.3062813, 7.958528, 7.2502527, 0.54369307, 0.66627645, 10.735857
1464944297937405, 0.050249275, 5.771488, 6.936793, -0.29509664, -0.45474935, 9.007654
1464944300347197, 0.16749759, 7.0133634, 7.23111, 0.11872649, 0.12282801, 10.073484
1464944302756936, 0.2943172, 7.5230346, 7.30768, 0.37190557, 0.35231876, 10.479619
1464944305166676, -0.03589234, 5.6733823, 6.8889365, -0.3862785, -0.4538324, 8.904539
1464944307576467, 0.20338993, 7.609176, 7.288538, 0.32556129, 0.46393538, 10.523427
1464944309986207, 0.24646074, 6.876972, 7.2263246, 0.14765072, 0.0032701492, 9.977549
1464944312395999, -0.03589234, 5.831309, 6.9894347, -0.36394298, -0.41013765, 9.086088
1464944314805738, 0.27038896, 7.9968133, 7.233503, 0.52408886, 0.7248483, 10.749216
1464944317215478, 0.19142582, 6.2883377, 7.0803623, -0.043517113, -0.26927137, 9.467681
1464944319625269, 0.043070808, 6.2117677, 7.1306114, -0.21638346, -0.28371954, 9.450197
1464944322035009, 0.2943172, 8.032705, 7.219146, 0.5617697, 0.7427764, 10.763817
1464944324444749, 0.08135597, 5.85763, 6.948757, -0.23757279, -0.42367935, 9.075667
1464944326854540, 0.11485548, 6.795616, 7.207182, 0.010567665, 0.022150993, 9.9063835
1464944329264280, 0.26081768, 7.688139, 7.2957163, 0.3953333, 0.48801136, 10.58341
1464944331674072, -0.033499517, 5.697311, 6.8913293, -0.37444103, -0.44421077, 8.922632
1464944334083811, 0.16271193, 7.456035, 7.2909307, 0.23356485, 0.3800044, 10.420059
1464944336493551, 0.22013968, 7.0731835, 7.3196445, 0.15485859, 0.08558464, 10.179601
1464944338903342, -0.10049855, 5.7834525, 7.0301127, -0.45045376, -0.44247818, 9.081972
1464944341313082, 0.1794617, 7.9346, 7.350751, 0.3807726, 0.65114737, 10.791414
1464944343722822, 0.11724831, 6.4438715, 7.2550383, -0.11831856, -0.23949814, 9.70059
1464944346132613, -0.09332009, 6.111269, 7.2550383, -0.41455495, -0.3617468, 9.470438
1464944348542353, 0.1698904, 8.070991, 7.372287, 0.41217828, 0.7317529, 10.90023
1464944350952092, -0.011964113, 5.9413786, 7.1688967, -0.37099326, -0.45874405, 9.292208
1464944353361884, -0.014356935, 6.5922265, 7.3746796, -0.22775006, -0.15888882, 9.8876915
1464944355771624, 0.1698904, 7.8029947, 7.470392, 0.28850722, 0.49565983, 10.788579
1464944358181415, -0.09810573, 5.6446686, 7.0731835, -0.50733984, -0.562788, 9.0181875
1464944360591155, 0.0741775, 7.183254, 7.4273214, 0.021860361, 0.16005564, 10.331682
1464944363000894, 0.16271193, 7.2023964, 7.4823565, 0.09346461, 0.09698677, 10.385976
1464944365410686, -0.16271193, 5.623133, 7.082755, -0.5920403, -0.53189564, 9.00989
1464944367820426, 0.11485548, 7.7407813, 7.422536, 0.25164604, 0.50441456, 10.7102375
1464944370230165, 0.10289137, 6.518049, 7.3292155, -0.13799691, -0.22712135, 9.80522
1464944372639957, -0.11964113, 5.9007006, 7.183254, -0.4915707, -0.4346757, 9.273679
1464944375049697, 0.1794617, 7.984849, 7.3052874, 0.4226575, 0.70597076, 10.792601
1464944377459488, 0.04546363, 5.979664, 7.099505, -0.28658867, -0.4145403, 9.268627
1464944379869228, -0.0071784677, 6.3625154, 7.2095747, -0.24162602, -0.20426893, 9.610388
1464944382278967, 0.22492532, 7.8580294, 7.2957163, 0.43905973, 0.60187626, 10.699144
1464944384688759, -0.019142581, 5.666204, 6.948757, -0.40628767, -0.487885, 8.943622
1464944387098499, 0.124426775, 6.9726853, 7.24786, 0.065108776, 0.10747099, 10.057312
1464944389508238, 0.2416751, 7.389036, 7.32443, 0.2852583, 0.27229166, 10.399424
1464944391918030, -0.076570325, 5.625526, 6.910472, -0.45985675, -0.4629004, 8.887142
1464944394327769, 0.1698904, 7.6139617, 7.2957163, 0.31121588, 0.46679258, 10.531572
1464944396737561, 0.2009971, 6.759724, 7.2622166, 0.05661726, -0.07463455, 9.922967
1464944399147301, -0.04546363, 5.8624153, 7.085148, -0.40876424, -0.42546678, 9.177211
1464944401557040, 0.23928227, 8.006385, 7.312466, 0.512588, 0.6715684, 10.812857
1464944403966832, 0.13160525, 6.1591253, 7.1808605, -0.19006276, -0.37513924, 9.451986
1464944406376572, 0.023928227, 6.276374, 7.2670026, -0.27186942, -0.2978642, 9.593756
1464944408786363, 0.2943172, 7.946564, 7.3435726, 0.5286374, 0.5872965, 10.795284
1464944411196103, 0.0741775, 5.76431, 7.0540414, -0.34085894, -0.5163722, 9.088974
1464944413605842, 0.1363909, 6.8099732, 7.312466, -2.6202202E-4, -0.03644228, 9.9932575
1464944416015634, 0.28235307, 7.5613194, 7.3842506, 0.37097025, 0.3244424, 10.561133
1464944418425374, -0.019142581, 5.611169, 6.948757, -0.4406972, -0.5040648, 8.906319
1464944420835113, 0.18664017, 7.4153576, 7.331609, 0.24722862, 0.3166871, 10.421778
1464944423244905, 0.22253251, 6.9224358, 7.3268228, 0.10856056, -0.015731812, 10.081664
1464944425654644, -0.09810573, 5.6997037, 7.051648, -0.5029955, -0.48091483, 9.040891
1464944428064384, 0.15314065, 7.8580294, 7.300502, 0.382545, 0.63521767, 10.701382
1464944430474176, 0.038285162, 6.2404814, 7.1545396, -0.22894287, -0.25807214, 9.487545
1464944432883915, -0.12921242, 6.0346985, 7.125826, -0.43698084, -0.29228473, 9.32391
1464944435293707, 0.12921242, 7.91785, 7.1952176, 0.41731048, 0.7502136, 10.665047
1464944437703447, -0.08135597, 5.757131, 6.920043, -0.4209894, -0.37311673, 8.984526
1464944440113186, -0.0526421, 6.5754766, 7.092326, -0.1695466, 0.034603596, 9.670101
1464944442522978, 0.11485548, 7.6259255, 7.1449685, 0.32237768, 0.5974684, 10.428694
1464944444932717, -0.17228323, 5.5657053, 6.762117, -0.5093801, -0.3583181, 8.73757
1464944447342457, 0.0023928226, 7.219146, 7.1425757, 0.08533931, 0.3952899, 10.14736
1464944449752249, 0.10049855, 7.097112, 7.1880393, 0.11396384, 0.24246454, 10.098278
1464944452161988, -0.18424734, 5.6614184, 6.8745794, -0.52717733, -0.35285187, 8.884989
1464944454571780, 0.09332009, 7.795816, 7.2263246, 0.34035683, 0.6719713, 10.603576
1464944456981519, 0.076570325, 6.491728, 7.149754, -0.10341978, -0.11119461, 9.656309
1464944459391259, -0.13399807, 5.977271, 7.1186476, -0.45622385, -0.31992173, 9.279568
1464944461801051, 0.1794617, 8.02792, 7.2765737, 0.46962523, 0.76322365, 10.7993145
1464944464210790, 0.040677983, 5.946164, 7.094719, -0.29940438, -0.40860343, 9.243212
1464944466620582, 0.02632105, 6.4797635, 7.2861447, -0.1942997, -0.17096329, 9.747254
1464944469030322, 0.24646074, 7.8077803, 7.3746796, 0.41969752, 0.53211546, 10.721416
1464944471440061, 0.0047856453, 5.6350975, 7.018149, -0.41474128, -0.5440755, 8.97445
1464944473849853, 0.18664017, 7.111469, 7.3986077, 0.12124896, 0.09670305, 10.262709
1464944476259592, 0.32063824, 7.331609, 7.496713, 0.2813537, 0.116672516, 10.486337
1464944478669332, 0.0071784677, 5.6781683, 7.1282187, -0.43464053, -0.58299565, 9.084292
1464944481079124, 0.27517462, 7.7623167, 7.556534, 0.3638525, 0.39203024, 10.823329
1464944483488863, 0.30388847, 6.754938, 7.5326056, 0.053860426, -0.25901937, 10.118879
1464944485898603, 0.031106694, 5.9557357, 7.420143, -0.42063594, -0.57896113, 9.487791
1464944488308394, 0.3397808, 8.094919, 7.6307116, 0.5061052, 0.53307104, 11.1054325
1464944490718134, 0.20338993, 6.1902323, 7.4584284, -0.20541286, -0.5310643, 9.678031
1464944493127926, 0.11724831, 6.422336, 7.570891, -0.2324028, -0.41089535, 9.917444
1464944495537665, 0.35413775, 8.023134, 7.6570325, 0.47550178, 0.47351074, 11.075916
1464944497947405, 0.1268196, 5.802595, 7.3459654, -0.35707903, -0.68358994, 9.330306
1464944500357197, 0.23688944, 7.015756, 7.623533, 0.049031496, -0.10429287, 10.362525
1464944502766936, 0.3684947, 7.556534, 7.685746, 0.32500052, 0.14241123, 10.778765
1464944505176676, 0.03589234, 5.666204, 7.245467, -0.47209597, -0.65192103, 9.162754
1464944507586467, 0.29671, 7.5900335, 7.6307116, 0.29272246, 0.2314229, 10.760351
1464944509996207, 0.34456646, 6.8865438, 7.585248, 0.10346055, -0.21936989, 10.247944
1464944512405999, 0.023928227, 5.8073807, 7.30768, -0.46375155, -0.5879457, 9.304178
1464944514815738, 0.30149564, 7.9968133, 7.5349984, 0.4738412, 0.54106474, 10.968086
1464944517225478, 0.20817557, 6.2811594, 7.3698936, -0.15759993, -0.41291642, 9.675552
1464944519635269, 0.069391854, 6.1854467, 7.3770723, -0.31532288, -0.4072199, 9.613558
1464944522045009, 0.30149564, 8.02792, 7.4249287, 0.5152683, 0.6291332, 10.909018
1464944524454801, 0.09092726, 5.831309, 7.1066833, -0.3255949, -0.49108243, 9.174433
1464944526864540, 0.12203395, 6.7764735, 7.3340015, -0.046695232, -0.033278942, 9.98598
1464944529274280, 0.28953153, 7.7216387, 7.389036, 0.40958452, 0.45552397, 10.673805
1464944531684072, -0.02632105, 5.6877394, 6.943971, -0.42165184, -0.434206, 8.955639
1464944534093811, 0.18185452, 7.4440713, 7.298109, 0.2488873, 0.38515997, 10.416304
1464944536503551, 0.24885355, 7.1042905, 7.2861447, 0.19346261, 0.14111185, 10.176613
1464944538913342, -0.05503492, 5.7690954, 6.95115, -0.42262375, -0.37256908, 9.015906
1464944541323082, 0.22971097, 7.941778, 7.2646093, 0.47660756, 0.6923466, 10.732784
1464944543732874, 0.18424734, 6.4462643, 7.1617184, -0.053379774, -0.1818738, 9.635485
1464944546142613, -0.0023928226, 6.0825553, 7.133004, -0.33368182, -0.30565405, 9.3633585
1464944548552353, 0.28235307, 8.068598, 7.2646093, 0.56631684, 0.74484396, 10.820399
1464944550962144, 0.10767702, 5.960521, 7.051648, -0.25344062, -0.39237165, 9.222092
1464944553371884, 0.083748795, 6.5778694, 7.2502527, -0.12516856, -0.10192776, 9.78854
1464944555781676, 0.2727818, 7.82453, 7.350751, 0.43526793, 0.55011654, 10.716303
1464944558191415, -0.0023928226, 5.6781683, 6.9702926, -0.41727602, -0.4754169, 8.96808
1464944560601155, 0.1794617, 7.1976104, 7.3196445, 0.14627218, 0.20775986, 10.264036
1464944563010947, 0.28953153, 7.24786, 7.381858, 0.23545194, 0.15052652, 10.345483
1464944565420686, -0.014356935, 5.663811, 6.9822564, -0.4303763, -0.49424553, 8.966681
1464944567830426, 0.27996024, 7.7742805, 7.3459654, 0.4147644, 0.5191331, 10.678926
1464944570240217, 0.27996024, 6.570691, 7.240681, 0.046052933, -0.19736052, 9.779507
1464944572649957, 0.040677983, 5.9437714, 7.1066833, -0.33726358, -0.40580368, 9.249681
1464944575059749, 0.32542387, 8.047063, 7.2646093, 0.58427143, 0.71517944, 10.80661
1464944577469488, 0.19381863, 6.0729837, 7.0803623, -0.1516664, -0.383312, 9.32096
1464944579879228, 0.10767702, 6.448657, 7.219146, -0.14456797, -0.1821518, 9.677746
1464944582289019, 0.31585258, 7.946564, 7.30768, 0.5093703, 0.6366997, 10.769634
1464944584698759, 0.06460621, 5.7690954, 6.991828, -0.33049643, -0.4703734, 9.046647
1464944587108499, 0.18664017, 7.0612197, 7.3028946, 0.102890015, 0.12672281, 10.158804
1464944589518290, 0.33499518, 7.472785, 7.408179, 0.3335991, 0.26118374, 10.519333
1464944591928030, 0.023928227, 5.6733823, 6.9822564, -0.40391934, -0.5066738, 8.973287
1464944594337822, 0.2656033, 7.635497, 7.367501, 0.3420906, 0.41742754, 10.600006
1464944596747561, 0.2847459, 6.8171515, 7.322037, 0.09781265, -0.09374237, 10.0074215
1464944599157301, 0.014356935, 5.879165, 7.1138616, -0.38696647, -0.4475379, 9.209873
1464944601567092, 0.33260235, 8.018349, 7.3196445, 0.53904605, 0.6668768, 10.828041
1464944603976832, 0.22253251, 6.202196, 7.166504, -0.11052847, -0.36804652, 9.472481
1464944606386624, 0.10289137, 6.2979093, 7.207182, -0.19798326, -0.2743187, 9.565735
1464944608796363, 0.35413775, 7.989635, 7.281359, 0.56032324, 0.6634226, 10.780714
1464944611206103, 0.13399807, 5.800202, 6.991828, -0.26662278, -0.485147, 9.0686
1464944613615894, 0.19621146, 6.8482585, 7.2382884, 0.0544796, 0.01894474, 9.966275
1464944616025634, 0.3469593, 7.611569, 7.3340015, 0.40770507, 0.3839507, 10.560791
1464944618435426, 0.02632105, 5.6350975, 6.9248285, -0.39540052, -0.5047054, 8.904898
1464944620845165, 0.24646074, 7.448857, 7.3172517, 0.26954532, 0.33706903, 10.435617
1464944623254905, 0.30388847, 6.9822564, 7.3172517, 0.16350698, 0.010930061, 10.117291
1464944625664697, 0.0071784677, 5.7523456, 7.02772, -0.39942455, -0.48846817, 9.059815
1464944628074436, 0.30388847, 7.905886, 7.2909307, 0.46428728, 0.633605, 10.730146
1464944630484176, 0.24885355, 6.317052, 7.173682, -0.052792072, -0.31688404, 9.556442
