timestamp_acc,device_acc_x,device_acc_y,device_acc_z,earth_acc_x,earth_acc_y,earth_acc_z
1133959627801920, -0.18903299, 6.7704916, 7.29452, 0.033304453, -0.042153835, 9.954016
1133959637440878, -0.20578274, 6.769295, 7.27777, 0.026344538, -0.023125172, 9.941349
1133959647079836, -0.2117648, 6.7561345, 7.2299137, 0.03388381, -8.234978E-4, 9.89751
1133959656718795, -0.20697916, 6.7609205, 7.170093, 0.06250358, 0.03359413, 9.85688
1133959666357649, -0.21655045, 6.7645097, 7.143772, 0.06523538, 0.0550642, 9.840309
1133959675996607, -0.2440679, 6.7525454, 7.0779696, 0.060105324, 0.101008415, 9.784696
1133959685635566, -0.31345975, 6.710671, 7.0289164, 0.0037193298, 0.14214087, 9.721975
1133959695274524, -0.35413775, 6.6999035, 7.0396843, -0.03919816, 0.15075779, 9.72353
1133959704913482, -0.33020952, 6.690332, 7.1222367, -0.05128622, 0.08326435, 9.776824
1133959714552336, -0.28713873, 6.707082, 7.2622166, -0.053122044, -0.007499218, 9.889605
1133959724191295, -0.2105684, 6.7238317, 7.3770723, -0.021718502, -0.10561848, 9.983176
1133959733830253, -0.18664017, 6.7298136, 7.381858, 0.0015897751, -0.11357498, 9.990201
1133959743469211, -0.25722843, 6.707082, 7.3866434, -0.06559181, -0.08376074, 9.980095
1133959753108170, -0.35653058, 6.687939, 7.3770723, -0.1537273, -0.034081936, 9.962532
1133959762747024, -0.42592242, 6.678368, 7.3627152, -0.20434952, 0.012484074, 9.947345
1133959772385982, -0.40558344, 6.6819572, 7.3172517, -0.169487, 0.029109001, 9.915928
1133959782024941, -0.35294133, 6.6891356, 7.259824, -0.0982995, 0.0388484, 9.877398
1133959791663899, -0.2536392, 6.7034926, 7.26102, -0.008231401, -0.0076828003, 9.885516
1133959801302857, -0.12562318, 6.7130637, 7.298109, 0.087043524, -0.09414911, 9.915997
1133959810941711, -0.0849452, 6.7381887, 7.3268228, 0.11950898, -0.11668253, 9.953131
1133959820580670, -0.14955142, 6.728617, 7.318448, 0.065252304, -0.08129072, 9.942106
1133959830219628, -0.23330021, 6.6915283, 7.304091, -0.016639948, -0.048427105, 9.908487
1133959839858586, -0.30867413, 6.6891356, 7.3292155, -0.092505455, -0.022560596, 9.927142
1133959849497545, -0.31944183, 6.661618, 7.2729845, -0.09251881, -3.8337708E-4, 9.867468
1133959859136399, -0.3182454, 6.6999035, 7.21436, -0.05335927, 0.054370403, 9.85044
1133959868775357, -0.29192436, 6.7202425, 7.1677003, -0.0028252602, 0.07762766, 9.829384
1133959878414316, -0.2727818, 6.7537417, 7.1377897, 0.03837037, 0.10441542, 9.829704
1133959888053274, -0.21535404, 6.7561345, 7.1413794, 0.08557391, 0.07247543, 9.832521
1133959897692232, -0.12562318, 6.7932234, 7.170093, 0.16450763, 0.02768612, 9.876542
1133959907331086, -0.05623133, 6.818348, 7.259824, 0.19875097, -0.04804325, 9.957725
1133959916970045, -0.016749758, 6.8135624, 7.27777, 0.2215991, -0.07990837, 9.966714
1133959926609003, -0.06699903, 6.8051877, 7.2897344, 0.17155123, -0.060521603, 9.971069
1133959936247961, -0.17228323, 6.762117, 7.32443, 0.052969933, -0.043552876, 9.96988
1133959945886920, -0.28115666, 6.6891356, 7.3052874, -0.058574915, -0.011832714, 9.908947
1133959955525774, -0.3290131, 6.6532435, 7.2646093, -0.09848237, 0.017156124, 9.855885
1133959965164732, -0.3385844, 6.6568327, 7.2179494, -0.081949234, 0.05265236, 9.824324
1133959974803691, -0.33499518, 6.6831536, 7.2490563, -0.077346325, 0.049687862, 9.864944
1133959984442649, -0.28713873, 6.698707, 7.292127, -0.047153234, 0.006972313, 9.905956
1133959994081607, -0.2739782, 6.7322063, 7.361519, -0.04638195, -0.018396378, 9.979336
1133960003720461, -0.276371, 6.6927247, 7.338787, -0.055593967, -0.025353432, 9.935945
1133960013359420, -0.29072794, 6.687939, 7.3340015, -0.0663178, -0.017071247, 9.929548
1133960022998378, -0.3505485, 6.6759753, 7.34118, -0.12365079, 0.00624609, 9.928199
1133960032637336, -0.37447673, 6.6388865, 7.3435726, -0.15924788, -0.00416708, 9.90544
1133960042276295, -0.37686956, 6.6305118, 7.2861447, -0.14290977, 0.022501945, 9.857622
1133960051915149, -0.3589234, 6.6460648, 7.280163, -0.11852503, 0.02384758, 9.863323
1133960061554107, -0.3385844, 6.658029, 7.2179494, -0.07501817, 0.0537529, 9.825186
1133960071193066, -0.35533416, 6.6628146, 7.1808605, -0.0744741, 0.08621502, 9.80159
1133960080832024, -0.34456646, 6.658029, 7.1688967, -0.06597853, 0.08238554, 9.789282
1133960090470982, -0.33738798, 6.6999035, 7.123433, -0.032768488, 0.1273675, 9.784096
1133960100109836, -0.33260235, 6.7094746, 7.1270223, -0.0324502, 0.12784958, 9.7930975
1133960109748795, -0.28594232, 6.727421, 7.1653075, -0.004210472, 0.09160805, 9.832252
1133960119387753, -0.25004998, 6.7011, 7.233503, -0.010229588, 0.01668644, 9.863592
1133960129026711, -0.18065812, 6.7166533, 7.2346992, 0.049017668, -0.012255192, 9.87342
1133960138665670, -0.13160525, 6.751349, 7.259824, 0.08888459, -0.028015614, 9.914352
1133960148304524, -0.08853444, 6.7429743, 7.332805, 0.089342594, -0.09551525, 9.9613495
1133960157943482, -0.0849452, 6.7130637, 7.3806615, 0.055695295, -0.13970566, 9.9761715
1133960167582441, -0.07178468, 6.7262244, 7.4045897, 0.064635515, -0.15234852, 10.00239
1133960177221399, -0.078963146, 6.7441707, 7.3974113, 0.06295061, -0.13131046, 10.009523
1133960186860357, -0.13280165, 6.73101, 7.4129643, -0.0028076172, -0.11345339, 10.013157
1133960196499211, -0.16151553, 6.745367, 7.408179, -0.018355846, -0.085784435, 10.019955
1133960206138170, -0.12323037, 6.812366, 7.300502, 0.0777812, -0.0058703423, 9.985728
1133960215777128, -0.038285162, 6.890133, 7.2083783, 0.2152214, 0.045590878, 9.969339
1133960225416086, 0.043070808, 6.867401, 7.29452, 0.23653483, -0.06581211, 10.015629
1133960235055045, 0.043070808, 6.8398833, 7.350751, 0.19691229, -0.115825176, 10.038287
1133960244693899, -0.069391854, 6.77767, 7.2299137, 0.11854124, -0.020290375, 9.909532
1133960254332857, -0.17228323, 6.7238317, 7.125826, 0.04773903, 0.06406784, 9.7985
1133960263971816, -0.21774685, 6.768099, 7.1976104, 0.0010626316, 0.073735714, 9.882042
1133960273610774, -0.16031912, 6.759724, 7.172486, 0.051894426, 0.04491949, 9.856947
1133960283249732, -0.13040884, 6.771688, 7.1042905, 0.106951, 0.07404852, 9.814621
1133960292888586, -0.15194423, 6.775277, 7.1485577, 0.07758641, 0.06003332, 9.849859
1133960302527545, -0.17108682, 6.7812595, 7.240681, 0.031641245, 0.022720337, 9.921728
1133960312166503, -0.23330021, 6.73101, 7.2705917, -0.05213666, 0.012166977, 9.910578
1133960321805461, -0.25962126, 6.708278, 7.2346992, -0.06720424, 0.032530785, 9.869331
1133960331444316, -0.23449662, 6.6915283, 7.186843, -0.033653736, 0.033204556, 9.822424
1133960341083274, -0.20697916, 6.6999035, 7.173682, -0.0022304058, 0.028430939, 9.8179655
1133960350722232, -0.22971097, 6.6771717, 7.146165, -0.021841764, 0.03994322, 9.782792
1133960360361191, -0.2955136, 6.647261, 7.119844, -0.081100225, 0.06959152, 9.744442
1133960370000149, -0.3385844, 6.6556363, 7.170093, -0.13079858, 0.06498766, 9.787802
1133960379639003, -0.30508488, 6.6711893, 7.155736, -0.09117842, 0.06460142, 9.787233
1133960389277961, -0.26679972, 6.6939216, 7.1784678, -0.055634975, 0.04294777, 9.818617
1133960398916920, -0.29671, 6.6855464, 7.2179494, -0.091909885, 0.032152653, 9.842453
1133960408555878, -0.31944183, 6.707082, 7.26102, -0.1170342, 0.034325123, 9.889112
1133960418194732, -0.36251262, 6.686743, 7.2765737, -0.16006231, 0.039943695, 9.887631
1133960427833691, -0.35294133, 6.690332, 7.274181, -0.1491611, 0.040338516, 9.888122
1133960437472649, -0.31944183, 6.707082, 7.3196445, -0.12859178, 0.007194519, 9.93215
1133960447111607, -0.2009971, 6.71426, 7.308877, -0.023265362, -0.048676968, 9.926654
1133960456750566, -0.096909314, 6.741778, 7.274181, 0.0811491, -0.06991291, 9.917822
1133960466389420, 0.009571291, 6.800402, 7.2897344, 0.1889019, -0.101439476, 9.966935
1133960476028378, 0.019142581, 6.8219376, 7.2502527, 0.21145749, -0.07376337, 9.952648
1133960485667336, -0.043070808, 6.792027, 7.1772714, 0.16555047, -0.016829014, 9.880234
1133960495306295, -0.1363909, 6.7740808, 7.1210403, 0.09377909, 0.05385351, 9.828748
1133960504945149, -0.17228323, 6.7848487, 7.143772, 0.054733753, 0.06194973, 9.853451
1133960514584107, -0.16510476, 6.800402, 7.146165, 0.06637907, 0.065736294, 9.865681
1133960524223066, -0.14596218, 6.815955, 7.1581287, 0.0848093, 0.0573411, 9.884678
1133960533862024, -0.104087785, 6.8195443, 7.200003, 0.10738206, 0.013198853, 9.9169235
1133960543500982, -0.049052864, 6.8422766, 7.2095747, 0.1589973, -0.009871006, 9.938398
1133960553139836, -0.0059820567, 6.835098, 7.164111, 0.20543575, -0.008340359, 9.899537
1133960562778795, 0.029910283, 6.8374906, 7.1880393, 0.2238276, -0.040690422, 9.918083
1133960572417753, 0.0047856453, 6.8315086, 7.153343, 0.21079397, -0.012197018, 9.889149
1133960582056711, -0.12801601, 6.79442, 7.09113, 0.10965276, 0.07633209, 9.820734
1133960591695566, -0.28235307, 6.7322063, 7.058827, -0.027201891, 0.14447737, 9.757446
1133960601334524, -0.33379877, 6.7166533, 7.152147, -0.11255789, 0.10998535, 9.815971
1133960610973482, -0.26919255, 6.719046, 7.259824, -0.083511114, 0.014655113, 9.8952465
1133960620612441, -0.22731815, 6.7178497, 7.32443, -0.0680244, -0.045123577, 9.940913
1133960630251295, -0.22492532, 6.68435, 7.347162, -0.087596655, -0.0803895, 9.934675
1133960639890253, -0.26679972, 6.674779, 7.318448, -0.115080595, -0.044616222, 9.907992
1133960649529211, -0.30029923, 6.6592255, 7.263413, -0.1298511, -0.0039567947, 9.857777
1133960659168170, -0.276371, 6.6915283, 7.1808605, -0.06882548, 0.04992628, 9.818882
1133960668807024, -0.31106696, 6.323034, 6.969096, -0.17591286, -0.03294587, 9.41349
1133960678445982, -0.041874398, 7.308877, 7.4309106, 0.29031897, 0.14437866, 10.418002
1133960688084941, -0.18305093, 6.0550375, 6.914061, -0.16023088, -0.23080039, 9.18816
1133960697723899, -0.08015956, 7.499106, 7.57448, 0.28538847, 0.20214844, 10.653331
1133960707362753, -0.23449662, 6.0981083, 7.159325, -0.2691238, -0.30805874, 9.398432
1133960717001711, -0.35533416, 7.233503, 7.5290165, -0.021165133, 0.22642422, 10.444338
1133960726640670, -0.26081768, 6.4366927, 7.442875, -0.23458457, -0.24932146, 9.837593
1133960736279524, -0.4438686, 6.7322063, 7.4153576, -0.24974227, 0.05085659, 10.022085
1133960745918482, -0.083748795, 6.928418, 7.580462, 0.06913328, -0.1348381, 10.268908
1133960755557441, -0.3397808, 6.236892, 6.920043, -0.18853426, -0.022087336, 9.320152
1133960765196399, -0.07178468, 7.353144, 7.3770723, 0.33457518, 0.21520805, 10.408497
1133960774835253, -0.317049, 5.9581285, 6.6125655, -0.19252896, -0.033740282, 8.904361
1133960784474211, -0.13998012, 7.479964, 7.240681, 0.39126325, 0.3853035, 10.396893
1133960794113170, -0.20817557, 6.06102, 6.771688, -0.12003231, -0.12807345, 9.088688
1133960803752128, -0.2847459, 7.2622166, 7.2693954, 0.1629579, 0.3290522, 10.272789
1133960813390982, -0.21774685, 6.3828545, 7.194021, -0.14441514, -0.17077327, 9.617285
1133960823029941, -0.4354937, 6.7381887, 7.1581287, -0.14444327, 0.18441677, 9.837519
1133960832668899, -0.11844472, 6.8745794, 7.4344997, 0.074869394, -0.07341766, 10.125939
1133960842307857, -0.36370903, 6.2488565, 6.971489, -0.22020888, -0.028783083, 9.366581
1133960851946711, -0.0634098, 7.322037, 7.584051, 0.2619648, 0.07654238, 10.538481
1133960861585670, -0.33738798, 5.95095, 6.9535427, -0.31874275, -0.2108705, 9.150591
1133960871224628, -0.12801601, 7.4847493, 7.6594253, 0.2599547, 0.17382812, 10.70546
1133960880863482, -0.17108682, 6.047859, 7.1377897, -0.21572614, -0.3445468, 9.34819
1133960890502441, -0.16031912, 7.344769, 7.584051, 0.19399261, 0.15488815, 10.555925
1133960900141399, -0.07178468, 6.4199433, 7.3986077, -0.07477069, -0.3295715, 9.790098
1133960909780357, -0.27158538, 6.9152575, 7.391429, -0.013338089, 0.081977844, 10.125259
1133960919419211, -0.05623133, 6.930811, 7.5732837, 0.09822798, -0.13324642, 10.26482
1133960929058170, -0.4103691, 6.320641, 7.048059, -0.25995016, 0.0062322617, 9.4724045
1133960938697128, -0.14237295, 7.2658057, 7.524231, 0.19374657, 0.12914753, 10.458109
1133960948335982, -0.40558344, 5.9641104, 6.789634, -0.31294298, -0.063607454, 9.040589
1133960957974941, -0.19381863, 7.442875, 7.373483, 0.28149152, 0.34357834, 10.469238
1133960967613899, -0.27876383, 5.946164, 6.686743, -0.18443036, -0.10443783, 8.949983
1133960977252753, -0.24765715, 7.3112698, 7.0672016, 0.312109, 0.45762038, 10.156502
1133960986891711, -0.09451649, 6.352944, 6.8925257, 0.06664014, -0.09266949, 9.37351
1133960996530670, -0.19501504, 6.9583282, 7.085148, 0.18133712, 0.21122813, 9.928654
1133961006169628, 0.076570325, 6.893722, 7.4715886, 0.21801543, -0.20180559, 10.161972
1133961015808482, -0.28594232, 6.4055862, 7.149754, -0.15904689, -0.07712698, 9.602137
1133961025447441, -0.038285162, 7.2729845, 7.6869426, 0.22519588, -0.020008087, 10.57997
1133961035086399, -0.34217364, 6.0167527, 7.097112, -0.35063696, -0.24128151, 9.300873
1133961044725253, -0.11844472, 7.4380894, 7.716853, 0.21834588, 0.11497593, 10.715789
1133961054364211, -0.29192436, 5.9090757, 7.01097, -0.32150435, -0.29117298, 9.1634035
1133961064003170, -0.34097722, 7.288538, 7.396215, 0.09008336, 0.33540916, 10.383759
1133961073642024, -0.30867413, 6.202196, 7.0432734, -0.21486497, -0.13277984, 9.386502
1133961083280982, -0.44626144, 6.8865438, 7.1449685, -0.07275796, 0.2985468, 9.928736
1133961092919941, -0.15314065, 6.73101, 7.338787, 0.03339076, -0.069702625, 9.959004
1133961102558795, -0.37806597, 6.4235325, 7.111469, -0.19814038, 0.0058813095, 9.588451
1133961112197753, -0.051445685, 7.2358956, 7.7754774, 0.17162919, -0.07454443, 10.619976
1133961121836711, -0.35533416, 6.009574, 7.1138616, -0.3656509, -0.24334717, 9.308886
1133961131475670, -0.17108682, 7.460821, 7.6893353, 0.20621753, 0.17568064, 10.711938
1133961141114524, -0.29312077, 5.973682, 6.9762745, -0.27762723, -0.21659303, 9.182331
1133961150753482, -0.18664017, 7.3770723, 7.4177504, 0.2648101, 0.28303528, 10.456042
1133961160392441, -0.09810573, 6.245267, 7.007381, -0.011918306, -0.1952827, 9.384993
1133961170031295, -0.23330021, 7.0061846, 7.1389866, 0.16423678, 0.25069046, 10.000818
1133961179670253, 0.021535404, 6.7633133, 7.2011995, 0.2317419, -0.07667613, 9.876263
1133961189309211, -0.19860429, 6.5084777, 6.829116, 0.08500624, 0.112525225, 9.434865
1133961198948066, 0.10049855, 7.2287173, 7.304091, 0.45284247, 0.0913291, 10.266489
1133961208587024, -0.16749759, 6.101698, 6.77767, -0.059278965, -0.11589432, 9.120233
1133961218225982, 0.14596218, 7.550552, 7.503892, 0.53988886, 0.15426874, 10.631334
1133961227864836, 0.06460621, 6.053841, 6.9475603, 0.03580594, -0.3707409, 9.20777
1133961237503795, 0.15433706, 7.533802, 7.568498, 0.5106847, 0.098181725, 10.667414
1133961247142753, 0.10767702, 6.320641, 7.2562346, 0.041702747, -0.40299368, 9.615138
1133961256781607, -0.20219351, 7.1162543, 7.4919276, 0.06427312, 0.11430311, 10.3341055
1133961266420566, -0.15194423, 6.7094746, 7.503892, -0.07391143, -0.15174007, 10.065784
1133961276059524, -0.53240305, 6.567102, 7.159325, -0.30060554, 0.19079566, 9.723139
1133961285698378, -0.26081768, 7.1509504, 7.5457664, 0.039657593, 0.14348507, 10.398104
1133961295337336, -0.51445687, 6.0454664, 6.936793, -0.42139745, -0.009003639, 9.206181
1133961304976191, -0.17347965, 7.389036, 7.635497, 0.18474436, 0.17374372, 10.623768
1133961314615149, -0.4223332, 5.832505, 7.003792, -0.4624722, -0.23112988, 9.109461
1133961324254107, -0.40558344, 7.216753, 7.5254273, -0.018050432, 0.2737708, 10.430859
1133961333892961, -0.49172506, 5.9294147, 7.153343, -0.51429415, -0.23157287, 9.287193
1133961343531920, -0.5922236, 6.875776, 7.4189467, -0.27784204, 0.23915243, 10.125877
1133961353170878, -0.34337005, 6.4008007, 7.4333034, -0.27832532, -0.19867873, 9.809444
1133961362809732, -0.55393845, 6.375676, 7.216753, -0.3789916, 0.039716244, 9.638071
1133961372448691, -0.19621146, 6.9523463, 7.5924263, 0.028255224, -0.044204712, 10.296397
1133961382087649, -0.43788654, 6.0215383, 6.946364, -0.3387525, -0.08159113, 9.196806
1133961391726503, -0.14356937, 7.389036, 7.5385876, 0.2863574, 0.20751238, 10.551004
1133961401365461, -0.2727818, 5.979664, 6.8339014, -0.19111681, -0.14447927, 9.081608
1133961411004420, -0.0634098, 7.520642, 7.3842506, 0.46416354, 0.31172562, 10.525143
1133961420643274, -0.033499517, 6.236892, 6.903293, 0.08966875, -0.17718315, 9.301397
1133961430282232, -0.16031912, 7.2263246, 7.131808, 0.3398385, 0.33839846, 10.142887
1133961439921086, -0.032303106, 6.582655, 7.179664, 0.1256299, -0.13527966, 9.738884
1133961449560045, -0.30388847, 6.6424756, 7.129415, -0.045356512, 0.08935857, 9.748505
1133961459199003, -0.034695927, 7.0504518, 7.5960155, 0.17182899, -0.08883333, 10.362052
1133961468837857, -0.3469593, 6.148358, 7.1581287, -0.31146288, -0.18292546, 9.435625
1133961478476816, -0.016749758, 7.409375, 7.776674, 0.28013325, 0.017252445, 10.737644
1133961488115774, -0.16031912, 5.986842, 7.045666, -0.18633509, -0.32132697, 9.239665
1133961497754628, 0.02871387, 7.5469627, 7.550552, 0.45990348, 0.19121122, 10.663969
1133961507393586, 0.021535404, 6.1842504, 7.0337024, 0.037583113, -0.3032899, 9.360822
1133961517032545, -0.041874398, 7.268199, 7.3543406, 0.33897638, 0.184659, 10.332754
1133961526671399, 0.069391854, 6.6125655, 7.292127, 0.15764594, -0.22572803, 9.840232
1133961536310357, -0.27876383, 6.7848487, 7.186843, -0.008671999, 0.13538504, 9.886566
1133961545949211, -0.08733802, 7.064809, 7.5553374, 0.12730742, -0.018271923, 10.343391
1133961555588170, -0.44865423, 6.1710896, 7.025327, -0.35182738, -0.03553796, 9.354882
1133961565227128, -0.18305093, 7.3567333, 7.6343007, 0.16282725, 0.15361881, 10.601295
1133961574865982, -0.41515473, 5.953343, 6.916454, -0.37282205, -0.122825146, 9.126768
1133961584504941, -0.26919255, 7.450053, 7.4787674, 0.19508338, 0.3381176, 10.552505
1133961594143795, -0.3074777, 6.0311093, 6.9655066, -0.26506352, -0.17865753, 9.213303
1133961603782753, -0.3385844, 7.183254, 7.1712894, 0.14597988, 0.38703752, 10.147417
1133961613421711, -0.19860429, 6.3924255, 6.8853474, 0.021356344, 0.0049271584, 9.397346
1133961623060566, -0.41754755, 6.640083, 6.7238317, 0.017955303, 0.36228466, 9.452164
1133961632699524, -0.086141616, 6.8518476, 7.070791, 0.2461195, 0.092221975, 9.842877
1133961642338482, -0.3074777, 6.1567326, 6.769295, -0.12584257, -0.013661146, 9.154629
1133961651977336, -0.011964113, 7.2897344, 7.5924263, 0.29615545, 0.015534878, 10.521282
1133961661616295, -0.3361916, 5.9090757, 7.0731835, -0.3759606, -0.2993791, 9.210275
1133961671255149, -0.24765715, 7.4010005, 7.797013, 0.092484474, 0.123450756, 10.75201
1133961680894107, -0.35413775, 5.9820566, 7.3866434, -0.46529436, -0.4172964, 9.491169
1133961690533066, -0.38883367, 7.220342, 7.7587276, -0.0793798, 0.12920475, 10.604687
1133961700171920, -0.23808585, 6.390033, 7.4249287, -0.2089107, -0.25715303, 9.793312
1133961709810878, -0.39361933, 6.835098, 7.3028946, -0.08260107, 0.16009903, 10.008661
1133961719449732, -0.083748795, 6.9391856, 7.4715886, 0.14569974, -0.06025219, 10.1960335
1133961729088691, -0.34097722, 6.2548385, 6.9535427, -0.17786145, -0.017815113, 9.3573
1133961738727649, -0.020338992, 7.3172517, 7.4273214, 0.37548614, 0.1348834, 10.418661
1133961748366503, -0.2727818, 5.968896, 6.778867, -0.18526626, -0.12784195, 9.033521
1133961758005461, -0.13758731, 7.428518, 7.5433736, 0.28269124, 0.20307016, 10.582209
1133961767644316, -0.2847459, 5.910272, 6.966703, -0.2984116, -0.25983047, 9.131854
1133961777283274, -0.33020952, 7.227521, 7.365108, 0.10980916, 0.31497765, 10.318897
1133961786922232, -0.22013968, 6.330212, 7.23111, -0.1511612, -0.19900966, 9.609711
1133961796561086, -0.36490545, 6.8398833, 7.292127, -0.06407094, 0.14924622, 10.003295
1133961806200045, -0.02632105, 6.8889365, 7.4847493, 0.15080619, -0.12530613, 10.170604
1133961815838899, -0.20338993, 6.437889, 7.064809, -0.029412031, -0.048328876, 9.560131
1133961825477857, 0.2213361, 7.4476604, 7.664211, 0.5259521, -0.041170597, 10.676069
1133961835116816, 0.050249275, 6.1603217, 7.1246295, 0.01018858, -0.3877232, 9.410739
1133961844755670, 0.17228323, 7.62114, 7.7814593, 0.5048008, 0.014765263, 10.881521
1133961854394628, -0.10767702, 6.056234, 7.115058, -0.16620207, -0.3473637, 9.336237
1133961864033482, -0.2548356, 7.3292155, 7.4775705, 0.15249681, 0.2827978, 10.468676
1133961873672441, -0.2440679, 6.279963, 7.176075, -0.18816304, -0.17093801, 9.5356655
1133961883311399, -0.45583272, 6.829116, 7.210771, -0.12211156, 0.24949884, 9.93794
1133961892950253, -0.25124636, 6.728617, 7.320841, -0.043706656, 0.008507252, 9.946363
1133961902589211, -0.53359944, 6.2919273, 6.910472, -0.30431938, 0.14152622, 9.354948
1133961912228066, -0.15553348, 7.152147, 7.446464, 0.18327737, 0.11909485, 10.323732
1133961921867024, -0.3385844, 5.9270215, 6.832705, -0.27338862, -0.15467834, 9.04607
1133961931505878, -0.1268196, 7.436893, 7.542177, 0.2933712, 0.21110153, 10.586655
1133961941144836, -0.3278167, 5.907879, 6.928418, -0.31579876, -0.22201514, 9.102992
1133961950783795, -0.34217364, 7.3052874, 7.4739814, 0.086479664, 0.2968998, 10.452229
1133961960422649, -0.25842485, 6.216553, 7.2693954, -0.25024033, -0.27036548, 9.561417
1133961970061607, -0.39601216, 6.903293, 7.351948, -0.089061975, 0.16230488, 10.091042
1133961979700461, -0.17706887, 6.725028, 7.3627152, 0.0077331066, -0.07979441, 9.972989
1133961989339420, -0.4139583, 6.439086, 6.9044895, -0.13323808, 0.14769268, 9.448048
1133961998978378, -0.08015956, 7.2526455, 7.4189467, 0.30034065, 0.1398735, 10.370068
1133962008617232, -0.3481557, 6.0514483, 6.879365, -0.24387908, -0.10816097, 9.164919
1133962018256191, -0.13399807, 7.4476604, 7.509874, 0.3106699, 0.23285437, 10.570386
1133962027895045, -0.2847459, 5.9234324, 6.8650084, -0.24563527, -0.21120214, 9.065954
1133962037534003, -0.16151553, 7.396215, 7.402197, 0.30696917, 0.27986574, 10.457058
1133962047172961, -0.04546363, 6.2691956, 7.1629148, -0.019748688, -0.314723, 9.513823
1133962056811816, -0.1902294, 7.0325055, 7.4129643, 0.1122973, 0.07568121, 10.218906
1133962066450774, -0.02632105, 6.721439, 7.5026956, 0.06830311, -0.24722672, 10.06991
1133962076089628, -0.39601216, 6.5084777, 7.1784678, -0.1915071, 0.033106327, 9.695862
1133962085728586, -0.20458634, 7.1976104, 7.6606216, 0.09760094, 0.05077696, 10.512872
1133962095367441, -0.49172506, 6.040681, 7.1007013, -0.43681598, -0.13384557, 9.324316
1133962105006399, -0.21415763, 7.4177504, 7.7754774, 0.14646697, 0.12039709, 10.746674
1133962114645357, -0.3924229, 5.910272, 7.0636125, -0.3924489, -0.25188565, 9.206654
1133962124284211, -0.29790643, 7.32443, 7.457232, 0.15839005, 0.29359913, 10.451557
1133962133923170, -0.24765715, 6.076573, 6.983453, -0.16542792, -0.20456815, 9.256645
1133962143562024, -0.3385844, 6.9655066, 7.1509504, 0.08263636, 0.26882792, 9.984485
1133962153200982, -0.111266255, 6.546763, 7.1820574, 0.06884909, -0.12670255, 9.717697
1133962162839941, -0.33020952, 6.437889, 6.9415784, -0.07078886, 0.06657457, 9.472672
1133962172478795, -0.014356935, 7.109076, 7.457232, 0.2852273, -0.010712147, 10.298933
1133962182117753, -0.29910284, 6.108876, 7.0492554, -0.237602, -0.1956749, 9.327652
1133962191756607, -0.038285162, 7.5433736, 7.8352976, 0.31219077, 0.04784441, 10.871803
1133962201395566, -0.23449662, 6.101698, 7.223932, -0.2513237, -0.32987213, 9.449811
1133962211034420, -0.1471586, 7.5936227, 7.7850485, 0.28412223, 0.1725235, 10.87112
1133962220673378, -0.14117654, 6.279963, 7.3639116, -0.14125109, -0.36578512, 9.671158
1133962230312336, -0.25124636, 7.2011995, 7.493124, 0.12788653, 0.16673946, 10.393419
1133962239951191, -0.05503492, 6.6424756, 7.389036, 0.08087301, -0.21669292, 9.93327
1133962249590149, -0.35174492, 6.558727, 7.088737, -0.091914654, 0.06312847, 9.663248
1133962259229003, -0.07776674, 7.036095, 7.367501, 0.23410058, 0.02488327, 10.185154
1133962268867961, -0.4426722, 6.0861444, 6.7645097, -0.25161648, 0.010177851, 9.106718
1133962278506920, -0.24765715, 7.365108, 7.4177504, 0.21712542, 0.27791214, 10.45011
1133962288145774, -0.46181476, 5.889933, 6.802795, -0.3665638, -0.13118362, 9.001723
1133962297784732, -0.34097722, 7.4344997, 7.368697, 0.20312381, 0.39099598, 10.463823
1133962307423586, -0.3290131, 6.113662, 6.9942207, -0.22523618, -0.17941284, 9.290927
1133962317062545, -0.40079778, 7.1306114, 7.3340015, 0.03632307, 0.26000166, 10.2335205
1133962326701399, -0.26081768, 6.5407805, 7.332805, -0.09889221, -0.16417503, 9.827671
1133962336340357, -0.5288138, 6.6364937, 7.109076, -0.18601727, 0.17069721, 9.736422
1133962345979316, -0.26081768, 7.024131, 7.405786, 0.09302688, 0.06867123, 10.209738
1133962355618170, -0.5587241, 6.081359, 6.815955, -0.3450458, 0.021161795, 9.1451
1133962365257128, -0.29790643, 7.338787, 7.396215, 0.20607829, 0.27277613, 10.41795
1133962374895982, -0.44745782, 5.8827543, 6.6855464, -0.2922845, -0.08264041, 8.911301
1133962384534941, -0.28953153, 7.373483, 7.198807, 0.30331254, 0.39001083, 10.297127
1133962394173899, -0.29790643, 6.000003, 6.741778, -0.14557934, -0.14387298, 9.02765
1133962403812753, -0.317049, 7.1425757, 7.1210403, 0.21432328, 0.3093822, 10.083873
1133962413451711, -0.096909314, 6.503692, 7.2119675, 0.058111668, -0.22949791, 9.708956
1133962423090566, -0.3385844, 6.708278, 7.237092, -0.048113346, 0.020884514, 9.873621
1133962432729524, -0.106480606, 7.0492554, 7.6510506, 0.13042355, -0.14818668, 10.402065
1133962442368482, -0.46660042, 6.2679987, 7.2059855, -0.3345518, -0.11609602, 9.555435
1133962452007336, -0.19621146, 7.456035, 7.893922, 0.15990925, 0.0162611, 10.859056
1133962461646295, -0.39840496, 6.0227346, 7.3196445, -0.43417883, -0.35301852, 9.470804
1133962471285149, -0.19142582, 7.5086775, 7.8197446, 0.2238195, 0.0984292, 10.839996
1133962480924107, -0.17347965, 6.087341, 7.149754, -0.14855003, -0.35799074, 9.383739
1133962490563066, -0.16510476, 7.2873416, 7.3627152, 0.3129716, 0.20557928, 10.353838
1133962500201920, -0.04426722, 6.454639, 7.1377897, 0.11512923, -0.21926284, 9.620345
1133962509840878, -0.36131623, 6.7058854, 7.0265236, 0.009302616, 0.17035294, 9.718146
1133962519479732, -0.16869399, 6.9248285, 7.2849483, 0.15320945, 0.030579567, 10.051259
1133962529118691, -0.4881358, 6.1974106, 6.799206, -0.24525118, 0.071419, 9.209241
1133962538757545, -0.18664017, 7.344769, 7.499106, 0.24882412, 0.15911198, 10.494276
1133962548396503, -0.40797627, 5.9676995, 6.975078, -0.35350704, -0.2040379, 9.179597
1133962558035461, -0.20697916, 7.483553, 7.60798, 0.2494874, 0.19180155, 10.669054
1133962567674316, -0.24885355, 6.070591, 7.0205417, -0.18997478, -0.26447916, 9.278791
1133962577313274, -0.24646074, 7.3340015, 7.3543406, 0.25323892, 0.27708817, 10.382377
1133962586952128, -0.11485548, 6.4606214, 7.2011995, 0.029662132, -0.21448946, 9.672809
1133962596591086, -0.3493521, 6.8255267, 7.1246295, 0.02665615, 0.17498493, 9.871113
1133962606230045, -0.09571291, 6.914061, 7.34118, 0.1822846, -0.043555737, 10.083214
1133962615868899, -0.38883367, 6.2979093, 6.882954, -0.15383005, 0.024278402, 9.336256
1133962625507857, -0.06580263, 7.3375907, 7.5062847, 0.32351136, 0.097813606, 10.491646
1133962635146711, -0.30269206, 6.0011992, 6.9499536, -0.24710321, -0.2358725, 9.181023
1133962644785670, -0.15792629, 7.4979095, 7.5960155, 0.2814741, 0.18533564, 10.66909
1133962654424628, -0.3397808, 6.033502, 7.0372915, -0.2980113, -0.24080825, 9.26797
1133962664063482, -0.38285163, 7.328019, 7.4440713, 0.08732891, 0.30365753, 10.448006
1133962673702441, -0.2632105, 6.3601227, 7.213164, -0.15812922, -0.19749236, 9.616974
1133962683341295, -0.39361933, 6.8889365, 7.2083783, -0.02109623, 0.187469, 9.976849
1133962692980253, -0.07776674, 6.897311, 7.368697, 0.17603445, -0.08477783, 10.091504
1133962702619211, -0.36729828, 6.3804617, 6.946364, -0.12588191, 0.027469873, 9.43825
1133962712258066, -0.106480606, 7.3256264, 7.542177, 0.2771511, 0.08503485, 10.510781
1133962721897024, -0.3696911, 6.0155563, 6.9882383, -0.3055024, -0.20621777, 9.220803
1133962731535982, -0.15792629, 7.5050883, 7.68455, 0.26842475, 0.14722204, 10.738244
1133962741174836, -0.27038896, 5.9988065, 7.164111, -0.2965052, -0.36926413, 9.335899
1133962750813795, -0.29072794, 7.344769, 7.6103725, 0.12350416, 0.18002224, 10.578292
1133962760452649, -0.2009971, 6.2955165, 7.3100734, -0.15927172, -0.3185687, 9.642834
1133962770091607, -0.37328035, 6.9296145, 7.2825556, -0.0022599697, 0.1664362, 10.05817
1133962779730566, -0.13399807, 6.8135624, 7.3543406, 0.11087942, -0.08582449, 10.025432
1133962789369420, -0.4031906, 6.393622, 6.966703, -0.14243245, 0.05208993, 9.46324
1133962799008378, -0.096909314, 7.2658057, 7.4380894, 0.3103416, 0.09952974, 10.39328
1133962808647232, -0.38763726, 6.026324, 6.814759, -0.24310732, -0.087358475, 9.101706
1133962818286191, -0.18903299, 7.4656067, 7.4907312, 0.30342817, 0.2356348, 10.570454
1133962827925149, -0.37208393, 5.928218, 6.9391856, -0.32308865, -0.22715616, 9.125707
1133962837564003, -0.3481557, 7.335198, 7.4416785, 0.14405155, 0.28991985, 10.449886
1133962847202961, -0.30388847, 6.2237315, 7.179664, -0.2241416, -0.23383403, 9.501045
1133962856841920, -0.47856453, 6.9092755, 7.2825556, -0.08336139, 0.21249437, 10.047419
1133962866480774, -0.23330021, 6.6975107, 7.3603225, -0.016985893, -0.10085201, 9.953642
1133962876119732, -0.49651068, 6.442675, 6.9702926, -0.18872166, 0.12482977, 9.50202
1133962885758586, -0.2009971, 7.2059855, 7.452446, 0.21149611, 0.11180115, 10.365729
1133962895397545, -0.4881358, 6.000003, 6.838687, -0.33339024, -0.06425285, 9.104432
1133962905036503, -0.3074777, 7.3627152, 7.5409803, 0.16072464, 0.21589184, 10.540306
1133962914675357, -0.49052864, 5.834898, 6.920043, -0.44486427, -0.19782591, 9.051884
1133962924314316, -0.47976094, 7.243074, 7.402197, 0.025781631, 0.3284893, 10.36225
1133962933953274, -0.41515473, 6.0777693, 7.0600233, -0.32213092, -0.1804514, 9.317684
1133962943592128, -0.5694918, 6.910472, 7.268199, -0.13952184, 0.2761426, 10.040416
1133962953231086, -0.30388847, 6.6628146, 7.422536, -0.10415149, -0.11367035, 9.977762
1133962962869941, -0.50129634, 6.483353, 7.160522, -0.24102187, 0.048852682, 9.669424
1133962972508899, -0.12083755, 7.1748786, 7.6570325, 0.18943381, -0.052320004, 10.492142
1133962982147857, -0.3912265, 6.0729837, 7.097112, -0.31438208, -0.20413041, 9.34145
1133962991786711, -0.1160519, 7.472785, 7.7910304, 0.27626348, 0.043354034, 10.792496
1133963001425670, -0.25842485, 5.9748783, 7.1342006, -0.26473355, -0.35595798, 9.298709
1133963011064628, -0.15553348, 7.442875, 7.6163545, 0.29689455, 0.15651703, 10.645036
1133963020703482, -0.1363909, 6.2117677, 7.1808605, -0.08849406, -0.3174386, 9.490038
1133963030342441, -0.26081768, 7.1078796, 7.344769, 0.160748, 0.18559504, 10.221317
1133963039981399, -0.047856454, 6.734599, 7.389036, 0.14311528, -0.17827797, 9.995134
1133963049620253, -0.2943172, 6.6364937, 7.170093, -0.01814413, 0.03081274, 9.774387
1133963059259211, 0.062213387, 7.2287173, 7.647461, 0.35619283, -0.09559679, 10.516933
1133963068898066, -0.21774685, 6.186643, 7.196414, -0.16786957, -0.28137612, 9.48699
1133963078537024, 0.08733802, 7.530213, 7.816155, 0.44826746, -0.028906822, 10.844456
1133963088175982, -0.1160519, 6.009574, 7.149754, -0.15726852, -0.41476035, 9.330095
1133963097814836, -0.08733802, 7.487142, 7.5924263, 0.37296486, 0.17211103, 10.655569
1133963107453795, -0.16271193, 6.1651077, 7.0899334, -0.09416556, -0.2633283, 9.392761
1133963117092753, -0.29910284, 7.1425757, 7.240681, 0.17316341, 0.28987622, 10.169529
1133963126731607, -0.09930214, 6.6245294, 7.1210403, 0.13603926, -0.072217226, 9.725212
1133963136370566, -0.37088752, 6.6305118, 6.8015985, 0.04901433, 0.27185965, 9.50193
1133963146009524, -0.083748795, 7.125826, 7.152147, 0.3599043, 0.18805504, 10.088247
1133963155648378, -0.34576288, 6.1471615, 6.6089764, -0.08410978, 0.075687885, 9.031773
1133963165287336, -0.049052864, 7.4620175, 7.3028946, 0.46288705, 0.27900267, 10.427093
1133963174926295, -0.25004998, 5.9844494, 6.7262244, -0.13321042, -0.15008283, 9.004332
1133963184565149, -0.18424734, 7.4679995, 7.3375907, 0.33689904, 0.33819342, 10.460274
1133963194204107, -0.2632105, 6.1028943, 6.957132, -0.17309713, -0.20021558, 9.254524
1133963203843066, -0.4354937, 7.123433, 7.2825556, 0.013902903, 0.31724548, 10.191552
1133963213481920, -0.30388847, 6.4977098, 7.2622166, -0.14202666, -0.11827564, 9.747726
1133963223120878, -0.54436713, 6.613762, 7.097112, -0.22656584, 0.18199062, 9.711989
1133963232759836, -0.2105684, 6.9990063, 7.5110703, 0.06325436, -0.012253284, 10.2685175
1133963242398691, -0.51445687, 6.108876, 7.045666, -0.39836192, -0.087328434, 9.330496
1133963252037649, -0.23688944, 7.32443, 7.751549, 0.10424924, 0.065552235, 10.666523
1133963261676607, -0.465404, 5.8743796, 7.1509504, -0.4988718, -0.3062353, 9.247615
1133963271315461, -0.31106696, 7.409375, 7.7671022, 0.077941895, 0.1493311, 10.737556
1133963280954420, -0.38285163, 6.026324, 7.2466636, -0.39637256, -0.30878878, 9.419385
1133963290593378, -0.45822555, 7.1772714, 7.515856, -0.037617207, 0.2480812, 10.399439
1133963300232232, -0.26081768, 6.4642105, 7.3603225, -0.13521433, -0.19037223, 9.796625
1133963309871191, -0.424726, 6.707082, 7.198807, -0.09320521, 0.13807511, 9.846848
1133963319510149, -0.08853444, 6.9882383, 7.4536424, 0.2051804, -0.039504528, 10.2155
1133963329149003, -0.3290131, 6.195018, 6.927222, -0.14494824, -0.06610298, 9.297714
1133963338787961, 0.011964113, 7.3639116, 7.5493555, 0.4113834, 0.066700935, 10.537857
1133963348426920, -0.16031912, 5.9880385, 6.9188466, -0.10964632, -0.28126788, 9.146673
1133963358065774, 0.019142581, 7.5517483, 7.5864444, 0.4786954, 0.16260672, 10.692419
1133963367704732, -0.08015956, 6.1363935, 7.1569324, -0.06494212, -0.37009287, 9.420309
1133963377343691, -0.19621146, 7.3399835, 7.554141, 0.21544361, 0.18001652, 10.530912
1133963386982545, -0.14955142, 6.532406, 7.3926253, -0.036743402, -0.22895813, 9.863663
1133963396621503, -0.4438686, 6.8339014, 7.24786, -0.08507562, 0.20229483, 9.969079
1133963406260461, -0.14237295, 6.9942207, 7.4512496, 0.15601897, -0.0013489723, 10.219401
1133963415899420, -0.37208393, 6.282356, 6.940382, -0.15204883, 0.007103443, 9.367613
1133963425538274, -0.029910283, 7.359126, 7.466803, 0.40347457, 0.12780333, 10.475288
1133963435177232, -0.26799613, 5.959325, 6.799206, -0.16447353, -0.16664791, 9.04211
1133963444816191, -0.1160519, 7.4476604, 7.420143, 0.38933492, 0.24386883, 10.503742
1133963454455045, -0.28713873, 5.95095, 6.923632, -0.24453092, -0.23184156, 9.127945
1133963464094003, -0.43429732, 7.170093, 7.3292155, 0.051394463, 0.3268559, 10.257034
1133963473732961, -0.41635114, 6.2691956, 7.196414, -0.29700065, -0.1218102, 9.547852
1133963483371816, -0.65084773, 6.6963143, 7.2095747, -0.28873277, 0.2548561, 9.853623
1133963493010774, -0.35653058, 6.782456, 7.411768, -0.087394714, 0.016126156, 10.052622
1133963502649732, -0.6017949, 6.2380886, 6.9355965, -0.34002113, 0.110005856, 9.340809
1133963512288691, -0.2548356, 7.23111, 7.4919276, 0.18122888, 0.1674633, 10.412587
1133963521927545, -0.49292147, 5.879165, 6.853044, -0.3783028, -0.11536574, 9.0341215
1133963531566503, -0.25962126, 7.375876, 7.4907312, 0.23718596, 0.26153326, 10.509868
1133963541205461, -0.30149564, 5.9030933, 6.9092755, -0.2362504, -0.2463758, 9.086197
1133963550844316, -0.24885355, 7.2586274, 7.375876, 0.22965598, 0.24947023, 10.345926
1133963560483274, -0.096909314, 6.3254266, 7.2550383, -0.020139933, -0.30728555, 9.6208725
1133963570122232, -0.24047868, 6.9128647, 7.396215, 0.06752086, 0.042100906, 10.126362
1133963579761086, 0.01794617, 6.899704, 7.7156568, 0.14175153, -0.28517437, 10.345831
1133963589400045, -0.3481557, 6.393622, 7.3842506, -0.25265098, -0.16575289, 9.769108
1133963599039003, -0.1052842, 7.318448, 7.9166536, 0.15705657, -0.06999159, 10.780288
1133963608677961, -0.38404804, 6.0693946, 7.196414, -0.35360408, -0.22990775, 9.412519
1133963618316816, -0.111266255, 7.5517483, 7.7383885, 0.32792163, 0.17582321, 10.806734
1133963627955774, -0.15672988, 6.056234, 7.1042905, -0.13575792, -0.31974506, 9.33021
1133963637594732, -0.08733802, 7.422536, 7.5086775, 0.3703444, 0.21812582, 10.549747
1133963647233691, -0.08015956, 6.334998, 7.094719, 0.04936266, -0.2025063, 9.5094795
1133963656872545, -0.21655045, 6.884151, 7.251449, 0.12011552, 0.11230278, 9.999744
1133963666511503, -0.24646074, 6.669993, 7.2323065, 0.0096178055, 0.014561176, 9.841518
1133963676150461, -0.2739782, 6.7178497, 7.2155566, 0.014113665, 0.06367302, 9.86228
1133963685789316, -0.28115666, 6.6388865, 7.1246295, 0.009118557, 0.06949949, 9.74214
1133963695428274, -0.32542387, 6.6448684, 7.0731835, -0.0027549267, 0.12411618, 9.709516
1133963705067232, -0.36729828, 6.611369, 7.048059, -0.04219842, 0.13954616, 9.669487
1133963714706191, -0.37328035, 6.606583, 7.0935225, -0.06411767, 0.11225486, 9.699879
1133963724345045, -0.38285163, 6.5982084, 7.1677003, -0.10209942, 0.069540024, 9.749031
1133963733984003, -0.3684947, 6.613762, 7.245467, -0.11104703, 0.025895596, 9.816386
1133963743622961, -0.3385844, 6.6532435, 7.308877, -0.08713174, -0.0011091232, 9.889004
1133963753261920, -0.29790643, 6.6999035, 7.3567333, -0.048223495, -0.019946098, 9.95471
1133963762900774, -0.2428715, 6.7369924, 7.420143, -0.00991106, -0.06528902, 10.024979
1133963772539732, -0.21415763, 6.74776, 7.4416785, 0.0126132965, -0.084499836, 10.047358
1133963782178691, -0.20697916, 6.7381887, 7.4189467, 0.024597645, -0.07873964, 10.023972
1133963791817545, -0.22612174, 6.71426, 7.3902326, 0.008818388, -0.064632416, 9.987177
1133963801456503, -0.22971097, 6.687939, 7.3579297, 0.004949808, -0.059393406, 9.945696
1133963811095461, -0.24765715, 6.6915283, 7.3136625, 0.0068614483, -0.022052288, 9.915998
1133963820734420, -0.26081768, 6.6939216, 7.2693954, 0.012009382, 0.01141119, 9.885366
1133963830373378, -0.25842485, 6.6855464, 7.2490563, 0.016853094, 0.015700817, 9.864665
1133963840012232, -0.21415763, 6.7262244, 7.2562346, 0.067476034, 0.010779858, 9.896275
1133963849651191, -0.16749759, 6.7322063, 7.2873416, 0.09709883, -0.029137135, 9.92198
1133963859290149, -0.14356937, 6.751349, 7.3567333, 0.10005355, -0.070682526, 9.98538
1133963868929003, -0.1698904, 6.7441707, 7.420143, 0.05360198, -0.094177246, 10.027933
1133963878567961, -0.21535404, 6.7238317, 7.391429, 0.01902628, -0.064237595, 9.994249
1133963888206920, -0.29312077, 6.7118673, 7.3782687, -0.045691013, -0.020896435, 9.978547
1133963897845878, -0.32662028, 6.690332, 7.353144, -0.072942734, -0.004283428, 9.946386
1133963907484836, -0.3074777, 6.674779, 7.301698, -0.045258045, 0.0053920746, 9.89747
1133963917123691, -0.28235307, 6.6939216, 7.245467, 0.003815651, 0.030778885, 9.868341
1133963926762649, -0.2548356, 6.690332, 7.2263246, 0.033220053, 0.022418499, 9.851074
1133963936401607, -0.18664017, 6.680761, 7.237092, 0.08276892, -0.026600838, 9.850653
1133963946040566, -0.19381863, 6.6927247, 7.2933235, 0.064655066, -0.05056286, 9.900301
1133963955679420, -0.30269206, 6.6687965, 7.308877, -0.041967392, -0.014391899, 9.898596
1133963965318378, -0.3900301, 6.631708, 7.3136625, -0.13077879, 0.007524967, 9.879482
1133963974957336, -0.45822555, 6.664011, 7.281359, -0.16002107, 0.08238077, 9.879515
1133963984596295, -0.42831525, 6.6711893, 7.2693954, -0.12533164, 0.0750761, 9.874766
1133963994235149, -0.38404804, 6.680761, 7.2466636, -0.07381511, 0.06742954, 9.863277
1133964003874107, -0.30508488, 6.7011, 7.240681, 0.0032100677, 0.035734177, 9.870359
1133964013513066, -0.25962126, 6.7022963, 7.240681, 0.04096341, 0.007021427, 9.869849
1133964023152024, -0.25722843, 6.6831536, 7.203593, 0.04884672, 0.014255047, 9.82954
1133964032790982, -0.26679972, 6.669993, 7.2011995, 0.03745222, 0.0120129585, 9.819153
1133964042429836, -0.33379877, 6.6676, 7.200003, -0.017650366, 0.04988575, 9.818634
1133964052068795, -0.37567315, 6.6628146, 7.204789, -0.05410385, 0.06787348, 9.820166
1133964061707753, -0.37088752, 6.6855464, 7.192825, -0.032848597, 0.08473921, 9.826626
1133964071346711, -0.33020952, 6.686743, 7.216753, -0.0031251907, 0.048811913, 9.843817
1133964080985566, -0.30987054, 6.707082, 7.220342, 0.02208662, 0.04840994, 9.859587
1133964090624524, -0.2656033, 6.7322063, 7.23111, 0.06518769, 0.033516884, 9.883153
1133964100263482, -0.19860429, 6.74776, 7.2490563, 0.11926603, -0.0016365051, 9.904862
1133964109902441, -0.18544376, 6.741778, 7.3340015, 0.09771657, -0.06173849, 9.96294
1133964119541399, -0.18185452, 6.725028, 7.4033933, 0.065488815, -0.11000967, 10.002646
1133964129180253, -0.20219351, 6.708278, 7.4129643, 0.03839469, -0.112677574, 9.998987
1133964138819211, -0.2847459, 6.6891356, 7.38784, -0.028859138, -0.06368923, 9.97
1133964148458170, -0.3469593, 6.6891356, 7.344769, -0.06569648, -0.0047283173, 9.940132
1133964158097128, -0.3385844, 6.6831536, 7.32443, -0.050702095, -0.0034270287, 9.920881
1133964167736086, -0.2835495, 6.7262244, 7.335198, 0.010346651, -0.014280319, 9.95627
1133964177374941, -0.23928227, 6.751349, 7.3639116, 0.047864914, -0.039855003, 9.993061
1133964187013899, -0.2321038, 6.741778, 7.3543406, 0.052931786, -0.045968056, 9.9793215
1133964196652857, -0.30508488, 6.7166533, 7.283752, 0.006875515, 0.018126965, 9.912577
1133964206291816, -0.38524446, 6.6759753, 7.2562346, -0.06699896, 0.05087328, 9.867266
1133964215930774, -0.44626144, 6.6221366, 7.2179494, -0.12653446, 0.07035065, 9.804574
1133964225569628, -0.44147578, 6.611369, 7.1581287, -0.10243225, 0.08907843, 9.753229
1133964235208586, -0.38883367, 6.619744, 7.109076, -0.034602404, 0.090854645, 9.721199
1133964244847545, -0.38285163, 6.62094, 7.0875406, -0.020354033, 0.0991168, 9.706
1133964254486503, -0.37447673, 6.6329045, 7.09113, -0.008297205, 0.09936619, 9.716475
1133964264125461, -0.38763726, 6.6281185, 7.1365933, -0.034291983, 0.078092575, 9.747097
1133964273764316, -0.41515473, 6.6281185, 7.1976104, -0.0750556, 0.059363365, 9.792893
1133964283403274, -0.45942193, 6.6161547, 7.280163, -0.1452918, 0.02791071, 9.847002
1133964293042232, -0.42951167, 6.6460648, 7.3160553, -0.11191845, 0.015863419, 9.892752
1133964302681191, -0.357727, 6.658029, 7.3495545, -0.057383537, -0.035452366, 9.9231415
1133964312320149, -0.29910284, 6.7022963, 7.3698936, 0.0058624744, -0.04757023, 9.966106
1133964321959003, -0.25722843, 6.7118673, 7.355537, 0.04974842, -0.052050114, 9.960626
1133964331597961, -0.28235307, 6.6975107, 7.342376, 0.022576094, -0.03554058, 9.942087
1133964341236920, -0.34576288, 6.6652074, 7.3304124, -0.040406704, -0.014674187, 9.913507
1133964350875878, -0.36490545, 6.6532435, 7.318448, -0.05875063, -0.0024957657, 9.8972225
1133964360514836, -0.32422748, 6.672386, 7.2861447, -0.0049619675, 0.007593155, 9.885023
1133964370153795, -0.25603202, 6.7094746, 7.27777, 0.07191968, 0.002400875, 9.901685
1133964379792649, -0.2213361, 6.74776, 7.365108, 0.08506036, -0.041220665, 9.990852
1133964389431607, -0.2105684, 6.748956, 7.3974113, 0.08025575, -0.06412268, 10.0151825
1133964399070566, -0.23688944, 6.721439, 7.355537, 0.061473608, -0.04216528, 9.966556
1133964408709524, -0.2213361, 6.7298136, 7.338787, 0.08115935, -0.032488346, 9.959394
1133964418348482, -0.21296121, 6.715457, 7.351948, 0.07715249, -0.053334236, 9.959169
1133964427987336, -0.22253251, 6.698707, 7.32443, 0.06799698, -0.040162563, 9.927902
1133964437626295, -0.2440679, 6.68435, 7.251449, 0.06989741, 0.0055980682, 9.865024
1133964447265253, -0.30867413, 6.666404, 7.2179494, 0.018292427, 0.049245834, 9.830172
1133964456904211, -0.28953153, 6.698707, 7.4847493, -0.049937725, -0.09497309, 10.048208
1133964466543170, -0.27996024, 6.63769, 7.399804, -0.04420519, -0.08868742, 9.944073
1133964476182128, -0.37567315, 6.623333, 7.245467, -0.07373476, 0.043838978, 9.823397
1133964485821086, -0.43908295, 6.6532435, 7.243074, -0.11020565, 0.09796047, 9.8437195
1133964495459941, -0.4127619, 6.634101, 7.3052874, -0.1177547, 0.03769684, 9.875911
1133964505098899, -0.34576288, 6.6556363, 7.3304124, -0.05417347, 1.4734268E-4, 9.907022
1133964514737857, -0.25962126, 6.7178497, 7.3663044, 0.030716658, -0.03168583, 9.972835
1133964524376816, -0.20458634, 6.7202425, 7.3926253, 0.06723714, -0.07422209, 9.992217
1133964534015774, -0.21535404, 6.690332, 7.3830543, 0.045827627, -0.08016062, 9.965334
1133964543654628, -0.28594232, 6.6676, 7.2897344, 0.013320446, 3.6239624E-5, 9.883254
1133964553293586, -0.32063824, 6.6975107, 7.298109, -0.008669138, 0.03241539, 9.910637
1133964562932545, -0.31944183, 6.6735826, 7.3028946, -0.024548769, 0.01307869, 9.897991
1133964572571503, -0.29312077, 6.6628146, 7.243074, 0.009521246, 0.023697853, 9.845837
1133964582210461, -0.2428715, 6.7094746, 7.2119675, 0.07577419, 0.037412167, 9.852988
1133964591849420, -0.18903299, 6.7298136, 7.155736, 0.14954448, 0.050863266, 9.823733
1133964601488274, -0.17706887, 6.7429743, 7.1425757, 0.16646433, 0.05735731, 9.822649
1133964611127232, -0.17108682, 6.7585278, 7.1880393, 0.16118312, 0.038515568, 9.866479
1133964620766191, -0.17347965, 6.7381887, 7.2562346, 0.12598085, -0.0098109245, 9.903043
