timestamp_acc,device_acc_x,device_acc_y,device_acc_z,earth_acc_x,earth_acc_y,earth_acc_z
785249463620564, 0.16869399, 5.1816573, 8.556734, -0.084014535, -0.057160378, 10.00427
785249473259418, 0.1471586, 5.2055855, 8.606983, -0.10668522, -0.060691833, 10.059069
785249482898376, 0.13998012, 5.198407, 8.581859, -0.111525, -0.05309105, 10.033748
785249492537334, 0.16390835, 5.2223353, 8.541181, -0.0815236, -0.014302254, 10.012221
785249502176189, 0.17587246, 5.2666025, 8.520842, -0.06304306, 0.03177929, 10.0183735
785249511815147, 0.2536392, 5.267799, 8.520842, 0.015161395, 0.02003479, 10.020886
785249521454001, 0.30508488, 5.2773705, 8.551949, 0.064478576, 0.005774498, 10.053625
785249531092959, 0.2727818, 5.2941203, 8.556734, 0.033082604, 0.017564774, 10.065705
785249540731814, 0.23928227, 5.2486563, 8.458628, 0.0037763715, 0.033831596, 9.957553
785249550370772, 0.2548356, 5.218746, 8.319844, 0.028105259, 0.07598162, 9.824128
785249560009730, 0.2536392, 5.21755, 8.268398, 0.03236425, 0.09884548, 9.779713
785249569648584, 0.2428715, 5.1816573, 8.289934, 0.016292214, 0.05473423, 9.778975
785249579287543, 0.24526432, 5.1553364, 8.248059, 0.0193457, 0.054111004, 9.729587
785249588926397, 0.25722843, 5.117051, 8.246863, 0.02846229, 0.020784378, 9.708755
785249598565355, 0.2548356, 5.10748, 8.321041, 0.019174099, -0.025111675, 9.766781
785249608204314, 0.22492532, 5.13739, 8.428718, -0.017684817, -0.051021576, 9.873386
785249617843168, 0.23688944, 5.180461, 8.493324, -0.00786674, -0.044199467, 9.951274
785249627482126, 0.2656033, 5.21755, 8.5220375, 0.020925462, -0.028994083, 9.995861
785249637120980, 0.28953153, 5.2689953, 8.549556, 0.045764923, -0.0010485649, 10.046839
785249646759939, 0.29671, 5.312066, 8.58784, 0.052237272, 0.015181065, 10.102184
785249656398897, 0.2632105, 5.272585, 8.589037, 0.015845358, -0.015581131, 10.081691
785249666037751, 0.24047868, 5.2749777, 8.589037, -0.007719934, -0.01064539, 10.08239
785249675676709, 0.1902294, 5.282156, 8.548359, -0.054054737, 0.022314548, 10.050293
785249685315668, 0.18424734, 5.285745, 8.518449, -0.056957185, 0.04199314, 10.0265665
785249694954522, 0.19980069, 5.2701917, 8.49452, -0.040765345, 0.0386734, 9.998428
785249704593480, 0.21655045, 5.2737813, 8.488539, -0.0227319, 0.04202938, 9.995634
785249714232334, 0.2548356, 5.271388, 8.446664, 0.018433869, 0.0574193, 9.959668
785249723871293, 0.25124636, 5.2079782, 8.55793, 1.3780594E-4, -0.05393076, 10.0210495
785249733510251, 0.27996024, 5.1613183, 8.500503, 0.02747053, -0.06761217, 9.948408
785249743149105, 0.2536392, 5.156533, 8.559127, -0.004811406, -0.0976491, 9.995161
785249752788064, 0.25004998, 5.18405, 8.592627, -0.00902164, -0.08985567, 10.038028
785249762426918, 0.26919255, 5.178068, 8.537591, 0.013129473, -0.0668354, 9.988527
785249772065876, 0.27517462, 5.174479, 8.420342, 0.02800852, -0.009086132, 9.886974
785249781704834, 0.2883351, 5.209175, 8.283952, 0.05442387, 0.08943939, 9.789359
785249791343689, 0.28115666, 5.231907, 8.243274, 0.052606285, 0.12887669, 9.766477
785249800982647, 0.26679972, 5.2486563, 8.255239, 0.038218975, 0.13608503, 9.78512
785249810621605, 0.20338993, 5.237889, 8.331808, -0.032260597, 0.090331554, 9.843102
785249820260459, 0.17347965, 5.218746, 8.382058, -0.06721938, 0.05130005, 9.875078
785249829899418, 0.18903299, 5.2079782, 8.410771, -0.05450833, 0.025836945, 9.894253
785249839538376, 0.19980069, 5.204389, 8.462217, -0.04853791, -0.005130768, 9.936415
785249849177230, 0.2440679, 5.209175, 8.510074, -0.008227229, -0.02908802, 9.980758
785249858816189, 0.26799613, 5.2127643, 8.560323, 0.011521637, -0.053115845, 10.0260105
785249868455043, 0.2620141, 5.221139, 8.568698, 0.0063198805, -0.04729557, 10.037393
785249878094001, 0.25722843, 5.2223353, 8.559127, 0.0026248693, -0.04074049, 10.029752
785249887732959, 0.23090738, 5.2127643, 8.545966, -0.021422386, -0.035646915, 10.012895
785249897371814, 0.25603202, 5.218746, 8.56152, 0.0029036999, -0.040175915, 10.0299
785249907010772, 0.23808585, 5.252246, 8.586644, -0.015326738, -0.021808624, 10.068392
785249916649730, 0.22013968, 5.252246, 8.603394, -0.034456313, -0.028506756, 10.08221
785249926288584, 0.23090738, 5.2342997, 8.547162, -0.021778286, -0.015793324, 10.025192
785249935927543, 0.27996024, 5.231907, 8.478967, 0.03216803, 0.010594368, 9.967094
785249945566501, 0.30388847, 5.218746, 8.453842, 0.056557477, 0.008125782, 9.939409
785249955205355, 0.29671, 5.221139, 8.469396, 0.04829514, 0.0028743744, 9.953726
785249964844314, 0.29192436, 5.1960144, 8.458628, 0.04137683, -0.013057232, 9.93128
785249974483168, 0.26919255, 5.198407, 8.416754, 0.022961378, 0.01300478, 9.89631
785249984122126, 0.2416751, 5.215157, 8.3581295, 0.0028654933, 0.060739994, 9.854486
785249993761084, 0.23330021, 5.204389, 8.362915, -0.007307768, 0.050289154, 9.852709
785250003399939, 0.24526432, 5.2199426, 8.3784685, 0.0037283897, 0.052937984, 9.874405
785250013038897, 0.22253251, 5.239085, 8.356933, -0.018671453, 0.08225536, 9.865534
785250022677855, 0.25842485, 5.235496, 8.349754, 0.01687777, 0.07829428, 9.858458
785250032316709, 0.26081768, 5.2079782, 8.349754, 0.016843855, 0.05467844, 9.844093
785250041955668, 0.21894327, 5.1960144, 8.421539, -0.031861246, 0.013067722, 9.89786
785250051594626, 0.148355, 5.157729, 8.518449, -0.1132763, -0.059746265, 9.958504
785250061233480, 0.104087785, 5.113462, 8.581859, -0.1652953, -0.12230301, 9.988209
785250070872439, 0.16510476, 5.168497, 8.5938225, -0.096365035, -0.08818054, 10.028825
785250080511397, 0.21535404, 5.2426744, 8.595019, -0.03651786, -0.028350353, 10.069966
785250090150251, 0.2835495, 5.2689953, 8.59143, 0.03387153, -0.013112545, 10.082363
785250099789209, 0.3493521, 5.304888, 8.605786, 0.094537854, -0.0010814667, 10.115063
785250109428168, 0.36251262, 5.3108697, 8.555537, 0.108353674, 0.026843548, 10.075788
785250119067022, 0.34456646, 5.300102, 8.49452, 0.0910511, 0.05010557, 10.017779
785250128705980, 0.30508488, 5.252246, 8.458628, 0.050554574, 0.03313017, 9.96112
785250138344834, 0.27876383, 5.2235317, 8.416754, 0.023060322, 0.029669285, 9.9097595
785250147983793, 0.2739782, 5.197211, 8.384451, 0.01876843, 0.024653435, 9.86834
785250157622751, 0.27876383, 5.198407, 8.397611, 0.024063647, 0.016906261, 9.880292
785250167261605, 0.2847459, 5.180461, 8.416754, 0.028756797, -0.009868622, 9.88732
785250176900564, 0.24047868, 5.1816573, 8.411968, -0.012919486, -0.002254486, 9.882735
785250186539522, 0.18664017, 5.194818, 8.408379, -0.06342542, 0.016738415, 9.885215
785250196178376, 0.14955142, 5.1816573, 8.409575, -0.099846065, 0.0089941025, 9.878403
785250205817334, 0.1698904, 5.2008, 8.394022, -0.073601484, 0.029186726, 9.875754
785250215456293, 0.2117648, 5.229514, 8.383254, -0.028997958, 0.053422928, 9.8827095
785250225095147, 0.2548356, 5.245067, 8.394022, 0.012321115, 0.054434776, 9.901118
785250234734105, 0.30149564, 5.2510495, 8.409575, 0.05531448, 0.04484415, 9.918686
785250244373064, 0.28713873, 5.265406, 8.397611, 0.043344855, 0.0649209, 9.915682
785250254011918, 0.2943172, 5.231907, 8.410771, 0.044657648, 0.028540611, 9.909479
785250263650876, 0.27158538, 5.2127643, 8.487342, 0.014126182, -0.02354145, 9.96398
785250273289834, 0.27876383, 5.224728, 8.573483, 0.01583755, -0.05724144, 10.043734
785250282928689, 0.28235307, 5.2307105, 8.590233, 0.019017577, -0.059915066, 10.061222
785250292567647, 0.28115666, 5.2307105, 8.554341, 0.020555913, -0.041062832, 10.030655
785250302206605, 0.25244278, 5.237889, 8.5423765, -0.006401658, -0.024910927, 10.02351
785250311845459, 0.23569304, 5.2438707, 8.514859, -0.020468831, -0.003944874, 10.002805
785250321484418, 0.24047868, 5.2570314, 8.4705925, -0.012140214, 0.02981472, 9.972168
785250331123376, 0.2620141, 5.2307105, 8.407183, 0.013176799, 0.03837776, 9.904952
785250340762230, 0.24047868, 5.198407, 8.4705925, -0.012623727, -0.021299362, 9.941408
785250350401189, 0.21415763, 5.2031927, 8.514859, -0.04146415, -0.038928986, 9.980915
785250360040043, 0.20219351, 5.1936216, 8.496913, -0.052352995, -0.03700304, 9.960322
785250369679001, 0.1902294, 5.218746, 8.445468, -0.058231354, 0.010279655, 9.929448
785250379317959, 0.2321038, 5.267799, 8.361719, -0.0066803694, 0.09230709, 9.885006
785250388956814, 0.2727818, 5.245067, 8.304291, 0.036673427, 0.09481478, 9.825277
785250398595772, 0.29192436, 5.2127643, 8.368897, 0.049511135, 0.031723976, 9.863728
785250408234730, 0.30388847, 5.2259245, 8.408379, 0.058273792, 0.020251274, 9.904527
785250417873584, 0.276371, 5.1876397, 8.397611, 0.028452694, -0.0035271645, 9.874565
785250427512543, 0.26081768, 5.1960144, 8.411968, 0.012355447, -5.440712E-4, 9.890787
785250437151501, 0.25962126, 5.2103715, 8.420342, 0.011971891, 0.0080189705, 9.90542
785250446790355, 0.22612174, 5.215157, 8.379665, -0.018546104, 0.036143303, 9.872495
785250456429314, 0.20697916, 5.2103715, 8.367701, -0.03636384, 0.040378094, 9.859324
785250466068272, 0.20697916, 5.1960144, 8.410771, -0.038104713, 0.0067152977, 9.888428
785250475707126, 0.24047868, 5.209175, 8.4682, -0.0057370067, -0.011538506, 9.945028
785250485346084, 0.25962126, 5.2223353, 8.519645, 0.011296898, -0.028495312, 9.99618
785250494985043, 0.29072794, 5.194818, 8.53161, 0.039753497, -0.05663967, 9.99271
785250504623897, 0.34097722, 5.666204, 8.532805, 0.11305213, 0.3397336, 10.242203
785250514262855, 0.19621146, 4.813163, 8.641679, -0.08504319, -0.43318367, 9.883761
785250523901709, 0.09930214, 5.444868, 8.58784, -0.14384636, 0.14292622, 10.1669235
785250533540668, 0.09092726, 5.096712, 8.712267, -0.17484084, -0.21785402, 10.09011
785250543179626, 0.17347965, 5.0572305, 8.356933, -0.0717527, -0.07344198, 9.769006
785250552818584, 0.36131623, 5.6470613, 8.590233, 0.13391054, 0.29308128, 10.2814455
785250562457439, 0.19621146, 4.648058, 8.236095, -0.058379352, -0.36724353, 9.451875
785250572096397, 0.3912265, 5.930611, 8.544769, 0.17219254, 0.5490165, 10.3926525
785250581735251, 0.19381863, 4.4949174, 8.303095, -0.06452289, -0.52733755, 9.428733
785250591374209, 0.35413775, 5.851648, 8.405986, 0.113328815, 0.55945206, 10.232399
785250601013168, 0.2213361, 4.638487, 8.457432, -0.037569016, -0.48708987, 9.636079
785250610652022, 0.32542387, 5.554938, 8.29472, 0.081317976, 0.3664403, 9.981218
785250620290980, 0.276371, 5.0799623, 8.447861, 0.028651655, -0.115282536, 9.860764
785250629929939, 0.21296121, 5.0189457, 8.206185, -0.026759878, -0.039470196, 9.621557
785250639568793, 0.27756742, 5.501099, 8.46102, 0.04057294, 0.24163961, 10.092967
785250649207751, 0.08015956, 4.5655055, 8.208578, -0.15792577, -0.4180987, 9.3825
785250658846709, 0.25722843, 5.802595, 8.584251, 0.022682756, 0.4333067, 10.355548
785250668485564, 0.050249275, 4.4279184, 8.422736, -0.21028481, -0.6331837, 9.492435
785250678124522, 0.23569304, 5.889933, 8.549556, 0.008763492, 0.53082466, 10.37111
785250687763480, 0.1052842, 4.668397, 8.547162, -0.15405703, -0.4974017, 9.72563
785250697402334, 0.2536392, 5.6817575, 8.478967, 0.02562493, 0.39362526, 10.202156
785250707041293, 0.2428715, 5.163711, 8.662018, -0.0066682994, -0.13412237, 10.086397
785250716680251, 0.2739782, 5.2283173, 8.439486, 0.031262577, 0.03017044, 9.931434
785250726319105, 0.4438686, 5.6506505, 8.724232, 0.19862378, 0.23368788, 10.399279
785250735958064, 0.2644069, 4.755735, 8.414361, -0.0054287612, -0.36394262, 9.662087
785250745596918, 0.4331009, 5.9030933, 8.671589, 0.20197576, 0.46544027, 10.486808
785250755235876, 0.19381863, 4.516453, 8.480164, -0.09294385, -0.5907891, 9.591215
785250764874834, 0.39960137, 5.9353967, 8.562716, 0.17801785, 0.5484896, 10.410388
785250774513689, 0.20817557, 4.6085763, 8.439486, -0.07305843, -0.49029136, 9.605285
785250784152647, 0.28953153, 5.6063833, 8.402397, 0.062365413, 0.36939526, 10.098281
785250793791605, 0.25004998, 4.9974103, 8.549556, -0.011809289, -0.22931957, 9.903474
785250803430459, 0.19860429, 5.143372, 8.329415, -0.04365617, 0.015796185, 9.79136
785250813069418, 0.25842485, 5.426922, 8.599805, 0.010373861, 0.11221266, 10.171637
785250822708376, 0.13998012, 4.634897, 8.300702, -0.10324557, -0.40324044, 9.498962
785250832347230, 0.3792624, 5.8420763, 8.584251, 0.12566622, 0.46989632, 10.379136
785250841986189, 0.17347965, 4.4949174, 8.274381, -0.07320452, -0.5150008, 9.403679
785250851625147, 0.39361933, 5.922236, 8.342576, 0.14695802, 0.66051435, 10.216091
785250861264001, 0.17587246, 4.5415773, 8.352147, -0.07218522, -0.51570415, 9.494422
785250870902959, 0.33738798, 5.773881, 8.313862, 0.102297455, 0.54887104, 10.112374
785250880541918, 0.26081768, 4.9974103, 8.447861, 0.006277889, -0.17568159, 9.817208
785250890180772, 0.23808585, 5.211568, 8.318648, -0.0064174533, 0.07516956, 9.818928
785250899819730, 0.32422748, 5.4843497, 8.584251, 0.072390795, 0.17052841, 10.190107
785250909458689, 0.18544376, 4.7605205, 8.310273, -0.071745396, -0.29688025, 9.574148
785250919097543, 0.31106696, 5.7607207, 8.737391, 0.06008306, 0.3245592, 10.464975
785250928736501, 0.025124637, 4.4147577, 8.565108, -0.24949189, -0.7113838, 9.60643
785250938375459, 0.2536392, 5.85763, 8.801998, 0.010701984, 0.38036966, 10.569133
785250948014314, 0.12323037, 4.5008993, 8.668, -0.15854973, -0.68927, 9.742038
785250957653272, 0.2727818, 5.706882, 8.627322, 0.034757495, 0.3506956, 10.341636
785250967292230, 0.2620141, 4.965107, 8.682357, -0.00614956, -0.2973919, 10.00079
785250976931084, 0.22612174, 5.3216376, 8.451449, -0.01016742, 0.12209654, 9.989141
785250986570043, 0.27038896, 5.4257255, 8.623733, 0.025212824, 0.11838913, 10.191454
785250996209001, 0.1268196, 4.820341, 8.30788, -0.12818968, -0.22614145, 9.602348
785251005847855, 0.36610186, 5.808577, 8.641679, 0.13909307, 0.42614174, 10.409191
785251015486814, 0.17706887, 4.4662037, 8.365308, -0.09549442, -0.55994916, 9.4675255
785251025125772, 0.3900301, 5.8971114, 8.514859, 0.17032865, 0.5652704, 10.348059
785251034764626, 0.15792629, 4.482953, 8.353344, -0.11161661, -0.5401399, 9.465514
785251044403584, 0.30269206, 5.733203, 8.331808, 0.084955335, 0.51522636, 10.104831
785251054042543, 0.23330021, 4.8646083, 8.421539, -0.018235207, -0.2587886, 9.72491
785251063681501, 0.25004998, 5.334798, 8.251649, 0.024761796, 0.21986961, 9.826666
785251073320355, 0.33379877, 5.40419, 8.510074, 0.10065156, 0.14047956, 10.085049
785251082959314, 0.20578274, 4.8287163, 8.221739, -0.04873246, -0.18908739, 9.535076
785251092598272, 0.40677986, 5.736792, 8.612965, 0.18994403, 0.35506153, 10.348782
785251102237126, 0.22971097, 4.4482574, 8.370093, -0.07149857, -0.5867622, 9.463024
785251111876084, 0.40677986, 5.875576, 8.6141615, 0.19661868, 0.47236967, 10.422565
785251121515043, 0.17228323, 4.4662037, 8.422736, -0.1257084, -0.5892091, 9.5161
785251131153897, 0.32063824, 5.7726846, 8.394022, 0.11527276, 0.5227008, 10.178401
785251140792855, 0.18065812, 4.813163, 8.419147, -0.08992091, -0.29273558, 9.694712
785251150431814, 0.15792629, 5.345566, 8.262417, -0.069812715, 0.23935652, 9.838972
785251160070668, 0.1794617, 5.2869415, 8.554341, -0.06688899, 0.035862923, 10.057582
785251169709626, 0.076570325, 4.8155556, 8.376076, -0.16826114, -0.27307177, 9.656667
785251179348584, 0.28115666, 5.6781683, 8.7780695, 0.035203427, 0.24951792, 10.455221
785251188987543, 0.11485548, 4.503292, 8.534002, -0.1445198, -0.61273146, 9.629419
785251198626397, 0.32422748, 5.9294147, 8.76491, 0.091621816, 0.4854703, 10.575569
785251208265355, 0.12921242, 4.4925246, 8.595019, -0.14447722, -0.6490984, 9.676343
785251217904314, 0.29910284, 5.852844, 8.597412, 0.065231115, 0.5114522, 10.39206
785251227543168, 0.13280165, 4.8394837, 8.581859, -0.13159254, -0.34478283, 9.846336
785251237182126, 0.15792629, 5.4664035, 8.440681, -0.07351726, 0.25980186, 10.053791
785251246821084, 0.22492532, 5.2845488, 8.645268, -0.017519563, -0.0067834854, 10.134958
785251256460043, 0.13280165, 4.894519, 8.299505, -0.10749361, -0.15411758, 9.6343355
785251266098897, 0.36610186, 5.6674004, 8.580662, 0.1446433, 0.3442192, 10.283083
785251275737855, 0.2117648, 4.5320063, 8.318648, -0.054151893, -0.4805503, 9.463085
785251285376814, 0.4881358, 5.918647, 8.586644, 0.26901332, 0.54295826, 10.422665
785251295015772, 0.30269206, 4.4614177, 8.376076, 0.0377571, -0.5681827, 9.477882
785251304654626, 0.47018966, 5.838487, 8.391629, 0.23217076, 0.5855479, 10.214288
785251314293584, 0.30149564, 4.7174497, 8.384451, 0.04602462, -0.35241032, 9.618624
785251323932543, 0.28953153, 5.3982077, 8.280363, 0.052086264, 0.2731037, 9.884917
785251333571501, 0.25124636, 5.1326046, 8.59143, -2.116561E-4, -0.11190224, 10.010339
785251343210355, 0.13998012, 4.942375, 8.391629, -0.10964346, -0.16561699, 9.737898
785251352849314, 0.31944183, 5.6781683, 8.776874, 0.0678651, 0.2568798, 10.454978
785251362488272, 0.13280165, 4.615755, 8.543573, -0.12762702, -0.5224638, 9.696712
785251372127230, 0.38404804, 5.979664, 8.749356, 0.13779864, 0.5341568, 10.59013
785251381766084, 0.17587246, 4.51406, 8.487342, -0.09452686, -0.5795529, 9.596761
785251391405043, 0.36490545, 5.895915, 8.548359, 0.13040513, 0.55727196, 10.375059
785251401044001, 0.22013968, 4.705486, 8.523234, -0.058341384, -0.42540264, 9.728886
785251410682959, 0.27756742, 5.4963136, 8.465807, 0.044706285, 0.2639122, 10.093797
785251420321918, 0.2656033, 5.1218367, 8.690732, -0.005700052, -0.16272497, 10.089899
785251429960772, 0.11964113, 4.9495535, 8.426325, -0.14652675, -0.16252756, 9.770745
785251439599730, 0.23928227, 5.5405807, 8.742178, -0.00620538, 0.16513348, 10.351506
785251449238689, 0.061016977, 4.526024, 8.389236, -0.222994, -0.49794364, 9.516839
785251458877647, 0.2835495, 5.8827543, 8.646464, 0.0703848, 0.49765825, 10.449686
785251468516501, 0.11365908, 4.462614, 8.367701, -0.18257323, -0.5400839, 9.466849
785251478155459, 0.34337005, 5.895915, 8.40479, 0.1347264, 0.6278095, 10.252215
785251487794418, 0.25244278, 4.699504, 8.299505, -0.005578041, -0.33163905, 9.535243
785251497433376, 0.35653058, 5.595616, 8.200203, 0.1354852, 0.48272705, 9.921188
785251507072334, 0.33738798, 5.096712, 8.427522, 0.08229619, -0.06657791, 9.854048
785251516711189, 0.22372891, 4.9986067, 8.274381, -0.026562512, -0.063483715, 9.669373
785251526350147, 0.30987054, 5.487939, 8.662018, 0.05760148, 0.1486888, 10.257612
785251535989105, 0.11844472, 4.551149, 8.4012, -0.15539524, -0.49959016, 9.541142
785251545628064, 0.31465617, 5.7930236, 8.724232, 0.07423657, 0.38587475, 10.469765
785251555267022, 0.1160519, 4.3788652, 8.539984, -0.17714366, -0.7096484, 9.569968
785251564905876, 0.36370903, 5.8839507, 8.620144, 0.15268052, 0.5149851, 10.429358
785251574544834, 0.23449662, 4.6576295, 8.516056, -0.06561786, -0.4682567, 9.697844
785251584183793, 0.33738798, 5.6745787, 8.46102, 0.114800155, 0.42333364, 10.183868
785251593822751, 0.3074777, 5.1266227, 8.636893, 0.035079837, -0.13096619, 10.0476055
785251603461709, 0.20578274, 5.186443, 8.467003, -0.05245447, 0.011120319, 9.931203
785251613100668, 0.2727818, 5.5716877, 8.768498, 0.023468018, 0.17876816, 10.390966
785251622739522, 0.106480606, 4.668397, 8.439486, -0.18451715, -0.40634918, 9.634885
785251632378480, 0.33020952, 5.9042897, 8.742178, 0.11087805, 0.46994734, 10.543349
785251642017439, 0.08973085, 4.5044885, 8.504091, -0.22050947, -0.57967114, 9.603821
785251651656397, 0.30149564, 5.916254, 8.580662, 0.08967191, 0.5575652, 10.411619
785251661295355, 0.17587246, 4.5714874, 8.408379, -0.10867059, -0.47674155, 9.559872
785251670934314, 0.33738798, 5.5968122, 8.328219, 0.12797707, 0.4187441, 10.030237
785251680573272, 0.27517462, 4.9340005, 8.489735, 0.0016723275, -0.2226758, 9.820697
785251690212230, 0.23449662, 5.0715876, 8.27797, -0.00923872, 0.001127243, 9.710855
785251699851189, 0.32183465, 5.419743, 8.559127, 0.084822476, 0.1455288, 10.13447
785251709490043, 0.17228323, 4.6301117, 8.287541, -0.09926984, -0.37010956, 9.487051
785251719129001, 0.357727, 5.797809, 8.641679, 0.13170862, 0.42091513, 10.403206
785251728767959, 0.124426775, 4.409972, 8.453842, -0.17524278, -0.63537884, 9.512957
785251738406918, 0.3385844, 5.907879, 8.628518, 0.119612336, 0.52173996, 10.449043
785251748045876, 0.21535404, 4.5726843, 8.472985, -0.07902235, -0.510694, 9.616665
785251757684834, 0.34337005, 5.716453, 8.437093, 0.11947632, 0.46083355, 10.185952
785251767323793, 0.30508488, 5.032106, 8.605786, 0.024405897, -0.19720078, 9.971723
785251776962751, 0.32183465, 5.3419766, 8.361719, 0.081368804, 0.18633652, 9.925587
785251786601605, 0.3589234, 5.5202417, 8.584251, 0.12017703, 0.21222591, 10.209398
785251796240564, 0.12921242, 4.770092, 8.312666, -0.15335798, -0.25895405, 9.580204
785251805879522, 0.35294133, 5.812166, 8.679964, 0.14055175, 0.41086626, 10.443133
785251815518480, 0.106480606, 4.3908296, 8.486146, -0.2193358, -0.6703551, 9.529321
785251825157439, 0.30987054, 5.855237, 8.709874, 0.09432316, 0.44488096, 10.489752
785251834796397, 0.13998012, 4.49731, 8.624929, -0.18884581, -0.65128636, 9.704379
785251844435355, 0.31465617, 5.6578293, 8.605786, 0.08618778, 0.32294655, 10.298441
785251854074314, 0.2656033, 4.8729835, 8.645268, -0.02357608, -0.3485856, 9.921448
785251863713272, 0.22013968, 5.2929235, 8.437093, -0.024532914, 0.118534565, 9.9615965
785251873352230, 0.28115666, 5.4113684, 8.658429, 0.027622879, 0.09616566, 10.213734
785251882991189, 0.12562318, 4.796413, 8.279166, -0.14158672, -0.21584415, 9.565527
785251892630147, 0.33020952, 5.800202, 8.577073, 0.09998834, 0.4642005, 10.348531
785251902269105, 0.12801601, 4.510471, 8.3174515, -0.15475166, -0.4793315, 9.449182
785251911908064, 0.3924229, 5.9342003, 8.62134, 0.17664951, 0.5424309, 10.45805
785251921547022, 0.19860429, 4.4889355, 8.525627, -0.10444614, -0.6103072, 9.617324
785251931185980, 0.32183465, 5.7248282, 8.536395, 0.1008988, 0.42479897, 10.2740755
785251940824939, 0.2440679, 4.8598228, 8.581859, -0.043845773, -0.33292294, 9.859665
785251950463897, 0.20817557, 5.2869415, 8.402397, -0.03837782, 0.12668562, 9.928637
785251960102855, 0.24526432, 5.3180485, 8.709874, -0.018776655, -0.0059452057, 10.208003
785251969741814, 0.13399807, 4.8191447, 8.316256, -0.13772261, -0.21365023, 9.609247
785251979380772, 0.34456646, 5.7523456, 8.597412, 0.12451804, 0.41044188, 10.341167
785251989019730, 0.17347965, 4.4985065, 8.313862, -0.11532819, -0.49655128, 9.440714
785251998658689, 0.40797627, 5.9712887, 8.544769, 0.1975078, 0.61474943, 10.41244
785252008297647, 0.2105684, 4.5427737, 8.425129, -0.089028716, -0.51116157, 9.5600605
785252017936605, 0.3684947, 5.797809, 8.484949, 0.15185189, 0.5066042, 10.269619
785252027575564, 0.28235307, 4.786842, 8.512466, -0.020421684, -0.3573494, 9.763583
785252037214522, 0.28594232, 5.3503513, 8.356933, 0.051149547, 0.19061041, 9.925092
785252046853480, 0.29072794, 5.2259245, 8.657232, 0.015798032, -0.065149784, 10.116223
785252056492439, 0.17587246, 4.813163, 8.367701, -0.110295296, -0.2500105, 9.6509695
785252066131397, 0.31345975, 5.7140603, 8.754142, 0.07606274, 0.29775906, 10.454152
785252075770355, 0.11365908, 4.523631, 8.456235, -0.20941788, -0.52701545, 9.574052
785252085409314, 0.3385844, 5.9150577, 8.685946, 0.1336276, 0.49791288, 10.501545
785252095048272, 0.15792629, 4.479364, 8.520842, -0.17746228, -0.5995276, 9.60747
785252104687230, 0.35413775, 5.877969, 8.577073, 0.14681196, 0.5324092, 10.389279
785252114326189, 0.26799613, 4.8287163, 8.595019, -0.038474202, -0.36659908, 9.855292
785252123965147, 0.29312077, 5.4484572, 8.396415, 0.058211744, 0.26413298, 10.009907
785252133604105, 0.27038896, 5.2630134, 8.606983, 0.0032383204, -0.00505352, 10.092203
785252143243064, 0.12203395, 4.9088755, 8.281559, -0.15134418, -0.1151104, 9.626007
785252152882022, 0.26679972, 5.651847, 8.578269, 0.04961425, 0.33771086, 10.270578
785252162520980, 0.096909314, 4.5272202, 8.312666, -0.21312201, -0.45210814, 9.452815
785252172159939, 0.35653058, 5.9294147, 8.599805, 0.16981965, 0.5437741, 10.43634
785252181799001, 0.17108682, 4.4446683, 8.438289, -0.1440323, -0.5976703, 9.518988
785252191437959, 0.35533416, 5.8217373, 8.595019, 0.12983465, 0.4749441, 10.375492
785252201076918, 0.26919255, 4.7318068, 8.620144, -0.039006233, -0.45583487, 9.826498
785252210715876, 0.35174492, 5.4723854, 8.478967, 0.10219598, 0.23933506, 10.09435
785252220354834, 0.36729828, 5.21755, 8.707481, 0.081070304, -0.09718943, 10.156868
785252229993793, 0.27756742, 4.9663033, 8.382058, -0.0037584305, -0.13595629, 9.745851
785252239632751, 0.39720857, 5.6554365, 8.708678, 0.14106756, 0.26812887, 10.38706
785252249271709, 0.14117654, 4.5762734, 8.426325, -0.17419219, -0.47879004, 9.5763035
785252258910668, 0.3290131, 5.925825, 8.700303, 0.10373491, 0.5041113, 10.519223
785252268549730, 0.106480606, 4.436293, 8.413164, -0.22977054, -0.57488775, 9.491579
785252278188689, 0.2955136, 5.8564334, 8.476574, 0.09327906, 0.5593877, 10.291541
785252287827647, 0.17826529, 4.674379, 8.396415, -0.13232905, -0.3879118, 9.602781
785252297466605, 0.26679972, 5.508278, 8.2660055, 0.040748358, 0.38150072, 9.929347
785252307105564, 0.27756742, 5.1050873, 8.443074, 0.0021166801, -0.05916691, 9.870206
785252316744522, 0.2117648, 4.924429, 8.145168, -0.053607166, -0.048121452, 9.520158
785252326383584, 0.28713873, 5.511867, 8.584251, 0.034086525, 0.21793032, 10.20313
785252336022543, 0.013160525, 4.5212383, 8.438289, -0.31107062, -0.5170052, 9.554184
785252345661501, 0.2548356, 5.845666, 8.833105, 0.009000063, 0.37434292, 10.588686
785252355300459, 0.0741775, 4.4374895, 8.677571, -0.27228826, -0.7204375, 9.716167
785252364939418, 0.30029923, 5.933004, 8.730213, 0.07361406, 0.50502396, 10.547363
785252374578376, 0.3074777, 4.7976093, 8.575876, -0.0029435158, -0.3929639, 9.8235855
785252384217439, 0.44865423, 5.723632, 8.46461, 0.22254914, 0.4332533, 10.216342
785252393856397, 0.4235296, 5.2199426, 8.628518, 0.13262028, -0.07951403, 10.092304
785252403495355, 0.3397808, 5.1385865, 8.365308, 0.06441289, -0.0039286613, 9.823172
785252413134314, 0.42831525, 5.56092, 8.672786, 0.16219997, 0.185884, 10.308426
785252422773272, 0.23330021, 4.5894337, 8.377272, -0.093108, -0.46061134, 9.543331
785252432412334, 0.44985065, 5.8600225, 8.63809, 0.21452248, 0.45914602, 10.435613
785252442051293, 0.22612174, 4.4554358, 8.390432, -0.121798635, -0.5745318, 9.48454
785252451690251, 0.37686956, 5.8875403, 8.55793, 0.15278935, 0.53410864, 10.379533
785252461329209, 0.22253251, 4.6492543, 8.505288, -0.11173278, -0.4687357, 9.683635
785252470968272, 0.29312077, 5.629115, 8.428718, 0.05687803, 0.38316965, 10.132428
785252480607230, 0.2620141, 5.0596237, 8.596215, -0.038265526, -0.17421484, 9.976549
785252490246189, 0.22253251, 5.160122, 8.250452, -0.03977585, 0.08768034, 9.733297
785252499885147, 0.3684947, 5.5800624, 8.49811, 0.12295902, 0.29964447, 10.167882
785252509524105, 0.17587246, 4.725825, 8.220542, -0.12394059, -0.25792313, 9.479439
785252519163168, 0.4031906, 5.898308, 8.590233, 0.16574752, 0.5148101, 10.41404
785252528802126, 0.17826529, 4.449454, 8.392825, -0.16363466, -0.5797603, 9.481879
785252538441084, 0.3469593, 5.905486, 8.592627, 0.12047309, 0.5219817, 10.418321
785252548080043, 0.17706887, 4.57747, 8.545966, -0.16601503, -0.5543947, 9.6790085
785252557719105, 0.2835495, 5.621937, 8.5112705, 0.04009074, 0.34585905, 10.198387
785252567358064, 0.2644069, 4.9734817, 8.669196, -0.050969362, -0.28327322, 9.993876
785252576997022, 0.2321038, 5.1936216, 8.452646, -0.042478025, 0.018105984, 9.92334
785252586636084, 0.3062813, 5.4867425, 8.706285, 0.036332726, 0.12593699, 10.294677
785252596275043, 0.17467605, 4.685147, 8.361719, -0.13835049, -0.3618698, 9.5785885
785252605914001, 0.38165522, 5.84088, 8.690732, 0.14485896, 0.42199087, 10.468586
785252615553064, 0.14955142, 4.4841495, 8.419147, -0.18169075, -0.5629957, 9.521661
785252625192022, 0.36729828, 5.9521465, 8.565108, 0.15524542, 0.58959055, 10.418844
785252634830980, 0.22013968, 4.56072, 8.4347, -0.112850845, -0.513679, 9.5768585
785252644470043, 0.33499518, 5.7284174, 8.4705925, 0.10655403, 0.44280243, 10.221082
785252654109001, 0.2943172, 4.975875, 8.62134, -0.016203642, -0.267035, 9.954992
785252663747959, 0.2739782, 5.2606206, 8.405986, 0.009187996, 0.087910175, 9.919777
785252673386918, 0.3290131, 5.4484572, 8.691928, 0.058592558, 0.09250069, 10.263117
785252683025980, 0.14237295, 4.7449675, 8.32463, -0.16252738, -0.29120946, 9.577223
785252692664939, 0.33379877, 5.7834525, 8.6141615, 0.10632676, 0.41207457, 10.372193
785252702304001, 0.1052842, 4.4781675, 8.41795, -0.2363826, -0.5621247, 9.516044
785252711942959, 0.3505485, 5.9521465, 8.648857, 0.14383739, 0.5297718, 10.4905815
785252721581918, 0.20817557, 4.5320063, 8.415557, -0.13179272, -0.53068614, 9.544896
785252731220980, 0.36011982, 5.692525, 8.390432, 0.13997322, 0.4518304, 10.134602
785252740859939, 0.28713873, 4.9160542, 8.556734, -0.026810646, -0.2821293, 9.868507
785252750498897, 0.24526432, 5.2833524, 8.380861, -0.015215397, 0.12185907, 9.909477
785252760137959, 0.33379877, 5.389833, 8.641679, 0.05932659, 0.06361103, 10.1898365
785252769776918, 0.15553348, 4.802395, 8.304291, -0.14258116, -0.23805094, 9.590176
785252779415876, 0.3361916, 5.767899, 8.642876, 0.10211539, 0.38512993, 10.388563
785252789054939, 0.11006984, 4.4638104, 8.4012, -0.21644619, -0.5758035, 9.494183
785252798693897, 0.36011982, 5.938986, 8.636893, 0.139525, 0.53416824, 10.473412
785252808332959, 0.15792629, 4.5284166, 8.465807, -0.173006, -0.54867935, 9.584904
785252817971918, 0.29790643, 5.7870417, 8.477771, 0.072096944, 0.49511957, 10.256747
785252827610876, 0.22013968, 4.9052863, 8.486146, -0.08013344, -0.25659466, 9.800648
785252837249939, 0.2213361, 5.367101, 8.285149, -0.019527853, 0.23839998, 9.871233
785252846888897, 0.2727818, 5.332405, 8.569894, 0.003563583, 0.05729103, 10.096967
785252856527959, 0.13519448, 4.813163, 8.26481, -0.15055102, -0.20979166, 9.561655
785252866166918, 0.32662028, 5.7116675, 8.608179, 0.09158611, 0.3572855, 10.329304
785252875805876, 0.1363909, 4.5008993, 8.355737, -0.17515358, -0.5236869, 9.475765
785252885444939, 0.3804588, 5.9413786, 8.630911, 0.14748985, 0.5330353, 10.470506
785252895083897, 0.23569304, 4.5619164, 8.462217, -0.077236354, -0.5274811, 9.601643
785252904722959, 0.4139583, 5.907879, 8.483752, 0.17738885, 0.59154034, 10.327975
785252914361918, 0.33499518, 4.9064827, 8.5112705, 0.031915426, -0.27786493, 9.825951
785252924000876, 0.36011982, 5.474778, 8.360522, 0.10489881, 0.2809024, 9.995565
785252933639939, 0.4031906, 5.322834, 8.602198, 0.11910409, 0.027012348, 10.123145
785252943278897, 0.27158538, 4.881358, 8.283952, -0.02376169, -0.1742692, 9.617399
785252952917959, 0.47258246, 5.7248282, 8.717052, 0.20615667, 0.294065, 10.433361
785252962556918, 0.25603202, 4.516453, 8.385647, -0.08096957, -0.5316601, 9.51282
785252972195980, 0.47258246, 5.9090757, 8.69791, 0.23008806, 0.4538293, 10.513575
785252981834939, 0.19501504, 4.4674, 8.52443, -0.16721421, -0.6309216, 9.603936
785252991474001, 0.3385844, 5.8229337, 8.572288, 0.103532135, 0.4786992, 10.356902
785253001112959, 0.20338993, 4.759324, 8.580662, -0.13819277, -0.41585827, 9.8045025
785253010751918, 0.2536392, 5.4783673, 8.426325, -0.003219664, 0.27548456, 10.05007
785253020390980, 0.31944183, 5.2701917, 8.633304, 0.019713104, -0.015999794, 10.119795
785253030029939, 0.23090738, 4.9674997, 8.325827, -0.06966007, -0.10686827, 9.697037
785253039669001, 0.4031906, 5.7188463, 8.681161, 0.14303666, 0.3235941, 10.397362
785253049307959, 0.19501504, 4.5690947, 8.374879, -0.15654564, -0.46730614, 9.529448
785253058947022, 0.40917268, 5.9521465, 8.668, 0.16834235, 0.52292013, 10.50847
785253068585980, 0.16271193, 4.4685965, 8.459825, -0.20188999, -0.5975692, 9.548069
785253078225043, 0.3397808, 5.851648, 8.550752, 0.09802163, 0.50364256, 10.354194
785253087864001, 0.2117648, 4.7377887, 8.599805, -0.12315762, -0.44310522, 9.810027
785253097503064, 0.26081768, 5.4891353, 8.507681, -0.01132828, 0.23654175, 10.125373
785253107142022, 0.29790643, 5.1828537, 8.725428, -0.016032815, -0.14026737, 10.152039
785253116781084, 0.20219351, 4.999803, 8.414361, -0.100877106, -0.12942219, 9.788437
785253126420043, 0.37447673, 5.6578293, 8.670393, 0.095311105, 0.28142834, 10.355611
785253136059105, 0.19142582, 4.601398, 8.310273, -0.13795269, -0.4150703, 9.490988
785253145698064, 0.40797627, 5.956932, 8.628518, 0.16390991, 0.54472303, 10.477559
785253155337126, 0.18305093, 4.496114, 8.383254, -0.16288704, -0.5464313, 9.497494
785253164976084, 0.38285163, 5.9294147, 8.446664, 0.14608002, 0.61377954, 10.307892
785253174615147, 0.29192436, 4.6971107, 8.3784685, -0.053073645, -0.38863254, 9.601715
785253184254105, 0.38404804, 5.5262237, 8.281559, 0.13732594, 0.35398102, 9.95624
785253193893168, 0.38763726, 5.1003013, 8.474181, 0.0750711, -0.10674143, 9.897377
785253203532126, 0.2835495, 4.996214, 8.206185, -0.012530208, -0.047410488, 9.611536
785253213171189, 0.37088752, 5.508278, 8.510074, 0.10640383, 0.21548319, 10.141118
785253222810251, 0.148355, 4.546363, 8.269595, -0.19098455, -0.44196057, 9.425806
785253232449209, 0.38285163, 5.9246287, 8.646464, 0.14822835, 0.4929452, 10.475885
785253242088272, 0.18664017, 4.5224347, 8.426325, -0.19038755, -0.545393, 9.547592
785253251727230, 0.3589234, 5.936593, 8.550752, 0.12153256, 0.5586982, 10.40002
785253261366293, 0.22253251, 4.7078786, 8.525627, -0.13363677, -0.44788003, 9.730444
785253271005251, 0.32183465, 5.6506505, 8.462217, 0.0597986, 0.36959124, 10.173614
785253280644314, 0.3182454, 5.1026945, 8.663215, -0.009027541, -0.189435, 10.05754
785253290283272, 0.2632105, 5.087141, 8.421539, -0.041646063, -0.07732248, 9.841896
785253299922334, 0.37208393, 5.564509, 8.740981, 0.08450675, 0.15243721, 10.367092
785253309561293, 0.18065812, 4.6492543, 8.362915, -0.15103436, -0.40491557, 9.560322
785253319200355, 0.37686956, 5.8887367, 8.610572, 0.11986965, 0.49318886, 10.426101
785253328839418, 0.101694964, 4.475775, 8.391629, -0.23989972, -0.5637436, 9.491416
785253338478376, 0.27517462, 5.936593, 8.595019, 0.03227955, 0.5496907, 10.435038
785253348117439, 0.15672988, 4.6564326, 8.567501, -0.18350953, -0.505538, 9.737544
785253357756397, 0.31345975, 5.690132, 8.507681, 0.062217116, 0.38334894, 10.23258
785253367395459, 0.31106696, 5.078766, 8.62134, 0.0059332848, -0.18551254, 10.009181
785253377034418, 0.28235307, 5.180461, 8.335398, 0.009321988, 0.04837036, 9.81801
785253386673480, 0.42831525, 5.5262237, 8.59143, 0.16026574, 0.19361544, 10.221159
785253396312543, 0.28713873, 4.6767716, 8.267202, -0.024490714, -0.34793067, 9.496294
785253405951501, 0.49052864, 5.8683977, 8.63809, 0.24732721, 0.44543695, 10.442018
785253415590564, 0.24765715, 4.4841495, 8.372486, -0.095593214, -0.56228805, 9.483784
785253425229522, 0.4438686, 5.9353967, 8.5220375, 0.21092284, 0.56720924, 10.377132
785253434868584, 0.2656033, 4.6097727, 8.380861, -0.07381928, -0.46291208, 9.5571785
785253444507647, 0.36011982, 5.6877394, 8.298309, 0.1413393, 0.4773426, 10.05456
785253454146605, 0.25124636, 5.0045886, 8.447861, -0.04528761, -0.16428423, 9.82071
785253463785668, 0.21296121, 5.239085, 8.274381, -0.04430586, 0.1297946, 9.794894
785253473424626, 0.27996024, 5.4891353, 8.596215, 0.020463169, 0.16860771, 10.201719
785253483063689, 0.1591227, 5.0751767, 8.423932, -0.12151867, -0.07822561, 9.83486
785253492702751, 0.2009971, 5.255835, 8.6548395, -0.07927877, -0.049574375, 10.127275
785253502341709, 0.18903299, 5.1924253, 8.56152, -0.08878398, -0.053491592, 10.014284
785253511980772, 0.20338993, 5.198407, 8.49452, -0.065629184, -0.013909817, 9.960783
785253521619730, 0.23449662, 5.229514, 8.4813595, -0.02817446, 0.016205788, 9.966705
785253531258793, 0.2416751, 5.211568, 8.495717, -0.022052526, -0.0062437057, 9.96973
785253540897855, 0.2548356, 5.2223353, 8.4909315, -0.0039171576, 0.00438118, 9.971642
785253550536814, 0.24047868, 5.211568, 8.496913, -0.019759536, -0.005895138, 9.970727
785253560175876, 0.26081768, 5.231907, 8.553144, -0.0019900799, -0.019994259, 10.029793
785253569814939, 0.2632105, 5.1996036, 8.611769, -0.007011652, -0.07630873, 10.062895
785253579453897, 0.27756742, 5.2307105, 8.612965, 0.010306716, -0.051387787, 10.0805645
785253589092959, 0.32303107, 5.265406, 8.539984, 0.06540948, 0.009428024, 10.037719
785253598731918, 0.32662028, 5.252246, 8.43111, 0.07648569, 0.054100037, 9.938191
785253608370980, 0.317049, 5.2259245, 8.410771, 0.060985804, 0.040949345, 9.906891
785253618010043, 0.2847459, 5.215157, 8.383254, 0.030332565, 0.04984045, 9.876966
785253627649001, 0.27158538, 5.2163534, 8.389236, 0.014329612, 0.048619747, 9.882349
785253637288064, 0.2416751, 5.1900325, 8.435896, -0.021728158, 0.0055594444, 9.907507
785253646927126, 0.2416751, 5.186443, 8.49811, -0.027441204, -0.028860092, 9.958608
785253656566084, 0.23928227, 5.1852465, 8.572288, -0.035376787, -0.06714678, 10.021097
785253666205147, 0.22731815, 5.1996036, 8.610572, -0.049338937, -0.073431015, 10.060897
785253675844209, 0.2213361, 5.198407, 8.55793, -0.050809026, -0.045339108, 10.0152855
785253685483168, 0.21415763, 5.2055855, 8.489735, -0.051068842, -0.002998352, 9.960772
785253695122230, 0.23090738, 5.2139606, 8.477771, -0.032050133, 0.00870657, 9.95541
785253704761293, 0.23569304, 5.221139, 8.486146, -0.02573812, 0.008316994, 9.966433
785253714400251, 0.22851457, 5.2283173, 8.478967, -0.031789184, 0.018876553, 9.963885
785253724039314, 0.25962126, 5.2342997, 8.457432, 0.0036696196, 0.030810356, 9.949496
785253733678376, 0.25603202, 5.2307105, 8.469396, -0.0011547208, 0.021972656, 9.957713
785253743317334, 0.2739782, 5.2426744, 8.469396, 0.017016888, 0.02984333, 9.964445
785253752956397, 0.30867413, 5.2510495, 8.492127, 0.049087882, 0.021539211, 9.989101
785253762595459, 0.30508488, 5.252246, 8.489735, 0.041184366, 0.023712158, 9.9876175
785253772234418, 0.28953153, 5.2402816, 8.475378, 0.025960743, 0.022623062, 9.968712
785253781873480, 0.28953153, 5.2307105, 8.453842, 0.025182724, 0.025332928, 9.945369
785253791512543, 0.27996024, 5.2199426, 8.46461, 0.01281786, 0.011370182, 9.948643
785253801151501, 0.26919255, 5.2008, 8.441878, 0.0025939941, 0.0077142715, 9.918975
785253810790564, 0.2548356, 5.18405, 8.4682, -0.015138328, -0.018536568, 9.932228
785253820429626, 0.21894327, 5.194818, 8.543573, -0.05577612, -0.043195248, 10.001085
785253830068584, 0.2321038, 5.1960144, 8.545966, -0.042620003, -0.044266224, 10.00411
785253839707647, 0.23688944, 5.198407, 8.543573, -0.037626207, -0.04069853, 10.003456
785253849346709, 0.25004998, 5.2139606, 8.52802, -0.022519529, -0.020543575, 9.998707
785253858985772, 0.25124636, 5.2402816, 8.510074, -0.018308401, 0.011416912, 9.997229
785253868624730, 0.2644069, 5.241478, 8.469396, -0.0019491911, 0.03191662, 9.963566
785253878263793, 0.28235307, 5.2486563, 8.43111, 0.020514607, 0.05413866, 9.93521
785253887902855, 0.25962126, 5.261817, 8.472985, -0.0049604177, 0.04658842, 9.977143
785253897541814, 0.28594232, 5.255835, 8.486146, 0.020866513, 0.029018402, 9.985939
785253907180876, 0.28115666, 5.2366924, 8.478967, 0.015049934, 0.017072678, 9.969671
785253916819939, 0.27876383, 5.2139606, 8.49452, 0.009884834, -0.010919094, 9.970945
785253926459001, 0.27158538, 5.211568, 8.482556, 0.0035814643, -0.0064501762, 9.959312
785253936097959, 0.25722843, 5.2008, 8.4813595, -0.011668265, -0.012718201, 9.952269
785253945737022, 0.276371, 5.204389, 8.469396, 0.008881688, -0.005516529, 9.944475
785253955376084, 0.2943172, 5.209175, 8.419147, 0.031487048, 0.022407055, 9.904678
785253965015043, 0.29671, 5.2223353, 8.409575, 0.03605932, 0.03800869, 9.903485
785253974654105, 0.28235307, 5.235496, 8.410771, 0.021823108, 0.05097103, 9.911011
785253984293168, 0.2739782, 5.229514, 8.456235, 0.0075953603, 0.024028301, 9.946364
785253993932230, 0.2847459, 5.2366924, 8.49452, 0.014590144, 0.009450436, 9.983015
785254003571189, 0.25842485, 5.241478, 8.532805, -0.015443444, -0.0017619133, 10.017406
785254013210251, 0.2943172, 5.24746, 8.560323, 0.016125381, -0.013576508, 10.044957
785254022849314, 0.31226337, 5.2426744, 8.553144, 0.034104764, -0.016266823, 10.036833
785254032488272, 0.3397808, 5.24746, 8.508878, 0.062639296, 0.007534981, 10.002417
785254042127334, 0.34337005, 5.252246, 8.480164, 0.06963605, 0.025485992, 9.980565
785254051766397, 0.31106696, 5.235496, 8.46102, 0.034540117, 0.02527666, 9.954607
785254061405459, 0.28713873, 5.2019963, 8.446664, 0.008809626, 0.00757885, 9.924173
785254071044418, 0.2727818, 5.2031927, 8.469396, -0.0073794723, -0.0019397736, 9.943755
785254080683480, 0.28235307, 5.1960144, 8.520842, -0.002888143, -0.0357275, 9.984075
785254090322543, 0.27756742, 5.1924253, 8.560323, -0.012209177, -0.058230877, 10.015683
785254099961605, 0.24646074, 5.2139606, 8.579466, -0.043406725, -0.045697212, 10.04238
785254109600564, 0.26081768, 5.235496, 8.563912, -0.027405858, -0.020271778, 10.04081
785254119239626, 0.24765715, 5.2486563, 8.517252, -0.036459982, 0.0169487, 10.007581
785254128878689, 0.27038896, 5.227121, 8.493324, -0.015021861, 0.008214951, 9.976582
785254138517751, 0.29312077, 5.237889, 8.392825, 0.018654585, 0.06411791, 9.897295
785254148156709, 0.31465617, 5.231907, 8.362915, 0.043568492, 0.06959677, 9.869321
785254157795772, 0.28115666, 5.209175, 8.438289, 0.0010225773, 0.015508175, 9.920638
785254167434834, 0.22731815, 5.1996036, 8.455039, -0.052867353, 0.006272793, 9.928364
785254177073793, 0.17826529, 5.1732826, 8.446664, -0.10076338, -0.0049128532, 9.906089
785254186712855, 0.18065812, 5.1816573, 8.46102, -0.09646827, -0.0047249794, 9.92279
785254196351918, 0.22492532, 5.197211, 8.478967, -0.05277568, -0.007314682, 9.947444
785254205990980, 0.26081768, 5.197211, 8.480164, -0.015624106, -0.013174057, 9.949463
785254215630043, 0.2835495, 5.188836, 8.46102, 0.0072063804, -0.013185501, 9.929405
785254225269001, 0.29671, 5.209175, 8.484949, 0.018972397, -0.009487629, 9.960796
785254234908064, 0.30867413, 5.2366924, 8.5220375, 0.029553235, -0.006526947, 10.007118
785254244547126, 0.3182454, 5.235496, 8.5016985, 0.04058385, 0.002005577, 9.989439
785254254186189, 0.3397808, 5.2402816, 8.475378, 0.064296365, 0.016392708, 9.970137
785254263825147, 0.31345975, 5.2498527, 8.443074, 0.04162854, 0.044225216, 9.94691
785254273464209, 0.29790643, 5.237889, 8.408379, 0.027555883, 0.05259466, 9.910677
785254283103272, 0.26919255, 5.227121, 8.408379, -0.0020377636, 0.045481205, 9.904243
785254292742334, 0.25722843, 5.2008, 8.43111, -0.017628849, 0.0127801895, 9.909472
785254302381293, 0.25004998, 5.194818, 8.4909315, -0.030392647, -0.02139616, 9.957068
785254312020355, 0.27996024, 5.2008, 8.565108, -0.0067902803, -0.05663967, 10.024198
785254321659418, 0.32063824, 5.218746, 8.554341, 0.034989238, -0.038822174, 10.025576
785254331298480, 0.3361916, 5.1924253, 8.458628, 0.055071294, -0.013066769, 9.930735
785254340937439, 0.28115666, 5.2031927, 8.440681, 0.0028045177, 0.011736393, 9.919537
785254350576501, 0.2644069, 5.2259245, 8.500503, -0.016955137, 0.0013780594, 9.981907
785254360215564, 0.29790643, 5.2331033, 8.532805, 0.017115593, -0.014908314, 10.014109
785254369854626, 0.28713873, 5.255835, 8.529217, 0.008656621, 0.007510662, 10.022657
785254379493584, 0.28235307, 5.2486563, 8.505288, 0.0062589645, 0.0133981705, 9.99839
785254389132647, 0.276371, 5.2366924, 8.475378, 0.0027270317, 0.018177986, 9.9664955
785254398771709, 0.25124636, 5.2342997, 8.411968, -0.01575613, 0.05054283, 9.910571
785254408410772, 0.25722843, 5.209175, 8.359326, -0.0077738166, 0.055710793, 9.852759
785254418049834, 0.3074777, 5.2031927, 8.379665, 0.040308177, 0.033479214, 9.868323
785254427688793, 0.32422748, 5.231907, 8.416754, 0.05591196, 0.03699112, 9.915403
785254437327855, 0.30269206, 5.2127643, 8.41795, 0.032886505, 0.022528172, 9.905798
785254446966918, 0.276371, 5.18405, 8.446664, 0.003356874, -0.014303207, 9.914469
785254456605980, 0.25603202, 5.1625147, 8.475378, -0.020078301, -0.044950485, 9.92707