timestamp_acc,device_acc_x,device_acc_y,device_acc_z,earth_acc_x,earth_acc_y,earth_acc_z
1134739802878758, -1.4991034, 7.2502527, 6.562316, 0.496145, 0.08945751, 9.88045
1134739812518133, -1.5170496, 7.190432, 6.5742803, 0.4415654, 0.060020447, 9.850193
1134739822157508, -1.5541383, 7.111469, 6.652047, 0.34736276, -0.016088486, 9.854803
1134739831796779, -1.5625132, 7.0337024, 6.847062, 0.25627482, -0.18529367, 9.934618
1134739841436154, -1.5361922, 6.9942207, 6.963114, 0.22490871, -0.29287767, 9.981361
1134739851075529, -1.5194423, 7.068398, 7.0289164, 0.24647737, -0.2885313, 10.076342
1134739860714904, -1.5517455, 7.159325, 6.9702926, 0.27454758, -0.18338871, 10.106426
1134739870354279, -1.6474584, 7.1617184, 6.8925257, 0.20243311, -0.075683594, 10.07296
1134739879993550, -1.7778672, 7.1222367, 6.899704, 0.07050347, -0.039458275, 10.074049
1134739889632925, -1.9082761, 7.070791, 6.971489, -0.08102584, -0.047796726, 10.110907
1134739899272300, -2.0063818, 7.018149, 7.02772, -0.19693089, -0.063621044, 10.130448
1134739908911675, -2.0171494, 6.9966135, 7.0002027, -0.20099247, -0.04869747, 10.098593
1134739918551050, -1.9992033, 6.9930243, 6.957132, -0.16218853, -0.031096935, 10.06348
1134739928190320, -1.9381863, 6.96431, 6.873383, -0.10310376, -0.018678188, 9.974499
1134739937829695, -1.8939191, 6.9224358, 6.7334027, -0.045425653, 0.028596401, 9.840878
1134739947469070, -1.9130617, 6.867401, 6.6759753, -0.06950009, 0.045712948, 9.766409
1134739957108445, -1.9322042, 6.754938, 6.6592255, -0.13320386, 0.004106045, 9.679367
1134739966747820, -1.9609182, 6.661618, 6.5886374, -0.17391634, 0.01043272, 9.570901
1134739976387091, -1.9920249, 6.6424756, 6.48096, -0.17475736, 0.08738661, 9.489748
1134739986026466, -1.9740787, 6.6735826, 6.4211397, -0.12876976, 0.13561058, 9.4673
1134739995665841, -1.989632, 6.68435, 6.34098, -0.107981324, 0.19904041, 9.423159
1134740005305216, -1.975275, 6.7908306, 6.346962, -0.04481125, 0.24280548, 9.499477
1134740014944591, -1.9585253, 6.8721867, 6.4295144, -0.013973951, 0.22089481, 9.610018
1134740024583862, -1.9968106, 6.943971, 6.526424, -0.03737533, 0.21261406, 9.734146
1134740034223237, -2.082952, 6.940382, 6.707082, -0.15504837, 0.13074207, 9.871748
1134740043862612, -2.0805593, 6.8949184, 6.8458657, -0.20516145, 0.014936447, 9.934394
1134740053501987, -2.0135603, 6.943971, 6.920043, -0.14186835, -0.03574133, 10.006936
1134740063141362, -1.9884356, 6.995417, 6.930811, -0.09887755, -0.022737026, 10.045673
1134740072780633, -1.9381863, 6.9798636, 6.9475603, -0.06769121, -0.06738663, 10.036659
1134740082420008, -1.8317057, 7.0145597, 7.0097737, 0.021831632, -0.13884974, 10.083469
1134740092059383, -1.8077775, 7.042077, 6.862615, 0.0887866, -0.02999878, 9.99728
1134740101698758, -1.8305093, 7.01097, 6.6819572, 0.096156955, 0.09138298, 9.855731
1134740111338133, -1.8113668, 7.0002027, 6.6185474, 0.12125051, 0.12123346, 9.8010025
1134740120977404, -1.7228323, 7.0540414, 6.664011, 0.2091825, 0.080311775, 9.853249
1134740130616779, -1.6773686, 7.0899334, 6.7848487, 0.23361337, -0.0028595924, 9.952904
1134740140256154, -1.6271194, 7.0576305, 6.873383, 0.24165869, -0.10337639, 9.981581
1134740149895529, -1.5409778, 7.0396843, 6.856633, 0.30209363, -0.14073992, 9.941536
1134740159534904, -1.5194423, 7.038488, 6.769295, 0.3371501, -0.08894491, 9.876781
1134740169174175, -1.5278172, 6.963114, 6.73101, 0.3029518, -0.1038537, 9.799138
1134740178813550, -1.5110675, 6.91765, 6.7645097, 0.28524148, -0.15370798, 9.787277
1134740188452925, -1.4691931, 6.9092755, 6.7704916, 0.3148477, -0.18405104, 9.777687
1134740198092300, -1.457229, 6.9224358, 6.6676, 0.35677636, -0.10859871, 9.71398
1134740207731675, -1.6019948, 6.9499536, 6.587441, 0.26720107, 0.03423834, 9.705157
1134740217371050, -1.774278, 6.9894347, 6.6257257, 0.13229704, 0.11715078, 9.791286
1134740227010320, -1.841277, 7.0492554, 6.77767, 0.06838524, 0.08240414, 9.950258
1134740236649695, -1.9106688, 7.166504, 6.9882383, 0.018845677, 0.037742138, 10.190346
1134740246289070, -1.9669002, 7.210771, 7.210771, -0.05761659, -0.06031847, 10.385189
1134740255928445, -1.9944177, 7.1581287, 7.3399835, -0.1346215, -0.1610117, 10.442596
1134740265567820, -2.0003998, 7.0983086, 7.34118, -0.16160262, -0.1902337, 10.402798
1134740275207091, -2.0350957, 7.02772, 7.23111, -0.19623733, -0.13816214, 10.284056
1134740284846466, -2.065006, 6.9296145, 7.0576305, -0.21292114, -0.06323099, 10.101714
1134740294485841, -2.1296122, 6.795616, 6.908079, -0.28596318, -0.008252144, 9.917426
1134740304125216, -2.2002003, 6.6556363, 6.7525454, -0.36506736, 0.051417828, 9.726219
1134740313764591, -2.2851455, 6.5611196, 6.613762, -0.45060098, 0.13180399, 9.580793
1134740323403966, -2.3246272, 6.5144596, 6.5754766, -0.4818368, 0.13599539, 9.530388
1134740333043237, -2.2947168, 6.4977098, 6.5659056, -0.4562428, 0.11132288, 9.506657
1134740342682612, -2.2660031, 6.5048885, 6.567102, -0.42849052, 0.10096979, 9.506912
1134740352321987, -2.219343, 6.519245, 6.617351, -0.3876406, 0.049141884, 9.542677
1134740361961362, -2.1762722, 6.5647087, 6.7094746, -0.3459189, -0.010462284, 9.629583
1134740371600737, -2.184647, 6.5886374, 6.7872415, -0.35539913, -0.050139904, 9.70158
1134740381240008, -2.201397, 6.5838513, 6.8805614, -0.3879937, -0.114258766, 9.765847
1134740390879383, -2.2002003, 6.6053867, 6.957132, -0.39109826, -0.15435314, 9.833459
1134740400518758, -2.1547368, 6.6891356, 6.9332037, -0.30491543, -0.107773304, 9.866721
1134740410158133, -2.091327, 6.7968125, 6.855437, -0.18457925, -0.022949219, 9.875867
1134740419797508, -2.050649, 6.8805614, 6.7645097, -0.09095371, 0.06875229, 9.863716
1134740429436779, -1.9800607, 6.948757, 6.727421, 0.007053256, 0.0972209, 9.871909
1134740439076154, -1.8520447, 7.004988, 6.643672, 0.15980399, 0.12403536, 9.828396
1134740448715529, -1.7001005, 7.1102724, 6.4845495, 0.37126935, 0.21382284, 9.7627945
1134740458354904, -1.6570296, 7.1473613, 6.3314085, 0.459409, 0.31986237, 9.674911
1134740467994279, -1.5565311, 7.1102724, 6.378069, 0.5099497, 0.21563005, 9.661882
1134740477633654, -1.4799608, 7.097112, 6.518049, 0.52750146, 0.06980896, 9.734531
1134740487272925, -1.4931214, 7.0863442, 6.5718875, 0.47498333, 0.034846306, 9.767731
1134740496912300, -1.5230316, 7.0803623, 6.611369, 0.4277557, 0.02547741, 9.7968235
1134740506551675, -1.5278172, 7.079166, 6.658029, 0.41279364, -0.0087275505, 9.828921
1134740516191050, -1.5601203, 7.092326, 6.7836523, 0.3481239, -0.065732, 9.931138
1134740525830425, -1.6474584, 7.0779696, 6.966703, 0.22749329, -0.15606356, 10.06333
1134740535469695, -1.7156538, 7.0301127, 7.0839515, 0.11625242, -0.22787094, 10.123383
1134740545109070, -1.7515461, 7.031309, 7.1425757, 0.05962169, -0.24391317, 10.171556
1134740554748445, -1.7515461, 7.0672016, 7.0779696, 0.09073305, -0.17866421, 10.152376
1134740564387820, -1.7216359, 7.099505, 6.975078, 0.14221632, -0.1035552, 10.098898
1134740574027195, -1.719243, 7.1210403, 6.8913293, 0.17044425, -0.037162304, 10.056093
1134740583666466, -1.7778672, 7.088737, 6.775277, 0.13234472, 0.05124855, 9.964699
1134740593305841, -1.8053846, 7.0133634, 6.658029, 0.10120654, 0.10183954, 9.836433
1134740602945216, -1.8281165, 6.9116683, 6.5515485, 0.0629679, 0.12580442, 9.696194
1134740612584591, -1.9166509, 6.812366, 6.5443697, -0.047371864, 0.1091342, 9.638285
1134740622223966, -1.98365, 6.728617, 6.573084, -0.15010321, 0.07576084, 9.611781
1134740631863341, -2.0051854, 6.728617, 6.6017976, -0.16541302, 0.061025143, 9.635752
1134740641502612, -2.0195422, 6.735796, 6.652047, -0.18672764, 0.03466034, 9.677975
1134740651141987, -2.0219352, 6.7812595, 6.759724, -0.18831885, -0.01507616, 9.784267
1134740660781362, -2.032703, 6.8422766, 6.8662047, -0.18951797, -0.0506711, 9.902269
1134740670420737, -2.024328, 6.9056864, 6.954739, -0.16866636, -0.08016491, 10.005995
1134740680060112, -2.012364, 6.9655066, 6.966703, -0.12919843, -0.05932045, 10.053987
1134740689699383, -2.03031, 6.936793, 6.928418, -0.14428079, -0.03900194, 10.011087
1134740699338758, -2.0338993, 6.897311, 6.876972, -0.1491921, -0.022639275, 9.94885
1134740708978133, -2.012364, 6.8518476, 6.7609205, -0.1203177, 0.020745754, 9.833238
1134740718617508, -1.9645073, 6.8315086, 6.6221366, -0.053779244, 0.08100271, 9.714527
1134740728256883, -1.8915263, 6.8506513, 6.5347986, 0.0402627, 0.1161685, 9.6539
1134740737896154, -1.8484555, 6.903293, 6.5276203, 0.10122049, 0.12501001, 9.677614
1134740747535529, -1.8496519, 6.8865438, 6.526424, 0.09140408, 0.11831617, 9.665276
1134740757174904, -1.881955, 6.928418, 6.524031, 0.08057785, 0.15509367, 9.699339
1134740766814279, -1.8640088, 6.9966135, 6.5635123, 0.1151129, 0.1562295, 9.770834
1134740776453654, -1.7934206, 7.038488, 6.6245294, 0.17982793, 0.10359001, 9.828426
1134740786092925, -1.7730815, 7.042077, 6.73101, 0.16941524, 0.021450043, 9.900101
1134740795732300, -1.7670995, 6.9822564, 6.800402, 0.13153255, -0.063853264, 9.904474
1134740805371675, -1.814956, 6.937989, 6.782456, 0.07268548, -0.05098009, 9.870339
1134740815011050, -1.8987048, 6.843473, 6.7322063, -0.029592395, -0.025724411, 9.785666
1134740824650320, -1.9609182, 6.792027, 6.6759753, -0.08683932, 0.019002914, 9.723043
1134740834289695, -2.0422742, 6.788438, 6.6460648, -0.1521095, 0.07505369, 9.715718
1134740843929070, -2.097309, 6.6281185, 6.6795645, -0.2775544, -0.008747578, 9.636915
1134740853568445, -1.9262222, 7.26102, 7.01097, 0.08594692, 0.031115055, 10.27512
1134740863207820, -2.0949163, 6.289534, 6.672386, -0.43503797, -0.17838383, 9.393965
1134740872847091, -1.8317057, 7.658229, 7.2933235, 0.28369284, 0.00788784, 10.729196
1134740882486466, -1.9298115, 6.337391, 6.674779, -0.27260852, -0.22483969, 9.397579
1134740892125841, -1.9573289, 7.5589266, 7.312466, 0.119885325, 0.0035905838, 10.697023
1134740901765216, -1.902294, 6.5647087, 6.8781686, -0.19523156, -0.24788666, 9.691427
1134740911404591, -2.1176481, 7.0875406, 7.1473613, -0.18830228, -0.039299965, 10.284233
1134740921043862, -1.8544376, 6.966703, 7.0061846, 0.0121454, -0.14496517, 10.051833
1134740930683237, -2.1655045, 6.5742803, 6.775277, -0.37587368, -0.03335476, 9.678459
1134740940322612, -1.8376877, 7.375876, 6.9894347, 0.23041546, 0.07430792, 10.32348
1134740949961987, -2.0338993, 6.2213387, 6.3278193, -0.31494498, 0.015906334, 9.098553
1134740959601362, -1.753939, 7.598408, 6.838687, 0.4504751, 0.24336481, 10.35942
1134740969240633, -1.8101703, 6.215357, 6.1878395, -0.09178591, -0.016554356, 8.954779
1134740978880008, -1.7264216, 7.507481, 6.7836523, 0.4428507, 0.20846081, 10.252863
1134740988519383, -1.672583, 6.4594245, 6.270392, 0.11360288, -0.02329874, 9.155657
1134740998158758, -1.9082761, 7.058827, 6.6245294, 0.106274605, 0.16957855, 9.864732
1134741007798029, -1.7001005, 6.8542404, 6.573084, 0.19325638, -0.011736393, 9.645668
1134741017437404, -2.0135603, 6.5431733, 6.5204415, -0.20545173, 0.027451515, 9.4520235
1134741027076779, -1.7300107, 7.308877, 6.802795, 0.32832718, 0.08813, 10.1279335
1134741036716154, -2.050649, 6.253642, 6.3661046, -0.33151782, -0.0014858246, 9.150442
1134741046355425, -1.875973, 7.588837, 7.051648, 0.28036892, 0.14567661, 10.5231
1134741055994800, -2.062613, 6.15434, 6.474978, -0.4170816, -0.11535168, 9.157967
1134741065634175, -1.9381863, 7.5828547, 7.0959153, 0.21723008, 0.14833069, 10.561206
1134741075273550, -1.841277, 6.599405, 6.6161547, -0.04884553, -0.08725834, 9.523968
1134741084912820, -1.922633, 7.3459654, 7.015756, 0.13623345, 0.073524, 10.337147
1134741094552195, -1.6857436, 7.048059, 6.843473, 0.2286998, -0.083468914, 9.964474
1134741104191570, -2.012364, 6.745367, 6.8075805, -0.18237495, -0.04773283, 9.7906685
1134741113830945, -1.7359928, 7.368697, 7.1066833, 0.2779653, -0.054372787, 10.379601
1134741123470320, -2.0614166, 6.2847486, 6.7130637, -0.41608906, -0.19945526, 9.412748
1134741133109591, -1.9118652, 7.530213, 7.320841, 0.15172541, -0.025034904, 10.673819
1134741142748966, -2.1762722, 6.0777693, 6.600601, -0.57538617, -0.17595577, 9.213107
1134741152388341, -2.1272194, 7.4787674, 7.164111, -0.0078099966, 0.16410446, 10.571401
1134741162027716, -2.036292, 6.381658, 6.6221366, -0.30956018, -0.09561825, 9.413807
1134741171666987, -2.053042, 7.274181, 7.045666, -0.003951311, 0.096664906, 10.332509
1134741181306362, -1.7336, 6.948757, 6.800402, 0.16897464, -0.07146406, 9.8743305
1134741190945737, -1.9561325, 6.838687, 6.7609205, -0.0656935, 0.0075674057, 9.813244
1134741200585112, -1.6618153, 7.3782687, 6.876972, 0.40699506, 0.050028324, 10.213964
1134741210224383, -1.9944177, 6.3254266, 6.375676, -0.25221276, 0.009458065, 9.196428
1134741219863758, -1.7324036, 7.5792656, 6.910472, 0.429389, 0.17454767, 10.3916445
1134741229503133, -1.9645073, 6.145965, 6.2751775, -0.2855941, -0.038220406, 8.995945
1134741239142508, -1.8807586, 7.5122666, 6.940382, 0.26754296, 0.1943121, 10.393795
1134741248781779, -1.8628124, 6.2883377, 6.4091754, -0.16278374, -0.1102252, 9.167997
1134741258421154, -1.9094725, 7.2418776, 6.927222, 0.11455202, 0.06703329, 10.200964
1134741268060529, -1.6498512, 6.8315086, 6.7669024, 0.18146968, -0.1698389, 9.752985
1134741277699904, -1.8532411, 6.8303123, 6.8279195, -0.009358168, -0.11263037, 9.833381
1134741287339175, -1.5254245, 7.3579297, 6.9523463, 0.4809432, -0.09044886, 10.22554
1134741296978550, -1.8891335, 6.4534426, 6.4701924, -0.13430274, -0.04759121, 9.330532
1134741306617925, -1.7096717, 7.598408, 6.963114, 0.4418161, 0.12447834, 10.437101
1134741316257300, -2.024328, 6.1435723, 6.385247, -0.369447, -0.077438354, 9.081315
1134741325896570, -1.9884356, 7.542177, 7.001399, 0.18015611, 0.20815134, 10.477697
1134741335535945, -2.03031, 6.2644095, 6.364908, -0.30270243, -0.0074853897, 9.153433
1134741345175320, -2.091327, 7.2873416, 6.8195443, 0.019583821, 0.2500472, 10.194227
1134741354814695, -1.8364913, 6.7836523, 6.558727, 0.063955426, 0.0323143, 9.612619
1134741364453966, -2.0267208, 6.9355965, 6.6927247, -0.059883833, 0.11255932, 9.848168
1134741374093341, -1.6809579, 7.30768, 6.859026, 0.36874592, 0.020724297, 10.15567
1134741383732716, -1.969293, 6.458228, 6.5742803, -0.20877409, -0.08991814, 9.421058
1134741393371987, -1.6905292, 7.6031938, 7.119844, 0.4370005, 0.0057635307, 10.543607
1134741403011362, -1.9525433, 6.204589, 6.501299, -0.29119766, -0.1790061, 9.190178
1134741412650737, -1.9070797, 7.550552, 7.1066833, 0.25452387, 0.099571705, 10.539357
1134741422290112, -2.0494525, 6.135197, 6.498906, -0.39794552, -0.15152836, 9.159443
1134741431929383, -2.1667008, 7.166504, 6.99781, -0.10517609, 0.10295153, 10.247003
1134741441568758, -2.032703, 6.5575304, 6.593423, -0.1823287, -0.011636257, 9.516981
1134741451208133, -2.2384856, 6.8255267, 6.7011, -0.24605608, 0.16365671, 9.819167
1134741460847404, -1.9405792, 7.1222367, 6.7740808, 0.13123322, 0.11192989, 10.01751
1134741470486779, -2.2325034, 6.3864436, 6.5168524, -0.40646875, 0.053376675, 9.384669
1134741480126154, -1.8783658, 7.509874, 7.0600233, 0.2956289, 0.0913887, 10.472567
1134741489765529, -2.0470598, 6.131608, 6.4414787, -0.35303342, -0.12563324, 9.118075
1134741499404800, -1.9010975, 7.5469627, 7.0301127, 0.30733526, 0.13916683, 10.482342
1134741509044175, -2.0075781, 6.1734824, 6.411568, -0.2823863, -0.10842943, 9.119154
1134741518683550, -2.1272194, 7.3028946, 7.0205417, 0.02071166, 0.13862038, 10.350155
1134741528322925, -1.9645073, 6.5850477, 6.7429743, -0.12214482, -0.13346195, 9.625858
1134741537962195, -2.1954148, 6.9009004, 6.942775, -0.21248639, 0.013787746, 10.029907
1134741547601570, -1.9058832, 7.0731835, 6.8925257, 0.12812328, -0.0047545433, 10.057473
1134741557240945, -2.1774685, 6.428318, 6.6185474, -0.34484196, -0.014485836, 9.473684
1134741566880216, -1.7850457, 7.452446, 7.1449685, 0.34631932, -0.035378456, 10.471615
1134741576519591, -1.969293, 6.1268225, 6.5946193, -0.31177688, -0.26979113, 9.205166
1134741586158966, -1.7790636, 7.542177, 7.1545396, 0.38647556, 7.338524E-4, 10.539809
1134741595798237, -1.9405792, 6.1675005, 6.4295144, -0.23429298, -0.14288664, 9.114124
1134741605437612, -1.9968106, 7.381858, 6.9655066, 0.1728555, 0.16223955, 10.341234
1134741615076987, -1.9250258, 6.558727, 6.62094, -0.072064996, -0.072728634, 9.515724
1134741624716362, -2.164308, 7.01097, 7.031309, -0.15679562, 0.0076384544, 10.161328
1134741634355633, -1.8795621, 7.133004, 7.131808, 0.119840145, -0.1368928, 10.258757
1134741643995008, -2.172683, 6.5742803, 6.954739, -0.35769987, -0.16543293, 9.805854
1134741653634383, -1.8508483, 7.5122666, 7.3639116, 0.2671653, -0.104491234, 10.677298
1134741663273654, -2.036292, 6.215357, 6.7573314, -0.35831797, -0.29643202, 9.392679
1134741672913029, -1.7515461, 7.628319, 7.2023964, 0.4510094, 0.027386189, 10.626829
1134741682552404, -1.8604196, 6.1974106, 6.3014984, -0.11386526, -0.08560085, 9.030928
1134741692191675, -1.9046868, 7.442875, 6.7011, 0.33900845, 0.3379941, 10.1833105
1134741701831050, -1.9106688, 6.498906, 6.222535, 0.0034930706, 0.14493418, 9.19703
1134741711470425, -2.219343, 6.9535427, 6.532406, -0.11622417, 0.31945133, 9.789484
1134741721109800, -2.0171494, 6.882954, 6.5431733, 0.025907755, 0.1788826, 9.706926
1134741730749070, -2.3437698, 6.4343, 6.4331036, -0.43363297, 0.16440535, 9.384201
1134741740388445, -1.9944177, 7.3375907, 6.869794, 0.20096588, 0.17385149, 10.244091
1134741750027820, -2.2169502, 6.1208405, 6.40439, -0.46084213, -0.038594246, 9.120411
1134741759667091, -1.9369899, 7.5517483, 7.07438, 0.30269265, 0.115330696, 10.522488
1134741769306466, -1.975275, 6.166304, 6.4438715, -0.24511588, -0.16633558, 9.130211
1134741778945841, -1.8137596, 7.4907312, 7.0085773, 0.38238573, 0.0734911, 10.410057
1134741788585112, -1.7084754, 6.518049, 6.4845495, 0.12891912, -0.13565111, 9.349771
1134741798224487, -1.9992033, 7.058827, 6.7669024, 0.07248831, 0.10343504, 9.979923
1134741807863862, -1.9286151, 6.8195443, 6.725028, 0.03207624, -0.026988983, 9.769852
1134741817503133, -2.3437698, 6.4151573, 6.687939, -0.4992031, -0.025024414, 9.546004
1134741827142508, -2.0398812, 7.3052874, 7.1007013, 0.091994524, 0.039515972, 10.389334
1134741836781883, -2.2612174, 6.2488565, 6.5407805, -0.46882498, -0.05004835, 9.312401
1134741846421154, -1.9381863, 7.7383885, 7.070791, 0.38587248, 0.25087166, 10.650046
1134741856060529, -1.9381863, 6.3421764, 6.3457656, -0.10379577, -0.009335518, 9.178108
1134741865699904, -1.820938, 7.665407, 6.946364, 0.47057366, 0.2306552, 10.490549
1134741875339279, -1.7180467, 6.5431733, 6.4737816, 0.12207937, -0.100865364, 9.362135
1134741884978550, -1.8640088, 7.1856465, 6.893722, 0.20430195, 0.02646637, 10.128624
1134741894617925, -1.6151553, 6.893722, 6.798009, 0.2897234, -0.1834526, 9.809561
1134741904257300, -1.9082761, 6.5647087, 6.7932234, -0.11054778, -0.20731115, 9.634812
1134741913896570, -1.6319051, 7.2658057, 7.1102724, 0.3765576, -0.18292427, 10.287653
1134741923535945, -1.9740787, 6.2237315, 6.686743, -0.30808353, -0.27247095, 9.336765
1134741933175320, -1.8029919, 7.5900335, 7.3375907, 0.3322482, -0.06963396, 10.704411
1134741942814591, -2.0410776, 6.202196, 6.7094746, -0.37826717, -0.25869846, 9.35095
1134741952453966, -1.975275, 7.635497, 7.3028946, 0.21998346, 0.06590128, 10.746258
1134741962093341, -1.9238294, 6.541977, 6.664011, -0.10494864, -0.103256226, 9.533413
1134741971732612, -2.0841484, 7.328019, 6.890133, 0.08560479, 0.23866749, 10.269041
1134741981371987, -1.8317057, 6.960721, 6.5850477, 0.19313824, 0.12043285, 9.752837
1134741991011362, -2.1272194, 6.7728844, 6.518049, -0.12995315, 0.20884895, 9.634392
1134742000650633, -1.841277, 7.2873416, 6.769295, 0.2967831, 0.16780472, 10.10954
1134742010290008, -2.158326, 6.1806607, 6.4211397, -0.4155115, -0.031038761, 9.160587
1134742019929383, -1.8891335, 7.4069824, 7.04447, 0.25587642, 0.06215906, 10.391701
1134742029568654, -2.0458634, 5.979664, 6.448657, -0.4198991, -0.21259356, 9.016962
1134742039208029, -1.9345971, 7.368697, 7.112665, 0.17946982, 0.018584728, 10.421028
1134742048847404, -1.9824536, 6.151947, 6.6125655, -0.31305814, -0.2644167, 9.237678
1134742058486675, -2.1738794, 7.0815587, 7.0504518, -0.13732123, 0.02941084, 10.225624
1134742068126050, -1.9932213, 6.7130637, 6.802795, -0.09272778, -0.0834589, 9.762203
1134742077765425, -2.1738794, 6.704689, 6.7968125, -0.24606323, 0.0100393295, 9.788496
1134742087404695, -1.7659031, 7.2586274, 6.960721, 0.3258164, -0.011131287, 10.2054615
1134742097044070, -2.0255244, 6.3254266, 6.5288167, -0.23856747, -0.078921795, 9.3099985
1134742106683445, -1.7180467, 7.507481, 7.0528445, 0.45935822, 0.0353446, 10.432847
1134742116322716, -1.9764715, 6.088537, 6.3050876, -0.2609613, -0.078167915, 8.980905
1134742125962091, -2.0386848, 7.4512496, 6.8195443, 0.21648252, 0.32093954, 10.297264
1134742135601466, -2.1882362, 6.1495543, 6.206982, -0.38249934, 0.12138796, 8.998387
1134742145240737, -2.3198416, 7.1342006, 6.6245294, -0.120833516, 0.42558956, 9.998358
1134742154880112, -2.099702, 6.698707, 6.468996, -0.09627712, 0.18939972, 9.543804
1134742164519487, -2.201397, 6.8410797, 6.7058854, -0.17106593, 0.15669632, 9.826576
1134742174158758, -1.7599211, 7.3160553, 7.001399, 0.35284555, -0.0061807632, 10.272148
1134742183798133, -1.9680966, 6.448657, 6.7226353, -0.18373013, -0.1772995, 9.517731
1134742193437508, -1.6594225, 7.5864444, 7.2358956, 0.49876976, -0.0730834, 10.6024475
1134742203076779, -1.948954, 6.1567326, 6.5958157, -0.2792555, -0.25378418, 9.223133
1134742212716154, -1.8053846, 7.580462, 7.2323065, 0.37247515, 0.022974014, 10.624962
1134742222355529, -1.8233309, 6.3326054, 6.6676, -0.10629976, -0.256485, 9.3705
1134742231994800, -1.8795621, 7.351948, 7.166504, 0.21315515, -0.021664143, 10.435363
1134742241634175, -1.7228323, 6.698707, 6.814759, 0.12236798, -0.20051146, 9.707039
1134742251273550, -1.9130617, 6.91765, 6.7812595, 0.06903708, 0.036531925, 9.8738575
1134742260912820, -1.6462619, 7.26102, 6.771688, 0.4601413, 0.100037575, 10.053189
1134742270552195, -2.056631, 6.4331036, 6.471389, -0.2137698, 0.052904606, 9.351198
1134742280191570, -1.9190438, 7.5230346, 7.0695944, 0.27933848, 0.16976023, 10.495289
1134742289830841, -2.2588246, 6.1208405, 6.5946193, -0.55392873, -0.09659004, 9.259579
1134742299470216, -2.1906292, 7.507481, 7.3543406, -0.0052998066, 0.10306406, 10.73484
1134742309109591, -2.2552354, 6.1806607, 6.780063, -0.55927634, -0.18922377, 9.429068
1134742318748862, -2.2624137, 7.314859, 7.27777, -0.14165533, 0.08469772, 10.562405
1134742328388237, -2.062613, 6.580262, 6.8542404, -0.21633136, -0.11923599, 9.719764
1134742338027612, -2.2899313, 6.8039913, 6.9009004, -0.3150977, 0.074044704, 9.952675
1134742347666883, -1.9657038, 6.969096, 6.942775, 0.035479426, -0.023192406, 10.03158
1134742357306258, -2.2229323, 6.236892, 6.710671, -0.47705638, -0.1336298, 9.41424
1134742366945633, -1.9345971, 7.2095747, 7.1282187, 0.1314131, -0.036877155, 10.320538
1134742376585008, -2.2181466, 5.8564334, 6.4594245, -0.58956516, -0.1804781, 8.975634
1134742386224279, -1.9908284, 7.351948, 7.0492554, 0.16717935, 0.12349272, 10.376095
1134742395863654, -2.0111675, 6.0658054, 6.384051, -0.30024636, -0.11349726, 9.027285
1134742405503029, -2.0315065, 7.2646093, 6.971489, 0.09765065, 0.15331507, 10.269869
1134742415142300, -1.774278, 6.538388, 6.786045, 0.016582489, -0.2400589, 9.585983
1134742424781675, -1.9405792, 6.957132, 6.9344, 0.028314471, -0.035139084, 10.012562
1134742434421050, -1.6893328, 7.105487, 6.815955, 0.32656455, 0.00416708, 9.984606
1134742444060320, -1.9680966, 6.489335, 6.418747, -0.1147778, 0.07891083, 9.336263
1134742453699695, -1.7084754, 7.428518, 6.7669024, 0.4712081, 0.21364021, 10.179639
1134742463339070, -2.0470598, 6.166304, 6.2105713, -0.2915088, 0.08156443, 8.982946
1134742472978341, -1.8735801, 7.6103725, 6.9678993, 0.36289704, 0.26101875, 10.477591
1134742482617716, -1.9310079, 6.218946, 6.5276203, -0.25065517, -0.15921068, 9.215516
1134742492257091, -1.869991, 7.4452677, 7.2897344, 0.20012975, -0.050815105, 10.584257
1134742501896362, -1.747957, 6.6077795, 6.9535427, -0.020233035, -0.32472038, 9.744947
1134742511535737, -1.922633, 7.1545396, 7.203593, 0.027628064, -0.11401653, 10.332565
1134742521175112, -1.5146568, 7.194021, 7.1413794, 0.39640057, -0.24130344, 10.238754
1134742530814383, -1.774278, 6.698707, 6.927222, -0.018523097, -0.23794985, 9.795417
1134742540453758, -1.5146568, 7.6223364, 7.2550383, 0.5586494, -0.08521271, 10.616519
1134742550093133, -1.8053846, 6.4091754, 6.65444, -0.11917925, -0.19166088, 9.411036
1134742559732404, -1.5756737, 7.856833, 7.301698, 0.59078264, 0.024050236, 10.824867
1134742569371779, -1.6905292, 6.463014, 6.68435, -0.012871742, -0.24286842, 9.447211
1134742579011154, -1.6642082, 7.7096744, 7.2263246, 0.45052874, 0.039539814, 10.687558
1134742588650425, -1.5840486, 6.695118, 6.674779, 0.17368507, -0.17255068, 9.582618
1134742598289800, -1.8125632, 7.2346992, 6.795616, 0.20000327, 0.13796759, 10.087002
1134742607929175, -1.625923, 7.0492554, 6.5288167, 0.33444417, 0.1293211, 9.738197
1134742617568445, -2.0315065, 6.5491557, 6.303891, -0.18118918, 0.20587349, 9.310333
1134742627207820, -1.8041883, 7.280163, 6.68435, 0.26300836, 0.21064806, 10.041058
1134742636847195, -2.0925233, 6.111269, 6.204589, -0.40650427, 0.045718193, 8.947393
1134742646486466, -1.8855443, 7.519445, 6.820741, 0.28832805, 0.2646103, 10.31827
1134742656125841, -2.0697916, 6.067002, 6.096912, -0.37219834, 0.087539196, 8.838478
1134742665765216, -2.053042, 7.4069824, 6.6185474, 0.15106153, 0.41663265, 10.133467
1134742675404487, -1.98365, 6.3972116, 6.2261243, -0.16868412, 0.11601353, 9.142313
1134742685043862, -2.1750758, 7.09113, 6.650851, -0.09664631, 0.2836008, 9.957867
1134742694683237, -1.9046868, 6.906883, 6.73101, 0.03159523, -0.005862713, 9.830481
1134742704322612, -2.1918256, 6.617351, 6.782456, -0.3575561, -0.047220707, 9.719315
1134742713961883, -1.8771694, 7.3363943, 7.21436, 0.15381896, -0.11638117, 10.457354
1134742723601258, -2.2384856, 6.181857, 6.8243303, -0.605314, -0.2843318, 9.452534
1134742733240633, -2.0470598, 7.5146594, 7.496713, 0.039245605, -0.122712135, 10.809472
1134742742879904, -2.1918256, 6.0921264, 6.820741, -0.59407187, -0.35428715, 9.378815
1134742752519279, -2.0602202, 7.470392, 7.298109, 0.052941084, -0.0037941933, 10.644756
1134742762158654, -1.9764715, 6.398408, 6.65444, -0.22388792, -0.1689148, 9.436577
1134742771797925, -2.0925233, 7.1808605, 6.906883, -0.005424738, 0.12657166, 10.18
1134742781437300, -1.8640088, 6.862615, 6.6771717, 0.09429264, -0.00258255, 9.754268
1134742791076675, -2.1164517, 6.6628146, 6.5228343, -0.17189848, 0.12392759, 9.559023
1134742800716050, -1.7934206, 7.2861447, 6.7166533, 0.35457206, 0.14039421, 10.063412
1134742810355320, -2.1212373, 6.2201424, 6.2201424, -0.3122567, 0.100652695, 9.042809
1134742819994695, -1.9250258, 7.489535, 6.8482585, 0.31317997, 0.21815395, 10.322394
1134742829634070, -2.158326, 6.040681, 6.2668023, -0.43823624, -0.013402462, 8.957052
1134742839273341, -2.1008983, 7.459625, 7.036095, 0.1151247, 0.17062616, 10.465374
1134742848912716, -2.0638096, 6.32423, 6.562316, -0.28707445, -0.12063694, 9.339283
1134742858552091, -2.1415763, 7.2502527, 6.9762745, -0.0035412312, 0.1242547, 10.286179
1134742868191362, -1.8687944, 6.873383, 6.79442, 0.0897733, -0.086863995, 9.842983
1134742877830737, -2.0925233, 6.7740808, 6.690332, -0.12417734, 0.041632652, 9.747318
1134742887470112, -1.7647067, 7.3196445, 6.8650084, 0.368124, 0.05064392, 10.182419
1134742897109487, -2.070988, 6.3314085, 6.4881387, -0.27388966, -0.061266422, 9.294779
1134742906748758, -1.7934206, 7.5637126, 7.186843, 0.3756286, -0.026220322, 10.579935
1134742916388133, -2.0111675, 6.1710896, 6.6676, -0.34877074, -0.29730463, 9.293761
1134742926027508, -1.969293, 7.6199436, 7.3196445, 0.21745932, 0.004216671, 10.7457695
1134742935666779, -2.0267208, 6.3888364, 6.7465634, -0.27458823, -0.22585583, 9.503395
1134742945306154, -2.0482562, 7.367501, 7.1784678, 0.06563163, 0.011193752, 10.488155
1134742954945529, -1.7946169, 6.906883, 6.916454, 0.12944591, -0.17690372, 9.935541
1134742964584904, -2.053042, 6.9092755, 6.923632, -0.0922246, -0.05943775, 9.993883
1134742974224175, -1.8017955, 7.2299137, 7.024131, 0.24984026, -0.06834078, 10.236671
1134742983863550, -2.1367905, 6.245267, 6.5647087, -0.39163017, -0.13497353, 9.300163
1134742993502925, -1.8364913, 7.408179, 6.9595246, 0.31328094, 0.08187008, 10.32395
1134743003142195, -2.024328, 6.068198, 6.1974106, -0.29840255, -0.043061256, 8.901571
1134743012781570, -1.8580267, 7.554141, 6.802795, 0.39883828, 0.27497387, 10.322823
1134743022420945, -1.9082761, 6.2727847, 6.24766, -0.11732674, -0.024503231, 9.05584
1134743032060320, -1.989632, 7.3567333, 6.789634, 0.191926, 0.22903585, 10.202451
1134743041699591, -1.7874385, 6.8279195, 6.5850477, 0.16805911, -0.021493912, 9.651402
1134743051338966, -2.0183458, 6.99781, 6.6532435, 0.035464168, 0.13469934, 9.863533
1134743060978341, -1.774278, 7.318448, 6.8099732, 0.3575425, 0.07820177, 10.146402
1134743070617612, -2.1702902, 6.4031935, 6.4570317, -0.328853, 0.023715973, 9.343212
1134743080256987, -1.9645073, 7.4847493, 6.960721, 0.24226964, 0.15306377, 10.404339
1134743089896362, -2.2468605, 6.1196437, 6.3385873, -0.49714231, -0.00451231, 9.079038
1134743099535737, -2.0494525, 7.5661054, 6.9798636, 0.20547628, 0.21730042, 10.491676
1134743109175008, -1.989632, 6.2261243, 6.3493547, -0.23116517, -0.08933401, 9.109125
1134743118814383, -2.0386848, 7.2753773, 6.77767, 0.13355637, 0.19643545, 10.147303
1134743128453758, -1.9334008, 6.5694947, 6.4199433, -0.034351826, 0.01774931, 9.386719
1134743138093133, -2.160719, 6.8171515, 6.5515485, -0.13829327, 0.17181635, 9.696205
1134743147732404, -1.8340986, 7.1102724, 6.7381887, 0.23363507, 0.03691101, 9.963289
1134743157371779, -2.1212373, 6.4677997, 6.641279, -0.29286087, -0.08933306, 9.504995
1134743167011154, -1.7850457, 7.5720873, 7.3196445, 0.35064352, -0.13927126, 10.675099
1134743176650425, -1.9501505, 6.2584276, 6.775277, -0.27974057, -0.37475586, 9.415768
1134743186289800, -1.7156538, 7.7419777, 7.3663044, 0.47154534, -0.1041708, 10.812536
1134743195929175, -1.7946169, 6.3792653, 6.73101, -0.08674276, -0.3455577, 9.439028
1134743205568550, -1.8951155, 7.466803, 7.2442703, 0.21308339, -0.060330868, 10.5723715
1134743215207820, -1.8233309, 6.65444, 6.847062, -0.016863108, -0.25815153, 9.71707
1134743224847195, -2.0721843, 7.0097737, 6.987042, -0.09079647, -0.04041004, 10.111367
1134743234486570, -1.7970098, 7.143772, 6.9535427, 0.21452248, -0.07990599, 10.127295
1134743244125945, -2.0925233, 6.5144596, 6.5898337, -0.24427044, -0.024490356, 9.496446
1134743253765216, -1.7563318, 7.533802, 7.007381, 0.43462968, 0.054904938, 10.428535
1134743263404591, -1.9776679, 6.235696, 6.3828545, -0.22165132, -0.0943203, 9.136622
1134743273043966, -1.8747765, 7.6139617, 6.9535427, 0.38633144, 0.2003417, 10.471369
1134743282683341, -2.0482562, 6.1328044, 6.2081785, -0.28947067, -0.002131939, 8.959036
1134743292322612, -2.0494525, 7.361519, 6.6532435, 0.18653011, 0.3494048, 10.124277
1134743301961987, -1.9609182, 6.489335, 6.317052, -0.066517115, 0.06865883, 9.265671
1134743311601362, -2.056631, 7.004988, 6.559923, 0.03841281, 0.21883059, 9.812382
1134743321240737, -1.7754744, 7.076773, 6.5575304, 0.31304908, 0.123603344, 9.80413
1134743330880008, -2.1954148, 6.4618177, 6.337391, -0.28390348, 0.14389896, 9.307855
1134743340519383, -2.0051854, 7.292127, 6.77767, 0.17147613, 0.19699812, 10.15207
1134743350158758, -2.306681, 6.020342, 6.2919273, -0.56953907, 6.914139E-5, 8.99051
1134743359798133, -2.099702, 7.4344997, 6.96431, 0.13157618, 0.19152308, 10.398468
1134743369437404, -2.1798615, 6.0717874, 6.317052, -0.43409717, -0.04935646, 9.018463
1134743379076779, -2.1164517, 7.4045897, 6.8446693, 0.12607694, 0.26796293, 10.298986
1134743388716154, -2.0255244, 6.474978, 6.363712, -0.12182653, 0.066740036, 9.300839
1134743398355529, -2.2552354, 7.0468626, 6.6329045, -0.115927696, 0.29638338, 9.931691
1134743407994800, -2.0757737, 6.9942207, 6.73101, -0.010034919, 0.11727381, 9.925755
1134743417634175, -2.4095724, 6.626922, 6.798009, -0.4856261, 0.0575037, 9.78243
1134743427273550, -2.062613, 7.52782, 7.470392, 0.077173114, -0.10447264, 10.8033495
1134743436912925, -2.251646, 6.3397837, 7.1688967, -0.5744797, -0.42737246, 9.8052635
1134743446552300, -1.9322042, 7.7120676, 7.834101, 0.19227922, -0.30153227, 11.155924
1134743456191570, -1.9716859, 6.2404814, 7.0337024, -0.34888887, -0.5131955, 9.587442
1134743465830945, -1.8364913, 7.5349984, 7.3579297, 0.29722905, -0.09644556, 10.685991
1134743475470320, -1.7599211, 6.458228, 6.7573314, -0.0056728125, -0.2986822, 9.50675
1134743485109695, -1.9597218, 7.0935225, 6.9332037, 0.083117485, 0.024535656, 10.11041
1134743494748966, -1.747957, 6.8709903, 6.7537417, 0.20014119, -0.07538366, 9.78944
1134743504388341, -2.0338993, 6.580262, 6.680761, -0.16357112, -0.047460556, 9.593756
1134743514027716, -1.6307086, 7.3639116, 7.1066833, 0.45187438, -0.10657358, 10.352575
1134743523667091, -1.8951155, 6.242874, 6.5982084, -0.19044507, -0.24279118, 9.273947
1134743533306466, -1.6857436, 7.5828547, 7.1509504, 0.49192035, 2.412796E-4, 10.546825
1134743542945737, -1.9034904, 6.122037, 6.4558353, -0.2191397, -0.21355295, 9.093229
1134743552585112, -1.9094725, 7.5326056, 7.048059, 0.3029846, 0.15714884, 10.48546
1134743562224487, -1.8161523, 6.5443697, 6.6460648, 0.016426444, -0.1519146, 9.501264
1134743571863862, -1.9669002, 7.409375, 7.02772, 0.19622087, 0.12545538, 10.397219
1134743581503237, -1.7455641, 7.1102724, 6.8051877, 0.28664076, -0.0010204315, 9.991566
1134743591142508, -2.0494525, 6.7836523, 6.5778694, -0.08189678, 0.11562204, 9.667807
1134743600781883, -1.6893328, 7.399804, 6.802795, 0.46316934, 0.10811043, 10.181491
1134743610421258, -1.9944177, 6.3457656, 6.361319, -0.19502127, -0.014581203, 9.20188
1134743620060633, -1.9453648, 7.420143, 6.643672, 0.29531384, 0.33722496, 10.138067
1134743629700008, -2.2624137, 5.9413786, 5.959325, -0.5102308, 0.18248701, 8.697035
1134743639339279, -2.2289143, 7.3926253, 6.6424756, 0.051277995, 0.45311928, 10.175142
1134743648978654, -2.0255244, 6.270392, 6.3361945, -0.23367345, -0.022780418, 9.138535
1134743658618029, -2.0590239, 7.207182, 6.948757, 0.040692806, 0.06327295, 10.2206955
1134743668257404, -1.8460627, 6.856633, 6.9116683, 0.06300092, -0.19771004, 9.9070425
1134743677896779, -2.184647, 6.680761, 6.890133, -0.30489564, -0.10407591, 9.837447
1134743687536050, -1.9369899, 7.190432, 7.1473613, 0.08038151, -0.13225126, 10.320614
1134743697175425, -2.2707887, 6.1974106, 6.650851, -0.55392957, -0.13977623, 9.352636
1134743706814800, -1.9992033, 7.4787674, 7.1306114, 0.17441654, 0.06847572, 10.523272
1134743716454175, -2.1535404, 6.0957155, 6.3254266, -0.4166808, -0.031467915, 9.035036
1134743726093550, -2.0027926, 7.521838, 6.7669024, 0.28835, 0.3508916, 10.304073
1134743735732820, -2.0015962, 6.2871413, 6.142376, -0.15034509, 0.11863136, 9.012583
1134743745372195, -2.1164517, 7.2011995, 6.468996, 0.11522937, 0.43406916, 9.89863
1134743755011570, -1.9334008, 6.7011, 6.3086767, 0.06367946, 0.18878508, 9.40226
1134743764650945, -2.1918256, 6.6687965, 6.4761744, -0.21739161, 0.18764591, 9.546482
1134743774290320, -1.8795621, 7.153343, 6.9224358, 0.17120337, -0.01603365, 10.128851
1134743783929695, -2.1774685, 6.2883377, 6.73101, -0.45209396, -0.18205786, 9.4527
1134743793568966, -1.869991, 7.5326056, 7.4584284, 0.2254858, -0.1752615, 10.760279
1134743803208341, -2.1571295, 6.148358, 6.937989, -0.54855, -0.39502525, 9.493907
1134743812847716, -2.14038, 7.5409803, 7.649854, -0.039805293, -0.1432395, 10.951977
1134743822487091, -2.2157538, 6.2668023, 7.153343, -0.58707905, -0.4294467, 9.737741
1134743832126466, -2.1332014, 7.2083783, 7.5026956, -0.15248287, -0.20527983, 10.617737
1134743841765841, -1.9657038, 6.9499536, 7.079166, -0.035969377, -0.13928652, 10.112357
1134743851405112, -1.8855443, 7.0372915, 6.8578296, 0.12242818, 0.012964249, 10.00467
1134743861044487, -1.8532411, 6.9212394, 6.579066, 0.15690613, 0.12056589, 9.725381
1134743870683862, -1.835295, 6.882954, 6.445068, 0.17564297, 0.17633963, 9.60314
1134743880323237, -1.8568304, 6.77767, 6.3278193, 0.13243437, 0.21402597, 9.453178
1134743889962612, -1.9202402, 6.6963143, 6.2644095, 0.049422383, 0.240726, 9.365383
1134743899601987, -1.9680966, 6.73101, 6.350551, 0.0027800798, 0.22410488, 9.458286
1134743909241258, -1.9513469, 6.769295, 6.593423, -0.026863456, 0.069512844, 9.648771
1134743918880633, -1.9657038, 6.775277, 6.882954, -0.112493396, -0.11495781, 9.854824
1134743928520008, -1.9980069, 6.7704916, 7.036095, -0.17646539, -0.20825052, 9.963118
1134743938159383, -1.9920249, 6.7764735, 7.0863442, -0.18122113, -0.23807526, 10.000776
1134743947798758, -1.9345971, 6.812366, 7.0229344, -0.10465407, -0.19314337, 9.971176
1134743957438133, -1.8400806, 6.8985076, 6.963114, 0.025498867, -0.14121008, 9.971945
1134743967077404, -1.7778672, 6.9523463, 6.873383, 0.11936569, -0.07356024, 9.935778
1134743976716779, -1.7407784, 6.9798636, 6.771688, 0.17166877, 7.6675415E-4, 9.878011
1134743986356154, -1.7694924, 6.9966135, 6.704689, 0.16927767, 0.07089424, 9.849004
1134743995995529, -1.7623138, 7.015756, 6.698707, 0.17761755, 0.08418369, 9.85701
1134744005634904, -1.7407784, 7.0348988, 6.7932234, 0.1746471, 0.022704124, 9.931615
1134744015274279, -1.8053846, 6.9942207, 6.908079, 0.07245231, -0.04807186, 9.994625
1134744024913654, -1.9166509, 6.9332037, 7.0097737, -0.073774934, -0.09794378, 10.043146
1134744034553029, -1.9800607, 6.908079, 7.0803623, -0.1539793, -0.12923145, 10.086294
1134744044192300, -2.0219352, 6.867401, 7.133004, -0.22080922, -0.16476965, 10.102142
1134744053831675, -1.9992033, 6.8506513, 7.064809, -0.19440043, -0.13634062, 10.039093
1134744063471050, -1.8436699, 6.9044895, 6.875776, 0.005624056, -0.048802853, 9.916903
1134744073110425, -1.6570296, 6.99781, 6.611369, 0.2657652, 0.09408331, 9.764517
1134744082749800, -1.5158532, 7.088737, 6.37089, 0.4769423, 0.23811054, 9.635979
1134744092389175, -1.5266209, 7.0504518, 6.2404814, 0.4605677, 0.30179596, 9.522596
1134744102028550, -1.6307086, 6.96431, 6.3194447, 0.31339383, 0.25031757, 9.536002
1134744111667820, -1.7156538, 6.8721867, 6.5611196, 0.13462389, 0.070103645, 9.653791
1134744121307195, -1.8017955, 6.823134, 6.735796, -0.008339286, -0.03369379, 9.755582
1134744130946570, -1.8831514, 6.8171515, 6.826723, -0.10338795, -0.05608225, 9.829046
1134744140585945, -1.9046868, 6.8410797, 6.899704, -0.12780964, -0.07781839, 9.900087
1134744150225320, -1.8795621, 6.9056864, 6.9894347, -0.09766102, -0.10789156, 10.002613
1134744159864695, -1.8293129, 6.9798636, 7.0612197, -0.0400064, -0.13632584, 10.094826
1134744169504070, -1.7455641, 7.066005, 6.99781, 0.08625519, -0.085484505, 10.096041
1134744179143445, -1.6354942, 7.1066833, 6.940382, 0.20844996, -0.072631836, 10.064789
1134744188782820, -1.5684953, 7.1007013, 6.916454, 0.26252055, -0.090914726, 10.031963
1134744198422091, -1.585245, 7.045666, 6.9128647, 0.21734154, -0.10977793, 9.994139
1134744208061466, -1.6235301, 6.995417, 6.897311, 0.1606915, -0.10629225, 9.955276
1134744217700841, -1.6749759, 6.969096, 6.8853474, 0.105504274, -0.08665085, 9.937968
1134744227340216, -1.7491534, 6.971489, 6.826723, 0.059897542, -0.008977413, 9.912703
1134744236979591, -1.8340986, 6.9726853, 6.8422766, -0.013067484, 0.022452354, 9.939735
1134744246618966, -1.8460627, 6.948757, 6.923632, -0.054062605, -0.040315628, 9.981248
1134744256258341, -1.8795621, 6.9355965, 6.9415784, -0.09008241, -0.044338703, 9.99053
1134744265897716, -1.9381863, 6.9009004, 6.936793, -0.15152276, -0.031516075, 9.973672
1134744275537091, -1.9645073, 6.8243303, 6.91765, -0.20067513, -0.04775524, 9.911715
1134744285176362, -1.9764715, 6.8111696, 6.862615, -0.1982814, -0.012842178, 9.8668375
1134744294815737, -1.9884356, 6.806384, 6.808777, -0.18749404, 0.019687653, 9.828764
1134744304455112, -1.9932213, 6.7561345, 6.775277, -0.20275295, 0.014687061, 9.771456
1134744314094487, -2.012364, 6.7322063, 6.7465634, -0.218853, 0.028222084, 9.7385645
1134744323733862, -2.0111675, 6.768099, 6.7429743, -0.19504046, 0.048666, 9.761109
1134744333373237, -1.9908284, 6.7369924, 6.7441707, -0.18814862, 0.01812315, 9.736456
1134744343012612, -2.0386848, 6.7034926, 6.666404, -0.22535062, 0.0767746, 9.668366
1134744352651987, -2.0925233, 6.6999035, 6.5778694, -0.24394584, 0.15559626, 9.615196
1134744362291362, -2.1080768, 6.707082, 6.5898337, -0.25673652, 0.15887213, 9.631392
1134744371930737, -2.0614166, 6.707082, 6.650851, -0.2286787, 0.0928483, 9.664744
1134744381570112, -2.0183458, 6.762117, 6.629315, -0.16157389, 0.11308527, 9.680334
1134744391209383, -1.9920249, 6.800402, 6.686743, -0.1377356, 0.082136154, 9.741688
1134744400848758, -1.9334008, 6.8195443, 6.79442, -0.10565162, -0.0077590942, 9.818205
1134744410488133, -1.8795621, 6.863812, 6.788438, -0.03857231, -0.0028853416, 9.834942
1134744420127508, -1.8017955, 6.9116683, 6.7022963, 0.070016384, 0.045311928, 9.79446
1134744429766883, -1.8329022, 6.9188466, 6.5742803, 0.07475352, 0.1545763, 9.717081
1134744439406258, -1.841277, 6.8913293, 6.458228, 0.074436665, 0.22496557, 9.619422
1134744449045633, -1.8448663, 6.9116683, 6.468996, 0.07227814, 0.23164463, 9.6417675
1134744458685008, -1.8005991, 6.9044895, 6.5814586, 0.08195794, 0.12895584, 9.705997
1134744468324383, -1.7706888, 6.906883, 6.7034926, 0.06519234, 0.038896084, 9.786287
1134744477963758, -1.7228323, 6.9415784, 6.832705, 0.09184134, -0.05315113, 9.890818
1134744487603133, -1.6953149, 6.957132, 6.9116683, 0.08749735, -0.099214554, 9.951355
1134744497242508, -1.605584, 6.99781, 6.9882383, 0.16483057, -0.17251444, 10.016278
1134744506881883, -1.5457634, 7.051648, 7.0636125, 0.21425831, -0.21684504, 10.095385
1134744516521154, -1.4991034, 7.094719, 7.111469, 0.25370693, -0.24176455, 10.150494
1134744526160529, -1.4895321, 7.1162543, 7.117451, 0.26410472, -0.22983599, 10.168348
1134744535799904, -1.4488541, 7.1509504, 7.0803623, 0.3193028, -0.19347811, 10.1600895
1134744545439279, -1.4189439, 7.153343, 7.01097, 0.343938, -0.15533161, 10.109154
1134744555078654, -1.3519448, 7.200003, 6.9726853, 0.4316696, -0.13777494, 10.103504
1134744564718029, -1.3710874, 7.222735, 6.914061, 0.42499077, -0.06966734, 10.082983
1134744574357404, -1.4644074, 7.1808605, 6.8889365, 0.32660174, -0.03255415, 10.052809
1134744583996779, -1.570888, 7.125826, 6.882954, 0.20997608, -0.004520893, 10.02876
1134744593636154, -1.6414764, 7.088737, 6.9128647, 0.12567997, -0.011661053, 10.035757
1134744603275529, -1.6486548, 7.09113, 6.942775, 0.11334908, -0.027489185, 10.059359
1134744612914904, -1.6977077, 7.0672016, 6.906883, 0.072114944, 0.0012054443, 10.026335
1134744622554279, -1.82692, 6.928418, 6.7848487, -0.06968212, 0.06823063, 9.867384
1134744632193654, -1.9058832, 6.8398833, 6.7764735, -0.17551732, 0.0644331, 9.81336
1134744641833029, -1.8747765, 6.8303123, 6.7585278, -0.14462924, 0.049597263, 9.788885
1134744651472404, -1.8903298, 6.8171515, 6.7094746, -0.15127361, 0.0835042, 9.748544
1134744661111779, -1.9417756, 6.8279195, 6.65444, -0.17447054, 0.14796543, 9.727291
1134744670751154, -2.0015962, 6.7728844, 6.6927247, -0.25547433, 0.11438036, 9.725872
1134744680390425, -2.0673988, 6.6831536, 6.7669024, -0.37210155, 0.050909042, 9.725668
1134744690029800, -2.1391835, 6.647261, 6.77767, -0.4469211, 0.057186604, 9.720905
1134744699669175, -2.184647, 6.641279, 6.7872415, -0.48351705, 0.063605785, 9.731808
1134744709308550, -2.1882362, 6.649654, 6.8410797, -0.48876703, 0.0274539, 9.775839
1134744718947925, -2.1762722, 6.666404, 6.897311, -0.47864902, -0.008124828, 9.824503
1134744728587300, -2.1008983, 6.7202425, 6.9678993, -0.40263093, -0.06612873, 9.897503
1134744738226675, -2.050649, 6.7728844, 6.984649, -0.3388716, -0.07113123, 9.936929
1134744747866050, -1.9322042, 6.836294, 7.0301127, -0.21958709, -0.12519407, 9.991343
1134744757505425, -1.7970098, 6.890133, 7.015756, -0.07836485, -0.15124512, 9.994748
1134744767144800, -1.7084754, 6.8925257, 6.9762745, 0.0027900934, -0.16513681, 9.953238
1134744776784175, -1.6462619, 6.899704, 6.8303123, 0.08921158, -0.09194088, 9.846464
1134744786423550, -1.5984055, 6.9128647, 6.6795645, 0.16881597, -0.0060014725, 9.743237
1134744796062925, -1.5517455, 6.977471, 6.582655, 0.25845754, 0.06946564, 9.713535
1134744805702300, -1.5337993, 6.9762745, 6.503692, 0.2921561, 0.11493015, 9.655071
