timestamp_acc,device_acc_x,device_acc_y,device_acc_z,earth_acc_x,earth_acc_y,earth_acc_z
1134950826994968, 7.143772, -1.2167503, 6.2057858, 0.065446734, 0.4127326, 9.531585
1134950836634291, 7.2622166, -1.2634103, 6.2057858, 0.1151737, 0.48810005, 9.622695
1134950846273614, 7.2299137, -1.2813566, 6.2811594, 0.12041044, 0.3999524, 9.653603
1134950855912885, 7.146165, -1.3208381, 6.393622, 0.1331724, 0.25084352, 9.675228
1134950865552208, 7.112665, -1.3447664, 6.512067, 0.1289568, 0.1415801, 9.734922
1134950875191531, 7.153343, -1.3268201, 6.6484575, 0.0817045, 0.08251238, 9.854911
1134950884830802, 7.2059855, -1.3016955, 6.77767, 0.030796409, 0.03886032, 9.977726
1134950894470125, 7.2263246, -1.2861422, 6.8662047, -0.0013768673, -0.007156372, 10.050804
1134950904109448, 7.26102, -1.2873386, 6.9559355, -0.018584013, -0.037321568, 10.137206
1134950913748771, 7.300502, -1.2753744, 7.0205417, -0.043121338, -0.043412685, 10.2082405
1134950923388093, 7.3567333, -1.282553, 7.094719, -0.05020237, -0.037929535, 10.300365
1134950933027364, 7.372287, -1.2753744, 7.1976104, -0.0769068, -0.0985508, 10.381096
1134950942666687, 7.2933235, -1.268196, 7.3100734, -0.10552013, -0.22449636, 10.400795
1134950952306010, 7.251449, -1.2454642, 7.3770723, -0.14228559, -0.2902484, 10.4140005
1134950961945281, 7.2442703, -1.2215359, 7.411768, -0.16839015, -0.305655, 10.429963
1134950971584604, 7.3136625, -1.1593226, 7.4129643, -0.22914112, -0.24912548, 10.4724
1134950981223927, 7.3268228, -1.1138589, 7.3543406, -0.2535982, -0.19431067, 10.435865
1134950990863250, 7.3100734, -1.1018949, 7.2933235, -0.2539519, -0.1622467, 10.380419
1134951000502573, 7.243074, -1.14018, 7.2215385, -0.19979668, -0.16552114, 10.28812
1134951010141843, 7.1617184, -1.2227324, 7.125826, -0.09930408, -0.17503738, 10.174585
1134951019781166, 7.076773, -1.3004991, 6.984649, 0.0011473894, -0.1433506, 10.026804
1134951029420489, 7.0025954, -1.3938192, 6.7836523, 0.1185776, -0.08005762, 9.847667
1134951039059760, 6.95115, -1.4297116, 6.573084, 0.18299043, 0.017762661, 9.671308
1134951048699083, 6.942775, -1.4452649, 6.375676, 0.22545052, 0.13927603, 9.532573
1134951058338406, 6.9762745, -1.4703895, 6.196214, 0.283692, 0.28464365, 9.437267
1134951067977729, 7.055238, -1.5182459, 6.099305, 0.3337016, 0.3868413, 9.435146
1134951077617052, 7.2119675, -1.5230316, 6.1232333, 0.32681954, 0.47242022, 9.565359
1134951087256323, 7.2957163, -1.5086746, 6.1878395, 0.3018639, 0.47907305, 9.668107
1134951096895646, 7.3112698, -1.4907285, 6.32423, 0.2559482, 0.39487505, 9.769924
1134951106534968, 7.3268228, -1.4883357, 6.509674, 0.21660161, 0.2755351, 9.907093
1134951116174291, 7.3232336, -1.4488541, 6.6975107, 0.13990104, 0.14979553, 10.027143
1134951125813614, 7.375876, -1.3830515, 6.91765, 0.03283775, 0.048440456, 10.206216
1134951135452885, 7.420143, -1.3938192, 7.1306114, 0.0036754608, -0.06181097, 10.38475
1134951145092208, 7.4177504, -1.3639089, 7.301698, -0.04314089, -0.155056, 10.496292
1134951154731531, 7.353144, -1.3268201, 7.4129643, -0.10249984, -0.27243757, 10.52124
1134951164370802, 7.300502, -1.2358929, 7.5062847, -0.19616842, -0.35091448, 10.536007
1134951174010125, 7.240681, -1.180858, 7.520642, -0.24409485, -0.38353252, 10.496441
1134951183649448, 7.1581287, -1.1006985, 7.4715886, -0.29798937, -0.38431978, 10.3941555
1134951193288771, 7.1688967, -1.0229317, 7.4237323, -0.36127555, -0.33384562, 10.35902
1134951202928093, 7.1473613, -0.94755775, 7.2705917, -0.40378022, -0.23707294, 10.228632
1134951212567364, 7.129415, -0.94636136, 7.02772, -0.35955828, -0.08214998, 10.04873
1134951222206687, 7.111469, -0.96789676, 6.7908306, -0.29134595, 0.05611992, 9.876091
1134951231846010, 7.0289164, -0.9667004, 6.6257257, -0.26307744, 0.1162858, 9.703487
1134951241485281, 6.9559355, -1.0480564, 6.519245, -0.161075, 0.11889219, 9.58874
1134951251124604, 7.01097, -1.1509477, 6.5048885, -0.058200717, 0.15254927, 9.6314745
1134951260763927, 7.143772, -1.2346965, 6.5718875, 0.012461185, 0.18736744, 9.783272
1134951270403250, 7.2215385, -1.3208381, 6.6556363, 0.079144716, 0.16851997, 9.907475
1134951280042573, 7.2466636, -1.416551, 6.7322063, 0.15684748, 0.11585045, 9.990262
1134951289681843, 7.2418776, -1.4871392, 6.786045, 0.21211302, 0.06483841, 10.032825
1134951299321166, 7.2382884, -1.5493526, 6.8255267, 0.256348, 0.027161598, 10.065519
1134951308960489, 7.29452, -1.5948163, 6.838687, 0.299554, 0.04673052, 10.120731
1134951318599760, 7.3100734, -1.6091732, 6.8662047, 0.29176784, 0.035787106, 10.153076
1134951328239083, 7.2909307, -1.6019948, 6.920043, 0.26420748, -0.011731625, 10.175516
1134951337878406, 7.2861447, -1.6067804, 6.991828, 0.2543962, -0.06609726, 10.221851
1134951347517729, 7.239485, -1.5601203, 6.9990063, 0.19480526, -0.09660673, 10.187389
1134951357157052, 7.186843, -1.5553347, 6.9595246, 0.19785929, -0.104203224, 10.121993
1134951366796323, 7.1545396, -1.5349957, 6.882954, 0.19252813, -0.06757784, 10.0437565
1134951376435646, 7.1545396, -1.4787644, 6.788438, 0.1567601, 0.008072376, 9.9715805
1134951386074968, 7.179664, -1.4727824, 6.7011, 0.16945732, 0.088896275, 9.9289875
1134951395714239, 7.210771, -1.4333007, 6.6915283, 0.1356436, 0.12036705, 9.939478
1134951405353562, 7.203593, -1.4093726, 6.68435, 0.11584616, 0.119600296, 9.926273
1134951414992885, 7.204789, -1.3447664, 6.7381887, 0.041083217, 0.09277105, 9.955416
1134951424632208, 7.233503, -1.2921243, 6.799206, -0.02080667, 0.07274246, 10.010826
1134951434271531, 7.210771, -1.2251252, 6.8279195, -0.09178901, 0.04669857, 10.0053
1134951443910802, 7.1712894, -1.1916257, 6.795616, -0.108780265, 0.046066284, 9.950569
1134951453550125, 7.225128, -1.1724831, 6.798009, -0.12042117, 0.08691454, 9.988397
1134951463189448, 7.2299137, -1.154537, 6.8303123, -0.13650477, 0.07256174, 10.011686
1134951472828718, 7.1772714, -1.1413764, 6.8542404, -0.14686918, 0.024157047, 9.988716
1134951482468041, 7.1629148, -1.1389836, 6.942775, -0.16506028, -0.048790455, 10.038782
1134951492107364, 7.1808605, -1.146162, 7.045666, -0.17203403, -0.103580475, 10.123218
1134951501746635, 7.18445, -1.1353943, 7.1210403, -0.19199419, -0.14905548, 10.176227
1134951511385958, 7.1808605, -1.1186446, 7.159325, -0.21203136, -0.17329359, 10.197895
1134951521025281, 7.1509504, -1.0839486, 7.1365933, -0.23849869, -0.1661253, 10.15665
1134951530664552, 7.1473613, -1.0552348, 7.076773, -0.25276947, -0.12113476, 10.109423
1134951540303875, 7.166504, -1.0408778, 7.0348988, -0.25793064, -0.07275343, 10.092581
1134951549943198, 7.2287173, -1.0851451, 7.0002027, -0.20558918, -0.012328148, 10.118907
1134951559582468, 7.225128, -1.1389836, 6.9906316, -0.15124333, -0.01816225, 10.116594
1134951569221791, 7.245467, -1.2047862, 7.003792, -0.089006424, -0.022919655, 10.148545
1134951578861114, 7.213164, -1.2669996, 7.021738, -0.03353226, -0.06918526, 10.145636
1134951588500437, 7.1617184, -1.2933207, 7.0133634, -0.011329293, -0.107964516, 10.106354
1134951598139760, 7.1377897, -1.3316058, 6.936793, 0.03690803, -0.079068184, 10.04155
1134951607779031, 7.1569324, -1.302892, 6.836294, 0.028397083, 0.008960247, 9.982647
1134951617418354, 7.1856465, -1.253839, 6.695118, -0.0034372807, 0.12641811, 9.900213
1134951627057677, 7.219146, -1.2335001, 6.619744, -0.008531928, 0.20565462, 9.8699665
1134951636696948, 7.2299137, -1.2323036, 6.650851, -0.03348136, 0.17638111, 9.899082
1134951646336271, 7.253842, -1.282553, 6.6927247, -5.6767464E-4, 0.14967155, 9.951549
1134951655975593, 7.2526455, -1.3328022, 6.704689, 0.035935044, 0.12852335, 9.965555
1134951665614864, 7.204789, -1.3854443, 6.754938, 0.07693422, 0.05194664, 9.972413
1134951675254187, 7.1581287, -1.4416757, 6.77767, 0.11306274, -0.008616924, 9.9619875
1134951684893510, 7.1545396, -1.5194423, 6.7585278, 0.19316018, -0.0066871643, 9.956731
1134951694532781, 7.176075, -1.5625132, 6.751349, 0.22419167, 0.009212971, 9.973357
1134951704172104, 7.2215385, -1.5888343, 6.727421, 0.24742961, 0.057279587, 9.993433
1134951713811427, 7.222735, -1.625923, 6.74776, 0.28023183, 0.03909397, 10.013178
1134951723450698, 7.223932, -1.6414764, 6.7932234, 0.28127253, 0.008545876, 10.047304
1134951733090021, 7.2502527, -1.6319051, 6.8518476, 0.25528705, -0.013292313, 10.105036
1134951742729343, 7.24786, -1.6115661, 6.908079, 0.2203126, -0.05080843, 10.138988
1134951752368614, 7.301698, -1.599602, 6.936793, 0.19921541, -0.031621456, 10.195682
1134951762007937, 7.3136625, -1.5744773, 6.9020967, 0.18268847, 0.006231785, 10.17714
1134951771647260, 7.2705917, -1.5732809, 6.8315086, 0.19956732, 0.026891708, 10.097807
1134951781286531, 7.283752, -1.5254245, 6.7728844, 0.16812265, 0.08354902, 10.06065
1134951790925802, 7.2502527, -1.457229, 6.7585278, 0.10870755, 0.078691006, 10.017453
1134951800565125, 7.237092, -1.3603196, 6.77767, 0.010676503, 0.06735754, 10.007902
1134951810204448, 7.2299137, -1.2418749, 6.8303123, -0.104180336, 0.039845467, 10.022707
1134951819843718, 7.2179494, -1.134198, 6.8805614, -0.21928227, 0.011054516, 10.0339
1134951829483041, 7.2119675, -1.0755738, 6.9320073, -0.26950753, -0.019996166, 10.057287
1134951839122364, 7.21436, -1.0169497, 7.0169525, -0.34312767, -0.07002926, 10.109212
1134951848761635, 7.192825, -0.9942178, 7.038488, -0.3596202, -0.09125042, 10.105833
1134951858400958, 7.143772, -0.9906286, 7.0492554, -0.3549621, -0.12694359, 10.077931
1134951868040281, 7.1210403, -1.174876, 7.0169525, -0.14700198, -0.14607191, 10.064007
1134951877679552, 7.2789664, -0.6975078, 7.068398, -0.6228299, -0.009221554, 10.151065
1134951887318875, 7.01097, -1.5146568, 6.879365, 0.22134006, -0.1771121, 9.934444
1134951896958198, 7.196414, -0.3924229, 6.9990063, -0.90730965, 0.03130436, 10.005213
1134951906597468, 7.07438, -1.7718852, 6.780063, 0.49615538, -0.10775185, 9.944742
1134951916236739, 7.210771, -0.39361933, 6.9248285, -0.89535916, 0.10439634, 9.964479
1134951925876062, 7.2765737, -1.7228323, 6.782456, 0.43573368, 0.026398182, 10.086021
1134951935515385, 7.133004, -0.80518484, 6.8745794, -0.4891078, 0.013392448, 9.92716
1134951945154656, 7.338787, -1.4967105, 6.751349, 0.22190893, 0.12048435, 10.080421
1134951954793979, 7.0504518, -1.4691931, 6.63769, 0.2044878, -0.0025906563, 9.792065
1134951964433302, 7.353144, -1.2227324, 6.707082, -0.05286908, 0.2053361, 10.025158
1134951974072573, 7.0731835, -2.0841484, 6.5407805, 0.8183601, -0.02966404, 9.822669
1134951983711843, 7.2670026, -0.99661064, 6.704689, -0.2711718, 0.18673658, 9.93212
1134951993351166, 7.0672016, -2.3928227, 6.5371914, 1.1062677, -0.091721535, 9.857664
1134952002990489, 7.190432, -0.9762716, 6.768099, -0.3413005, 0.09774542, 9.916479
1134952012629760, 7.288538, -2.28036, 6.680761, 0.95560503, -0.0010118484, 10.101595
1134952022269083, 7.2215385, -1.180858, 6.890133, -0.1644926, -0.0038495064, 10.049474
1134952031908406, 7.456035, -1.8436699, 6.9415784, 0.46718907, 0.009654045, 10.342086
1134952041547677, 7.2323065, -1.5182459, 6.9224358, 0.14440405, -0.07434893, 10.124478
1134952051186948, 7.52782, -1.2047862, 7.0265236, -0.17229795, 0.11904192, 10.365702
1134952060826271, 7.207182, -1.8711873, 6.926025, 0.50447166, -0.14357567, 10.155764
1134952070465593, 7.436893, -0.7082755, 7.140183, -0.6758231, 0.057763577, 10.311701
1134952080104864, 7.2323065, -1.969293, 6.9726853, 0.5892149, -0.16951418, 10.218944
1134952089744135, 7.300502, -0.55034924, 7.135397, -0.81859237, 0.009867668, 10.190383
1134952099383458, 7.2023964, -1.8640088, 6.9415784, 0.5205859, -0.16479874, 10.16053
1134952109022781, 7.007381, -0.61734825, 6.96431, -0.704233, -0.10711813, 9.873131
1134952118662052, 7.135397, -1.3519448, 6.832705, 0.055567265, -0.044416428, 9.97108
1134952128301375, 6.863812, -1.0157533, 6.7166533, -0.25362635, -0.10277319, 9.653094
1134952137940698, 7.2670026, -0.8542377, 6.686743, -0.39841717, 0.21695471, 9.901808
1134952147579968, 7.076773, -1.4715859, 6.586244, 0.23107517, 0.060657978, 9.77588
1134952157219239, 7.411768, -0.5204389, 6.823134, -0.74270093, 0.28415442, 10.05624
1134952166858510, 7.179664, -1.9142581, 6.7118673, 0.63582456, -0.03479147, 9.992779
1134952176497833, 7.281359, -0.5371887, 6.96431, -0.75069577, 0.065121174, 10.061838
1134952186137156, 7.243074, -1.989632, 6.8039913, 0.6914247, -0.075155735, 10.11095
1134952195776427, 7.1485577, -0.82911307, 6.926025, -0.45761728, -0.036192894, 9.977394
1134952205415750, 7.3340015, -1.6821543, 6.8315086, 0.38890064, 0.019194603, 10.155544
1134952215055073, 7.0959153, -1.2323036, 6.7537417, -0.037842155, -0.013315678, 9.873299
1134952224694343, 7.4153576, -1.1437693, 6.780063, -0.11721492, 0.20765066, 10.109805
1134952234333614, 7.088737, -1.6654046, 6.6771717, 0.40231228, -0.029883862, 9.871456
1134952243972937, 7.3603225, -0.7178468, 6.882954, -0.5677966, 0.16464472, 10.085396
1134952253612260, 7.140183, -1.9980069, 6.7908306, 0.69730556, -0.13861561, 10.029165
1134952263251531, 7.26102, -0.58504516, 7.070791, -0.73193765, -0.022741795, 10.12544
1134952272890802, 7.2095747, -2.0171494, 6.91765, 0.6845336, -0.18030262, 10.168562
1134952282530073, 7.1078796, -0.7908279, 7.0085773, -0.52492183, -0.107088566, 9.999025
1134952292169396, 7.2550383, -1.7096717, 6.91765, 0.3825103, -0.100566864, 10.161498
1134952301808718, 7.055238, -1.1294123, 6.8781686, -0.16997957, -0.10751486, 9.91568
1134952311447989, 7.328019, -1.1521441, 6.835098, -0.13253415, 0.111671925, 10.085426
1134952321087260, 7.0265236, -1.6019948, 6.6460648, 0.33690512, -0.048870564, 9.797587
1134952330726583, 7.361519, -0.7190432, 6.7381887, -0.5358512, 0.2755351, 9.987448
1134952340365906, 7.1617184, -1.9082761, 6.570691, 0.66247797, 0.041051388, 9.882568
1134952350005177, 7.347162, -0.56590253, 6.8398833, -0.7132014, 0.21555662, 10.026462
1134952359644448, 7.2670026, -2.0147567, 6.7561345, 0.72773373, -0.035074234, 10.098669
1134952369283718, 7.176075, -0.7178468, 6.928418, -0.5780202, 0.009896755, 9.983994
1134952378923041, 7.245467, -1.7228323, 6.8255267, 0.41409445, -0.0516181, 10.093493
1134952388562364, 7.0396843, -1.1030912, 6.8913293, -0.2022835, -0.12212801, 9.910023
1134952398201635, 7.308877, -1.2598212, 6.96431, -0.05997002, -0.0121593475, 10.173727
1134952407840906, 7.0229344, -1.5780666, 6.7848487, 0.27982295, -0.14430809, 9.886707
1134952417480177, 7.4536424, -0.76331043, 6.9391856, -0.5268507, 0.20864916, 10.196599
1134952427119500, 7.198807, -1.9058832, 6.806384, 0.6058426, -0.10801554, 10.069923
1134952436758823, 7.300502, -0.5599205, 6.954739, -0.72959304, 0.1380086, 10.071142
1134952446398093, 7.196414, -1.9860427, 6.765706, 0.695907, -0.090206146, 10.050629
1134952456037364, 7.1784678, -0.6520442, 6.795616, -0.62070155, 0.14211988, 9.885874
1134952465676687, 7.2646093, -1.7431713, 6.6687965, 0.47799528, 0.067578316, 10.002649
1134952475316010, 7.1222367, -1.0504491, 6.782456, -0.22766769, 0.022446156, 9.88833
1134952484955281, 7.4177504, -1.4009976, 6.77767, 0.115551114, 0.1634407, 10.143105
1134952494594552, 7.1748786, -1.7359928, 6.815955, 0.42681062, -0.094089985, 10.0378685
1134952504233823, 7.5122666, -1.099502, 7.0301127, -0.22900903, 0.10916662, 10.344138
1134952513873146, 7.2083783, -2.1798615, 6.9188466, 0.8359932, -0.21321726, 10.190123
1134952523512468, 7.3196445, -0.9020941, 7.1377897, -0.44313693, -0.055797577, 10.2537565
1134952533151739, 7.1617184, -2.32702, 6.937989, 0.9808006, -0.265687, 10.188639
1134952542791010, 7.2155566, -0.84825563, 7.042077, -0.48904538, -0.04451084, 10.106112
1134952552430281, 7.4189467, -1.9034904, 6.916454, 0.5741948, -0.0051460266, 10.303963
1134952562069552, 7.240681, -1.0013963, 6.9583282, -0.31196594, 0.0019364357, 10.087183
1134952571708875, 7.4189467, -1.2454642, 6.908079, -0.06456089, 0.10705042, 10.212633
1134952581348198, 7.015756, -1.2837493, 6.7429743, 0.0036256313, -0.06769705, 9.814884
1134952590987468, 7.240681, -0.62452674, 6.7812595, -0.6210181, 0.1891408, 9.918746
1134952600626739, 6.943971, -1.579263, 6.6329045, 0.3435917, -0.105473995, 9.725176
1134952610266010, 7.170093, -0.24646074, 6.843473, -0.99318033, 0.16484022, 9.863596
1134952619905333, 7.0301127, -1.6414764, 6.674779, 0.41433978, -0.08920431, 9.822931
1134952629544656, 7.0492554, -0.2727818, 6.875776, -0.9686693, 0.04718256, 9.803171
1134952639183927, 7.1916285, -1.4895321, 6.7764735, 0.24446487, -0.016358852, 9.989935
1134952648823198, 7.1007013, -0.6053841, 6.906883, -0.63483137, 7.581711E-5, 9.903961
1134952658462468, 7.2969127, -1.0935199, 6.8458657, -0.14423823, 0.08222771, 10.063749
1134952668101739, 6.960721, -1.1916257, 6.762117, -0.032326818, -0.10691261, 9.776777
1134952677741010, 7.245467, -0.7501499, 6.8398833, -0.4756549, 0.112528324, 9.980211
1134952687380333, 7.021738, -1.7611175, 6.6687965, 0.5447774, -0.09701395, 9.827156
1134952697019656, 7.3399835, -0.58983076, 6.8781686, -0.6331419, 0.18220377, 10.054771
1134952706658927, 7.26102, -2.0925233, 6.727421, 0.8534713, -0.014658451, 10.081202
1134952716298198, 7.3459654, -0.7322037, 6.873383, -0.5058047, 0.1624465, 10.072761
1134952725937468, 7.348358, -2.0279171, 6.7334027, 0.77501106, 0.04548025, 10.141342
1134952735576739, 7.1270223, -1.0887343, 6.8075805, -0.16500676, 0.0027508736, 9.914419
1134952745216062, 7.3399835, -1.6677973, 6.686743, 0.41288078, 0.14349174, 10.058746
1134952754855385, 7.09113, -1.5960127, 6.6185474, 0.3477341, 0.026141644, 9.824203
1134952764494656, 7.4715886, -1.2382857, 6.751349, -0.04631102, 0.26253223, 10.142368
1134952774133927, 7.237092, -2.1379871, 6.6915283, 0.83713114, -0.016649723, 10.050968
1134952783773198, 7.4333034, -0.9667004, 7.068398, -0.39720786, 0.069841385, 10.295053
1134952793412468, 7.155736, -2.3748765, 7.0097737, 0.9729866, -0.35460043, 10.242513
1134952803051791, 7.183254, -0.9272188, 7.2418776, -0.46875525, -0.21979618, 10.229155
1134952812691114, 7.2873416, -2.1762722, 7.031309, 0.7972965, -0.20261621, 10.324925
1134952822330385, 7.222735, -1.0540384, 7.082755, -0.3108238, -0.08304119, 10.1656685
1134952831969656, 7.436893, -1.6618153, 7.0097737, 0.29752445, 0.010116577, 10.349749
1134952841608927, 7.129415, -1.4033905, 6.923632, 0.068114996, -0.09871435, 10.0359535
1134952851248198, 7.368697, -1.0516455, 6.977471, -0.27868915, 0.0956831, 10.198135
1134952860887468, 7.0540414, -1.8005991, 6.8410797, 0.47431183, -0.16390848, 9.977484
1134952870526791, 7.2933235, -0.63170516, 7.051648, -0.7008761, 0.056651592, 10.140163
1134952880166114, 7.1138616, -1.9453648, 6.8614187, 0.6178057, -0.16146946, 10.052999
1134952889805385, 7.1712894, -0.44745782, 7.0337024, -0.87280023, 0.02244091, 10.016901
1134952899444656, 7.2011995, -1.7814565, 6.9152575, 0.4711976, -0.12773466, 10.129824
1134952909083927, 7.1282187, -0.55513483, 7.0779696, -0.76162493, -0.060281754, 10.031631
1134952918723198, 7.3256264, -1.2586247, 7.075577, -0.0714587, -0.05219364, 10.261818
1134952928362468, 6.9930243, -0.9200403, 7.031309, -0.37938392, -0.19463396, 9.950194
1134952938001739, 7.2059855, -0.6221339, 6.9499536, -0.64473855, 0.06374073, 10.009766
1134952947641062, 6.882954, -1.2095718, 6.6424756, -4.8434734E-4, -0.05941105, 9.641425
1134952957280385, 7.1449685, -0.15314065, 6.7238317, -1.0415134, 0.26259756, 9.753474
1134952966919656, 7.0504518, -1.5457634, 6.5491557, 0.35897398, 0.045395374, 9.739549
1134952976558927, 7.2119675, -0.16390835, 6.7537417, -1.0255542, 0.27545977, 9.8247
1134952986198198, 7.186843, -1.6414764, 6.5958157, 0.43348336, 0.08986902, 9.882002
1134952995837468, 7.036095, -0.57906306, 6.739385, -0.63957787, 0.07812309, 9.738895
1134953005476739, 7.204789, -1.5254245, 6.6963143, 0.30409884, 0.056934357, 9.94891
1134953015116062, 7.021738, -1.2191432, 6.7094746, -0.0113995075, -0.025259495, 9.788125
1134953024755385, 7.3567333, -1.2215359, 6.748956, -0.012450099, 0.18409729, 10.056244
1134953034394656, 7.111469, -1.9154545, 6.649654, 0.67340934, -0.03203392, 9.899765
1134953044033927, 7.4859457, -1.0336994, 6.8925257, -0.23216772, 0.20200348, 10.223509
1134953053673198, 7.4010005, -2.4119651, 6.820741, 1.110834, -0.019497871, 10.289827
1134953063312468, 7.5529447, -1.0313065, 7.092326, -0.29518998, 0.115140915, 10.40727
1134953072951739, 7.4010005, -2.5136602, 6.9009004, 1.1656055, -0.09919977, 10.360852
1134953082591010, 7.222735, -1.262214, 6.9738817, -0.074302435, -0.0639019, 10.118623
1134953092230333, 7.300502, -2.097309, 6.8315086, 0.75433695, -0.062043667, 10.187868
1134953101869656, 7.01097, -1.5170496, 6.7633133, 0.19853568, -0.105481625, 9.856318
1134953111508927, 7.301698, -1.4356936, 6.769295, 0.119189024, 0.113554955, 10.058443
1134953121148198, 7.071987, -1.8101703, 6.6759753, 0.5028981, -0.051079273, 9.8794155
1134953130787468, 7.396215, -0.81236327, 6.920043, -0.514164, 0.18364286, 10.146568
1134953140426739, 7.1856465, -2.003989, 6.914061, 0.65760577, -0.14787292, 10.148863
1134953150066010, 7.3268228, -0.5479564, 7.2418776, -0.84043825, -0.04263735, 10.281986
1134953159705281, 7.173682, -1.8915263, 7.1377897, 0.5181881, -0.28443003, 10.278046
1134953169344552, 7.042077, -0.5276174, 7.2622166, -0.84973615, -0.26198387, 10.090507
1134953178983875, 7.1712894, -1.4380864, 7.1306114, 0.08908546, -0.21106386, 10.212181
1134953188623198, 6.9344, -0.74895346, 7.031309, -0.56970584, -0.2057972, 9.885304
1134953198262468, 7.1449685, -0.802792, 6.9152575, -0.4757712, 0.014809132, 9.964399
1134953207901739, 6.800402, -1.1688938, 6.715457, -0.08246601, -0.13844585, 9.627211
1134953217541010, 7.129415, -0.44626144, 6.806384, -0.795505, 0.12902069, 9.833876
1134953227180281, 7.0265236, -1.7144574, 6.680761, 0.47047377, -0.052994728, 9.834623
1134953236819552, 7.3268228, -0.44027936, 6.9583282, -0.8187545, 0.15803719, 10.079641
1134953246458823, 7.328019, -2.0255244, 6.8374906, 0.7531884, -0.015781403, 10.19737
1134953256098093, 7.332805, -0.85902333, 7.0325055, -0.4446895, 0.05151415, 10.186447
1134953265737416, 7.456035, -1.9860427, 6.937989, 0.67995274, 0.014590263, 10.354225
1134953275376739, 7.2179494, -1.3208381, 6.908079, 0.034965873, -0.018706322, 10.077866
1134953285016010, 7.4213395, -1.5266209, 6.8051877, 0.2499243, 0.15677261, 10.179903
1134953294655281, 7.051648, -1.7898313, 6.5946193, 0.5419667, 0.0030469894, 9.804311
1134953304294552, 7.2562346, -0.98584294, 6.6089764, -0.25491118, 0.26140642, 9.857489
1134953313933823, 6.9798636, -2.0087745, 6.4127645, 0.78205585, 0.033765793, 9.657352
1134953323573093, 7.216753, -0.6436693, 6.6676, -0.606566, 0.25063944, 9.82456
1134953333212364, 7.2083783, -2.0685952, 6.6568327, 0.7985164, 0.0077166557, 9.995776
1134953342851635, 7.301698, -0.6412765, 6.9930243, -0.66465837, 0.08137798, 10.108414
1134953352490958, 7.408179, -1.7814565, 7.070791, 0.42238152, -0.097985744, 10.385701
1134953362130281, 7.1916285, -1.0612168, 7.332805, -0.32785416, -0.2908063, 10.316185
1134953371769552, 7.4273214, -1.3519448, 7.4416785, -0.061752677, -0.24952412, 10.597422
1134953381408823, 7.070791, -1.4656038, 7.373483, 0.07299149, -0.46071243, 10.309935
1134953391048093, 7.320841, -0.7956135, 7.391429, -0.57123315, -0.17745066, 10.416483
1134953400687364, 7.018149, -1.7623138, 7.085148, 0.4423796, -0.34802246, 10.111511
1134953410326635, 7.225128, -0.38285163, 7.0899334, -0.90773714, 0.032781124, 10.089159
1134953419965906, 7.115058, -1.7814565, 6.71426, 0.5464033, -0.05151987, 9.928631
1134953429605177, 7.1007013, -0.38883367, 6.695118, -0.8187008, 0.21007776, 9.730434
1134953439244500, 7.1653075, -1.6091732, 6.483353, 0.42632115, 0.16548014, 9.78549
1134953448883823, 7.0289164, -0.81834537, 6.526424, -0.35452437, 0.19023561, 9.618092
1134953458523093, 7.292127, -1.3100704, 6.485746, 0.1355983, 0.29336977, 9.841334
1134953468162364, 6.99781, -1.4548361, 6.3744793, 0.2919141, 0.13120985, 9.571701
1134953477801635, 7.322037, -0.9726824, 6.4558353, -0.18102753, 0.3951044, 9.800371
1134953487440906, 7.1042905, -1.9381863, 6.40439, 0.755182, 0.08734465, 9.729634
1134953497080177, 7.375876, -0.68195444, 6.727421, -0.5140244, 0.30967808, 9.988327
1134953506719448, 7.2442703, -2.07697, 6.666404, 0.8305434, -0.02026558, 10.027163
1134953516358718, 7.288538, -0.6580262, 6.9583282, -0.6197941, 0.09593868, 10.078728
1134953525997989, 7.3399835, -1.902294, 6.9942207, 0.58368635, -0.14048958, 10.298191
1134953535637312, 7.18445, -0.95353985, 7.1270223, -0.36474097, -0.15593004, 10.156902
1134953545276635, 7.3830543, -1.4392828, 7.097112, 0.11229515, -0.07687855, 10.34077
1134953554915906, 7.0695944, -1.3938192, 7.007381, 0.08144963, -0.21661949, 10.048469
1134953564555177, 7.3543406, -0.9391829, 7.0193453, -0.3532815, 0.06896448, 10.203432
1134953574194448, 7.1186476, -1.7922242, 6.896115, 0.50723135, -0.15593576, 10.057933
1134953583833718, 7.367501, -0.552742, 7.18445, -0.76642656, 0.038673878, 10.276818
1134953593472989, 7.172486, -1.9417756, 7.0432734, 0.6318283, -0.2424035, 10.215908
1134953603112260, 7.1748786, -0.55034924, 7.2023964, -0.762717, -0.12224007, 10.151827
1134953612751531, 7.24786, -1.8652053, 7.025327, 0.568725, -0.15308666, 10.247868
1134953622390854, 7.1581287, -0.85064846, 7.0372915, -0.43054885, -0.06776667, 10.064587
1134953632030177, 7.3399835, -1.4620147, 6.914061, 0.18557549, 0.05234623, 10.187243
1134953641669448, 7.0229344, -1.2646067, 6.826723, 0.0098234415, -0.08206415, 9.875129
1134953651308718, 7.2969127, -0.9320044, 6.876972, -0.328781, 0.118266106, 10.064007
1134953660947989, 7.0169525, -1.7431713, 6.7441707, 0.48668432, -0.110523224, 9.874767
1134953670587260, 7.2693954, -0.57547385, 6.8985076, -0.68424493, 0.13668585, 10.013882
1134953680226531, 7.1186476, -1.9477576, 6.661618, 0.7032862, -0.036147594, 9.917164
1134953689865802, 7.190432, -0.5300102, 6.7728844, -0.7095809, 0.19567585, 9.864756
1134953699505073, 7.2011995, -1.9034904, 6.5491557, 0.6759223, 0.10536289, 9.894646
1134953709144396, 7.079166, -0.79920274, 6.623333, -0.4185065, 0.16075373, 9.71704
1134953718783718, 7.3268228, -1.5266209, 6.6652074, 0.2979355, 0.17507076, 10.015911
1134953728422989, 7.1078796, -1.3220345, 6.782456, 0.05948782, -0.021112442, 9.912994
1134953738062260, 7.4440713, -1.0983056, 6.9738817, -0.1888963, 0.11921835, 10.256977
1134953747701531, 7.1712894, -1.8496519, 6.9858456, 0.52865934, -0.20906687, 10.165011
1134953757340802, 7.375876, -0.7908279, 7.2622166, -0.5541142, -0.069241524, 10.366141
1134953766980073, 7.1138616, -2.1631117, 7.1473613, 0.7962457, -0.41315746, 10.274538
1134953776619343, 7.2083783, -0.70229346, 7.2526455, -0.64305514, -0.16183805, 10.228153
1134953786258614, 7.220342, -2.0111675, 7.0002027, 0.6709378, -0.20088959, 10.231837
1134953795897937, 7.1449685, -0.802792, 6.984649, -0.49637938, -0.01101017, 10.011687
1134953805537260, 7.342376, -1.5278172, 6.8506513, 0.23369229, 0.080061436, 10.154562
1134953815176531, 7.099505, -1.0839486, 6.7848487, -0.19128752, 0.028888702, 9.87799
1134953824815802, 7.373483, -0.9128618, 6.7848487, -0.34963775, 0.24842787, 10.052452
1134953834455073, 7.055238, -1.5254245, 6.6329045, 0.27129233, 0.021046638, 9.799218
1134953844094343, 7.2969127, -0.51565325, 6.7669024, -0.747583, 0.23870373, 9.93408
1134953853733614, 7.0803623, -1.8329022, 6.5838513, 0.5802858, 0.013446331, 9.823504
1134953863372885, 7.172486, -0.4438686, 6.7848487, -0.80873495, 0.16181612, 9.848629
1134953873012208, 7.125826, -1.9070797, 6.647261, 0.6375408, -0.00615263, 9.9092865
1134953882651531, 7.0959153, -0.7106683, 6.8243303, -0.5604819, 0.04600668, 9.854557
1134953892290802, 7.320841, -1.6594225, 6.8542404, 0.3502139, 0.020685196, 10.159033
1134953901930073, 7.112665, -1.2789637, 6.9798636, -0.051908612, -0.14108515, 10.045977
1134953911569343, 7.38784, -1.3339987, 7.135397, -0.033024073, -0.064172745, 10.357046
1134953921208614, 7.066005, -1.902294, 7.0803623, 0.5074923, -0.35817432, 10.163309
1134953930847885, 7.3567333, -0.9906286, 7.288538, -0.41942263, -0.11409855, 10.394072
1134953940487156, 7.1509504, -2.213361, 7.0528445, 0.8229251, -0.3182068, 10.246912
1134953950126427, 7.32443, -0.7477571, 7.1078796, -0.6112454, 0.02500391, 10.215385
1134953959765750, 7.239485, -2.0781665, 6.806384, 0.7349981, -0.05078888, 10.124868
1134953969405073, 7.1677003, -0.715454, 6.823134, -0.5905858, 0.119680405, 9.903528
1134953979044343, 7.328019, -1.6342978, 6.6795645, 0.32574332, 0.17546701, 10.042435
1134953988683614, 7.1042905, -1.0468599, 6.7011, -0.24952674, 0.08754015, 9.818434
1134953998322885, 7.3567333, -1.1246266, 6.7441707, -0.18765676, 0.21696186, 10.039316
1134954007962156, 7.0289164, -1.5601203, 6.7465634, 0.24879849, -0.07520485, 9.863479
1134954017601427, 7.304091, -0.7704889, 6.977471, -0.57045436, 0.062429905, 10.1143055
1134954027240698, 7.0612197, -1.9968106, 6.8219376, 0.6709372, -0.16581917, 9.995462
1134954036880021, 7.220342, -0.6041877, 7.0372915, -0.74738383, 0.002611637, 10.072898
1134954046519343, 7.160522, -2.0386848, 6.8398833, 0.7084291, -0.12217522, 10.084468
1134954056158614, 7.1569324, -0.7369894, 6.9248285, -0.5833274, 0.023241043, 9.968814
1134954065797885, 7.292127, -1.7635103, 6.815955, 0.43838835, 0.0218997, 10.126682
1134954075437156, 7.09113, -1.1006985, 6.863812, -0.22394538, -0.039963245, 9.927529
1134954085076427, 7.3627152, -1.282553, 6.8805614, -0.052654147, 0.105146885, 10.157894
1134954094715698, 7.0265236, -1.6247265, 6.802795, 0.28806794, -0.13536787, 9.90901
1134954104355021, 7.3172517, -0.8673982, 6.927222, -0.4777949, 0.115213394, 10.101455
1134954113994343, 7.1042905, -1.9908284, 6.7585278, 0.6564497, -0.11609125, 9.983368
1134954123633614, 7.3112698, -0.6149554, 6.9009004, -0.7193383, 0.18541574, 10.045071
1134954133272885, 7.263413, -2.0937197, 6.695118, 0.7766131, 0.013604641, 10.067877
1134954142912156, 7.280163, -0.721436, 6.869794, -0.5995823, 0.15407562, 10.016592
1134954152551427, 7.385447, -1.835295, 6.8422766, 0.48406386, 0.036179543, 10.222242
1134954162190698, 7.125826, -1.1078769, 6.954739, -0.24910033, -0.07792568, 10.015242
1134954171830021, 7.365108, -1.4189439, 7.021738, 0.04089415, -0.011930943, 10.2743
1134954181469343, 7.0815587, -1.6199409, 6.9930243, 0.23249722, -0.22591543, 10.078193
1134954191108614, 7.361519, -0.9810573, 7.125826, -0.416973, -0.0032787323, 10.283869
1134954200747885, 7.064809, -2.062613, 6.983453, 0.662344, -0.30202293, 10.119515
1134954210387156, 7.253842, -0.70229346, 7.1162543, -0.6957749, -0.021966457, 10.162084
1134954220026427, 7.1425757, -2.099702, 6.815955, 0.7394556, -0.15410757, 10.065378
1134954229665698, 7.140183, -0.7070791, 6.847062, -0.6349006, 0.08178902, 9.897203
1134954239305021, 7.233503, -1.8221345, 6.6053867, 0.5198153, 0.10120392, 9.9495945
1134954248944343, 7.0229344, -0.95353985, 6.617351, -0.33537674, 0.11384535, 9.68993
1134954258583614, 7.2670026, -1.3423735, 6.597012, 0.051810503, 0.21890211, 9.903598
1134954268222885, 7.0301127, -1.463211, 6.5838513, 0.16588926, 0.03701067, 9.740723
1134954277862156, 7.368697, -0.9128618, 6.771688, -0.4034636, 0.24316597, 10.03817
1134954287501427, 7.0731835, -1.9501505, 6.734599, 0.6009146, -0.1290636, 9.940327
1134954297140750, 7.2729845, -0.70348984, 7.064809, -0.6732036, 0.01132822, 10.14147
1134954306780073, 7.143772, -2.1284158, 6.9451675, 0.7282487, -0.24162722, 10.159245
1134954316419343, 7.2215385, -0.695115, 7.062416, -0.6957017, -0.023050785, 10.1008415
1134954326058614, 7.328019, -1.9262222, 6.9583282, 0.53137743, -0.07016182, 10.273326
1134954335697885, 7.1485577, -1.0073783, 6.984649, -0.3627088, -0.07338333, 10.03818
1134954345337156, 7.350751, -1.4811572, 6.9188466, 0.10700464, 0.04727316, 10.202163
1134954354976427, 7.0779696, -1.4656038, 6.8446693, 0.10802102, -0.08759642, 9.953684
1134954364615750, 7.37109, -0.9870393, 6.903293, -0.37625575, 0.14975405, 10.138967
1134954374255073, 7.103094, -1.8783658, 6.7740808, 0.51933527, -0.08855772, 9.97962
1134954383894343, 7.342376, -0.67836523, 7.0025954, -0.704937, 0.11595678, 10.143797
1134954393533614, 7.1569324, -2.1355941, 6.8195443, 0.7627654, -0.13769531, 10.08404
1134954403172885, 7.2179494, -0.6843473, 6.9882383, -0.70223016, 0.045647144, 10.045267
1134954412812156, 7.251449, -1.9597218, 6.795616, 0.5844785, -0.021977901, 10.112485
1134954422451479, 7.1078796, -0.9774681, 6.884151, -0.38613987, -0.01316452, 9.935778
1134954432090802, 7.3136625, -1.5816557, 6.869794, 0.20013356, 0.035668373, 10.155985
1134954441730073, 7.0337024, -1.4799608, 6.8075805, 0.10923064, -0.10089064, 9.898701
1134954451369343, 7.3746796, -1.146162, 6.867401, -0.22011292, 0.15467453, 10.138462
1134954461008614, 7.0875406, -1.9908284, 6.754938, 0.62252295, -0.11445284, 9.971219
1134954470647885, 7.2993054, -0.81954175, 6.9248285, -0.5524628, 0.116621494, 10.078985
1134954480287208, 7.135397, -2.2085752, 6.769295, 0.8220755, -0.12826061, 10.046034
1134954489926531, 7.207182, -0.7585248, 6.946364, -0.63330096, 0.052749157, 10.018331
1134954499565802, 7.2382884, -2.0590239, 6.8255267, 0.66205037, -0.06796169, 10.137913
1134954509205073, 7.103094, -0.9176475, 6.9475603, -0.48416817, -0.035397053, 9.966391
1134954518844343, 7.2957163, -1.5302101, 6.8805614, 0.13385296, 0.023517609, 10.143602
1134954528483666, 7.003792, -1.2729816, 6.7740808, -0.09833038, -0.055252075, 9.825937
1134954538122989, 7.2873416, -0.9619147, 6.7525454, -0.38124895, 0.2210803, 9.971623
1134954547762260, 6.9990063, -1.6654046, 6.539584, 0.33863926, 0.030775547, 9.716494
1134954557401531, 7.3268228, -0.61854464, 6.6999035, -0.6952089, 0.3492942, 9.917072
1134954567040802, 7.1581287, -2.032703, 6.6149583, 0.6936637, 0.016001225, 9.932117
1134954576680073, 7.3256264, -0.58983076, 6.9355965, -0.7788758, 0.17753649, 10.073582
1134954586319396, 7.368697, -1.9585253, 6.9702926, 0.55036545, -0.05727434, 10.315636
1134954595958718, 7.274181, -0.83030945, 7.2023964, -0.602427, -0.08575153, 10.25219
1134954605597989, 7.4237323, -1.6007984, 7.2550383, 0.13317466, -0.14292192, 10.501038
1134954615237260, 7.1509504, -1.2586247, 7.3363943, -0.21076822, -0.32013083, 10.314846
1134954624876531, 7.4344997, -1.1210374, 7.365108, -0.34889853, -0.111878395, 10.518513
1134954634515854, 7.153343, -1.8221345, 7.143772, 0.38312137, -0.2702942, 10.261781
1134954644155177, 7.393822, -0.8386843, 7.203593, -0.596156, 0.02196598, 10.339626
1134954653794448, 7.1282187, -2.1738794, 6.937989, 0.7593298, -0.20980978, 10.15147
1134954663433718, 7.1748786, -0.7286145, 7.0408807, -0.6674902, -0.012105465, 10.056743
1134954673072989, 7.075577, -2.0949163, 6.7836523, 0.71368563, -0.13920498, 9.997083
1134954682712312, 6.9391856, -0.86979103, 6.7764735, -0.4948848, -0.03233242, 9.725403
1134954692351635, 7.055238, -1.713261, 6.5898337, 0.37093902, 0.037398815, 9.797886
1134954701990906, 6.8410797, -1.308874, 6.4570317, 0.0049597025, 0.04150629, 9.497634
1134954711630177, 7.2382884, -1.282553, 6.45105, -0.011144757, 0.3247075, 9.7748785
1134954721269448, 7.0695944, -1.8747765, 6.3744793, 0.5758991, 0.16648579, 9.683417
1134954730908771, 7.4213395, -0.95832545, 6.6771717, -0.3920099, 0.33698177, 10.015591
1134954740548093, 7.2789664, -2.2935205, 6.695118, 0.91661274, 0.023653984, 10.11076
1134954750187364, 7.442875, -0.8853444, 7.048059, -0.5328962, 0.10019541, 10.274303
1134954759826635, 7.3866434, -2.271985, 6.9678993, 0.8257154, -0.091566086, 10.37236
1134954769465906, 7.2658057, -0.95353985, 7.1210403, -0.4824251, -0.08120203, 10.206424
1134954779105229, 7.30768, -1.82692, 6.983453, 0.39051795, -0.088871, 10.26392
1134954788744552, 7.031309, -1.2191432, 6.906883, -0.17563188, -0.122914314, 9.928983
1134954798383823, 7.322037, -1.1760724, 6.9092755, -0.21177995, 0.08754206, 10.133162
1134954808023093, 7.062416, -1.585245, 6.815955, 0.20273793, -0.09747028, 9.939686
1134954817662416, 7.359126, -0.7046863, 7.02772, -0.6974546, 0.11086607, 10.175629
1134954827301739, 7.152147, -1.9274186, 6.957132, 0.50325835, -0.20275688, 10.147682
1134954836941010, 7.280163, -0.5395815, 7.1712894, -0.880355, -0.0031609535, 10.195307
1134954846580281, 7.159325, -1.9992033, 6.9116683, 0.6073594, -0.17405558, 10.130385
1134954856219552, 7.0612197, -0.8961121, 6.855437, -0.45836496, -0.011414528, 9.87171
1134954865858875, 7.025327, -1.4524434, 6.6963143, 0.11177778, -0.018157005, 9.8128805
1134954875498198, 7.064809, -1.329213, 6.606583, 0.018282056, 0.0886569, 9.763046
1134954885137468, 7.076773, -1.3950156, 6.538388, 0.09631133, 0.13475323, 9.733954
1134954894776739, 7.051648, -1.3878372, 6.4677997, 0.10421264, 0.16531324, 9.666752
1134954904416062, 7.070791, -1.451247, 6.4438715, 0.16604543, 0.18699408, 9.672804
1134954914055385, 7.166504, -1.5146568, 6.4881387, 0.21369708, 0.21567726, 9.780426
1134954923694656, 7.2729845, -1.591227, 6.559923, 0.27323043, 0.23055887, 9.916306
1134954933333927, 7.32443, -1.672583, 6.6628146, 0.33258688, 0.18848085, 10.034529
1134954942973250, 7.304091, -1.7168503, 6.8219376, 0.3442825, 0.05698824, 10.1348095
1134954952612573, 7.257431, -1.719243, 7.0348988, 0.3056085, -0.116205215, 10.247391
1134954962251843, 7.2466636, -1.6522441, 7.196414, 0.2155956, -0.20719242, 10.341326
1134954971891114, 7.233503, -1.5421742, 7.2490563, 0.10098994, -0.23726177, 10.35298
1134954981530385, 7.239485, -1.4081762, 7.2179494, -0.018467069, -0.18332243, 10.317845
1134954991169708, 7.2562346, -1.2861422, 7.1210403, -0.10115731, -0.07129145, 10.246998
1134955000809031, 7.2789664, -1.1892328, 7.055238, -0.17506516, 0.0061712265, 10.205065
1134955010448302, 7.2873416, -1.0827522, 7.075577, -0.27586865, 0.013334751, 10.211034
1134955020087573, 7.2382884, -1.0205388, 7.109076, -0.34312516, -0.036361217, 10.190889
1134955029726896, 7.123433, -1.0097711, 7.1066833, -0.33706427, -0.114239216, 10.106495
1134955039366218, 7.0492554, -0.99900347, 7.088737, -0.33720016, -0.15037441, 10.040113
1134955049005489, 7.0169525, -0.9906286, 7.0337024, -0.3352269, -0.13339233, 9.978064
1134955058644760, 7.0097737, -0.9882358, 6.9798636, -0.32066083, -0.09741211, 9.93578
1134955068284083, 7.0372915, -1.0169497, 6.875776, -0.26478434, -0.009665012, 9.887555
1134955077923406, 7.0803623, -1.0301101, 6.771688, -0.22015798, 0.0944376, 9.848402
1134955087562677, 7.133004, -1.0707881, 6.7334027, -0.17119956, 0.15254879, 9.864708
1134955097201948, 7.1545396, -1.146162, 6.7166533, -0.09412193, 0.17002249, 9.878096
1134955106841271, 7.1413794, -1.174876, 6.710671, -0.06758797, 0.16100502, 9.868244
1134955116480593, 7.155736, -1.2430713, 6.832705, -0.023200154, 0.07657242, 9.971422
1134955126119864, 7.204789, -1.3351951, 6.748956, 0.07867646, 0.15826225, 9.960367
1134955135759135, 7.129415, -1.4177474, 7.0337024, 0.09287071, -0.10056019, 10.113989
1134955145398458, 7.271788, -1.5433706, 7.1365933, 0.1970669, -0.09130716, 10.302653
1134955155037781, 7.2466636, -1.4991034, 7.1473613, 0.14803755, -0.10157919, 10.2865925
1134955164677052, 7.1569324, -1.4907285, 7.3028946, 0.10797024, -0.2584157, 10.329463
1134955174316323, 7.2119675, -1.4608182, 7.379465, 0.065428376, -0.26108837, 10.417799
1134955183955646, 7.2346992, -1.3459628, 7.4907312, -0.07010758, -0.30465317, 10.495991
1134955193594968, 7.233503, -1.3100704, 7.489535, -0.098118186, -0.28812456, 10.490011
1134955203234239, 7.2873416, -1.2921243, 7.550552, -0.12578297, -0.29024744, 10.568146
1134955212873562, 7.3232336, -1.2765709, 7.57448, -0.14295506, -0.28008986, 10.608168
1134955222512885, 7.308877, -1.3184453, 7.519445, -0.09288156, -0.26870966, 10.564999
1134955232152156, 7.2215385, -1.3423735, 7.399804, -0.04792869, -0.2590437, 10.423065
1134955241791427, 7.123433, -1.3423735, 7.210771, -0.012367368, -0.19634724, 10.222612
1134955251430750, 7.058827, -1.3100704, 6.946364, 0.0066194534, -0.0736537, 9.989486
1134955261070073, 7.003792, -1.2753744, 6.7238317, 0.012542248, 0.0343256, 9.792255
1134955270709343, 6.9451675, -1.2550355, 6.5168524, 0.0292871, 0.12687492, 9.605357
1134955280348614, 6.96431, -1.2837493, 5.8301125, 0.17185831, 0.6101985, 9.1508465
1134955289987937, 7.1102724, -1.1844472, 5.9114685, 0.04621792, 0.64709663, 9.299649
1134955299627260, 7.1688967, -1.2957134, 6.4091754, 0.064310074, 0.32393885, 9.697445
1134955309266531, 7.097112, -1.4727824, 6.5072813, 0.2021271, 0.15639305, 9.737428
1134955318905854, 7.1425757, -1.4488541, 6.5754766, 0.1673466, 0.1408391, 9.813493
1134955328545177, 7.112665, -1.5074782, 6.623333, 0.21108413, 0.074542046, 9.832645
1134955338184448, 7.1102724, -1.6019948, 6.4211397, 0.349612, 0.20574856, 9.705092
1134955347823718, 7.233503, -1.544567, 6.3661046, 0.30448067, 0.33844852, 9.748295
1134955357463041, 7.353144, -1.5014962, 6.4343, 0.25569165, 0.38655472, 9.874646
1134955367102364, 7.393822, -1.5086746, 6.7011, 0.21012592, 0.22684002, 10.087311
1134955376741635, 7.3926253, -1.4620147, 7.1007013, 0.08757162, -0.04352665, 10.353685
1134955386380958, 7.3603225, -1.4069797, 7.3806615, -0.023907304, -0.23700237, 10.515291
1134955396020281, 7.26102, -1.3435699, 7.5290165, -0.11597431, -0.38918924, 10.537969
1134955405659552, 7.1880393, -1.2526426, 7.5026956, -0.19836903, -0.4077258, 10.45571
1134955415298823, 7.1222367, -1.1473584, 7.283752, -0.25210965, -0.27534008, 10.244822
1134955424938146, 7.0815587, -1.0851451, 7.024131, -0.2460388, -0.108006, 10.029568
1134955434577468, 7.076773, -1.0456635, 6.8303123, -0.23993087, 0.02911663, 9.887815
1134955444216739, 7.036095, -1.0133604, 6.727421, -0.2499733, 0.08062744, 9.7838
1134955453856062, 7.018149, -1.0073783, 6.751349, -0.25589454, 0.049714565, 9.786828
1134955463495385, 7.062416, -1.0001999, 6.8315086, -0.2764417, 0.020221233, 9.87273
1134955473134656, 7.1365933, -1.032503, 6.9678993, -0.2715963, -0.025744438, 10.023683
1134955482773979, 7.2215385, -1.1389836, 7.0432734, -0.17619467, -0.036138535, 10.150038
1134955492413302, 7.292127, -1.1988041, 7.0002027, -0.09954035, 0.036893845, 10.1785965
1134955502052573, 7.3100734, -1.2514462, 6.9248285, -0.02140212, 0.0970664, 10.146263
1134955511691843, 7.2909307, -1.2981063, 6.893722, 0.029409647, 0.09669304, 10.117111
1134955521331166, 7.263413, -1.302892, 6.8865438, 0.029025078, 0.08074713, 10.093158
1134955530970489, 7.2095747, -1.3076776, 6.8985076, 0.029547215, 0.03402996, 10.063566
1134955540609760, 7.1772714, -1.3208381, 6.946364, 0.024103045, -0.02580309, 10.075146
1134955550249083, 7.1629148, -1.3040884, 6.9702926, -0.0060225725, -0.051237106, 10.079202
1134955559888406, 7.143772, -1.2981063, 6.9248285, -0.011065125, -0.031009674, 10.033482
1134955569527677, 7.125826, -1.3268201, 6.859026, 0.030985951, -0.0017914772, 9.9791355
1134955579167000, 7.058827, -1.3603196, 6.8051877, 0.07389915, -0.015603542, 9.898605
1134955588806323, 7.076773, -1.430908, 6.79442, 0.14468193, -0.003540039, 9.913194
1134955598445593, 7.099505, -1.4177474, 6.843473, 0.11817467, -0.01746893, 9.961517
1134955608084916, 7.115058, -1.4488541, 6.9583282, 0.12523615, -0.09180927, 10.055717
1134955617724239, 7.203593, -1.4476577, 7.0839515, 0.09498823, -0.11444521, 10.205279
1134955627363510, 7.304091, -1.4404793, 7.1880393, 0.063378215, -0.11216688, 10.347755
1134955637002781, 7.3782687, -1.3806586, 7.21436, -0.0063732862, -0.06843996, 10.410925
1134955646642104, 7.3232336, -1.3722838, 7.1473613, -0.005960703, -0.05798626, 10.32445
1134955656281427, 7.2346992, -1.3411771, 7.045666, -0.017849922, -0.047332764, 10.187173
1134955665920698, 7.179664, -1.2957134, 6.9044895, -0.034069896, 0.016312122, 10.04475
1134955675560021, 7.109076, -1.2646067, 6.7501526, -0.03256929, 0.07573509, 9.884126
1134955685199343, 7.0863442, -1.2598212, 6.666404, -0.021880507, 0.118704796, 9.809679
1134955694838614, 7.099505, -1.268196, 6.631708, -0.006380439, 0.14636183, 9.796396
1134955704477937, 7.1282187, -1.3076776, 6.619744, 0.036473274, 0.1649065, 9.813969
1134955714117260, 7.1473613, -1.3387842, 6.739385, 0.03862512, 0.08623314, 9.914005
1134955723756531, 7.140183, -1.3914263, 6.8506513, 0.06823635, -0.0040621758, 9.992249
1134955733395854, 7.133004, -1.430908, 6.95115, 0.08336234, -0.08210659, 10.061415
1134955743035177, 7.179664, -1.4536397, 7.007381, 0.09468067, -0.09232378, 10.136397
1134955752674448, 7.203593, -1.4835501, 7.04447, 0.11408138, -0.09871483, 10.183048
1134955762313771, 7.210771, -1.5038891, 7.0289164, 0.13547552, -0.083553314, 10.180237
1134955771953093, 7.2263246, -1.4883357, 7.007381, 0.124034405, -0.05602455, 10.174467
1134955781592364, 7.2490563, -1.4763715, 6.995417, 0.113223195, -0.027613163, 10.1809025
1134955791231687, 7.213164, -1.4751751, 6.9930243, 0.112939715, -0.051208496, 10.153467
1134955800871010, 7.1748786, -1.4500505, 6.9822564, 0.09022391, -0.06910992, 10.11536
1134955810510281, 7.1365933, -1.4129617, 6.971489, 0.055781484, -0.08337355, 10.0756645
1134955820149552, 7.1856465, -1.3950156, 6.9415784, 0.047197938, -0.029499054, 10.087715
