timestamp_acc,device_acc_x,device_acc_y,device_acc_z,earth_acc_x,earth_acc_y,earth_acc_z
358552702348009, 8.937193, -1.14018, 4.223332, -0.02449572, -0.00208807, 9.950343
358552711987593, 8.933603, -1.0899308, 4.206582, -0.07015824, 0.021384478, 9.934142
358552721627176, 8.883354, -1.1078769, 4.226921, -0.059797645, -0.026309013, 9.899695
358552731266759, 8.906086, -1.0971092, 4.287938, -0.08531201, -0.06975746, 9.944662
358552740906447, 8.920443, -1.079163, 4.2855453, -0.09792209, -0.059398174, 9.954479
358552750546030, 8.9108715, -1.0911272, 4.3070807, -0.08791268, -0.085130215, 9.956412
358552760185614, 8.9108715, -1.1138589, 4.2556353, -0.052813172, -0.045553923, 9.937297
358552769825197, 8.908479, -1.1162517, 4.2221355, -0.034942865, -0.01562953, 9.921289
358552779464780, 8.921639, -1.1330016, 4.24726, -0.025197506, -0.035634995, 9.945684
358552789104364, 8.9108715, -1.1126626, 4.269992, -0.04446435, -0.05634761, 9.943305
358552798743947, 8.9348, -1.1042876, 4.301099, -0.057605743, -0.06963372, 9.977044
358552808383634, 8.914461, -1.119841, 4.278367, -0.037059665, -0.062171698, 9.950923
358552818023218, 8.943174, -1.1066805, 4.241278, -0.030912876, -0.012821913, 9.959541
358552827662801, 8.945567, -1.1234303, 4.2364926, -0.013533354, -0.011574984, 9.961567
358552837302384, 8.997013, -1.1162517, 4.260421, -0.022933245, -0.012231588, 10.017124
358552846941968, 9.022138, -1.119841, 4.3118663, -0.030112267, -0.054214478, 10.061877
358552856581551, 9.030513, -1.1042876, 4.328616, -0.043117046, -0.07302618, 10.074687
358552866221134, 9.0436735, -1.0983056, 4.3262234, -0.043390512, -0.06329584, 10.084871
358552875860822, 9.044869, -1.0731809, 4.2687955, -0.046390414, -0.004169941, 10.058917
358552885500405, 9.026923, -1.0552348, 4.2352962, -0.0548594, 0.021351337, 10.026621
358552895139989, 8.99462, -1.0576276, 4.214957, -0.041670203, 0.026183128, 9.989256
358552904779572, 9.025727, -1.0313065, 4.1790648, -0.052551746, 0.07706404, 9.999162
358552914419155, 9.02453, -1.0372887, 4.211368, -0.051609635, 0.037000418, 10.012478
358552924058739, 9.032906, -1.0851451, 4.260421, -0.018463135, -0.01343751, 10.045975
358552933698426, 9.006584, -1.0827522, 4.210171, -0.008596778, 0.0103952885, 10.000814
358552943338009, 8.985049, -1.1318051, 4.162315, 0.051389694, 0.03031993, 9.966614
358552952977593, 8.957532, -1.1282159, 4.135994, 0.05246246, 0.04058242, 9.930373
358552962617176, 8.949157, -1.0947163, 4.132405, 0.021724105, 0.04710555, 9.917655
358552972256759, 8.970692, -1.0779666, 4.1228333, 0.008421302, 0.06892657, 9.931176
358552981896343, 8.975478, -1.0851451, 4.078566, 0.030971766, 0.104388714, 9.917641
358552991535926, 9.008977, -1.0839486, 4.052245, 0.041547894, 0.13742995, 9.936633
358553001175614, 9.050852, -1.1006985, 4.022335, 0.07204652, 0.17062879, 9.963651
358553010815197, 9.102298, -1.119841, 4.0307097, 0.09391236, 0.17217064, 10.015691
358553020454780, 9.115458, -1.1066805, 4.104887, 0.06417322, 0.10647178, 10.0573845
358553030094364, 9.127422, -1.1042876, 4.180261, 0.041664124, 0.037711382, 10.099542
358553039733947, 9.129815, -1.0660025, 4.2448673, -0.009240985, -0.012922764, 10.124651
358553049373530, 9.126225, -1.0588241, 4.301099, -0.027715683, -0.057316065, 10.144186
358553059013114, 9.116654, -1.0336994, 4.3034916, -0.04773426, -0.051807404, 10.133953
358553068652801, 9.092726, -1.018146, 4.302295, -0.062793374, -0.05721283, 10.110234
358553078292384, 9.092726, -1.032503, 4.2795634, -0.03846085, -0.036473274, 10.102257
358553087931968, 9.055637, -1.0552348, 4.287938, -0.013729811, -0.06276536, 10.074739
358553097571551, 8.989835, -1.0851451, 4.2867417, 0.016407728, -0.097121716, 10.01804
358553107211134, 8.979067, -1.0899308, 4.240082, 0.032545686, -0.06240344, 9.989241
358553116850718, 8.989835, -1.1078769, 4.210171, 0.054316282, -0.036630392, 9.988283
358553126490405, 8.968299, -1.0803595, 4.3058844, -0.007256508, -0.13060093, 10.006053
358553136129989, 8.987442, -1.0707881, 4.31067, -0.021687627, -0.1262703, 10.024278
358553145769572, 9.008977, -1.052842, 4.2568316, -0.025535107, -0.06586051, 10.019271
358553155409155, 8.997013, -1.0695918, 4.1922255, 0.005382657, -0.019672155, 9.983215
358553165048739, 9.006584, -1.1042876, 4.1168513, 0.057656825, 0.040343523, 9.964012
358553174688322, 9.007781, -1.1102697, 4.0833516, 0.07154846, 0.0688982, 9.951719
358553184327905, 8.975478, -1.1270195, 4.080959, 0.08764994, 0.051276207, 9.923371
358553193967593, 8.989835, -1.1042876, 4.0031924, 0.08214873, 0.12974238, 9.901442
358553203607176, 8.993423, -1.0636097, 4.048656, 0.025399446, 0.09419036, 9.919428
358553213246759, 8.967103, -1.0468599, 4.126423, -0.009858608, 0.018510818, 9.926319
358553222886343, 9.007781, -1.0348958, 4.139583, -0.025737524, 0.022708893, 9.967252
358553232525926, 9.0436735, -1.0456635, 4.191029, -0.027806878, -0.011804581, 10.022238
358553242165509, 9.072387, -1.0277174, 4.2017965, -0.041775703, -0.003927231, 10.050758
358553251805093, 9.083155, -1.0217353, 4.191029, -0.040089726, 0.013699532, 10.055376
358553261444780, 9.104691, -1.0049855, 4.1431723, -0.043671012, 0.06863189, 10.053092
358553271084364, 9.084352, -0.9822537, 4.1647077, -0.06441754, 0.047237873, 10.041349
358553280723947, 9.0747795, -0.98943216, 4.1718864, -0.059184432, 0.035481215, 10.036458
358553290363530, 9.065208, -0.9834501, 4.1874394, -0.06684649, 0.01954174, 10.033692
358553300003114, 9.048459, -0.9906286, 4.1898327, -0.060077667, 0.007628441, 10.020329
358553309642697, 9.069994, -0.98584294, 4.219743, -0.07220125, -0.007824659, 10.051748
358553319282384, 9.069994, -1.006182, 4.1898327, -0.045026302, 0.014338255, 10.041398
358553328921968, 9.041281, -1.0145568, 4.1982074, -0.039575815, -0.0050451756, 10.019854
358553338561551, 9.052048, -1.0444671, 4.1754756, -0.0046156645, 0.0123000145, 10.023219
358553348201134, 9.044869, -1.0779666, 4.1347976, 0.03546667, 0.039438725, 10.00327
358553357840718, 9.029316, -1.0923235, 4.125226, 0.05134034, 0.038030863, 9.986748
358553367480301, 9.047262, -1.1294123, 4.133601, 0.08146727, 0.029007912, 10.010379
358553377119884, 9.022138, -1.1102697, 4.176672, 0.043424845, -0.021581173, 10.003695
358553386759468, 9.016156, -1.119841, 4.208975, 0.04488349, -0.05425048, 10.012773
358553396399155, 8.995817, -1.1377872, 4.1958146, 0.06206429, -0.053681612, 9.990866
358553406038739, 8.965906, -1.1365907, 4.182654, 0.06390238, -0.049749136, 9.958281
358553415678322, 8.968299, -1.1282159, 4.1276193, 0.07024109, 0.006418228, 9.936574
358553425317905, 8.979067, -1.119841, 4.1204405, 0.06444061, 0.019529581, 9.942392
358553434957489, 8.969496, -1.1150553, 4.1587257, 0.050635457, -0.020880222, 9.949232
358553444597072, 9.0341015, -1.0911272, 4.1814575, 0.02261293, -0.013123274, 10.0144615
358553454236655, 9.02453, -1.0731809, 4.1898327, 0.0044857264, -0.025838614, 10.007392
358553463876343, 9.019745, -1.0875379, 4.162315, 0.025657892, -0.007845879, 9.993133
358553473515926, 9.042477, -1.0959128, 4.1108694, 0.050153613, 0.041657448, 9.993119
358553483155509, 9.044869, -1.105484, 4.1072803, 0.059767127, 0.044636488, 9.994795
358553492795093, 9.000603, -1.0815558, 4.072584, 0.045722485, 0.06180024, 9.937838
358553502434676, 9.029316, -1.0839486, 4.063013, 0.047588825, 0.08061457, 9.96006
358553512074259, 9.022138, -1.032503, 4.106084, -0.014098525, 0.053132057, 9.966041
358553521713843, 9.022138, -1.0552348, 4.1347976, 2.7275085E-4, 0.018444538, 9.980415
358553531353426, 9.0747795, -1.0552348, 4.061816, 0.023386836, 0.10058403, 9.997641
358553540993114, 9.0544405, -1.0660025, 3.9984066, 0.060585976, 0.13710141, 9.954096
358553550632697, 9.066405, -1.0444671, 4.0881376, 0.01980567, 0.06361151, 9.999952
358553560272280, 9.068798, -1.018146, 4.186243, -0.028048754, -0.017689228, 10.040083
358553569911864, 9.072387, -1.0013963, 4.2329035, -0.05578047, -0.053328276, 10.06094
358553579551447, 9.060423, -0.9762716, 4.269992, -0.083924174, -0.076776266, 10.063016
358553589191030, 9.055637, -0.9631111, 4.254439, -0.09289861, -0.062055588, 10.050867
358553598830614, 9.014959, -0.96430755, 4.2017965, -0.07407594, -0.0255754, 9.992415
358553608470197, 9.017352, -0.9702896, 4.1635113, -0.050034165, 0.012540579, 9.979292
358553618109780, 9.025727, -0.96430755, 4.1407795, -0.049320698, 0.03114295, 9.976788
358553627749468, 9.030513, -1.0013963, 4.206582, -0.030759335, -0.032845736, 10.012305
358553637389051, 9.055637, -1.0109676, 4.26401, -0.037908435, -0.08312464, 10.059824
358553647028634, 9.075976, -1.0217353, 4.2915273, -0.03631234, -0.10707736, 10.090673
358553656668218, 9.084352, -1.0504491, 4.2221355, 0.0060464144, -0.046160936, 10.072397
358553666307801, 9.065208, -1.0719845, 4.159922, 0.04271984, -0.0057747364, 10.031464
358553675947384, 9.02812, -1.0683953, 4.109673, 0.049940825, 0.029458761, 9.976698
358553685586968, 9.040084, -1.079163, 4.072584, 0.06493223, 0.07332516, 9.973167
358553695226551, 9.005388, -1.0923235, 4.0558343, 0.081700444, 0.069998264, 9.936216
358553704866134, 9.026923, -1.1294123, 4.0366917, 0.12154317, 0.08522296, 9.951572
358553714505822, 9.040084, -1.125823, 4.0881376, 0.10226619, 0.04347253, 9.984544
358553724145405, 9.083155, -1.1473584, 4.1635113, 0.10064745, -0.01484561, 10.057068
358553733784989, 9.098708, -1.1533405, 4.2484565, 0.0823288, -0.08860612, 10.106998
358553743424572, 8.989835, -1.5026926, 4.2855453, 0.41180205, -0.24427795, 10.060411
358553753064155, 9.263813, -0.4941179, 4.1850467, -0.54357094, 0.1982348, 10.160818
358553762703739, 8.865408, -1.599602, 4.298706, 0.49776042, -0.33729458, 9.963511
358553772343322, 9.18485, -0.715454, 4.1491547, -0.30811763, 0.16686845, 10.097823
358553781982905, 8.965906, -1.0229317, 4.2041893, -0.033329964, -0.055232048, 9.955146
358553791622489, 9.047262, -1.3040884, 4.1204405, 0.2691543, -0.024308443, 10.022904
358553801262072, 9.1872425, -0.40438703, 4.2077785, -0.6142914, 0.1860466, 10.0926895
358553810901759, 8.928818, -1.7886349, 4.284349, 0.68313277, -0.36399937, 10.033916
358553820541343, 9.352347, -0.104087785, 4.1814575, -0.87525105, 0.357908, 10.201357
358553830180926, 8.863015, -1.9298115, 4.2520456, 0.80814683, -0.44434452, 9.975297
358553839820509, 9.357133, -0.12203395, 4.112066, -0.8369431, 0.40735054, 10.179072
358553849460093, 8.845069, -1.6079768, 4.173083, 0.53833795, -0.28985262, 9.892504
358553859099676, 9.217153, -0.5946164, 3.991228, -0.3649913, 0.3278103, 10.049809
358553868739259, 8.927621, -1.0444671, 4.0366917, 0.037971497, 0.031537533, 9.8532095
358553878378843, 9.017352, -1.2442678, 3.9744785, 0.25016916, 0.053565264, 9.929344
358553888018426, 9.079565, -0.44865423, 3.9984066, -0.51895726, 0.29307508, 9.913214
358553897658009, 8.819944, -1.8089739, 4.0211387, 0.76139843, -0.25154686, 9.82804
358553907297593, 9.230313, -0.07776674, 3.987639, -0.8731085, 0.47143793, 10.006067
358553916937176, 8.745767, -1.9716859, 4.082155, 0.8825731, -0.36960506, 9.804306
358553926576759, 9.284152, -0.16151553, 4.0031924, -0.8092343, 0.44223022, 10.069592
358553936216447, 8.785249, -1.7359928, 4.1611185, 0.636749, -0.3406694, 9.848232
358553945856030, 9.1872425, -0.61854464, 4.068995, -0.397184, 0.22000217, 10.0567665
358553955495614, 8.885747, -1.1760724, 4.150351, 0.115591526, -0.12212014, 9.876072
358553965135197, 9.005388, -1.262214, 4.0642095, 0.22439957, -0.018473864, 9.957778
358553974774780, 9.099904, -0.5312066, 4.191029, -0.5091672, 0.12545633, 10.018991
358553984414364, 8.863015, -1.7802601, 4.2245283, 0.68354106, -0.3498943, 9.948836
358553994053947, 9.254242, -0.13280165, 4.186243, -0.8747587, 0.29230165, 10.115958
358554003693530, 8.806784, -1.9908284, 4.261617, 0.852612, -0.48055005, 9.936113
358554013333114, 9.355937, -0.1160519, 4.156333, -0.8664999, 0.37382865, 10.194682
358554022972697, 8.819944, -1.7395821, 4.3262234, 0.6063322, -0.4455924, 9.948245
358554032612280, 9.286545, -0.5300102, 4.1671004, -0.46715367, 0.23659468, 10.178966
358554042251864, 8.993423, -1.2095718, 4.2125645, 0.14408135, -0.13165379, 10.002617
358554051891447, 9.142975, -1.1617154, 4.1431723, 0.12278426, 0.0046823025, 10.104176
358554061531030, 9.183653, -0.6053841, 4.1850467, -0.413849, 0.16047168, 10.100672
358554071170614, 8.98146, -1.747957, 4.2568316, 0.6281209, -0.34929347, 10.066085
358554080810197, 9.353543, -0.19142582, 4.2185464, -0.8215161, 0.31614137, 10.224811
358554090449780, 8.855837, -2.0315065, 4.229314, 0.92024255, -0.4566853, 9.969179
358554100089364, 9.391829, -0.15433706, 4.0558343, -0.7819325, 0.48684454, 10.189779
358554109729051, 8.863015, -1.8460627, 4.152744, 0.75518036, -0.31907344, 9.926437
358554119368634, 9.311669, -0.4761717, 4.0773697, -0.515746, 0.32697344, 10.15805
358554129008218, 8.916854, -1.2729816, 4.156333, 0.20733011, -0.13791704, 9.916847
358554138647801, 9.12144, -1.1006985, 3.9756749, 0.108279586, 0.14694214, 10.009241
358554148287384, 9.097511, -0.6867401, 4.0594234, -0.325675, 0.1756568, 9.978893
358554157926968, 8.906086, -1.7144574, 4.135994, 0.6228391, -0.27049208, 9.945003
358554167566551, 9.253045, -0.25124636, 4.0881376, -0.73650795, 0.34516072, 10.08629
358554177206134, 8.817552, -2.0733807, 4.159922, 0.9684131, -0.414114, 9.911799
358554186845718, 9.327223, -0.19142582, 4.028317, -0.7712965, 0.4465952, 10.122585
358554196485301, 8.7984085, -1.9154545, 4.1312084, 0.8045758, -0.35782576, 9.86775
358554206124884, 9.287741, -0.465404, 4.0163527, -0.5280267, 0.36404347, 10.109328
358554215764468, 8.88814, -1.3854443, 4.139583, 0.30480134, -0.16553259, 9.896176
358554225404051, 9.105886, -1.0516455, 4.054638, 0.018952966, 0.09497142, 10.022667
358554235043634, 9.035298, -0.7537391, 4.0965123, -0.27961957, 0.111643076, 9.944622
358554244683218, 8.940782, -1.6414764, 4.130012, 0.5567651, -0.20161915, 9.966866
358554254322801, 9.229117, -0.23090738, 4.17069, -0.7934802, 0.28541446, 10.095222
358554263962384, 8.815159, -1.9669002, 4.2628136, 0.8208307, -0.4657483, 9.942667
358554273601968, 9.335598, -0.0849452, 4.1443686, -0.9255663, 0.3778782, 10.165478
358554283241551, 8.830712, -1.8795621, 4.2460637, 0.7495791, -0.4119079, 9.940409
358554292881134, 9.341579, -0.3804588, 4.109673, -0.634651, 0.32155132, 10.187889
358554302520718, 8.946764, -1.422533, 4.2053857, 0.32725656, -0.21505141, 9.979987
358554312160301, 9.2075815, -0.95353985, 4.0833516, -0.07963598, 0.12951136, 10.116297
358554321799884, 9.059227, -0.8063812, 4.132405, -0.24068278, 0.05659008, 9.986765
358554331439468, 8.928818, -1.5900307, 4.080959, 0.52101994, -0.15826535, 9.930242
358554341079051, 9.170493, -0.28953153, 4.0737805, -0.72911143, 0.28826404, 10.008135
358554350718634, 8.810373, -1.969293, 4.112066, 0.8717315, -0.32242465, 9.876538
358554360358218, 9.284152, -0.148355, 4.0211387, -0.8511919, 0.41425943, 10.07427
358554369997801, 8.754142, -1.9740787, 4.152744, 0.8498163, -0.40615296, 9.843279
358554379637384, 9.274581, -0.35413775, 4.061816, -0.67538893, 0.31607437, 10.103741
358554389276968, 8.85464, -1.4799608, 4.1671004, 0.3704635, -0.24332476, 9.887527
358554398916551, 9.132208, -0.8650054, 4.0534415, -0.18245661, 0.13826823, 10.026138
358554408556134, 8.99462, -0.8362915, 4.071388, -0.22019482, 0.07048464, 9.905823
358554418195718, 8.946764, -1.4859428, 4.042674, 0.40983045, -0.103111744, 9.920547
358554427835301, 9.131011, -0.35174492, 4.098905, -0.68443996, 0.24520802, 9.988569
358554437474884, 8.780462, -1.9920249, 4.1001015, 0.8680717, -0.36903453, 9.848136
358554447114468, 9.284152, -0.16749759, 4.0007997, -0.8309665, 0.44609022, 10.066798
358554456754051, 8.773284, -1.9824536, 4.1276193, 0.8569585, -0.38458347, 9.85168
358554466393634, 9.288938, -0.2943172, 4.0510488, -0.72001076, 0.3719747, 10.105701
358554476033218, 8.889337, -1.5218352, 4.180261, 0.4183284, -0.23185873, 9.928851
358554485672801, 9.237492, -0.76689965, 4.089334, -0.277263, 0.1845293, 10.125764
358554495312384, 9.062816, -0.8650054, 4.1790648, -0.20862252, 0.008823395, 10.0151825
358554504951968, 9.071191, -1.43689, 4.1180477, 0.3579105, -0.086761236, 10.058521
358554514591551, 9.243474, -0.35294133, 4.188636, -0.70180476, 0.21342707, 10.127832
358554524231134, 8.889337, -1.8915263, 4.1874394, 0.76374364, -0.35031652, 9.971298
358554533870718, 9.323633, -0.10887343, 4.065406, -0.892713, 0.43607163, 10.123361
358554543510301, 8.816355, -1.9704895, 4.130012, 0.856349, -0.33207893, 9.890619
358554553149884, 9.3308115, -0.23688944, 4.095316, -0.78571284, 0.38334465, 10.155169
358554562789468, 8.866604, -1.5804594, 4.24726, 0.4453218, -0.3157549, 9.942621
358554572429051, 9.220742, -0.7322037, 4.1001015, -0.31680322, 0.19129705, 10.110989
358554582068634, 9.040084, -1.012164, 4.1108694, -0.05408013, 0.032868624, 9.982126
358554591708218, 9.053245, -1.396212, 4.0797625, 0.3234278, -0.033124924, 10.022446
358554601347801, 9.170493, -0.4139583, 4.168297, -0.64474165, 0.2016058, 10.059207
358554610987384, 8.851051, -1.8747765, 4.210171, 0.73952997, -0.35668373, 9.945215
358554620626968, 9.275777, -0.14237295, 4.156333, -0.9072539, 0.32866907, 10.119501
358554630266551, 8.73141, -2.0087745, 4.199404, 0.8495414, -0.45682764, 9.847705
358554639906134, 9.275777, -0.25722843, 4.0235314, -0.75811267, 0.42144012, 10.076838
358554649545718, 8.799605, -1.7383857, 4.1467614, 0.60345936, -0.30961108, 9.858532
358554659185301, 9.190832, -0.762114, 4.063013, -0.29206097, 0.2011199, 10.071472
358554668824884, 8.997013, -1.1425728, 4.1551366, 0.035710096, -0.07017875, 9.975504
358554678464468, 9.090333, -1.416551, 4.101298, 0.31784642, -0.063653946, 10.06759
358554688104051, 9.195618, -0.5838487, 4.139583, -0.47894466, 0.18831277, 10.088189
358554697743530, 8.967103, -1.9190438, 4.0905304, 0.80017304, -0.2550037, 10.005937
358554707383114, 9.355937, -0.18544376, 4.004389, -0.8076172, 0.48870492, 10.134694
358554717022697, 8.82473, -2.0315065, 4.1850467, 0.886163, -0.4096198, 9.927962
358554726662280, 9.336794, -0.18544376, 4.1108694, -0.84999967, 0.367913, 10.161274
358554736301864, 8.841479, -1.7012969, 4.237689, 0.554111, -0.36239243, 9.929039
358554745941447, 9.254242, -0.58624154, 4.1551366, -0.48326576, 0.17944598, 10.148108
358554755581030, 8.952746, -1.1688938, 4.269992, 0.036564946, -0.20167041, 9.98543
358554765220614, 9.064013, -1.2861422, 4.15394, 0.18525279, -0.08422947, 10.051084
358554774860197, 9.153743, -0.573081, 4.2329035, -0.5244447, 0.070819855, 10.0874605
358554784499780, 8.906086, -1.8436699, 4.229314, 0.68551135, -0.37476325, 9.99971
358554794139364, 9.26142, -0.2213361, 4.133601, -0.8254967, 0.31523824, 10.105875
358554803778947, 8.770891, -2.085345, 4.1072803, 0.94189334, -0.39642167, 9.854068
358554813418530, 9.312865, -0.21894327, 3.9493537, -0.78556144, 0.48036408, 10.076058
358554823058114, 8.780462, -1.8257236, 4.1108694, 0.6788422, -0.3435526, 9.836167
358554832697697, 9.218349, -0.6029913, 4.019942, -0.44679296, 0.2680285, 10.061314
358554842337280, 8.949157, -1.2693924, 4.0977087, 0.15297246, -0.11077809, 9.922413
358554851976864, 9.134601, -1.2143575, 4.0103707, 0.1326251, 0.055579424, 10.0487795
358554861616447, 9.180064, -0.64008003, 4.098905, -0.43926406, 0.16551471, 10.063001
358554871256030, 9.005388, -1.7826529, 4.119244, 0.6339133, -0.26811528, 10.038392
358554880895614, 9.333204, -0.19740787, 4.071388, -0.8480207, 0.3770435, 10.142118
358554890535197, 8.864211, -2.0087745, 4.101298, 0.8517462, -0.37077308, 9.928097
358554900174676, 9.333204, -0.13160525, 3.952943, -0.874691, 0.5092282, 10.0859995
358554909814259, 8.796016, -1.8257236, 4.0797625, 0.6824249, -0.3196051, 9.837672
358554919453843, 9.235099, -0.5312066, 3.9852462, -0.5133025, 0.31676912, 10.054233
358554929093426, 8.87139, -1.3256238, 4.1036906, 0.19830632, -0.16689706, 9.860624
358554938733009, 9.097511, -1.1557333, 4.025924, 0.06600118, 0.043261766, 10.015101
358554948372593, 9.083155, -0.7298109, 4.115655, -0.36791927, 0.0806613, 9.99165
358554958012176, 8.9013, -1.7503498, 4.1718864, 0.58045447, -0.33756638, 9.9624605
358554967651759, 9.236296, -0.25842485, 4.113262, -0.808736, 0.28886962, 10.077568
358554977291343, 8.766106, -2.065006, 4.092923, 0.9031242, -0.41184998, 9.842541
358554986930926, 9.280562, -0.19262223, 3.9553359, -0.81997484, 0.4691651, 10.045802
358554996570509, 8.730213, -1.8891335, 3.9984066, 0.7639371, -0.2867868, 9.7522745
358555006210093, 9.239884, -0.4941179, 3.9194436, -0.5178387, 0.4124534, 10.027133
358555015849676, 8.897711, -1.3938192, 4.0869412, 0.27009106, -0.14707923, 9.885366
358555025489259, 9.156136, -1.0731809, 4.0331025, -0.0121798515, 0.091341734, 10.062006
358555035128843, 9.153743, -0.7585248, 4.1443686, -0.3479879, 0.08335757, 10.070457
358555044768426, 9.030513, -1.6582261, 4.1443686, 0.51135445, -0.22991467, 10.057899
358555054408009, 9.311669, -0.2835495, 4.109673, -0.7793315, 0.31423354, 10.147458
358555064047593, 8.868998, -2.0135603, 4.1228333, 0.8538655, -0.3766153, 9.94185
358555073687072, 9.355937, -0.15553348, 4.011567, -0.86761713, 0.46374154, 10.1332445
358555083326655, 8.796016, -1.9286151, 4.1467614, 0.7739135, -0.3813429, 9.876271
358555092966239, 9.293723, -0.44745782, 4.061816, -0.6173258, 0.30049968, 10.129189
358555102605822, 8.903693, -1.5014962, 4.208975, 0.33788955, -0.27577066, 9.952663
358555112245405, 9.182457, -1.0767702, 4.112066, -0.033334017, 0.044457197, 10.118445
358555121884989, 9.048459, -0.9068798, 4.1814575, -0.22084832, -0.015562534, 10.006629
358555131524572, 8.939586, -1.7120646, 4.1611185, 0.55339646, -0.26406264, 9.989308
358555141164155, 9.218349, -0.3696911, 4.130012, -0.7118281, 0.26903152, 10.079312
358555150803739, 8.8187475, -2.0614166, 4.1084766, 0.9042115, -0.34583378, 9.897581
358555160443322, 9.297313, -0.23090738, 4.025924, -0.811955, 0.42813277, 10.092515
358555170082905, 8.780462, -2.032703, 4.191029, 0.8528193, -0.4312377, 9.893425
358555179722489, 9.323633, -0.42711884, 4.1383867, -0.66212714, 0.27378225, 10.184569
358555189362072, 8.902496, -1.579263, 4.2687955, 0.3861543, -0.33947134, 9.985328
358555199001655, 9.205189, -0.9738788, 4.1431723, -0.14484203, 0.07085276, 10.140208
358555208641239, 9.078369, -0.93679005, 4.1312084, -0.17992759, 0.043720007, 10.0163355
358555218280822, 9.020942, -1.5804594, 4.0570307, 0.45300698, -0.10594964, 10.005913
358555227920405, 9.253045, -0.38763726, 4.092923, -0.6773068, 0.32633567, 10.097321
358555237559989, 8.894122, -2.0063818, 4.1383867, 0.82810414, -0.35474968, 9.972242
358555247199468, 9.352347, -0.1794617, 4.0510488, -0.8680585, 0.4435315, 10.146888
358555256839051, 8.803194, -2.0458634, 4.141976, 0.86288536, -0.40882087, 9.89576
358555266478634, 9.3308115, -0.38165522, 4.0438704, -0.68331796, 0.37408352, 10.146711
358555276118218, 8.859426, -1.6438692, 4.145565, 0.48076177, -0.26493955, 9.903339
358555285757801, 9.170493, -0.8961121, 4.025924, -0.19837743, 0.1732099, 10.05185
358555295397384, 9.019745, -0.97866446, 4.0965123, -0.14095819, 0.02702856, 9.953613
358555305036968, 8.979067, -1.5206388, 4.0498524, 0.39063346, -0.0867486, 9.958772
358555314676551, 9.136993, -0.41754755, 4.119244, -0.6923147, 0.18842793, 10.005616
358555324316134, 8.797213, -1.948954, 4.1694937, 0.7596866, -0.3909998, 9.891615
358555333955718, 9.284152, -0.16510476, 4.106084, -0.92618763, 0.35737228, 10.104313
358555343595301, 8.762517, -2.0434706, 4.162315, 0.85340726, -0.4060583, 9.868595
358555353234884, 9.27817, -0.3361916, 4.0833516, -0.75499564, 0.34059906, 10.108669
358555362874468, 8.817552, -1.6534405, 4.176672, 0.45483744, -0.2840798, 9.881302
358555372514051, 9.183653, -0.85902333, 4.0163527, -0.24403119, 0.2520194, 10.054126
358555382153634, 8.987442, -1.1234303, 4.0510488, -0.012540817, 0.062189817, 9.921853
358555391793218, 9.017352, -1.5373886, 4.0331025, 0.38644397, -0.031628132, 9.989584
358555401432697, 9.180064, -0.55752766, 4.1443686, -0.5776967, 0.2237823, 10.0685835
358555411072280, 8.877372, -2.0231316, 4.214957, 0.7825211, -0.39974165, 9.994724
358555420711864, 9.326026, -0.25722843, 4.125226, -0.8493375, 0.3821237, 10.158299
358555430351447, 8.801998, -2.1164517, 4.1694937, 0.9012146, -0.4116578, 9.917539
358555439991030, 9.339187, -0.3278167, 4.072584, -0.76247126, 0.40843964, 10.157048
358555449630614, 8.823533, -1.753939, 4.2281175, 0.54425585, -0.33738708, 9.919575
358555459270197, 9.212367, -0.7477571, 4.159922, -0.38809675, 0.16916132, 10.126826
358555468909780, 8.980264, -1.1306087, 4.2771707, -0.062655926, -0.14060116, 10.009691
358555478549364, 9.05803, -1.3794622, 4.2664027, 0.17814147, -0.16927361, 10.10409
358555488188947, 9.172886, -0.58983076, 4.322634, -0.5879367, 0.045979023, 10.140372
358555497828530, 8.876176, -1.9597218, 4.35733, 0.6995039, -0.4928589, 10.043961
358555507468114, 9.314062, -0.24646074, 4.23051, -0.8842304, 0.28061295, 10.1906395
358555517107697, 8.779266, -2.1104696, 4.2460637, 0.8819281, -0.4678738, 9.927837
358555526747280, 9.288938, -0.30388847, 4.133601, -0.8033024, 0.34965062, 10.133894
358555536386864, 8.846265, -1.8197416, 4.1982074, 0.6167753, -0.3179562, 9.935356
358555546026447, 9.270991, -0.7298109, 4.085745, -0.3838141, 0.26057196, 10.147019
358555555666030, 8.974281, -1.2969099, 4.186243, 0.11832881, -0.11808634, 9.985809
358555565305614, 9.126225, -1.416551, 4.1001015, 0.25833094, -0.031618357, 10.101372
358555574945197, 9.171689, -0.6843473, 4.1347976, -0.44734496, 0.17122841, 10.072503
358555584584780, 8.921639, -1.9238294, 4.1288157, 0.72742856, -0.28552103, 9.986652
358555594224364, 9.288938, -0.27756742, 4.0474596, -0.808743, 0.4027977, 10.095892
358555603863843, 8.76132, -2.1020947, 4.089334, 0.89847076, -0.38775158, 9.846045
358555613503426, 9.30808, -0.21655045, 3.9649072, -0.8369318, 0.5101049, 10.072095
358555623143009, 8.768498, -1.8245273, 4.113262, 0.62730265, -0.32422018, 9.83035
358555632782593, 9.233903, -0.64845496, 4.063013, -0.46017325, 0.26037693, 10.095243
358555642422176, 8.904889, -1.3316058, 4.121637, 0.16074193, -0.13488531, 9.900207
358555652061759, 9.073584, -1.2705889, 4.0354953, 0.13533807, 0.028010607, 10.010516
358555661701343, 9.119047, -0.70348984, 4.1180477, -0.4244212, 0.14606524, 10.020418
358555671340926, 8.920443, -1.8735801, 4.173083, 0.65478504, -0.34828162, 9.997458
358555680980509, 9.27817, -0.28235307, 4.1276193, -0.81720126, 0.34516764, 10.120002
358555690620093, 8.804391, -2.0937197, 4.150351, 0.87014437, -0.4384992, 9.908427
358555700259676, 9.304491, -0.21535404, 4.0271206, -0.8411348, 0.46852088, 10.095079
358555709899259, 8.793623, -1.9094725, 4.1491547, 0.6938137, -0.3927679, 9.876929
358555719538843, 9.26142, -0.5395815, 4.0474596, -0.5541408, 0.31182814, 10.101618
358555729178426, 8.920443, -1.3435699, 4.15394, 0.16002524, -0.1760788, 9.92865
358555738818009, 9.138189, -1.1880364, 4.080959, 0.046976328, 0.030798912, 10.078144
358555748457593, 9.122637, -0.7465607, 4.1479583, -0.39274997, 0.0916934, 10.041054
358555758097176, 8.9312105, -1.8077775, 4.1575294, 0.6127746, -0.30370045, 9.992593
358555767736759, 9.24826, -0.29910284, 4.1383867, -0.8092061, 0.28457475, 10.100011
358555777376343, 8.817552, -2.0841484, 4.1431723, 0.8762729, -0.40909004, 9.915823
358555787015926, 9.328419, -0.20338993, 4.0067816, -0.86514336, 0.46806502, 10.106806
358555796655509, 8.810373, -1.9142581, 4.0905304, 0.7174933, -0.3346336, 9.868774
358555806295093, 9.304491, -0.49052864, 4.0103707, -0.5946682, 0.37091994, 10.119588
358555815934676, 8.9348, -1.3782659, 4.1551366, 0.19309843, -0.16874218, 9.94634
358555825574259, 9.212367, -1.1162517, 4.048656, -0.015468955, 0.10821986, 10.123902
358555835213843, 9.101101, -0.81595254, 4.1001015, -0.3195697, 0.10953927, 10.009622
358555844853426, 8.999406, -1.7312071, 4.080959, 0.5509182, -0.18875504, 10.015062
358555854493009, 9.274581, -0.36490545, 4.0737805, -0.742464, 0.32291126, 10.104017
358555864132593, 8.8187475, -2.1020947, 4.1144586, 0.8834593, -0.40141773, 9.908393
358555873772176, 9.335598, -0.21535404, 4.0163527, -0.8705267, 0.44482183, 10.118061
358555883411759, 8.772088, -2.0051854, 4.152744, 0.7723918, -0.42965722, 9.870887
358555893051343, 9.239884, -0.5024927, 4.074977, -0.6184179, 0.27438498, 10.088391
358555902690926, 8.868998, -1.5421742, 4.168297, 0.33387852, -0.26119828, 9.911226
358555912330405, 9.103494, -1.0959128, 4.109673, -0.066471934, 0.018684626, 10.04785
358555921969989, 9.000603, -0.92602235, 4.1479583, -0.23803043, -0.0011923313, 9.950743
358555931609572, 8.944371, -1.7312071, 4.1431723, 0.52806675, -0.24881291, 9.991197
358555941249155, 9.18126, -0.38883367, 4.1778684, -0.75217605, 0.2101245, 10.0643635
358555950888739, 8.7780695, -2.070988, 4.219743, 0.8253691, -0.48005676, 9.91151
358555960528322, 9.304491, -0.25004998, 4.113262, -0.8553848, 0.3681469, 10.133498
358555970167905, 8.792427, -2.0673988, 4.2161536, 0.8234949, -0.4745133, 9.922379
358555979807489, 9.311669, -0.47377887, 4.0773697, -0.6382455, 0.3185184, 10.151246
358555989447072, 8.873783, -1.6139588, 4.226921, 0.38756597, -0.3354442, 9.947512
358555999086655, 9.174082, -1.0097711, 4.074977, -0.12987709, 0.10036945, 10.087712
358556008726239, 9.053245, -0.96550393, 4.06062, -0.1712625, 0.07340431, 9.967315
358556018365822, 8.967103, -1.6187445, 4.022335, 0.45942974, -0.12076664, 9.949009
358556028005405, 9.229117, -0.40797627, 4.0091743, -0.6758926, 0.3601067, 10.041416
358556037644989, 8.861818, -2.0111675, 4.0881376, 0.81311977, -0.3256197, 9.92584
358556047284572, 9.303294, -0.15314065, 4.0163527, -0.9289196, 0.44092345, 10.08209
358556056924155, 8.766106, -2.0267208, 4.115655, 0.81488967, -0.39835644, 9.852313
358556066563739, 9.285348, -0.37208393, 4.005585, -0.7274108, 0.37373185, 10.08623
358556076203322, 8.806784, -1.6654046, 4.040281, 0.49168432, -0.21267247, 9.816817
358556085842905, 9.150154, -0.94636136, 3.900301, -0.14950252, 0.24936533, 9.987429
358556095482489, 8.991031, -1.0516455, 3.9948175, -0.076869845, 0.073277235, 9.8940325
358556105122072, 9.042477, -1.599602, 4.0271206, 0.43526495, -0.09674263, 10.017186
358556114761655, 9.247063, -0.50129634, 4.1383867, -0.6344379, 0.22681141, 10.120857
358556124401239, 8.900104, -2.03031, 4.2053857, 0.7783121, -0.44670963, 10.010692
358556134040822, 9.349955, -0.21655045, 4.1371903, -0.89391476, 0.36950254, 10.18083
358556143680405, 8.800801, -2.0518453, 4.1838503, 0.80709636, -0.47088623, 9.914417
358556153319989, 9.316455, -0.2955136, 4.031906, -0.7772021, 0.43236208, 10.116766
358556162959572, 8.833105, -1.6426728, 4.165904, 0.44091392, -0.29368854, 9.889197
358556172599259, 9.175279, -0.7932207, 4.089334, -0.33098137, 0.16443396, 10.069807
358556182238843, 9.020942, -1.0396814, 4.188636, -0.13220894, -0.062229395, 9.9990835
358556191878426, 9.050852, -1.4392828, 4.199404, 0.24566674, -0.17497206, 10.076382
358556201518009, 9.208778, -0.47018966, 4.2006, -0.6714443, 0.18228006, 10.108593
358556211157593, 8.919247, -1.942972, 4.1922255, 0.72600067, -0.3646307, 10.012134
358556220797176, 9.3308115, -0.20937198, 4.0977087, -0.8819883, 0.3973055, 10.147085
358556230436759, 8.827123, -2.0662024, 4.174279, 0.83439267, -0.4409182, 9.935859
358556240076343, 9.381062, -0.28235307, 4.06062, -0.80420244, 0.42802525, 10.185417
358556249715926, 8.872586, -1.7515461, 4.1754756, 0.5353496, -0.3219874, 9.941582
358556259355509, 9.225528, -0.77647096, 4.042674, -0.33819354, 0.23661709, 10.093865
358556268995093, 8.971889, -1.2095718, 4.1024942, 0.042535305, -0.054258585, 9.938992
358556278634676, 9.067601, -1.4691931, 4.0307097, 0.31234682, -0.03038764, 10.026369
358556288274259, 9.180064, -0.6257231, 4.089334, -0.5063466, 0.21987677, 10.054006
358556297913843, 8.8701935, -1.9788643, 4.162315, 0.7399529, -0.38833046, 9.9610615
358556307553426, 9.286545, -0.26081768, 4.1383867, -0.8695277, 0.32764244, 10.127723
358556317193009, 8.76132, -2.1367905, 4.1814575, 0.88517284, -0.48967242, 9.888776
358556326832593, 9.265009, -0.33020952, 4.037888, -0.7722761, 0.37948108, 10.075395
358556336472176, 8.788837, -1.8364913, 4.1228333, 0.6241869, -0.32822847, 9.854784
358556346111759, 9.182457, -0.73340017, 4.0570307, -0.3991078, 0.2103641, 10.055414
358556355751343, 8.914461, -1.2646067, 4.1647077, 0.0706414, -0.1446116, 9.918958
358556365390926, 9.060423, -1.3459628, 4.1288157, 0.15993762, -0.08239269, 10.045777
358556375030509, 9.142975, -0.613759, 4.206582, -0.55906343, 0.092493534, 10.067021
358556384670093, 8.9312105, -1.8652053, 4.249653, 0.6181989, -0.3829751, 10.038736
358556394309676, 9.292527, -0.2536392, 4.1479583, -0.8761199, 0.3161049, 10.136739
358556403949259, 8.813962, -2.0937197, 4.213761, 0.8400054, -0.4802475, 9.944302
358556413588843, 9.359526, -0.22372891, 4.048656, -0.86526006, 0.44708014, 10.153513
358556423228530, 8.817552, -1.8029919, 4.193422, 0.57386684, -0.3698206, 9.905489
358556432868114, 9.2793665, -0.58624154, 4.045067, -0.52397466, 0.31087613, 10.121349
358556442507697, 8.991031, -1.2610176, 4.0594234, 0.10539663, -0.024383545, 9.944648
358556452147280, 9.136993, -1.2215359, 3.973282, 0.09207988, 0.11615586, 10.037023
358556461786864, 9.18126, -0.6903293, 4.046263, -0.43615448, 0.214679, 10.045299
358556471426447, 8.983852, -1.855634, 4.0594234, 0.66796374, -0.2004211, 10.007274
358556481066030, 9.30808, -0.3074777, 4.058227, -0.8218949, 0.33710313, 10.120026
358556490705614, 8.79482, -2.1391835, 4.1108694, 0.9155805, -0.4048066, 9.890503
358556500345197, 9.314062, -0.28235307, 3.9684963, -0.819015, 0.43099904, 10.085829
358556509984780, 8.734999, -1.9764715, 4.121637, 0.7438315, -0.3904829, 9.82287
358556519624364, 9.163314, -0.6305088, 4.0031924, -0.50512457, 0.25570846, 10.003443
358556529263947, 8.805588, -1.3938192, 4.065406, 0.19389284, -0.16086674, 9.795159
358556538903530, 8.9826565, -1.2382857, 3.9816568, 0.07260227, 0.033466816, 9.902963
358556548543114, 8.995817, -0.8135597, 4.063013, -0.3589669, 0.100120306, 9.897263
358556558182801, 8.842676, -1.8807586, 4.159922, 0.6176605, -0.3567345, 9.926044
358556567822384, 9.182457, -0.3493521, 4.1407795, -0.8193923, 0.25996637, 10.042242
358556577461968, 8.743374, -2.1906292, 4.1958146, 0.8987291, -0.48443818, 9.889788
358556587101551, 9.288938, -0.3062813, 4.0127635, -0.8207114, 0.45856094, 10.079515
358556596741134, 8.73141, -2.056631, 4.1108694, 0.7880603, -0.3631358, 9.829222
358556606380718, 9.249456, -0.6376872, 4.0390844, -0.524073, 0.3503909, 10.093357
358556616020301, 8.886943, -1.5601203, 4.1228333, 0.31497765, -0.15357757, 9.913964
358556625659884, 9.145369, -1.2634103, 4.0677986, 0.05589235, 0.09156346, 10.088086
358556635299468, 9.129815, -0.9415757, 4.115655, -0.26456332, 0.13514137, 10.054375
358556644939051, 8.999406, -1.8652053, 4.162315, 0.6008644, -0.22959042, 10.068735
358556654578634, 9.27817, -0.47018966, 4.2041893, -0.73177636, 0.26638103, 10.167314
358556664218218, 8.848659, -2.2097716, 4.223332, 0.90539634, -0.44456077, 10.00005
358556673857905, 9.316455, -0.30987054, 4.1491547, -0.8704513, 0.37821388, 10.159089
358556683497489, 8.71466, -2.1284158, 4.2652063, 0.8161802, -0.49388933, 9.887233
358556693137072, 9.195618, -0.6089734, 4.145565, -0.59412277, 0.24052358, 10.084895
358556702776655, 8.799605, -1.6199409, 4.2077785, 0.34971058, -0.25857115, 9.87793
358556712416239, 9.083155, -1.1569297, 4.0773697, -0.05043924, 0.10269928, 10.022676
358556722055822, 8.962317, -1.1497513, 4.1347976, -0.07545769, -0.004690647, 9.936595
358556731695405, 9.038888, -1.1904292, 4.1551366, -0.040352702, -0.005697012, 10.019087
358556741334989, 9.0544405, -1.1521441, 4.226921, -0.097809315, -0.0512197, 10.058081
358556750974572, 9.084352, -1.1437693, 4.176672, -0.0892477, 0.0020825863, 10.063313
358556760614259, 9.078369, -1.146162, 4.194618, -0.086491466, -0.01988101, 10.065656
358556770253843, 9.096315, -1.154537, 4.1850467, -0.07560253, -0.005760908, 10.078929
358556779893426, 9.109476, -1.1712867, 4.141976, -0.044391155, 0.03545499, 10.075079
358556789533009, 9.073584, -1.1282159, 4.1479583, -0.08674443, 0.028610706, 10.039921
358556799172593, 9.098708, -1.1485549, 4.1467614, -0.06590128, 0.036071062, 10.064574
358556808812176, 9.090333, -1.1234303, 4.089334, -0.071626544, 0.08947253, 10.030243
358556818451759, 9.12144, -1.125823, 4.06062, -0.06092167, 0.12589169, 10.046751
358556828091343, 9.123833, -1.1413764, 4.082155, -0.0483557, 0.09559083, 10.059799
358556837730926, 9.138189, -1.1641082, 4.098905, -0.029976964, 0.07621765, 10.0824585
358556847370614, 9.133404, -1.1772687, 4.1288157, -0.025608301, 0.044915438, 10.09205
358556857010197, 9.116654, -1.1569297, 4.1671004, -0.054772258, 0.006309986, 10.090272
358556866649780, 9.127422, -1.1641082, 4.186243, -0.05202329, -0.0031545162, 10.108755
358556876289364, 9.056833, -1.174876, 4.139583, -0.027995825, 0.009316206, 10.027057
358556885928947, 9.01137, -1.1318051, 4.0869412, -0.055071473, 0.050112247, 9.959081
358556895568530, 9.005388, -1.1306087, 4.1108694, -0.06491709, 0.026719093, 9.963415
358556905208114, 8.988638, -1.1569297, 4.193422, -0.065555096, -0.060359478, 9.985537
358556914847801, 8.983852, -1.2107682, 4.2006, -0.017944217, -0.08146644, 9.990677
358556924487384, 9.006584, -1.2370893, 4.1958146, 0.008803129, -0.074833155, 10.012398
358556934126968, 9.006584, -1.253839, 4.1790648, 0.027427673, -0.057366848, 10.007558
358556943766551, 8.96471, -1.2729816, 4.229314, 0.03126335, -0.12357736, 9.9928665
358556953406134, 8.999406, -1.268196, 4.241278, 0.024288297, -0.11457324, 10.028578
358556963045718, 8.950353, -1.2311072, 4.210171, -0.003211975, -0.09710288, 9.966973
358556972685301, 8.945567, -1.2346965, 4.1778684, 0.010389209, -0.07062721, 9.94973
358556982324989, 8.963513, -1.2119647, 4.1982074, -0.0145365, -0.07507086, 9.971585
358556991964572, 8.968299, -1.2323036, 4.1838503, 0.010921717, -0.06603265, 9.972416
358557001604155, 8.99821, -1.2299109, 4.1347976, 0.022513628, -0.010391712, 9.978798
358557011243739, 9.0436735, -1.2311072, 4.130012, 0.024474502, 0.0133214, 10.017979
358557020883322, 9.044869, -1.227518, 4.135994, 0.020838618, 0.0069875717, 10.0211
358557030522905, 9.073584, -1.2095718, 4.130012, 0.0059999228, 0.03011322, 10.042362
358557040162593, 9.139386, -1.2059826, 4.1072803, 0.010248065, 0.08093953, 10.091872
358557049802176, 9.128618, -1.1964114, 4.112066, 5.6672096E-4, 0.074379206, 10.082987
358557059441759, 9.134601, -1.2143575, 4.1491547, 0.010210514, 0.041038513, 10.105904
358557069081343, 9.145369, -1.2011969, 4.1144586, 0.010233164, 0.07946849, 10.099653
358557078720926, 9.159725, -1.1880364, 4.1288157, -0.0039316416, 0.07718563, 10.116974
358557088360509, 9.116654, -1.180858, 4.2077785, -0.03377056, -0.0077097416, 10.109996
358557098000197, 9.119047, -1.1916257, 4.219743, -0.026765466, -0.020450115, 10.118404
358557107639780, 9.099904, -1.2131611, 4.1958146, 5.0258636E-4, -0.0136191845, 10.093794
358557117279364, 9.078369, -1.2239288, 4.2161536, 0.0040507317, -0.04220748, 10.084092
358557126918947, 9.092726, -1.2346965, 4.2281175, 0.009258747, -0.048766375, 10.1033
358557136558530, 9.084352, -1.2598212, 4.2257247, 0.028059363, -0.057653904, 10.097783
358557146198114, 9.098708, -1.2514462, 4.2508492, 0.010360718, -0.069690466, 10.120149
358557155837801, 9.078369, -1.2574283, 4.2460637, 0.015868545, -0.07300997, 10.100565
358557165477384, 9.059227, -1.2466606, 4.2161536, 0.011821985, -0.049016953, 10.069616
358557175116968, 8.992228, -1.2801601, 4.211368, 0.04460764, -0.0791564, 10.011311
358557184756551, 8.985049, -1.282553, 4.156333, 0.060324788, -0.03386569, 9.982304
358557194396134, 8.979067, -1.2610176, 4.1180477, 0.047194242, -5.9342384E-4, 9.958407
358557204035822, 8.965906, -1.253839, 4.191029, 0.021215796, -0.06717944, 9.975939
358557213675405, 8.949157, -1.2442678, 4.2185464, 0.0016965866, -0.101652384, 9.97103
358557223314989, 8.962317, -1.2646067, 4.2041893, 0.02110827, -0.092455864, 9.979406
358557232954572, 8.958728, -1.2562319, 4.159922, 0.02201593, -0.055321693, 9.956824
358557242594155, 8.956335, -1.2466606, 4.1180477, 0.021188498, -0.017713785, 9.93618
358557252233739, 9.004191, -1.2299109, 4.071388, 0.014028907, 0.04604721, 9.958014
358557261873426, 9.010174, -1.2227324, 4.0151563, 0.022046685, 0.09930253, 9.939288
358557271513009, 9.010174, -1.2143575, 4.007978, 0.015173078, 0.09200382, 9.935446
358557281152593, 9.030513, -1.1988041, 4.034299, -0.0064872503, 0.08158016, 9.962738
358557290792176, 9.060423, -1.1892328, 4.0534415, -0.020326018, 0.07041836, 9.996529
358557300431759, 9.064013, -1.1880364, 4.0845485, -0.029897094, 0.03834462, 10.012439
358557310071447, 9.089137, -1.2035898, 4.1240296, -0.023603082, 0.010007858, 10.053258
358557319711030, 9.050852, -1.1940185, 4.109673, -0.027691245, 0.013618469, 10.011597
358557329350614, 9.0341015, -1.1928221, 4.058227, -0.014221907, 0.05133915, 9.975178
358557338990197, 9.044869, -1.1617154, 4.1084766, -0.058374405, 0.025513649, 10.001738
358557348629884, 9.022138, -1.1724831, 4.139583, -0.057510376, -0.011052847, 9.995319
358557358269468, 9.001799, -1.1593226, 4.182654, -0.08223617, -0.05232835, 9.993072
358557367909051, 8.991031, -1.1880364, 4.1647077, -0.04890454, -0.047245264, 9.97949
358557377548634, 8.988638, -1.1928221, 4.1204405, -0.030320644, -0.008735657, 9.959692
358557387188218, 8.974281, -1.2071791, 4.072584, -0.001157403, 0.022576332, 9.928769
358557396827905, 8.971889, -1.2215359, 4.071388, 0.011923552, 0.015394688, 9.927878
358557406467489, 8.9826565, -1.2119647, 4.109673, -0.009860873, -0.014002323, 9.952189
358557416107072, 8.963513, -1.2263216, 4.1778684, -0.017395735, -0.08414388, 9.96472
358557425746655, 8.9312105, -1.2167503, 4.1958146, -0.031857014, -0.11097884, 9.941757
358557435386239, 8.894122, -1.2131611, 4.165904, -0.027568936, -0.09162283, 9.895595
358557445025926, 8.840283, -1.2406785, 4.1467614, 0.0056785345, -0.07148337, 9.842783
358557454665509, 8.815159, -1.2705889, 4.0474596, 0.06341505, 0.012083292, 9.782596
358557464305093, 8.860622, -1.2406785, 4.0211387, 0.042158484, 0.071899414, 9.808799
358557473944676, 8.868998, -1.2693924, 4.1024942, 0.045250297, -0.0021157265, 9.853876
358557483584364, 8.896515, -1.302892, 4.1515474, 0.06262958, -0.039653063, 9.9033
358557493223947, 8.977871, -1.3136597, 4.1790648, 0.06875515, -0.032989025, 9.9893265
358557502863530, 9.01137, -1.3232309, 4.194618, 0.073476076, -0.034360647, 10.027163
358557512503114, 9.01137, -1.3136597, 4.23051, 0.06182778, -0.05697894, 10.040948
358557522142697, 9.025727, -1.2981063, 4.23051, 0.047635436, -0.045953274, 10.051948
358557531782384, 9.05803, -1.2777673, 4.211368, 0.037591696, -0.0016784668, 10.070492
358557541421968, 9.062816, -1.2370893, 4.202993, 0.006341219, 0.032660484, 10.066234
358557551061551, 9.098708, -1.1856437, 4.2257247, -0.047819257, 0.04087138, 10.101734
358557560701134, 9.120243, -1.1772687, 4.241278, -0.057186365, 0.034607887, 10.1266365
358557570340822, 9.113065, -1.1916257, 4.258028, -0.045065522, 0.008290052, 10.129001
358557579980405, 9.141779, -1.227518, 4.2053857, 0.0033619404, 0.05781436, 10.137102
358557589619989, 9.171689, -1.2191432, 4.1790648, 0.004009962, 0.09177637, 10.151962
358557599259572, 9.15135, -1.2155539, 4.210171, -0.008354425, 0.051954746, 10.146307
358557608899259, 9.165708, -1.1916257, 4.2975097, -0.059275508, -0.021049261, 10.192881
358557618538843, 9.199206, -1.1676974, 4.3238306, -0.08998072, -0.023176908, 10.231119
358557628178426, 9.1681, -1.1736795, 4.3298125, -0.08459246, -0.038962364, 10.206381
358557637818009, 9.15135, -1.1712867, 4.24726, -0.06174171, 0.030283928, 10.156457
358557647457593, 9.127422, -1.2095718, 4.1479583, 0.0034166574, 0.100664854, 10.097937
358557657097280, 9.084352, -1.2167503, 4.1240296, 0.015253425, 0.10076666, 10.050033
358557666736864, 9.049655, -1.227518, 4.1479583, 0.01578021, 0.05849719, 10.030204
358557676376447, 9.0341015, -1.2119647, 4.202993, -0.014113903, 0.007860184, 10.037369
358557686016030, 9.013762, -1.1964114, 4.3034916, -0.063878894, -0.09465194, 10.059142
358557695655718, 8.971889, -1.2179468, 4.3238306, -0.048659444, -0.13555694, 10.032595
