timestamp_acc,device_acc_x,device_acc_y,device_acc_z,earth_acc_x,earth_acc_y,earth_acc_z
358675313774526, 8.4705925, -0.2105684, 5.534599, -0.042464018, 0.020162582, 10.120516
358675323414213, 8.478967, -0.22492532, 5.548956, -0.036131382, 0.009104967, 10.135729
358675333054005, 8.488539, -0.2428715, 5.5633125, -0.027052402, -0.004017353, 10.152043
358675342693797, 8.493324, -0.2548356, 5.568098, -0.018603802, -0.012356997, 10.158973
358675352333588, 8.518449, -0.3074777, 5.656633, -0.017749786, -0.08989763, 10.229742
358675361973380, 8.513663, -0.30987054, 5.666204, -0.027000189, -0.098860025, 10.231023
358675371613172, 8.482556, -0.29671, 5.613562, -0.020277023, -0.06911731, 10.175888
358675381252859, 8.459825, -0.30269206, 5.5453663, 0.014271498, -0.038588285, 10.119765
358675390892651, 8.467003, -0.32422748, 5.538188, 0.037333727, -0.043869257, 10.122425
358675400532442, 8.441878, -0.32422748, 5.471189, 0.06504965, -0.010812283, 10.064789
358675410172234, 8.413164, -0.30987054, 5.3790655, 0.09253311, 0.048362255, 9.990035
358675419812026, 8.419147, -0.30269206, 5.345566, 0.10699391, 0.07863951, 9.976527
358675429451713, 8.451449, -0.3062813, 5.389833, 0.09715247, 0.06179309, 10.027855
358675439091505, 8.433503, -0.3278167, 5.485546, 0.058418512, -0.0242939, 10.065716
358675448731297, 8.408379, -0.29192436, 5.51426, 0.0051338673, -0.035125017, 10.059416
358675458371088, 8.376076, -0.25962126, 5.5130634, -0.034341335, -0.02921915, 10.030848
358675468010880, 8.34138, -0.2548356, 5.5453663, -0.0652585, -0.063506365, 10.019299
358675477650672, 8.348558, -0.2416751, 5.568098, -0.08836508, -0.06603646, 10.037349
358675487290359, 8.3784685, -0.2105684, 5.572884, -0.10626769, -0.033067226, 10.064181
358675496930151, 8.336594, -0.20219351, 5.4592247, -0.06637621, 0.028004646, 9.966826
358675506569942, 8.248059, -0.2835495, 5.3814583, 0.013493776, -0.009511948, 9.8524475
358675516209734, 8.366505, -0.26799613, 5.3647084, 0.0486331, 0.06368351, 9.942025
358675525849526, 8.35454, -0.30987054, 5.352744, 0.083137274, 0.043564558, 9.926601
358675535489317, 8.379665, -0.30029923, 5.3742795, 0.0693233, 0.04788661, 9.959154
358675545129005, 8.3581295, -0.29192436, 5.406583, 0.034589767, 0.022336006, 9.958563
358675554768797, 8.37129, -0.26081768, 5.4556355, -0.011866808, 0.014777899, 9.995504
358675564408588, 8.379665, -0.2536392, 5.477171, -0.031110048, 0.008604765, 10.014064
358675574048380, 8.414361, -0.23330021, 5.453243, -0.030861616, 0.05686164, 10.029435
358675583688172, 8.425129, -0.22612174, 5.4424753, -0.029329777, 0.074448586, 10.032351
358675593327963, 8.432307, -0.2321038, 5.4149575, -0.00888896, 0.09280038, 10.023511
358675602967651, 8.5016985, -0.28235307, 5.4676, 0.02722478, 0.059179068, 10.111826
358675612607442, 8.4682, -0.33140594, 5.447261, 0.06657934, 0.02717185, 10.074111
358675622247234, 8.46461, -0.33379877, 5.48076, 0.049987078, 0.0013382435, 10.089464
358675631887026, 8.408379, -0.30987054, 5.4783673, 0.013477087, -0.007543087, 10.040375
358675641526817, 8.411968, -0.31226337, 5.503492, 0.0014486313, -0.023516417, 10.057166
358675651166609, 8.41795, -0.30029923, 5.5836515, -0.051261425, -0.063416004, 10.105571
358675660806297, 8.420342, -0.2536392, 5.4412785, -0.006631851, 0.057554245, 10.028493
358675670446088, 8.322237, -0.2632105, 5.4628143, -0.041876316, -0.0020816326, 9.958387
358675680085880, 8.428718, -0.2536392, 5.491528, -0.027225971, 0.032753944, 10.062935
358675689725672, 8.449057, -0.2644069, 5.4963136, -0.012980461, 0.032413006, 10.082892
358675699365463, 8.452646, -0.30987054, 5.487939, 0.029426575, 0.010380745, 10.082646
358675709005255, 8.444271, -0.28713873, 5.5262237, -0.010868788, -0.0032765865, 10.0959
358675718644942, 8.447861, -0.276371, 5.552545, -0.032574177, -0.012424707, 10.112976
358675728284734, 8.462217, -0.27756742, 5.5501523, -0.025700092, -0.004886627, 10.123719
358675737924526, 8.427522, -0.276371, 5.5298133, -0.026207447, -0.0057201385, 10.083532
358675747564317, 8.394022, -0.26679972, 5.505885, -0.030249834, -2.4580956E-4, 10.042143
358675757204109, 8.374879, -0.28953153, 5.453243, 0.010505915, 0.011331797, 9.998001
358675766843901, 8.372486, -0.30508488, 5.40419, 0.047856092, 0.032752037, 9.969627
358675776483692, 8.390432, -0.3278167, 5.410172, 0.06886768, 0.022505522, 9.988571
358675786123380, 8.372486, -0.3361916, 5.432904, 0.057614088, -0.007234812, 9.986221
358675795763172, 8.356933, -0.3385844, 5.45085, 0.043694258, -0.027544975, 9.983089
358675805402963, 8.329415, -0.29192436, 5.541777, -0.051765442, -0.0703578, 10.008399
358675815042755, 8.311469, -0.26081768, 5.535795, -0.07950759, -0.053611755, 9.989212
358675824682547, 8.3174515, -0.2847459, 5.493921, -0.036904573, -0.038377285, 9.972033
358675834322338, 8.329415, -0.31585258, 5.4699926, 0.004528761, -0.034538984, 9.969881
358675843962026, 8.362915, -0.31585258, 5.453243, 0.023744822, -0.007621765, 9.988761
358675853601817, 8.40479, -0.32303107, 5.4687963, 0.034555435, -0.0035996437, 10.032515
358675863241609, 8.416754, -0.3361916, 5.4867425, 0.038044214, -0.017111778, 10.05273
358675872881401, 8.446664, -0.3469593, 5.517849, 0.03728795, -0.029129982, 10.095095
358675882521192, 8.493324, -0.32183465, 5.532206, 0.02509451, -0.0019967556, 10.141243
358675892160984, 8.469396, -0.27996024, 5.4664035, 0.01623249, 0.054394722, 10.084017
358675901800776, 8.435896, -0.26679972, 5.528617, -0.038229942, 0.0078241825, 10.089581
358675911440463, 8.420342, -0.2835495, 5.599205, -0.07608199, -0.06698179, 10.115503
358675921080255, 8.395218, -0.28594232, 5.584848, -0.07313299, -0.071816206, 10.086699
358675930720047, 8.4012, -0.31106696, 5.5226345, -0.021844387, -0.04765463, 10.058512
358675940359838, 8.427522, -0.31465617, 5.505885, -0.00506258, -0.028196573, 10.071548
358675949999630, 8.462217, -0.33020952, 5.5106707, 0.015530586, -0.025030613, 10.103701
358675959639422, 8.474181, -0.38285163, 5.5106707, 0.054451942, -0.05480504, 10.115328
358675969279213, 8.487342, -0.36370903, 5.48076, 0.058855772, -0.017127514, 10.109513
358675978918901, 8.489735, -0.34576288, 5.4520464, 0.056031227, 0.011866808, 10.095379
358675988558692, 8.447861, -0.32542387, 5.4616175, 0.018424988, -0.004509449, 10.064848
358675998198484, 8.451449, -0.32063824, 5.42094, 0.034241676, 0.02375555, 10.04563
358676007838276, 8.445468, -0.29072794, 5.4233327, 0.0069236755, 0.03540826, 10.040999
358676017478067, 8.445468, -0.30987054, 5.4687963, -0.001352787, -0.010890007, 10.066259
358676027117859, 8.46461, -0.3481557, 5.508278, 0.014830589, -0.051350594, 10.104906
358676036757651, 8.510074, -0.30269206, 5.483153, 0.006624937, 0.012912512, 10.128068
358676046397442, 8.403593, -0.29910284, 5.495117, -0.03510499, -0.040616274, 10.045063
358676056037130, 8.433503, -0.27038896, 5.5226345, -0.06420255, -0.03273487, 10.084215
358676065676922, 8.429914, -0.2620141, 5.4676, -0.043442726, 0.0044989586, 10.051112
358676075316713, 8.40479, -0.23928227, 5.386244, -0.027031422, 0.060623407, 9.985238
358676084956505, 8.420342, -0.26919255, 5.373083, 0.011187553, 0.055677652, 9.992069
358676094596297, 8.441878, -0.29192436, 5.419743, 0.011029482, 0.020998955, 10.036115
358676104236088, 8.439486, -0.31465617, 5.4125648, 0.03257966, 0.008039236, 10.030885
358676113875880, 8.441878, -0.32662028, 5.4173503, 0.04062915, -0.0015957355, 10.035837
358676123515672, 8.439486, -0.34097722, 5.413761, 0.053308487, -0.008833647, 10.032301
358676133155463, 8.452646, -0.33020952, 5.456832, 0.02562952, -0.026506424, 10.066377
358676142795151, 8.427522, -0.31345975, 5.4687963, -0.002146244, -0.03516054, 10.051262
358676152434942, 8.410771, -0.29072794, 5.45085, -0.014902592, -0.017064333, 10.026807
358676162074734, 8.403593, -0.26679972, 5.485546, -0.050203323, -0.027220964, 10.038899
358676171714526, 8.41795, -0.26081768, 5.4592247, -0.030745268, 0.0014710426, 10.036538
358676181354317, 8.43111, -0.31106696, 5.3515477, 0.07199478, 0.042498827, 9.99062
358676190994109, 8.447861, -0.2644069, 5.4149575, 0.011746407, 0.040560722, 10.037743
358676200633901, 8.441878, -0.28115666, 5.4580283, -9.536743E-4, -0.0013933182, 10.056562
358676210273692, 8.394022, -0.27996024, 5.4376893, -0.00492239, -0.009177446, 10.005317
358676219913484, 8.403593, -0.30388847, 5.4556355, 0.009403229, -0.03143549, 10.023753
358676229553276, 8.410771, -0.2943172, 5.5106707, -0.026298046, -0.05667925, 10.059387
358676239192963, 8.396415, -0.25722843, 5.508278, -0.05731535, -0.038441896, 10.045014
358676248832755, 8.379665, -0.24526432, 5.4664035, -0.048432827, -0.011857748, 10.007899
358676258472547, 8.379665, -0.22253251, 5.406583, -0.032563925, 0.040715694, 9.974804
358676268112338, 8.402397, -0.2632105, 5.35753, 0.03774357, 0.055617332, 9.968359
358676277752130, 8.402397, -0.29910284, 5.3994045, 0.045698166, 0.0042624474, 9.992058
358676287391922, 8.455039, -0.317049, 5.4616175, 0.045625687, -0.025595188, 10.070488
358676297031713, 8.476574, -0.31944183, 5.5094743, 0.030129433, -0.04880619, 10.114612
358676306671505, 8.469396, -0.31944183, 5.5046883, 0.032174587, -0.048424244, 10.105984
358676316311297, 8.462217, -0.24646074, 5.4819565, -0.01585865, 0.008257866, 10.085702
358676325951088, 8.46102, -0.1902294, 5.4520464, -0.044293165, 0.06371164, 10.066968
358676335590880, 8.443074, -0.16749759, 5.4460645, -0.06504631, 0.07202959, 10.048072
358676345230567, 8.489735, 0.10049855, 5.4963136, -0.29205155, 0.21851349, 10.107527
358676354870463, 8.419147, -0.6197411, 5.3587265, 0.33814287, -0.15912938, 9.992117
358676364510151, 8.541181, 0.40558344, 5.6183476, -0.563879, 0.3737085, 10.209038
358676374149942, 8.347362, -0.9595219, 5.3204412, 0.59321, -0.4010098, 9.919351
358676383789734, 8.58784, 0.42711884, 5.629115, -0.5714519, 0.39848304, 10.253538
358676393429526, 8.2660055, -0.8566305, 5.3300123, 0.47514343, -0.36756015, 9.854381
358676403069317, 8.549556, 0.111266255, 5.5298133, -0.27936673, 0.23315382, 10.176136
358676412709109, 8.287541, -0.43669012, 5.375476, 0.13658023, -0.121572256, 9.88617
358676422348901, 8.462217, -0.3278167, 5.3790655, 0.11389184, 0.016330719, 10.031836
358676431988692, 8.353344, 0.086141616, 5.456832, -0.28792906, 0.18621063, 9.972222
358676441628484, 8.368897, -0.7393822, 5.2546387, 0.45842695, -0.2152412, 9.896459
358676451268276, 8.467003, 0.44147578, 5.5776696, -0.5937083, 0.36781383, 10.124608
358676460908067, 8.255239, -0.96550393, 5.302495, 0.56932235, -0.42821574, 9.833113
358676470547859, 8.520842, 0.50129634, 5.6985073, -0.68289065, 0.3542385, 10.234119
358676480187651, 8.22772, -0.84107715, 5.400601, 0.4136181, -0.419024, 9.860153
358676489827442, 8.520842, 0.21415763, 5.6410794, -0.4235146, 0.2165699, 10.2101
358676499467234, 8.263613, -0.44506502, 5.3994045, 0.12925482, -0.1480372, 9.879287
358676509107026, 8.523234, -0.2739782, 5.3240304, 0.13368464, 0.123313904, 10.051508
358676518746713, 8.415557, 0.0047856453, 5.4125648, -0.16842842, 0.19411254, 10.002571
358676528386505, 8.476574, -0.7860422, 5.2953167, 0.5271404, -0.20506406, 10.009525
358676538026297, 8.53161, 0.3182454, 5.621937, -0.49343586, 0.30957127, 10.205709
358676547666088, 8.348558, -1.0097711, 5.2953167, 0.6532755, -0.41392946, 9.907591
358676557305880, 8.573483, 0.45822555, 5.7391853, -0.65368533, 0.34793067, 10.300705
358676566945672, 8.258827, -0.8997013, 5.4795637, 0.4202335, -0.49487972, 9.930853
358676576585463, 8.52443, 0.24885355, 5.7343993, -0.49360132, 0.1922574, 10.263069
358676586225255, 8.260024, -0.51206404, 5.4640107, 0.14101386, -0.22806549, 9.913311
358676595865047, 8.495717, -0.21296121, 5.4640107, 0.009723663, 0.07088637, 10.103112
358676605504838, 8.394022, -0.02871387, 5.4843497, -0.17486954, 0.13621354, 10.02444
358676615144630, 8.487342, -0.70348984, 5.3216376, 0.45688605, -0.1756134, 10.030459
358676624784422, 8.5016985, 0.35653058, 5.5800624, -0.48765993, 0.3749938, 10.157
358676634424213, 8.3174515, -1.0025927, 5.2642097, 0.64614177, -0.42312622, 9.864104
358676644064005, 8.554341, 0.485743, 5.6530433, -0.59460974, 0.43881297, 10.238333
358676653703797, 8.260024, -0.9176475, 5.334798, 0.5255933, -0.4263792, 9.852518
358676663343588, 8.580662, 0.29910284, 5.6817575, -0.4703226, 0.30092788, 10.280458
358676672983380, 8.289934, -0.5563313, 5.471189, 0.18260717, -0.25030684, 9.943359
358676682623172, 8.532805, -0.13998012, 5.4687963, -0.04017377, 0.122406244, 10.135063
358676692262963, 8.392825, -0.06460621, 5.4699926, -0.14507055, 0.1173079, 10.016472
358676701902755, 8.484949, -0.6448657, 5.345566, 0.39598608, -0.14398956, 10.040307
358676711542547, 8.488539, 0.34337005, 5.6267223, -0.50789094, 0.331635, 10.171787
358676721182338, 8.327023, -0.94755775, 5.3132625, 0.5869007, -0.38788915, 9.898132
358676730822130, 8.518449, 0.4881358, 5.645865, -0.6269367, 0.4184692, 10.203425
358676740461922, 8.242078, -0.95353985, 5.3096733, 0.5546181, -0.4346907, 9.825333
358676750101713, 8.534002, 0.31106696, 5.5980086, -0.45917654, 0.32086468, 10.1955805
358676759741505, 8.230113, -0.64965135, 5.3479586, 0.31393957, -0.26346254, 9.827995
358676769381297, 8.523234, -0.12323037, 5.4173503, -0.029049873, 0.15822029, 10.09864
358676779021088, 8.376076, -0.14237295, 5.4053864, -0.055831432, 0.09652901, 9.969188
358676788660880, 8.458628, -0.56350976, 5.3072805, 0.34310365, -0.085911274, 9.995402
358676798300672, 8.457432, 0.317049, 5.5800624, -0.46206427, 0.3310392, 10.121397
358676807940463, 8.376076, -0.94755775, 5.3539405, 0.5730221, -0.40912628, 9.961198
358676817580255, 8.563912, 0.49172506, 5.697311, -0.6250057, 0.4045775, 10.270706
358676827220047, 8.26122, -0.9272188, 5.312066, 0.5411401, -0.41773415, 9.841658
358676836859838, 8.529217, 0.41635114, 5.656633, -0.55243945, 0.37064528, 10.221342
358676846499630, 8.216953, -0.63888365, 5.413761, 0.25905824, -0.31879473, 9.852236
358676856139422, 8.5112705, -0.011964113, 5.5070815, -0.16405606, 0.15929055, 10.134966
358676865779213, 8.318648, -0.1591227, 5.4293146, -0.07443118, 0.03889966, 9.934567
358676875419005, 8.483752, -0.5491528, 5.346762, 0.3279221, -0.08596015, 10.037359
358676885058797, 8.469396, 0.25962126, 5.578866, -0.4296522, 0.27525902, 10.132199
358676894698588, 8.34138, -0.9128618, 5.2689953, 0.6117747, -0.32657647, 9.883994
358676904338380, 8.549556, 0.485743, 5.6075797, -0.58323073, 0.432626, 10.210215
358676913978172, 8.287541, -0.9882358, 5.276174, 0.64068556, -0.41729712, 9.844459
358676923617963, 8.529217, 0.38883367, 5.615955, -0.5187144, 0.3569553, 10.20006
358676933257755, 8.206185, -0.7286145, 5.377869, 0.34901237, -0.34275603, 9.826218
358676942897547, 8.532805, 0.015553347, 5.5393844, -0.19688797, 0.16266203, 10.169984
358676952537338, 8.344969, -0.23090738, 5.447261, -0.018757105, -0.008364916, 9.968153
358676962177130, 8.480164, -0.49052864, 5.389833, 0.25809717, -0.0754118, 10.056431
358676971816922, 8.444271, 0.20458634, 5.5944195, -0.40065527, 0.21822476, 10.121116
358676981456713, 8.391629, -0.89491564, 5.3312087, 0.5713177, -0.3447225, 9.959762
358676991096505, 8.554341, 0.4833502, 5.6793647, -0.6305249, 0.39760184, 10.252314
358677000736401, 8.295917, -0.9762716, 5.3276196, 0.59743094, -0.42370367, 9.880406
358677010376192, 8.577073, 0.4127619, 5.68415, -0.5638709, 0.34708214, 10.276561
358677020015984, 8.256434, -0.7513463, 5.436493, 0.36273694, -0.35573196, 9.901039
358677029655776, 8.537591, 0.09212367, 5.593223, -0.28134537, 0.19530582, 10.201263
358677039295567, 8.32463, -0.2620141, 5.428118, 0.01468873, -0.02153945, 9.941423
358677048935359, 8.478967, -0.41874397, 5.40419, 0.19999576, -0.038021564, 10.061414
358677058575151, 8.405986, 0.1591227, 5.5872407, -0.37591076, 0.16545558, 10.086352
358677068214942, 8.362915, -0.87338024, 5.343173, 0.5507865, -0.32317472, 9.941974
358677077854734, 8.518449, 0.46779683, 5.6961145, -0.65392876, 0.3288157, 10.23195
358677087494526, 8.303095, -1.0157533, 5.332405, 0.66077185, -0.40374088, 9.889795
358677097134317, 8.550752, 0.43908295, 5.629115, -0.5858772, 0.3481028, 10.224024
358677106774109, 8.195417, -0.8063812, 5.3132625, 0.4889238, -0.30547833, 9.783329
358677116413901, 8.506484, 0.10767702, 5.5166526, -0.2829926, 0.20020843, 10.133369
358677126053692, 8.293523, -0.3469593, 5.413761, 0.08936763, -0.067595005, 9.90955
358677135693484, 8.4682, -0.35294133, 5.3922257, 0.14987135, 0.02646017, 10.044296
358677145333276, 8.3581295, 0.15553348, 5.541777, -0.38714433, 0.124521255, 10.021399
358677154973067, 8.362915, -0.8171489, 5.367101, 0.53778625, -0.23600364, 9.953238
358677164612963, 8.507681, 0.40677986, 5.6590257, -0.6201401, 0.24146509, 10.204304
358677174252755, 8.262417, -1.0109676, 5.2893343, 0.71416736, -0.32112336, 9.831251
358677183892547, 8.555537, 0.5024927, 5.6482577, -0.6881591, 0.3237753, 10.235925
358677193532338, 8.240881, -0.7537391, 5.3336015, 0.46484518, -0.23825812, 9.831312
358677203172130, 8.5423765, 0.21655045, 5.584848, -0.4033277, 0.23093867, 10.197725
358677212811922, 8.285149, -0.4235296, 5.4388857, 0.1493175, -0.12304187, 9.918018
358677222451713, 8.5016985, -0.32183465, 5.432904, 0.11877203, 0.038108826, 10.093729
358677232091505, 8.405986, 0.05742774, 5.535795, -0.27538943, 0.11507821, 10.060807
358677241731297, 8.415557, -0.8243274, 5.3682976, 0.55695605, -0.21013665, 9.99827
358677251371088, 8.526823, 0.39720857, 5.706882, -0.6103548, 0.21468592, 10.247652
358677261010984, 8.35454, -1.0013963, 5.373083, 0.6848693, -0.33336544, 9.954446
358677270650776, 8.644072, 0.4989035, 5.761917, -0.702191, 0.3012104, 10.372309
358677280290567, 8.29113, -0.84107715, 5.42094, 0.5106828, -0.30525112, 9.923853
358677289930359, 8.57468, 0.25244278, 5.6554365, -0.45902014, 0.19244623, 10.262801
358677299570151, 8.293523, -0.4139583, 5.4843497, 0.11826587, -0.13726377, 9.949833
358677309209942, 8.459825, -0.24526432, 5.454439, 0.03398609, 0.043222666, 10.068599
358677318849734, 8.304291, 0.020338992, 5.554938, -0.28030634, 0.025712013, 9.9869795
358677328489526, 8.367701, -0.76331043, 5.4089756, 0.47511458, -0.23508906, 9.978832
358677338129422, 8.4502535, 0.36729828, 5.6817575, -0.59826803, 0.19112301, 10.170034
358677347769213, 8.299505, -1.0025927, 5.3240304, 0.6949427, -0.3303938, 9.881306
358677357409005, 8.545966, 0.48454657, 5.633901, -0.6533959, 0.33542776, 10.221044
358677367048797, 8.263613, -0.87218386, 5.2905307, 0.57394886, -0.28136992, 9.830011
358677376688588, 8.55793, 0.31465617, 5.5166526, -0.4401939, 0.34794974, 10.171322
358677386328380, 8.305488, -0.4989035, 5.3276196, 0.27068806, -0.08068514, 9.875918
358677395968172, 8.565108, -0.20338993, 5.4221363, 0.048886538, 0.13371491, 10.138133
358677405607963, 8.414361, -0.031106694, 5.4723854, -0.16457367, 0.1201787, 10.035334
358677415247859, 8.443074, -0.70229346, 5.3718867, 0.4568286, -0.15649104, 10.020116
358677424887651, 8.469396, 0.36011982, 5.6709895, -0.5823784, 0.21239614, 10.180185
358677434527442, 8.327023, -0.971486, 5.4029937, 0.63153005, -0.38659906, 9.946213
358677444167234, 8.5423765, 0.50129634, 5.7607207, -0.7294619, 0.25161314, 10.286592
358677453807026, 8.240881, -0.9403793, 5.3886366, 0.582217, -0.38612723, 9.866397
358677463446817, 8.549556, 0.27517462, 5.656633, -0.4825282, 0.21594214, 10.241517
358677473086609, 8.248059, -0.58265233, 5.436493, 0.26335883, -0.22572517, 9.889647
358677482726505, 8.46461, -0.14356937, 5.4640107, -0.055482388, 0.08983588, 10.07544
358677492366297, 8.3377905, -0.101694964, 5.456832, -0.12426329, 0.05378723, 9.964325
358677502006088, 8.447861, -0.67118675, 5.308477, 0.4620216, -0.08853197, 9.988768
358677511645880, 8.463413, 0.32303107, 5.5980086, -0.5148878, 0.22627401, 10.13682
358677521285672, 8.35454, -0.9284152, 5.2773705, 0.6782422, -0.22067451, 9.899608
358677530925463, 8.55793, 0.5347959, 5.6350975, -0.6903112, 0.3497758, 10.231307
358677540565359, 8.26122, -0.91405827, 5.3216376, 0.6101608, -0.289181, 9.846175
358677550205151, 8.560323, 0.36370903, 5.682954, -0.5766703, 0.22570276, 10.262742
358677559844942, 8.288737, -0.5982057, 5.447261, 0.29199958, -0.20959616, 9.929978
358677569484734, 8.539984, -0.058624156, 5.5106707, -0.12767577, 0.13145494, 10.162119
358677579124526, 8.355737, -0.11246266, 5.460421, -0.11151552, 0.052246332, 9.981584
358677588764317, 8.475378, -0.5419743, 5.3359947, 0.34846783, -0.01870346, 10.023813
358677598404213, 8.482556, 0.35294133, 5.54417, -0.512264, 0.2921512, 10.122667
358677608044005, 8.336594, -0.9200403, 5.2893343, 0.6544597, -0.24856186, 9.891018
358677617683797, 8.518449, 0.5240282, 5.6279187, -0.68000865, 0.3270831, 10.195228
358677627323588, 8.242078, -0.9523434, 5.2977095, 0.6548443, -0.30782986, 9.817379
358677636963380, 8.536395, 0.39960137, 5.672186, -0.58632326, 0.24515533, 10.237165
358677646603276, 8.289934, -0.6472585, 5.5106707, 0.31876945, -0.2876401, 9.966197
358677656243067, 8.560323, 0.022731815, 5.6997037, -0.27154708, 0.04651451, 10.280581
358677665882859, 8.374879, -0.14356937, 5.613562, -0.14005661, -0.060333014, 10.082065
358677675522651, 8.518449, -0.45942193, 5.4628143, 0.23531389, -0.046114683, 10.127186
358677685162442, 8.492127, 0.31345975, 5.6267223, -0.50562346, 0.22496653, 10.176847
358677694802234, 8.386844, -0.8422736, 5.326423, 0.59566593, -0.2208848, 9.950665
358677704442130, 8.547162, 0.52522457, 5.639883, -0.6611335, 0.38253188, 10.2252
358677714081922, 8.286345, -0.9942178, 5.3276196, 0.69521403, -0.35527515, 9.870459
358677723721713, 8.563912, 0.3924229, 5.6781683, -0.56414866, 0.2627275, 10.263961
358677733361505, 8.2253275, -0.70947194, 5.3970113, 0.39285588, -0.27770782, 9.851683
358677743001297, 8.525627, 0.038285162, 5.5704913, -0.24119163, 0.13311362, 10.180485
358677752641192, 8.286345, -0.27038896, 5.505885, -0.012294292, -0.09515786, 9.951994
358677762280984, 8.463413, -0.47856453, 5.4233327, 0.25160503, -0.062374115, 10.060005
358677771920776, 8.403593, 0.23330021, 5.582455, -0.44746375, 0.16983724, 10.080156
358677781560567, 8.300702, -0.8745767, 5.300102, 0.59708595, -0.2552638, 9.865899
358677791200359, 8.471788, 0.43908295, 5.631508, -0.63872993, 0.25289583, 10.159033
358677800840255, 8.236095, -1.0145568, 5.304888, 0.698508, -0.35457444, 9.817883
358677810480047, 8.529217, 0.39361933, 5.5980086, -0.560711, 0.27737856, 10.190626
358677820119838, 8.2348995, -0.74416786, 5.3012986, 0.4634943, -0.21471143, 9.808681
358677829759630, 8.529217, 0.10887343, 5.5274205, -0.29537106, 0.19794631, 10.158018
358677839399526, 8.270791, -0.30269206, 5.4376893, 0.030260324, -0.071086645, 9.902531
358677849039317, 8.40479, -0.45583272, 5.3790655, 0.22678375, -0.043465137, 9.986455
358677858679109, 8.34138, 0.15672988, 5.493921, -0.37175488, 0.157161, 9.981155
358677868318901, 8.300702, -0.80877405, 5.252246, 0.55136824, -0.18962717, 9.838796
358677877958692, 8.43111, 0.50488555, 5.554938, -0.67079306, 0.34415388, 10.081044
358677887598588, 8.242078, -0.9834501, 5.2127643, 0.6958804, -0.2936039, 9.772486
358677897238380, 8.520842, 0.4881358, 5.5513487, -0.624666, 0.39124846, 10.154665
358677906878172, 8.218149, -0.74536425, 5.2905307, 0.4599166, -0.23965931, 9.788479
358677916517963, 8.495717, 0.18903299, 5.5453663, -0.37203145, 0.20922828, 10.13814
358677926157859, 8.222935, -0.3385844, 5.4891353, 0.022388935, -0.14802837, 9.891384
358677935797651, 8.46461, -0.36011982, 5.4759746, 0.120491266, -0.029432535, 10.0871315
358677945437442, 8.38804, 0.13280165, 5.6004014, -0.37925696, 0.10010505, 10.0790615
358677955077234, 8.368897, -0.8003992, 5.38744, 0.5196192, -0.23494315, 9.968871
358677964717130, 8.476574, 0.44027936, 5.672186, -0.6516199, 0.2508769, 10.184907
358677974356922, 8.340183, -1.006182, 5.3072805, 0.7335279, -0.2822411, 9.905582
358677983996713, 8.623733, 0.48933223, 5.6374903, -0.6498234, 0.35657358, 10.287862
358677993636505, 8.329415, -0.8003992, 5.3312087, 0.53849983, -0.20532107, 9.905022
358678003276401, 8.630911, 0.24526432, 5.619544, -0.4153812, 0.25256205, 10.290565
358678012916192, 8.352147, -0.41156548, 5.5166526, 0.11869931, -0.12929535, 10.016506
358678022555984, 8.5423765, -0.2883351, 5.5657053, 0.04439068, -0.01488781, 10.199521
358678032195776, 8.411968, 0.062213387, 5.6171513, -0.31619215, 0.06253958, 10.110073
358678041835672, 8.392825, -0.7848458, 5.3970113, 0.5075679, -0.20786333, 9.994119
358678051475463, 8.49811, 0.4139583, 5.710471, -0.63849115, 0.22012758, 10.224607
358678061115255, 8.313862, -1.0097711, 5.2977095, 0.7223704, -0.29028654, 9.879251
358678070755047, 8.585447, 0.48095736, 5.5537415, -0.5886793, 0.40984607, 10.211305
358678080394942, 8.321041, -0.89491564, 5.206782, 0.6719096, -0.18075585, 9.83194
358678090034734, 8.615358, 0.2536392, 5.503492, -0.37817025, 0.33919573, 10.213672
358678099674526, 8.256434, -0.45104706, 5.3479586, 0.20488691, -0.092191935, 9.844915
358678109314317, 8.444271, -0.22253251, 5.38744, 0.03971243, 0.08929944, 10.018493
358678118954213, 8.289934, -0.05742774, 5.5501523, -0.21472478, -0.013453007, 9.974176
358678128594005, 8.366505, -0.8458628, 5.428118, 0.53520036, -0.29875946, 9.9901285
358678138233797, 8.452646, 0.30508488, 5.7343993, -0.5655353, 0.13270569, 10.202265
358678147873588, 8.283952, -1.032503, 5.316852, 0.734467, -0.34004807, 9.864267
358678157513484, 8.530413, 0.48095736, 5.642276, -0.64757156, 0.3118744, 10.213615
358678167153276, 8.2348995, -0.9296116, 5.3312087, 0.6091888, -0.32611775, 9.829652
358678176793067, 8.566305, 0.29072794, 5.5908303, -0.45395374, 0.27128625, 10.219777
358678186432859, 8.246863, -0.4953143, 5.322834, 0.24424362, -0.08719492, 9.824532
358678196072755, 8.46461, -0.16630118, 5.406583, -0.013425112, 0.1228106, 10.0445595
358678205712547, 8.313862, -0.06819545, 5.495117, -0.17731047, 0.036591053, 9.964362
358678215352338, 8.382058, -0.69152576, 5.3276196, 0.45634604, -0.12371516, 9.944701
358678224992130, 8.4347, 0.32662028, 5.6075797, -0.52771974, 0.24027133, 10.117292
358678234632026, 8.304291, -0.9822537, 5.3359947, 0.6796775, -0.32721353, 9.8909
358678244271817, 8.566305, 0.51445687, 5.721239, -0.7067683, 0.32023764, 10.284781
358678253911609, 8.252846, -0.89730847, 5.343173, 0.59395194, -0.3050003, 9.849789
358678263551505, 8.577073, 0.40079778, 5.6303115, -0.545418, 0.3386128, 10.247687
358678273191297, 8.292327, -0.54317075, 5.460421, 0.2501998, -0.1847043, 9.938673
358678282831088, 8.519645, -0.111266255, 5.534599, -0.089903355, 0.097037315, 10.159283
358678292470880, 8.322237, -0.11844472, 5.521438, -0.13303638, 0.015362501, 9.987092
358678302110776, 8.427522, -0.64008003, 5.365905, 0.4092133, -0.107681036, 10.002336
358678311750567, 8.447861, 0.34097722, 5.6554365, -0.5482751, 0.21266747, 10.154839
358678321390359, 8.352147, -0.9296116, 5.3503513, 0.64161754, -0.2693286, 9.938037
358678331030255, 8.551949, 0.5491528, 5.6937213, -0.7101909, 0.3522787, 10.2580385
358678340670047, 8.269595, -0.9272188, 5.349155, 0.61004496, -0.31463885, 9.868548
358678350309838, 8.543573, 0.41994038, 5.6374903, -0.57371926, 0.3281951, 10.223182
358678359949630, 8.254042, -0.6161518, 5.447261, 0.3005526, -0.22006607, 9.901653
358678369589526, 8.518449, -0.09092726, 5.552545, -0.1067667, 0.11050415, 10.167565
358678379229317, 8.331808, -0.21774685, 5.5573306, -0.056595564, -0.046630383, 10.017235
358678388869109, 8.397611, -0.58265233, 5.447261, 0.32117772, -0.13416028, 10.02052
358678398509005, 8.386844, 0.28953153, 5.6949177, -0.5311947, 0.15552926, 10.126634
358678408148797, 8.288737, -0.9343972, 5.38744, 0.609184, -0.3286519, 9.905639
358678417788588, 8.476574, 0.5192425, 5.6949177, -0.70551074, 0.30488014, 10.19624
358678427428380, 8.218149, -0.9200403, 5.322834, 0.616863, -0.28086257, 9.811096
358678437068276, 8.525627, 0.44147578, 5.6183476, -0.5913954, 0.3463745, 10.196928
358678446708067, 8.218149, -0.6855437, 5.3850474, 0.39572883, -0.19262719, 9.839359
358678456347859, 8.499306, 0.015553347, 5.5872407, -0.21741462, 0.14158607, 10.168008
358678465987755, 8.323434, -0.20697916, 5.548956, -0.057047606, -0.026531935, 10.0054655
358678475627547, 8.453842, -0.51086766, 5.4580283, 0.28007245, -0.053148985, 10.071606
358678485267338, 8.408379, 0.22851457, 5.6985073, -0.47985315, 0.12385225, 10.147928
358678494907130, 8.322237, -0.9343972, 5.4221363, 0.6264956, -0.3143351, 9.951935
358678504547026, 8.459825, 0.44985065, 5.7188463, -0.66437936, 0.25762606, 10.196491
358678514186817, 8.208578, -1.0049855, 5.3276196, 0.7044761, -0.3294947, 9.8066025
358678523826609, 8.532805, 0.43908295, 5.643472, -0.596545, 0.35093546, 10.2162285
358678533466505, 8.240881, -0.74177504, 5.428118, 0.4299214, -0.25034547, 9.883285
358678543106297, 8.520842, 0.062213387, 5.615955, -0.26163936, 0.16614676, 10.200564
358678552746088, 8.288737, -0.29910284, 5.5262237, 0.029358864, -0.072594166, 9.966225
358678562385984, 8.397611, -0.45702913, 5.4723854, 0.21746731, -0.063135624, 10.031175
358678572025776, 8.360522, 0.21535404, 5.6817575, -0.4578569, 0.12547755, 10.09959
358678581665567, 8.311469, -0.82672024, 5.419743, 0.5419831, -0.2604499, 9.938614
358678591305463, 8.514859, 0.51086766, 5.782256, -0.70797026, 0.27436352, 10.277248
358678600945255, 8.304291, -0.9499506, 5.2893343, 0.69484186, -0.23463845, 9.864221
358678610585047, 8.4502535, 0.4953143, 5.6709895, -0.6667876, 0.30799055, 10.162321
358678620224942, 8.248059, -0.7812566, 5.432904, 0.4899118, -0.28643584, 9.89117
358678629864734, 8.5112705, 0.0526421, 5.569295, -0.22398448, 0.17185235, 10.167686
358678639504526, 8.178668, -0.35413775, 5.501099, 0.06632662, -0.14934683, 9.861614
358678649144317, 8.462217, -0.35413775, 5.5573306, 0.118545055, -0.054544926, 10.129236
358678658784213, 8.423932, 0.124426775, 5.6470613, -0.35027218, 0.11036825, 10.135707
358678668424005, 8.4012, -0.863809, 5.3814583, 0.6098995, -0.21435905, 9.9934225
358678678063797, 8.551949, 0.47856453, 5.704489, -0.63959694, 0.3147292, 10.26635
358678687703692, 8.348558, -0.96789676, 5.3682976, 0.68812966, -0.27020502, 9.945217
358678697343484, 8.596215, 0.47138608, 5.6961145, -0.6232383, 0.3311367, 10.298775
358678706983276, 8.262417, -0.8039884, 5.3826547, 0.52535725, -0.24956846, 9.876671
358678716623172, 8.573483, 0.21894327, 5.6183476, -0.38041234, 0.24521685, 10.24273
358678726262963, 8.287541, -0.33738798, 5.4987063, 0.07693887, -0.08613539, 9.950861
358678735902755, 8.457432, -0.29312077, 5.4927244, 0.087008, 0.025913477, 10.088403
358678745542651, 8.365308, 0.124426775, 5.629115, -0.3582586, 0.08728695, 10.076944
358678755182442, 8.359326, -0.762114, 5.4293146, 0.50697255, -0.20102882, 9.981943
358678764822234, 8.446664, 0.4319045, 5.73081, -0.64946723, 0.20380783, 10.1937
358678774462130, 8.262417, -1.0157533, 5.40419, 0.7155087, -0.35799146, 9.892646
358678784101922, 8.541181, 0.46660042, 5.721239, -0.6538956, 0.27432156, 10.266412
358678793741713, 8.199007, -0.8554341, 5.380262, 0.57258534, -0.2828424, 9.823179
358678803381609, 8.519645, 0.23330021, 5.588437, -0.38807583, 0.24630785, 10.181264
358678813021401, 8.255239, -0.43070808, 5.4185467, 0.1861999, -0.080621004, 9.882002
358678822661192, 8.443074, -0.2416751, 5.40419, 0.0827117, 0.11165142, 10.02646
358678832301088, 8.306684, 0.076570325, 5.493921, -0.2709546, 0.13886285, 9.954763
358678841940880, 8.311469, -0.7118647, 5.345566, 0.47371507, -0.15016007, 9.89522
358678851580672, 8.447861, 0.40677986, 5.709275, -0.6230744, 0.20857382, 10.183119
358678861220567, 8.269595, -0.98584294, 5.4017973, 0.68049407, -0.34960628, 9.89708
358678870860359, 8.52443, 0.4953143, 5.697311, -0.65941715, 0.30897284, 10.239156
358678880500151, 8.207381, -0.8805587, 5.3742795, 0.5763469, -0.29627275, 9.828499
358678890140047, 8.52443, 0.26919255, 5.6446686, -0.4503615, 0.2398386, 10.21471
358678899779838, 8.236095, -0.50129634, 5.474778, 0.2128923, -0.16759515, 9.898704
358678909419630, 8.469396, -0.20697916, 5.49751, 0.017558813, 0.07413554, 10.099026
358678919059526, 8.321041, -0.0011964113, 5.493921, -0.20065045, 0.10767412, 9.968503
358678928699317, 8.372486, -0.7322037, 5.349155, 0.5137167, -0.13837862, 9.948118
358678938339109, 8.462217, 0.35533416, 5.6614184, -0.5344324, 0.237566, 10.17079
358678947979005, 8.297112, -0.9954142, 5.334798, 0.7266784, -0.30461884, 9.882923
358678957618797, 8.539984, 0.50488555, 5.6530433, -0.6461196, 0.36494064, 10.227047
358678967258588, 8.221739, -0.8985049, 5.373083, 0.5910969, -0.31982064, 9.839849
358678976898484, 8.530413, 0.33379877, 5.6578293, -0.5011594, 0.2726779, 10.225697
358678986538276, 8.249256, -0.5096712, 5.473582, 0.2327609, -0.17534924, 9.908842
358678996178172, 8.487342, -0.10049855, 5.5046883, -0.06365132, 0.13537312, 10.115547
358679005817963, 8.321041, -0.0047856453, 5.5106707, -0.19261122, 0.10037255, 9.977979
358679015457755, 8.359326, -0.61854464, 5.373083, 0.40525293, -0.11501789, 9.947538
358679025097651, 8.414361, 0.34097722, 5.649454, -0.5220492, 0.23345542, 10.124576
358679034737442, 8.289934, -0.96789676, 5.355137, 0.6915612, -0.32608652, 9.886998
358679044377234, 8.530413, 0.51086766, 5.692525, -0.63713765, 0.3831513, 10.241144
358679054017130, 8.230113, -0.95353985, 5.377869, 0.6319022, -0.39419603, 9.849405
358679063656922, 8.551949, 0.3278167, 5.753542, -0.50842404, 0.25464678, 10.296757
358679073296713, 8.257631, -0.5706882, 5.5106707, 0.25337386, -0.2431755, 9.937722
358679082936609, 8.4682, -0.040677983, 5.548956, -0.1356473, 0.12579298, 10.122686
358679092576401, 8.316256, -0.11006984, 5.6075797, -0.15193248, -0.023542881, 10.029633
358679102216192, 8.402397, -0.62811595, 5.5298133, 0.3383479, -0.23672032, 10.069912
358679111856088, 8.41795, 0.30987054, 5.7116675, -0.512831, 0.18619704, 10.162844
358679121495880, 8.285149, -0.94277215, 5.3503513, 0.6735358, -0.30904627, 9.879759
358679131135776, 8.488539, 0.5491528, 5.608776, -0.6530957, 0.39420772, 10.160379
358679140775567, 8.195417, -0.9296116, 5.306084, 0.653553, -0.3221252, 9.78022
358679150415359, 8.554341, 0.47976094, 5.6171513, -0.5911919, 0.388278, 10.220522
358679160055255, 8.237292, -0.54317075, 5.346762, 0.3095703, -0.12030697, 9.829832
358679169695047, 8.488539, 0.0023928226, 5.505885, -0.14144039, 0.18036723, 10.115213
358679179334838, 8.271988, -0.1902294, 5.523831, -0.05035329, -0.039005756, 9.948398
358679188974734, 8.414361, -0.53599226, 5.483153, 0.3033831, -0.11840916, 10.052247
358679198614526, 8.405986, 0.26919255, 5.631508, -0.45760465, 0.19336557, 10.109408
358679208254317, 8.300702, -0.9487542, 5.3790655, 0.6716218, -0.3001225, 9.909338
358679217894213, 8.5423765, 0.44147578, 5.7523456, -0.63339746, 0.24770308, 10.285624
358679227534005, 8.233703, -1.0157533, 5.377869, 0.7107358, -0.3577752, 9.854641
358679237173901, 8.578269, 0.41754755, 5.6781683, -0.56493974, 0.29552174, 10.275999
358679246813692, 8.251649, -0.6664011, 5.4376893, 0.38815093, -0.21143675, 9.894791
358679256453484, 8.518449, 0.09332009, 5.56092, -0.25116062, 0.19388056, 10.168375
358679266093380, 8.256434, -0.20578274, 5.4436717, -0.009415865, 0.011551142, 9.891632
358679275733172, 8.405986, -0.47018966, 5.395815, 0.283494, -0.008580446, 9.995802
358679285372963, 8.349754, 0.25962126, 5.605187, -0.4614036, 0.16670084, 10.048046
358679295012859, 8.274381, -0.8554341, 5.4089756, 0.5790472, -0.27780676, 9.9016
358679304652651, 8.478967, 0.5132605, 5.797809, -0.73281217, 0.23291063, 10.2557125
358679314292547, 8.279166, -0.97507524, 5.5070815, 0.63778996, -0.40597916, 9.962516
358679323932338, 8.544769, 0.48215377, 5.79422, -0.68522954, 0.26477242, 10.309166
358679333572130, 8.288737, -0.65682983, 5.493921, 0.36324, -0.24031448, 9.956307
358679343212026, 8.432307, -0.09571291, 5.6123657, -0.12729383, 0.04092741, 10.128857
358679352851817, 8.409575, -0.20817557, 5.5453663, -0.008311272, 0.020723104, 10.0754595
358679362491713, 8.414361, -0.1698904, 5.5393844, -0.03461671, 0.046037674, 10.075306
358679372131505, 8.403593, -0.22372891, 5.5405807, 0.009296179, 0.009729147, 10.068182
358679381771297, 8.38804, -0.2321038, 5.552545, 0.0072791576, -0.01057601, 10.061991
358679391411192, 8.374879, -0.20458634, 5.5166526, -0.0040607452, 0.021498203, 10.030626
358679401050984, 8.3784685, -0.1698904, 5.493921, -0.023693085, 0.057141066, 10.020327
358679410690776, 8.385647, -0.18424734, 5.5573306, -0.03644848, 0.007147789, 10.061589
358679420330672, 8.385647, -0.20817557, 5.588437, -0.02827549, -0.028351307, 10.079257
358679429970463, 8.364112, -0.2117648, 5.5860443, -0.029368877, -0.038885117, 10.060055
358679439610359, 8.374879, -0.22612174, 5.611169, -0.023581028, -0.058336258, 10.083204
358679449250151, 8.394022, -0.21535404, 5.6075797, -0.026676178, -0.041480064, 10.096956
358679458889942, 8.409575, -0.17228323, 5.5429735, -0.033277035, 0.03350258, 10.073379
358679468529838, 8.373683, -0.17467605, 5.49751, -0.021689177, 0.0478096, 10.018431
358679478169630, 8.365308, -0.19980069, 5.5070815, -0.004131794, 0.023318768, 10.01727
358679487809526, 8.368897, -0.20817557, 5.515456, 0.0011909008, 0.013017654, 10.025063
358679497449317, 8.361719, -0.1902294, 5.4987063, -0.010430336, 0.028728485, 10.009464
358679507089109, 8.384451, -0.19980069, 5.4999027, 0.002657175, 0.034543514, 10.029291
358679516729005, 8.386844, -0.22372891, 5.4927244, 0.026534557, 0.02809, 10.027847
358679526368797, 8.383254, -0.23928227, 5.51426, 0.028549194, 9.074211E-4, 10.037054
358679536008692, 8.377272, -0.24765715, 5.535795, 0.025806665, -0.021731853, 10.044098
358679545648484, 8.336594, -0.2632105, 5.5393844, 0.027927876, -0.0529871, 10.012456
358679555288276, 8.344969, -0.2548356, 5.548956, 0.018448591, -0.051499367, 10.024538
358679564928172, 8.335398, -0.19860429, 5.508278, -0.017169237, 9.1552734E-5, 9.992954
358679574567963, 8.328219, -0.20219351, 5.495117, -0.010114193, 0.0037975311, 9.979795
358679584207859, 8.321041, -0.19980069, 5.515456, -0.02219963, -0.013105631, 9.984951
358679593847651, 8.356933, -0.20937198, 5.5106707, -0.002800703, 0.0032310486, 10.012474
358679603487442, 8.382058, -0.18305093, 5.491528, -0.00999856, 0.044774294, 10.022334
358679613127338, 8.382058, -0.22372891, 5.508278, 0.018645048, 0.01282382, 10.032426
358679622767130, 8.389236, -0.26081768, 5.5429735, 0.036484957, -0.027575493, 10.058319
358679632407026, 8.420342, -0.25004998, 5.5405807, 0.03599906, -0.005372286, 10.082728
358679642046817, 8.441878, -0.22971097, 5.51426, 0.03389263, 0.034992933, 10.08577
358679651686609, 8.41795, -0.22971097, 5.562116, 0.0054326057, -0.008689642, 10.092159
358679661326505, 8.432307, -0.23090738, 5.619544, -0.017750978, -0.04148531, 10.135796
358679670966297, 8.43111, -0.21535404, 5.5944195, -0.019631147, -0.014969587, 10.12062
358679680606192, 8.414361, -0.20697916, 5.5393844, -0.0029256344, 0.020236254, 10.076145
358679690245984, 8.407183, -0.23688944, 5.4699926, 0.057496548, 0.04608512, 10.032558
358679699885880, 8.365308, -0.27158538, 5.432904, 0.09152627, 0.028872967, 9.977944
358679709525672, 8.386844, -0.23569304, 5.5166526, 0.025968313, 6.651878E-5, 10.041289
358679719165463, 8.385647, -0.20219351, 5.5405807, -0.014069796, 9.0670586E-4, 10.052751
358679728805359, 8.368897, -0.19740787, 5.5310097, -0.018460989, 0.0017869473, 10.033402
358679738445151, 8.349754, -0.22851457, 5.534599, 0.0026249886, -0.025976658, 10.020066
358679748085047, 8.386844, -0.22612174, 5.5740805, -0.006085634, -0.03483677, 10.072706
358679757724838, 8.40479, -0.19860429, 5.5776696, -0.027333975, -0.014904022, 10.089072
358679767364630, 8.384451, -0.19501504, 5.564509, -0.028641462, -0.0124464035, 10.064783
358679777004526, 8.362915, -0.21894327, 5.4987063, 0.015194893, 0.015138626, 10.011073
358679786644317, 8.38804, -0.23928227, 5.505885, 0.036775827, 0.011818886, 10.036422
358679796284213, 8.390432, -0.2105684, 5.4987063, 0.014270306, 0.029635906, 10.033862
358679805924005, 8.360522, -0.19980069, 5.4699926, 0.008938551, 0.03942156, 9.992869
358679815563797, 8.346166, -0.17706887, 5.4676, -0.013767481, 0.043840885, 9.979097
358679825203692, 8.382058, -0.17706887, 5.503492, -0.019571781, 0.034783363, 10.028814
358679834843484, 8.37129, -0.17826529, 5.501099, -0.020254135, 0.030107975, 10.018536
358679844483380, 8.342576, -0.13878371, 5.474778, -0.051694155, 0.052206993, 9.9792595
358679854123172, 8.323434, -0.19501504, 5.51426, -0.021172762, -0.014755249, 9.986189
358679863763067, 8.327023, -0.25603202, 5.575277, 0.00986743, -0.08725023, 10.0240135
358679873402859, 8.373683, -0.21535404, 5.5716877, -0.013960838, -0.042851925, 10.06015
358679883042651, 8.398808, -0.22013968, 5.5369916, 0.00911212, -0.005788803, 10.062136
358679892682547, 8.382058, -0.27038896, 5.5310097, 0.05234933, -0.031434536, 10.045914
358679902322338, 8.390432, -0.25722843, 5.541777, 0.037180662, -0.030168533, 10.058555
358679911962234, 8.335398, -0.24765715, 5.447261, 0.049050808, 0.017359734, 9.960428
358679921602026, 8.421539, -0.21535404, 5.4676, 0.032589674, 0.059586525, 10.042845
358679931241922, 8.348558, -0.2213361, 5.440082, 0.031399727, 0.041968822, 9.966904
358679940881713, 8.350951, -0.2321038, 5.4999027, 0.017155409, -0.005203247, 10.002045
358679950521505, 8.361719, -0.2321038, 5.508278, 0.016340733, -0.006196022, 10.01564
358679960161401, 8.346166, -0.23928227, 5.538188, 0.0064809322, -0.034445286, 10.019283
358679969801192, 8.38804, -0.19501504, 5.5453663, -0.025352955, 0.001865387, 10.05722
358679979441088, 8.376076, -0.17826529, 5.548956, -0.044321775, 0.0047416687, 10.048848
358679989080880, 8.349754, -0.16869399, 5.554938, -0.059147596, -0.0043182373, 10.02999
358679998720776, 8.35454, -0.18783657, 5.558527, -0.04070711, -0.012180805, 10.0363865
358680008360567, 8.356933, -0.18783657, 5.548956, -0.036122322, -0.0042715073, 10.033106
358680018000359, 8.365308, -0.22971097, 5.562116, -0.001408577, -0.029396057, 10.048253
358680027640255, 8.38804, -0.2416751, 5.532206, 0.029309511, 9.1695786E-4, 10.050973
358680037280047, 8.422736, -0.21894327, 5.505885, 0.028529882, 0.048110962, 10.064893
358680046919942, 8.441878, -0.23090738, 5.491528, 0.048686743, 0.06628227, 10.07317
358680056559734, 8.453842, -0.20338993, 5.5669017, -0.0054638386, 0.031164646, 10.12414
358680066199630, 8.489735, -0.17228323, 5.611169, -0.04204774, 0.031077385, 10.177808
358680075839422, 8.477771, -0.17347965, 5.615955, -0.04471326, 0.024650574, 10.170498
358680085479213, 8.471788, -0.15553348, 5.5872407, -0.048651695, 0.0508399, 10.149271
358680095119109, 8.423932, -0.18783657, 5.6207404, -0.043531656, -0.015484333, 10.128599
358680104758901, 8.38804, -0.23449662, 5.660222, -0.024422646, -0.086713314, 10.121472
358680114398797, 8.3377905, -0.2321038, 5.621937, -0.023414612, -0.08252621, 10.058401
358680124038588, 8.336594, -0.25004998, 5.575277, 0.012549639, -0.05782938, 10.032026
358680133678484, 8.335398, -0.23928227, 5.568098, 0.005363941, -0.04813695, 10.026839
358680143318276, 8.344969, -0.2428715, 5.5669017, 0.010732889, -0.044574738, 10.03423
358680152958067, 8.336594, -0.2213361, 5.534599, 0.0016930103, -0.014697552, 10.008964
358680162597963, 8.360522, -0.19860429, 5.5130634, -0.005241871, 0.024634361, 10.016538
358680172237755, 8.390432, -0.18185452, 5.5298133, -0.021661758, 0.035235405, 10.050351
358680181877651, 8.384451, -0.18424734, 5.4927244, -0.0053822994, 0.057691574, 10.02495
358680191517442, 8.343773, -0.21296121, 5.517849, -3.0636787E-4, 0.0042767525, 10.005526
358680201157338, 8.352147, -0.24765715, 5.5046883, 0.03762269, 0.0012636185, 10.005991
358680210797130, 8.348558, -0.25244278, 5.508278, 0.03950596, -0.005390644, 10.005084
358680220436922, 8.348558, -0.25603202, 5.491528, 0.048626184, 0.004676342, 9.995924
358680230076817, 8.359326, -0.27038896, 5.5310097, 0.047561884, -0.026022196, 10.026993
358680239716609, 8.362915, -0.24885355, 5.5573306, 0.015298605, -0.032245636, 10.044049
358680249356505, 8.386844, -0.21655045, 5.5405807, -5.979538E-4, 0.008536339, 10.054054
358680258996297, 8.414361, -0.17706887, 5.554938, -0.03388238, 0.031122923, 10.084049
358680268636192, 8.394022, -0.12801601, 5.54417, -0.07638383, 0.051941633, 10.060083
358680278275984, 8.374879, -0.18185452, 5.5190454, -0.021968603, 0.03226304, 10.03145
358680287915880, 8.385647, -0.21296121, 5.552545, -0.005700588, -0.0040922165, 10.059579
358680297555672, 8.353344, -0.26919255, 5.569295, 0.027573109, -0.06064987, 10.043078
358680307195463, 8.356933, -0.26679972, 5.5657053, 0.028290987, -0.054981947, 10.044041