timestamp_acc,device_acc_x,device_acc_y,device_acc_z,earth_acc_x,earth_acc_y,earth_acc_z
356764431579945, 0.014356935, 6.5204415, 7.5266237, 0.03327322, -0.012431622, 9.958172
356764441218851, 0.0047856453, 6.524031, 7.521838, 0.025056839, -0.0032730103, 9.95693
356764450857758, -0.047856454, 6.5048885, 7.499106, -0.02234149, 0.019684792, 9.927315
356764460496664, -0.050249275, 6.4821568, 7.503892, -0.03459835, 0.0020532608, 9.916052
356764470135570, -0.04546363, 6.483353, 7.48116, -0.023630857, 0.013993263, 9.899644
356764479774476, -0.029910283, 6.471389, 7.4476604, -0.0041692257, 0.0189991, 9.866461
356764489413435, -0.009571291, 6.468996, 7.4010005, 0.025820017, 0.03506279, 9.829596
356764499052341, -0.0059820567, 6.483353, 7.3567333, 0.046204567, 0.06853199, 9.805538
356764508691247, -0.022731815, 6.4821568, 7.3663044, 0.028122187, 0.06950235, 9.812017
356764518330153, -0.02871387, 6.503692, 7.3603225, 0.031314135, 0.08959246, 9.821617
356764527969060, -0.014356935, 6.5072813, 7.38784, 0.03725505, 0.06953859, 9.844738
356764537608018, -0.009571291, 6.4869423, 7.428518, 0.023186922, 0.030001163, 9.862148
356764547246924, 0.0047856453, 6.4797635, 7.4883385, 0.01671815, -0.015505791, 9.902631
356764556885831, 0.0035892338, 6.498906, 7.5254273, 0.013112307, -0.02002573, 9.943203
356764566524737, -0.022731815, 6.4773707, 7.5146594, -0.01468873, -0.016289234, 9.921011
356764576163643, -0.020338992, 6.4701924, 7.500303, -0.009555578, -0.011898041, 9.905459
356764585802549, -0.022731815, 6.4941206, 7.521838, -0.0069437027, -0.0034132004, 9.93741
356764595441456, -0.019142581, 6.4821568, 7.54457, -0.013114929, -0.024703026, 9.946783
356764605080414, -0.011964113, 6.4773707, 7.5326056, -0.004668474, -0.024131298, 9.9345875
356764614719320, -0.0526421, 6.478567, 7.548159, -0.04283476, -0.011276245, 9.9472275
356764624358226, -0.05623133, 6.4666033, 7.537391, -0.045258284, -0.009663582, 9.931276
356764633997133, -0.043070808, 6.4618177, 7.5553374, -0.038290024, -0.027833462, 9.941721
356764643636039, -0.025124637, 6.474978, 7.568498, -0.021474838, -0.034318447, 9.960245
356764653274945, 0.0, 6.4666033, 7.5625157, 0.0022773743, -0.04430771, 9.950209
356764662913851, -0.0011964113, 6.4701924, 7.5254273, 0.013064384, -0.018299103, 9.924462
356764672552810, 0.01794617, 6.483353, 7.5062847, 0.04033661, -0.0055890083, 9.918511
356764682191716, 0.033499517, 6.4618177, 7.5086775, 0.046526432, -0.027661324, 9.906235
356764691830622, 0.02632105, 6.452246, 7.5266237, 0.03175664, -0.040438175, 9.913609
356764701469528, 0.016749758, 6.448657, 7.5529447, 0.014314175, -0.05414915, 9.931229
356764711108435, 0.022731815, 6.454639, 7.5661054, 0.019428968, -0.057540894, 9.945105
356764720747341, 0.010767702, 6.458228, 7.550552, 0.014886379, -0.039397717, 9.935687
356764730386247, 0.0023928226, 6.471389, 7.5146594, 0.021856308, -0.0055098534, 9.91708
356764740025206, -0.03708875, 6.468996, 7.4548388, 0.002049446, 0.045781612, 9.870249
356764749664112, -0.039481573, 6.4570317, 7.446464, -9.815693E-4, 0.04318714, 9.856105
356764759303018, -0.047856454, 6.471389, 7.4584284, -0.006385088, 0.049496174, 9.874555
356764768941924, -0.041874398, 6.489335, 7.450053, 0.008021593, 0.06379604, 9.879897
356764778580831, -0.059820566, 6.468996, 7.4356966, -0.010543346, 0.066045284, 9.855788
356764788219789, -0.0526421, 6.468996, 7.4476604, -0.006273508, 0.056164265, 9.864843
356764797858695, -0.023928227, 6.4701924, 7.5122666, 0.0019011497, 0.0070791245, 9.914537
356764807497601, -0.011964113, 6.4534426, 7.57448, -0.011480093, -0.045866966, 9.950757
356764817136508, -0.011964113, 6.471389, 7.5996046, -0.012066364, -0.047000885, 9.981516
356764826775414, -0.019142581, 6.448657, 7.5792656, -0.018619299, -0.044337273, 9.951305
356764836414320, -0.038285162, 6.452246, 7.5828547, -0.03494358, -0.03422308, 9.956417
356764846053226, -0.034695927, 6.4570317, 7.550552, -0.020339489, -0.013065338, 9.935024
356764855692185, -0.0071784677, 6.4677997, 7.5469627, 0.008427858, -0.0158391, 9.939257
356764865331091, 0.014356935, 6.4821568, 7.550552, 0.030857563, -0.017494678, 9.95129
356764874969997, 0.02871387, 6.4797635, 7.5433736, 0.043855906, -0.021260738, 9.944258
356764884608903, 0.020338992, 6.491728, 7.5230346, 0.04654336, 0.0026187897, 9.93664
356764894247810, -0.025124637, 6.471389, 7.4907312, 0.0070085526, 0.028221607, 9.898975
356764903886716, -0.05503492, 6.4462643, 7.446464, -0.017686367, 0.049072742, 9.849084
356764913525622, -0.04426722, 6.4570317, 7.4333034, -0.0010724068, 0.058440685, 9.846106
356764923164581, -0.049052864, 6.4414787, 7.446464, -0.015004873, 0.042235374, 9.845959
356764932803487, -0.03589234, 6.4438715, 7.479964, -0.013133764, 0.018334389, 9.872898
356764942442393, -0.02751746, 6.431907, 7.5146594, -0.019972324, -0.013689995, 9.8913965
356764952081299, -0.02632105, 6.430711, 7.5732837, -0.03685212, -0.04701805, 9.93508
356764961720206, 0.0, 6.4402823, 7.6103725, -0.021778822, -0.07398319, 9.969406
356764971359112, 0.02632105, 6.454639, 7.5960155, 0.011015892, -0.06707239, 9.967842
356764980998018, 0.025124637, 6.468996, 7.5756764, 0.020950079, -0.043895245, 9.961781
356764990636976, 0.034695927, 6.4666033, 7.5517483, 0.034657955, -0.03527069, 9.942062
356765000275883, 0.011964113, 6.474978, 7.5673018, 0.010712147, -0.02781105, 9.95935
356765009914789, 0.021535404, 6.4869423, 7.5625157, 0.024766922, -0.021285057, 9.963507
356765019553695, 0.010767702, 6.478567, 7.5637126, 0.011107206, -0.02311325, 9.958968
356765029192601, 0.02632105, 6.4666033, 7.537391, 0.025511742, -0.024515152, 9.931196
356765038831508, -0.0071784677, 6.458228, 7.500303, 0.0035033226, 0.0065083504, 9.897636
356765048470414, -0.013160525, 6.4642105, 7.4656067, 0.0066280365, 0.030827522, 9.875246
356765058109372, -0.022731815, 6.4737816, 7.4273214, 0.011998415, 0.064022064, 9.852474
356765067748278, -0.029910283, 6.4558353, 7.4069824, 0.0038325787, 0.065154076, 9.825367
356765077387185, -0.022731815, 6.4642105, 7.4273214, 0.0049796104, 0.05259657, 9.84626
356765087026091, -0.021535404, 6.4773707, 7.4584284, 7.5507164E-4, 0.04160738, 9.878422
356765096664997, 0.0011964113, 6.478567, 7.479964, 0.0151286125, 0.018755913, 9.895512
356765106303903, -0.011964113, 6.472585, 7.495517, -0.0029895306, 0.011191368, 9.903391
356765115942810, -0.032303106, 6.48096, 7.476374, -0.013563871, 0.035996437, 9.894371
356765125581768, -0.05383851, 6.48096, 7.4548388, -0.026924849, 0.05699873, 9.878075
356765135220674, -0.019142581, 6.4821568, 7.4679995, 0.0010149479, 0.033638954, 9.888813
356765144859581, 0.015553347, 6.492924, 7.4739814, 0.03426981, 0.02111864, 9.900358
356765154498487, -0.015553347, 6.471389, 7.483553, -0.0036699772, 0.013171196, 9.8935585
356765164137393, -0.020338992, 6.471389, 7.487142, -0.009606838, 0.012459278, 9.896278
356765173776299, -0.01794617, 6.483353, 7.4919276, -0.004843712, 0.016106129, 9.907717
356765183415206, -0.01794617, 6.491728, 7.4943204, -0.0026109219, 0.01909256, 9.915003
356765193054112, 0.0, 6.4977098, 7.4847493, 0.018446445, 0.020674706, 9.911655
356765202693018, -0.015553347, 6.4773707, 7.4823565, -0.0017502308, 0.014616013, 9.8965645
356765212331976, -0.010767702, 6.474978, 7.4512496, 0.010961771, 0.027235985, 9.87146
356765221970883, -0.020338992, 6.474978, 7.4392858, 0.005934, 0.037727833, 9.862417
356765231609789, -0.020338992, 6.4701924, 7.4344997, 0.005199194, 0.037366867, 9.855666
356765241248695, -0.015553347, 6.4845495, 7.4476604, 0.010797977, 0.03636694, 9.875011
356765250887601, -0.0047856453, 6.472585, 7.4380894, 0.019727945, 0.02772808, 9.859938
356765260526508, -0.01794617, 6.474978, 7.440482, 0.007924795, 0.033913612, 9.863327
356765270165414, -0.010767702, 6.485746, 7.4512496, 0.015052795, 0.031573296, 9.878509
356765279804320, -0.023928227, 6.4618177, 7.4644103, -0.007866859, 0.0132341385, 9.872834
356765289443226, -0.021535404, 6.4701924, 7.469196, -0.0039532185, 0.014928341, 9.881929
356765299082185, 0.0, 6.4761744, 7.4847493, 0.014552593, 0.0013408661, 9.897581
356765308721091, 0.013160525, 6.4821568, 7.5122666, 0.020446539, -0.016643047, 9.922298
356765318359997, 0.0023928226, 6.4821568, 7.5349984, 0.0048542023, -0.024546623, 9.939514
356765327998903, 0.014356935, 6.4773707, 7.5182486, 0.019207716, -0.022465706, 9.923696
356765337637810, -0.0059820567, 6.48096, 7.4943204, 0.0097641945, 0.0036215782, 9.907957
356765347276716, -0.033499517, 6.472585, 7.4739814, -0.011167526, 0.02282238, 9.887124
356765356915622, -0.05383851, 6.471389, 7.476374, -0.03027296, 0.029732227, 9.888182
356765366554528, -0.033499517, 6.478567, 7.4715886, -0.007832289, 0.028625488, 9.889222
356765376193435, 0.011964113, 6.485746, 7.483553, 0.03214264, 0.0067648888, 9.902905
356765385832341, 0.019142581, 6.471389, 7.483553, 0.033275366, -0.0059070587, 9.893517
356765395471247, -0.0023928226, 6.463014, 7.4476604, 0.021627665, 0.018977165, 9.860901
356765405110153, -0.0047856453, 6.4462643, 7.4620175, 0.00919342, 0.0012793541, 9.86083
356765414749060, 0.013160525, 6.4570317, 7.4548388, 0.030968666, 0.0048770905, 9.862407
356765424387966, 0.011964113, 6.452246, 7.4344997, 0.034408092, 0.015074253, 9.843882
356765434026872, 0.01794617, 6.4498534, 7.440482, 0.037641287, 0.007864475, 9.846838
356765443665831, 0.011964113, 6.4606214, 7.4787674, 0.02552867, -0.0036964417, 9.882868
356765453304737, -0.013160525, 6.4737816, 7.476374, 0.008135319, 0.017986774, 9.889681
356765462943643, -0.02751746, 6.4773707, 7.4644103, 6.327629E-4, 0.03485489, 9.882981
356765472582549, -0.06819545, 6.364908, 7.457232, -0.069432974, -0.018829823, 9.804174
356765482221456, 0.0634098, 6.8709903, 7.5050883, 0.20076275, 0.24659348, 10.170534
356765491860362, -0.16390835, 5.977271, 7.475178, -0.2871307, -0.25396585, 9.564829
356765501499268, 0.086141616, 7.0612197, 7.6067834, 0.25956798, 0.3097744, 10.371504
356765511138174, -0.09092726, 5.9342003, 7.4069824, -0.2110089, -0.26861715, 9.485238
356765520777081, -0.021535404, 6.884151, 7.6713896, 0.089609146, 0.19755363, 10.305103
356765530415987, -0.03589234, 6.192625, 7.393822, -0.07362342, -0.10473728, 9.643759
356765540054893, -0.09930214, 6.524031, 7.6510506, -0.094233274, -0.0040922165, 10.0549755
356765549693799, 0.10767702, 6.586244, 7.4309106, 0.1789875, 0.07569122, 9.9282875
356765559332706, -0.15433706, 6.125626, 7.6462646, -0.27502596, -0.24055243, 9.791781
356765568971612, 0.1160519, 6.923632, 7.6271224, 0.24879146, 0.18142605, 10.297007
356765578610518, -0.18783657, 5.8887367, 7.539784, -0.36171293, -0.30897713, 9.556912
356765588249424, 0.08733802, 7.0337024, 7.584051, 0.27886868, 0.29227543, 10.336113
356765597888331, -0.078963146, 5.8839507, 7.3579297, -0.21231961, -0.26560068, 9.415445
356765607527237, 0.046660043, 6.936793, 7.63789, 0.19346952, 0.2148447, 10.3138275
356765617166143, 0.021535404, 6.174679, 7.3902326, -0.025469303, -0.13364506, 9.629337
356765626805049, -0.07058827, 6.5611196, 7.6426754, -0.046425104, 0.021434784, 10.072794
356765636443956, 0.101694964, 6.5539412, 7.3543406, 0.19164348, 0.09935999, 9.849073
356765646082862, -0.104087785, 6.142376, 7.52782, -0.19503832, -0.1782546, 9.712768
356765655721768, 0.16390835, 6.8865438, 7.4823565, 0.32302642, 0.21787977, 10.162932
356765665360674, -0.16390835, 5.845666, 7.479964, -0.32952023, -0.32544422, 9.4833555
356765674999581, 0.104087785, 7.0432734, 7.5924263, 0.29101157, 0.28609133, 10.348764
356765684638487, -0.14476576, 5.8767724, 7.426125, -0.29318333, -0.28090286, 9.46255
356765694277393, 0.0, 6.9296145, 7.692925, 0.13403988, 0.20656538, 10.350845
356765703916299, -0.043070808, 6.117251, 7.3902326, -0.10131192, -0.14314556, 9.592049
356765713555206, -0.076570325, 6.6305118, 7.645068, -0.028448105, 0.06655884, 10.119852
356765723194112, 0.061016977, 6.541977, 7.373483, 0.143327, 0.100721836, 9.8559
356765732833018, -0.14955142, 6.196214, 7.5553374, -0.22092533, -0.14329243, 9.768787
356765742471924, 0.13160525, 6.906883, 7.479964, 0.3020184, 0.2520013, 10.1743555
356765752110831, -0.17706887, 5.9210396, 7.483553, -0.32118213, -0.2780609, 9.53484
356765761749737, 0.09810573, 7.062416, 7.576873, 0.28859282, 0.3145795, 10.349594
356765771388643, -0.11365908, 5.8564334, 7.3926253, -0.25837743, -0.30102634, 9.423602
356765781027549, 0.061016977, 6.946364, 7.609176, 0.20684123, 0.23137712, 10.298493
356765790666456, -0.014356935, 6.0981083, 7.300502, -0.057425022, -0.12348986, 9.511355
356765800305362, -0.05623133, 6.63769, 7.55773, 0.00950551, 0.106543064, 10.058328
356765809944268, 0.078963146, 6.4797635, 7.3100734, 0.14837885, 0.0822711, 9.767392
356765819583174, -0.15553348, 6.2416778, 7.517052, -0.20450306, -0.09087324, 9.769275
356765829222081, 0.10049855, 6.8614187, 7.456035, 0.25484443, 0.24283075, 10.127079
356765838860987, -0.18664017, 5.933004, 7.509874, -0.33941436, -0.28528833, 9.562268
356765848499893, 0.10049855, 7.058827, 7.585248, 0.28175402, 0.3004241, 10.353911
356765858138799, -0.12562318, 5.866005, 7.4249287, -0.2794404, -0.30273294, 9.454399
356765867777706, 0.061016977, 6.9894347, 7.63789, 0.21323538, 0.24445248, 10.348335
356765877416612, -0.01794617, 6.076573, 7.37109, -0.09701133, -0.17786264, 9.550757
356765887055466, -0.049052864, 6.6939216, 7.635497, 0.009815693, 0.096404076, 10.153936
356765896694372, 0.050249275, 6.452246, 7.350751, 0.09784722, 0.050940037, 9.780356
356765906333278, -0.12323037, 6.2644095, 7.5469627, -0.18428707, -0.10670328, 9.806595
356765915972185, 0.15792629, 6.820741, 7.463214, 0.29258513, 0.17357635, 10.106003
356765925611091, -0.15074782, 5.95095, 7.5122666, -0.31548858, -0.28147078, 9.57559
356765935249997, 0.13878371, 7.0504518, 7.5673018, 0.32822084, 0.28107452, 10.334672
356765944888903, -0.11485548, 5.8624153, 7.38784, -0.27854466, -0.2863598, 9.423465
356765954527810, 0.059820566, 7.007381, 7.585248, 0.2365191, 0.2794752, 10.320316
356765964166716, -0.02871387, 6.058627, 7.331609, -0.11286187, -0.16677141, 9.508929
356765973805622, -0.02751746, 6.754938, 7.6103725, 0.055965662, 0.13784838, 10.174752
356765983444528, 0.0634098, 6.418747, 7.375876, 0.08744502, 0.0056939125, 9.7775345
356765993083383, -0.1591227, 6.3122663, 7.600801, -0.21735716, -0.0925169, 9.878584
356766002722289, 0.0849452, 6.8039913, 7.456035, 0.21678066, 0.20426178, 10.089859
356766012361195, -0.17228323, 5.977271, 7.5086775, -0.32655168, -0.25431967, 9.589909
356766022000101, 0.13160525, 7.01097, 7.5385876, 0.30722308, 0.26834536, 10.287611
356766031639008, -0.15433706, 5.837291, 7.3866434, -0.31723404, -0.28436995, 9.406317
356766041277914, 0.05503492, 7.0097737, 7.539784, 0.2388711, 0.30191374, 10.287863
356766050916820, -0.05623133, 6.017949, 7.2789664, -0.13220048, -0.15010405, 9.442575
356766060555726, -0.031106694, 6.77767, 7.6031938, 0.06236267, 0.15478516, 10.184226
356766070194633, 0.051445685, 6.393622, 7.3866434, 0.064551115, -0.015593052, 9.769295
356766079833487, -0.12801601, 6.4008007, 7.668997, -0.17887068, -0.0907011, 9.987989
356766089472393, 0.09930214, 6.7812595, 7.5182486, 0.20237517, 0.14535189, 10.12212
356766099111299, -0.16271193, 5.9952173, 7.5900335, -0.32555282, -0.30624056, 9.663227
356766108750206, 0.15433706, 7.0348988, 7.5720873, 0.32481956, 0.26596117, 10.328305
356766118389112, -0.096909314, 5.8504515, 7.385447, -0.25103033, -0.3112669, 9.413931
356766128028018, 0.111266255, 7.01097, 7.5026956, 0.2920537, 0.30472898, 10.260526
356766137666924, -0.02871387, 5.962914, 7.227521, -0.110268354, -0.1816268, 9.367449
356766147305778, -0.025124637, 6.7968125, 7.5314093, 0.088418484, 0.20640564, 10.142435
356766156944685, 0.058624156, 6.3218374, 7.292127, 0.07204723, -0.015411377, 9.650843
356766166583591, -0.096909314, 6.4008007, 7.560123, -0.11850691, -0.049720764, 9.905482
356766176222497, 0.14596218, 6.7501526, 7.440482, 0.25140667, 0.14932871, 10.042965
356766185861403, -0.13040884, 6.050252, 7.594819, -0.2792889, -0.2864051, 9.702774
356766195500310, 0.16630118, 7.025327, 7.6019974, 0.3153026, 0.22994137, 10.345093
356766205139216, -0.15194423, 5.858826, 7.472785, -0.33760238, -0.3305316, 9.485158
356766214778070, 0.07776674, 7.0492554, 7.611569, 0.24791813, 0.28559065, 10.367786
356766224416976, -0.096909314, 5.9497533, 7.3639116, -0.21602559, -0.22994041, 9.462378
356766234055883, -0.038285162, 6.7932234, 7.624729, 0.047945738, 0.1537509, 10.210774
356766243694789, 0.008374879, 6.2751775, 7.335198, -0.0019161701, -0.044140816, 9.653036
356766253333695, -0.11964113, 6.4462643, 7.5661054, -0.1253593, -0.005877495, 9.939762
356766262972549, 0.10289137, 6.690332, 7.3770723, 0.21495867, 0.16607475, 9.95583
356766272611456, -0.17347965, 6.068198, 7.5433736, -0.3024099, -0.22097445, 9.675501
356766282250362, 0.148355, 7.0097737, 7.588837, 0.3077774, 0.23477125, 10.324705
356766291889268, -0.13160525, 5.8863435, 7.4823565, -0.3066591, -0.32355356, 9.510695
356766301528174, 0.07537391, 7.082755, 7.578069, 0.26572132, 0.32059717, 10.364595
356766311167081, -0.10289137, 5.940182, 7.237092, -0.19154501, -0.16641283, 9.359889
356766320805987, -0.011964113, 6.8745794, 7.4739814, 0.14732456, 0.28378582, 10.149786
356766330444841, 0.010767702, 6.259624, 7.1976104, 0.0331614, 0.01718092, 9.538723
356766340083747, -0.08733802, 6.4737816, 7.48116, -0.0639081, 0.04162836, 9.893402
356766349722653, 0.12203395, 6.62094, 7.322037, 0.22095132, 0.1368661, 9.868961
356766359361560, -0.16271193, 6.053841, 7.5254273, -0.28497517, -0.23577356, 9.652498
356766369000466, 0.13160525, 6.940382, 7.580462, 0.25977898, 0.20004082, 10.273371
356766378639320, -0.13878371, 5.8504515, 7.5637126, -0.34267592, -0.40003586, 9.548788
356766388278226, 0.10767702, 7.0612197, 7.7001033, 0.25444818, 0.23268747, 10.442469
356766397917133, -0.07178468, 5.9294147, 7.483553, -0.23977971, -0.323174, 9.53964
356766407555987, 0.01794617, 6.927222, 7.7587276, 0.113954306, 0.1492486, 10.399487
356766417194893, -0.013160525, 6.2440705, 7.446464, -0.06315589, -0.11210251, 9.717091
356766426833799, -0.10049855, 6.5575304, 7.6546397, -0.09194422, 0.014602661, 10.079493
356766436472706, 0.10289137, 6.6221366, 7.3543406, 0.2047596, 0.1328268, 9.89394
356766446111612, -0.14356937, 6.1292152, 7.452446, -0.22072053, -0.13401699, 9.64677
356766455750466, 0.13998012, 6.910472, 7.3974113, 0.32931685, 0.27849388, 10.114836
356766465389372, -0.14476576, 5.8420763, 7.372287, -0.306, -0.28473544, 9.39823
356766475028278, 0.12562318, 7.02772, 7.509874, 0.32095933, 0.30370808, 10.276556
356766484667185, -0.06460621, 5.871987, 7.342376, -0.21510291, -0.2839682, 9.395105
356766494306091, 0.031106694, 6.9044895, 7.682157, 0.138201, 0.17039776, 10.326682
356766503944945, -0.0011964113, 6.178268, 7.4584284, -0.08325696, -0.17303753, 9.683094
356766513583851, -0.08255238, 6.6077795, 7.7479596, -0.08530307, -0.01240921, 10.182978
356766523222758, 0.0526421, 6.6125655, 7.537391, 0.10256505, 0.046452045, 10.026385
356766532861664, -0.20578274, 6.1854467, 7.6941214, -0.32688785, -0.20588303, 9.866731
356766542500570, 0.10049855, 6.928418, 7.568498, 0.24795175, 0.21414042, 10.256117
356766552139424, -0.16510476, 5.8947186, 7.4584284, -0.3140471, -0.29039526, 9.49843
356766561778331, 0.11724831, 7.042077, 7.472785, 0.32745123, 0.33782244, 10.257963
356766571417237, -0.062213387, 5.864808, 7.1856465, -0.16527605, -0.20314789, 9.27172
356766581056091, 0.104087785, 6.9332037, 7.4045897, 0.29521084, 0.30607176, 10.135447
356766590694997, 0.016749758, 6.1387863, 7.1485577, 0.011972427, -0.038535118, 9.422591
356766600333903, -0.07178468, 6.5898337, 7.460821, -0.0026295185, 0.12373352, 9.953873
356766609972810, 0.0849452, 6.5168524, 7.281359, 0.16666675, 0.1085825, 9.770121
356766619611716, -0.14476576, 6.1974106, 7.598408, -0.24417353, -0.18458176, 9.80158
356766629250570, 0.13160525, 6.88774, 7.624729, 0.23747468, 0.144557, 10.272172
356766638889476, -0.15314065, 5.9030933, 7.6797643, -0.37602055, -0.4183383, 9.671213
356766648528383, 0.12083755, 7.0540414, 7.7790666, 0.24266982, 0.17977047, 10.497465
356766658167237, -0.09451649, 5.8971114, 7.5828547, -0.2883042, -0.39079475, 9.594202
356766667806143, 0.049052864, 7.015756, 7.8293157, 0.15062141, 0.15985537, 10.510621
356766677445049, -0.05623133, 6.13759, 7.4237323, -0.12410474, -0.1510334, 9.630512
356766687083956, -0.09571291, 6.664011, 7.5756764, -0.029548883, 0.13027143, 10.089165
356766696722862, 0.050249275, 6.471389, 7.2215385, 0.13894892, 0.1383915, 9.695026
356766706361716, -0.15672988, 6.195018, 7.3579297, -0.17960668, -0.035446644, 9.618129
356766716000622, 0.09810573, 6.802795, 7.2323065, 0.29306006, 0.3276162, 9.919712
356766725639528, -0.19980069, 5.875576, 7.2550383, -0.29791594, -0.17369747, 9.331612
356766735278383, 0.11844472, 7.0468626, 7.429714, 0.34054184, 0.3580637, 10.228822
356766744917289, -0.106480606, 5.8540406, 7.379465, -0.26813412, -0.29961848, 9.411481
356766754556195, 0.069391854, 6.99781, 7.773084, 0.18640256, 0.15659046, 10.456371
356766764195101, -0.013160525, 6.078966, 7.6390862, -0.17816353, -0.3361163, 9.755251
356766773834008, -0.033499517, 6.6999035, 7.978867, -0.0821116, -0.10649586, 10.417968
356766783472862, 0.101694964, 6.452246, 7.6510506, 0.052850723, -0.14153004, 10.007876
356766793111768, -0.07058827, 6.2679987, 7.728817, -0.19005108, -0.22498512, 9.946892
356766802750674, 0.15553348, 6.8374906, 7.4775705, 0.29720402, 0.18499994, 10.127537
356766812389528, -0.1471586, 5.9521465, 7.385447, -0.26522708, -0.20100403, 9.480706
356766822028435, 0.13998012, 7.0372915, 7.3304124, 0.39190173, 0.4088378, 10.146787
356766831667341, -0.12801601, 5.84088, 7.1342006, -0.21879804, -0.15311456, 9.217254
356766841306247, 0.05623133, 7.01097, 7.393822, 0.2936108, 0.3882103, 10.177846
356766850945153, -0.069391854, 6.017949, 7.233503, -0.13072133, -0.11735487, 9.408148
356766860584008, -0.0634098, 6.7011, 7.6163545, 8.728504E-4, 0.11387873, 10.144192
356766870222914, 0.069391854, 6.393622, 7.3866434, 0.07813573, -0.02143526, 9.769297
356766879861820, -0.11844472, 6.3290157, 7.668997, -0.19786024, -0.1366229, 9.941134
356766889500674, 0.10767702, 6.800402, 7.5960155, 0.1930983, 0.112672806, 10.193455
356766899139581, -0.18664017, 5.983253, 7.704889, -0.39240813, -0.35349655, 9.742718
356766908778487, 0.1160519, 7.058827, 7.7479596, 0.24571562, 0.19772911, 10.477208
356766918417393, -0.15433706, 5.8731833, 7.5433736, -0.34399867, -0.3476758, 9.548894
356766928056299, 0.07058827, 7.0325055, 7.6941214, 0.22138262, 0.23612165, 10.419014
356766937695153, -0.051445685, 6.005985, 7.373483, -0.15628934, -0.206954, 9.506603
356766947334060, -0.03708875, 6.7836523, 7.6163545, 0.05560875, 0.16006899, 10.19801
356766956972966, 0.031106694, 6.378069, 7.2909307, 0.072151184, 0.046235085, 9.686644
356766966611820, -0.1268196, 6.361319, 7.4644103, -0.12871122, 0.0035557747, 9.80731
356766976250726, 0.11006984, 6.768099, 7.3304124, 0.26775765, 0.23962975, 9.971214
356766985889633, -0.148355, 6.0083776, 7.4943204, -0.28444886, -0.23754692, 9.599484
356766995528539, 0.1268196, 7.031309, 7.533802, 0.31605005, 0.28780556, 10.297127
356767005167445, -0.11485548, 5.855237, 7.416554, -0.28630614, -0.31102085, 9.440528
356767014806299, 0.09810573, 7.0576305, 7.5792656, 0.28203893, 0.29618645, 10.348805
356767024445206, -0.06819545, 5.983253, 7.351948, -0.1844635, -0.21560478, 9.474946
356767034084112, -0.023928227, 6.79442, 7.6570325, 0.05353117, 0.13199997, 10.235945
356767043722966, 0.033499517, 6.3158555, 7.4105716, 0.010024309, -0.07316446, 9.736646
356767053361872, -0.10767702, 6.4008007, 7.631908, -0.1521926, -0.08103895, 9.959826
356767063000778, 0.1268196, 6.7202425, 7.426125, 0.22640586, 0.1500969, 10.012556
356767072639685, -0.16630118, 6.0167527, 7.5457664, -0.310915, -0.26793337, 9.643604
356767082278591, 0.15792629, 7.02772, 7.539784, 0.32583976, 0.28138924, 10.299358
356767091917445, -0.11365908, 5.8683977, 7.4380894, -0.2882837, -0.32599258, 9.465031
356767101556351, 0.10289137, 7.082755, 7.598408, 0.2746718, 0.3010068, 10.380066
356767111195258, -0.034695927, 5.973682, 7.37109, -0.16980934, -0.2475686, 9.483088
356767120834112, 0.023928227, 6.856633, 7.68455, 0.10333657, 0.13133621, 10.297495
356767130473018, 0.046660043, 6.296713, 7.391429, 0.01444006, -0.08353853, 9.709624
356767140111924, -0.11246266, 6.4271216, 7.6031938, -0.14548421, -0.041968822, 9.955209
356767149750831, 0.11006984, 6.6329045, 7.2586274, 0.23423004, 0.18316984, 9.8288765
356767159389737, -0.124426775, 6.0287166, 7.3567333, -0.22673082, -0.16051531, 9.508167
356767169028591, 0.12083755, 6.98106, 7.4847493, 0.30124712, 0.2801051, 10.227515
356767178667497, -0.14237295, 5.8432727, 7.4775705, -0.34415984, -0.3415115, 9.4785595
356767188306403, 0.11246266, 7.0935225, 7.6737823, 0.27211165, 0.25947762, 10.44396
356767197945258, -0.07776674, 5.98086, 7.496713, -0.23585081, -0.2940688, 9.5830765
356767207584164, -0.0035892338, 6.9332037, 7.812566, 0.072029114, 0.12629128, 10.444346
356767217223070, 0.008374879, 6.290731, 7.513463, -0.05885601, -0.1378622, 9.798114
356767226861976, -0.1160519, 6.501299, 7.6941214, -0.14813423, -0.04092884, 10.07255
356767236500883, 0.111266255, 6.650851, 7.3806615, 0.20272017, 0.13044119, 9.932888
356767246139737, -0.13160525, 6.0753765, 7.429714, -0.23204851, -0.16787434, 9.594069
356767255778643, 0.1591227, 6.9355965, 7.3603225, 0.3454883, 0.3082261, 10.103851
356767265417549, -0.1471586, 5.838487, 7.281359, -0.28684986, -0.2472527, 9.326542
356767275056403, 0.12562318, 7.0600233, 7.409375, 0.34480476, 0.37052488, 10.222641
356767284695310, -0.076570325, 5.919843, 7.268199, -0.19141269, -0.20955491, 9.369984
356767294334216, 0.021535404, 6.930811, 7.6163545, 0.14384604, 0.211864, 10.294653
356767303973122, 0.019142581, 6.2380886, 7.402197, -0.036928415, -0.12245989, 9.679373
356767313612028, -0.07298109, 6.5778694, 7.7036924, -0.08852267, -0.023356915, 10.129768
356767323250883, 0.09451649, 6.6448684, 7.4512496, 0.16306734, 0.08775854, 9.982484
356767332889789, -0.15553348, 6.1304116, 7.5828547, -0.28598762, -0.21138811, 9.745735
356767342528695, 0.13758731, 6.960721, 7.5266237, 0.29749346, 0.23179817, 10.245895
356767352167601, -0.17467605, 5.8839507, 7.456035, -0.3506118, -0.2957151, 9.488597
356767361806508, 0.06460621, 7.076773, 7.530213, 0.26856446, 0.33907604, 10.32482
356767371445362, -0.13998012, 5.901897, 7.3052874, -0.26507306, -0.21438575, 9.38632
356767381084268, 0.008374879, 6.969096, 7.600801, 0.15961242, 0.25322485, 10.30781
356767390723174, -0.016749758, 6.2033925, 7.3304124, -0.050329685, -0.08424091, 9.602482
356767400362081, -0.08255238, 6.5946193, 7.5924263, -0.051466227, 0.05274105, 10.056606
356767410000987, 0.061016977, 6.5742803, 7.351948, 0.14444184, 0.11092281, 9.861181
356767419639841, -0.20458634, 6.168697, 7.5182486, -0.2863779, -0.13107061, 9.722118
356767429278747, 0.11246266, 6.908079, 7.479964, 0.2738526, 0.23848152, 10.176061
356767438917653, -0.12203395, 5.8731833, 7.495517, -0.31392527, -0.3509009, 9.511585
356767448556560, 0.17706887, 7.0672016, 7.6103725, 0.35320187, 0.23859406, 10.378477
356767458195466, -0.061016977, 5.889933, 7.396215, -0.2132256, -0.30831265, 9.447674
356767467834320, 0.041874398, 6.95115, 7.6426754, 0.18025994, 0.21264505, 10.327295
356767477473226, 0.0047856453, 6.114858, 7.3866434, -0.07379317, -0.18314648, 9.587233
356767487112133, -0.0634098, 6.6281185, 7.678568, -0.042343855, 0.023482323, 10.143669
356767496750987, 0.069391854, 6.515656, 7.391429, 0.12518072, 0.05877018, 9.852549
356767506389893, -0.16271193, 6.204589, 7.5122666, -0.22455549, -0.11864805, 9.741307
356767516028799, 0.11485548, 6.890133, 7.4177504, 0.29026794, 0.27664804, 10.116787
356767525667706, -0.18305093, 5.910272, 7.420143, -0.31219113, -0.25254393, 9.479563
356767535306612, 0.10049855, 7.071987, 7.5314093, 0.30912852, 0.34176254, 10.321476
356767544945518, -0.12801601, 5.879165, 7.355537, -0.25977933, -0.2513163, 9.410328
356767554584424, 0.023928227, 6.9595246, 7.6223364, 0.176404, 0.23991251, 10.317309
356767564223278, -0.041874398, 6.0753765, 7.3986077, -0.1287682, -0.1811161, 9.570892
356767573862185, -0.069391854, 6.647261, 7.7036924, -0.03528595, 0.039405823, 10.175213
356767583501091, 0.07178468, 6.4677997, 7.487142, 0.08919644, -0.026789188, 9.893747
356767593139997, -0.1268196, 6.2285175, 7.696514, -0.23601365, -0.20602989, 9.896904
356767602778903, 0.15792629, 6.863812, 7.611569, 0.2736218, 0.12663317, 10.246069
356767612417758, -0.1471586, 5.9150577, 7.6510506, -0.3470304, -0.37555504, 9.658503
356767622056664, 0.148355, 7.0289164, 7.698907, 0.30039454, 0.20697308, 10.419587
356767631695570, -0.069391854, 5.812166, 7.469196, -0.2582134, -0.3795116, 9.453267
356767641334476, 0.11485548, 6.984649, 7.641479, 0.262985, 0.22694159, 10.3474655
356767650973383, 0.0035892338, 6.0394845, 7.3567333, -0.07968974, -0.19404936, 9.51593
356767660612289, -0.023928227, 6.687939, 7.6462646, 0.034579992, 0.08831787, 10.158026
356767670251195, 0.08853444, 6.4462643, 7.396215, 0.1261518, 0.019248009, 9.810703
356767679890049, -0.12083755, 6.2955165, 7.5936227, -0.17449379, -0.09739399, 9.862621
356767689528956, 0.12801601, 6.8243303, 7.4548388, 0.2782457, 0.22179508, 10.10128
356767699167862, -0.18305093, 5.9377894, 7.4775705, -0.32677078, -0.23912096, 9.541538
356767708806768, 0.10767702, 7.045666, 7.548159, 0.31334138, 0.3251133, 10.316193
356767718445674, -0.16630118, 5.8241305, 7.3663044, -0.31269336, -0.2563951, 9.383341
356767728084581, 0.020338992, 6.9930243, 7.537391, 0.21977925, 0.33824205, 10.273869
356767737723487, -0.11006984, 6.0083776, 7.3064837, -0.17745423, -0.12660885, 9.457796
356767747362341, -0.078963146, 6.7405815, 7.652247, 0.0049784184, 0.14534807, 10.196932
356767757001247, 0.023928227, 6.4031935, 7.4452677, 0.040993214, -0.0066990852, 9.819965
356767766640153, -0.14596218, 6.3074803, 7.7001033, -0.22005796, -0.13695192, 9.951385
356767776279060, 0.12203395, 6.780063, 7.5720873, 0.22448611, 0.12723827, 10.161403
356767785917966, -0.13280165, 5.9724855, 7.5924263, -0.29620314, -0.30322027, 9.651604
356767795556872, 0.19501504, 7.0372915, 7.6426754, 0.3589716, 0.22688055, 10.382276
356767805195778, -0.16749759, 5.8396835, 7.5637126, -0.35141551, -0.3627653, 9.543827
356767814834633, 0.039481573, 7.0169525, 7.6869426, 0.20403433, 0.26999187, 10.402584
356767824473539, -0.04546363, 5.9916277, 7.328019, -0.12769628, -0.17970705, 9.463242
356767834112445, 0.010767702, 6.748956, 7.6067834, 0.10366082, 0.1480813, 10.167545
356767843751351, 0.078963146, 6.309873, 7.335198, 0.09216261, -0.023019314, 9.675579
356767853390258, -0.101694964, 6.3182483, 7.5637126, -0.13674855, -0.06772184, 9.854799
356767863029164, 0.14117654, 6.708278, 7.38784, 0.26816082, 0.18916416, 9.974638
356767872668070, -0.16749759, 5.9641104, 7.503892, -0.30044055, -0.23859167, 9.579137
356767882306976, 0.10887343, 6.9966135, 7.5625157, 0.29590535, 0.29338217, 10.294779
356767891945883, -0.16510476, 5.8217373, 7.507481, -0.35393775, -0.33672762, 9.489124
356767901584737, 0.0741775, 7.04447, 7.743174, 0.23024917, 0.24062347, 10.463072
356767911223643, -0.07178468, 5.9641104, 7.5062847, -0.2192998, -0.27375746, 9.581078
356767920862549, 0.0035892338, 6.799206, 7.776674, 0.06326175, 0.0890789, 10.329275
356767930501456, 0.041874398, 6.3122663, 7.470392, 0.017182112, -0.07703972, 9.779929
356767940140362, -0.111266255, 6.4163537, 7.6426754, -0.13351297, -0.031097412, 9.9786625
356767949779268, 0.12323037, 6.704689, 7.4452677, 0.23890448, 0.1606245, 10.015847
356767959418174, -0.1363909, 6.0083776, 7.4859457, -0.2591443, -0.20698977, 9.594196
356767969057081, 0.19142582, 7.0002027, 7.5230346, 0.379318, 0.282516, 10.267027
356767978695987, -0.17826529, 5.8277197, 7.4823565, -0.3624338, -0.30751014, 9.473851
356767988334893, 0.050249275, 7.001399, 7.6163545, 0.21898079, 0.2929449, 10.339111
356767997973799, -0.11006984, 5.8911295, 7.4237323, -0.25791728, -0.26528645, 9.47061
356768007612706, -0.009571291, 6.802795, 7.7036924, 0.070444345, 0.13825989, 10.27623
356768017251612, 0.047856454, 6.235696, 7.393822, 0.014806509, -0.08992624, 9.671944
356768026890466, -0.0634098, 6.4354963, 7.597212, -0.07330346, -0.019625187, 9.95648
356768036529372, 0.16749759, 6.672386, 7.4333034, 0.26699114, 0.12360144, 9.985801
356768046168278, -0.12203395, 6.0933228, 7.609176, -0.25575495, -0.22798824, 9.74298
356768055807185, 0.14237295, 7.0025954, 7.60798, 0.3114841, 0.24756384, 10.3334255
356768065446091, -0.16031912, 5.861219, 7.5026956, -0.3458984, -0.30051303, 9.51105
356768075084997, 0.0849452, 7.0576305, 7.615158, 0.27614355, 0.30828428, 10.37481
356768084723903, -0.101694964, 5.9042897, 7.3627152, -0.23015404, -0.22660208, 9.432722
356768094362810, -0.009571291, 6.853044, 7.6163545, 0.1146605, 0.21751308, 10.242691
356768104001716, -0.0047856453, 6.2081785, 7.318448, -0.01544857, -0.04322052, 9.596827
356768113640622, -0.106480606, 6.465407, 7.5696945, -0.09252691, 0.028989315, 9.955084
356768123279528, 0.09092726, 6.6077795, 7.375876, 0.19286084, 0.14524508, 9.900317
356768132918435, -0.15792629, 6.0825553, 7.519445, -0.25689042, -0.17933512, 9.6678
356768142557341, 0.14596218, 6.9726853, 7.5433736, 0.31831288, 0.27436733, 10.264772
356768152196247, -0.15314065, 5.8827543, 7.507481, -0.3204043, -0.3086486, 9.52862
356768161835153, 0.12203395, 7.071987, 7.647461, 0.3019595, 0.29281473, 10.408394
356768171474060, -0.07058827, 5.9007006, 7.4249287, -0.2082665, -0.28358412, 9.477818
356768181112966, 0.038285162, 6.8949184, 7.7072816, 0.14603138, 0.16957092, 10.33893
356768190751872, -0.0035892338, 6.172286, 7.4380894, -0.06097126, -0.1365323, 9.664366
356768200390778, -0.0849452, 6.5001025, 7.6833534, -0.09452987, -0.022243977, 10.063948
356768210029685, 0.12203395, 6.5312095, 7.4512496, 0.17092824, 0.039510727, 9.907671
356768219668591, -0.08973085, 6.1064835, 7.618747, -0.2175746, -0.24278116, 9.758905
356768229307497, 0.18185452, 6.9224358, 7.5732837, 0.32546306, 0.2013526, 10.254822
356768238946403, -0.13519448, 5.8672013, 7.5146594, -0.31420517, -0.31592798, 9.524385
356768248585310, 0.13160525, 7.0875406, 7.5828547, 0.3422761, 0.32230568, 10.369627
356768258224216, -0.10289137, 5.9114685, 7.3495545, -0.21901226, -0.20663357, 9.42769
356768267863122, 0.014356935, 6.957132, 7.5960155, 0.1868236, 0.29046297, 10.29476
356768277502028, -0.031106694, 6.13759, 7.3363943, -0.0704391, -0.08607483, 9.564586
356768287140935, -0.11485548, 6.5611196, 7.609176, -0.07582617, 0.07769251, 10.047351
356768296779841, 0.051445685, 6.506085, 7.3866434, 0.11703086, 0.09138775, 9.842371
356768306418747, -0.16869399, 6.1208405, 7.5900335, -0.27413654, -0.18290234, 9.746442
356768316057653, 0.14117654, 6.8482585, 7.587641, 0.25769687, 0.16149664, 10.217551
356768325696560, -0.1698904, 5.855237, 7.6139617, -0.37445557, -0.37591982, 9.591848
356768335335466, 0.16031912, 7.0540414, 7.7347994, 0.30724978, 0.20340824, 10.463104
356768344974372, -0.06819545, 5.8683977, 7.5409803, -0.25513697, -0.36311555, 9.545271
356768354613278, 0.10049855, 6.975078, 7.789834, 0.21253324, 0.15870523, 10.453373
356768364252185, 0.031106694, 6.1304116, 7.495517, -0.060872316, -0.20585299, 9.68089
356768373891091, -0.025124637, 6.623333, 7.713264, -0.0058932304, 0.023008347, 10.166761
356768383529997, 0.09092726, 6.502496, 7.373483, 0.15464735, 0.083090305, 9.829964
356768393168956, -0.1471586, 6.172286, 7.463214, -0.19889832, -0.08277035, 9.683592
356768402807862, 0.13998012, 6.843473, 7.3232336, 0.32409406, 0.32416105, 10.013609
356768412446768, -0.16510476, 5.85763, 7.3028946, -0.27906394, -0.20818901, 9.356825
356768422085674, 0.10767702, 7.007381, 7.379465, 0.3285253, 0.41904068, 10.163069
356768431724581, -0.148355, 5.81097, 7.225128, -0.2519456, -0.19954348, 9.267611
356768441363487, 0.009571291, 6.971489, 7.584051, 0.17079616, 0.30908775, 10.295383
356768451002393, -0.05503492, 6.0837517, 7.4644103, -0.15312266, -0.18813848, 9.626716
356768460641299, 0.0011964113, 6.765706, 7.844869, 0.025228977, 0.032100677, 10.359299
356768470280206, -0.0047856453, 6.445068, 7.8017983, -0.0802412, -0.15492344, 10.11813
356768479919112, -0.009571291, 6.541977, 7.844869, -0.06319761, -0.11232376, 10.21386
356768489558018, -0.049052864, 6.4594245, 7.7216387, -0.08890772, -0.075911045, 10.066608
356768499196924, -0.078963146, 6.4414787, 7.570891, -0.076058626, 0.01266098, 9.940388
356768508835831, -0.03708875, 6.418747, 7.416554, -5.2928925E-5, 0.06520891, 9.808297
356768518474789, 0.03589234, 6.4331036, 7.3232336, 0.09857845, 0.09050751, 9.74669
356768528113695, 0.01794617, 6.4067826, 7.2873416, 0.078131914, 0.100022316, 9.702393
356768537752601, 0.046660043, 6.422336, 7.338787, 0.09323406, 0.06692457, 9.751574
356768547391508, 0.039481573, 6.422336, 7.4476604, 0.05448985, 0.0071058273, 9.834256
356768557030414, 0.031106694, 6.4175506, 7.5720873, 0.008129835, -0.064136505, 9.925636
356768566669320, 0.043070808, 6.4414787, 7.655836, 0.002600193, -0.09724712, 10.004842
356768576308226, 0.041874398, 6.4331036, 7.6809607, -0.00930953, -0.11428499, 10.018512
356768585947185, 0.009571291, 6.4474607, 7.6737823, -0.02963829, -0.08583546, 10.022401
356768595586091, 0.0071784677, 6.45105, 7.648658, -0.022614717, -0.06436157, 10.005671
356768605224997, -0.0023928226, 6.4737816, 7.5996046, -0.009166956, -0.01564455, 9.983161
356768614863903, -0.023928227, 6.472585, 7.5529447, -0.015277147, 0.019758224, 9.946922
356768624502810, -0.058624156, 6.4881387, 7.507481, -0.027681828, 0.07122469, 9.922491
356768634141716, -0.06580263, 6.468996, 7.472785, -0.029824972, 0.08184481, 9.883684
356768643780622, -0.08135597, 6.452246, 7.452446, -0.043822765, 0.08563185, 9.857374
356768653419581, -0.061016977, 6.442675, 7.4333034, -0.023869753, 0.08068514, 9.836603
356768663058487, -0.034695927, 6.4127645, 7.440482, -0.012092352, 0.041728497, 9.822609
356768672697393, -0.010767702, 6.4067826, 7.4847493, -0.005967617, 0.0011305809, 9.852329
356768682336299, 0.013160525, 6.4175506, 7.5433736, 0.0032656193, -0.035462856, 9.903854
356768691975206, 0.04426722, 6.4175506, 7.564909, 0.025467396, -0.06057644, 9.920206
356768701614112, 0.049052864, 6.424729, 7.597212, 0.022477388, -0.07673693, 9.949413
356768711253018, 0.0741775, 6.445068, 7.641479, 0.039232254, -0.098367214, 9.996268
356768720891976, 0.076570325, 6.465407, 7.6797643, 0.037599087, -0.10583353, 10.038601
356768730530883, 0.059820566, 6.4773707, 7.6713896, 0.027400494, -0.082172394, 10.0400505
356768740169789, 0.032303106, 6.4677997, 7.645068, 0.0055553913, -0.06072426, 10.013832
356768749808695, 0.02751746, 6.4606214, 7.6223364, 0.005539894, -0.050251484, 9.991889
356768759447601, -0.0035892338, 6.4462643, 7.5625157, -0.010355949, -0.011332989, 9.93709
356768769086560, -0.04426722, 6.45105, 7.54457, -0.04020095, 0.02025938, 9.926556
356768778725466, -0.11724831, 6.4534426, 7.499106, -0.09174991, 0.077035904, 9.893579
356768788364372, -0.16031912, 6.4091754, 7.472785, -0.1379199, 0.08140421, 9.8448
356768798003278, -0.011964113, 6.431907, 7.4584284, 0.006654501, 0.03520584, 9.848677
356768807642185, 0.11964113, 6.442675, 7.373483, 0.15289974, 0.031569958, 9.791133
356768817281143, 0.0634098, 6.4354963, 7.2897344, 0.12161398, 0.09710932, 9.722944
356768826920049, 0.0, 6.437889, 7.3136625, 0.056723595, 0.112466335, 9.742702
356768836558956, -0.0071784677, 6.4558353, 7.411768, 0.028531075, 0.07026911, 9.828857
356768846197862, -0.0047856453, 6.474978, 7.5529447, -0.002625227, 9.007454E-4, 9.948483
356768855836768, -0.014356935, 6.4677997, 7.629515, -0.034682035, -0.04287243, 10.001956
356768865475726, -0.021535404, 6.465407, 7.6402826, -0.04448557, -0.048179626, 10.0085745
356768875114633, -0.05503492, 6.4462643, 7.63789, -0.07828355, -0.041911602, 9.994341
356768884753539, -0.047856454, 6.4414787, 7.6833534, -0.08587766, -0.07507563, 10.025759
356768894392497, -0.011964113, 6.442675, 7.7347994, -0.063649654, -0.11708593, 10.065664
356768904031403, -0.0059820567, 6.4414787, 7.725228, -0.055154085, -0.11395359, 10.057625
356768913670310, 0.0047856453, 6.4438715, 7.6390862, -0.021380663, -0.06604242, 9.993713
356768923309216, 0.021535404, 6.4438715, 7.5553374, 0.017451286, -0.024402618, 9.930065
356768932948122, 0.038285162, 6.4594245, 7.493124, 0.054739952, 0.014354229, 9.892895
356768942587081, 0.051445685, 6.4642105, 7.3974113, 0.09490514, 0.064679146, 9.8232975
356768952225987, 0.08015956, 6.463014, 7.348358, 0.1299603, 0.07562542, 9.785334
356768961864893, 0.0, 6.4773707, 7.391429, 0.051249266, 0.09574175, 9.827399
356768971503799, -0.06819545, 6.4414787, 7.367501, -0.017107248, 0.114470005, 9.785907
356768981142706, -0.05503492, 6.4211397, 7.3232336, 1.6641617E-4, 0.11841011, 9.739086
356768990781664, -0.02751746, 6.413961, 7.3782687, 0.00595212, 0.067279816, 9.776192
356769000420570, -0.0059820567, 6.4055862, 7.4715886, -0.0025265217, -0.0025105476, 9.841555
356769010059476, 0.0047856453, 6.4163537, 7.568498, -0.017240286, -0.056524277, 9.9221115
356769019698435, 0.016749758, 6.442675, 7.623533, -0.010421038, -0.07443762, 9.9810295
356769029337341, 0.031106694, 6.463014, 7.6941214, -0.0079648495, -0.10249138, 10.047906
356769038976247, 0.023928227, 6.491728, 7.763513, -0.023735762, -0.1176939, 10.119331
356769048615206, -0.009571291, 6.5048885, 7.7994056, -0.05972171, -0.115638256, 10.15517
356769058254112, -0.02871387, 6.492924, 7.7551384, -0.069229126, -0.08684349, 10.113789
356769067893018, -0.04426722, 6.485746, 7.6307116, -0.050834656, -0.011267185, 10.014585
356769077531976, -0.031106694, 6.478567, 7.476374, 5.226135E-4, 0.06520605, 9.89266
356769087170883, -0.031106694, 6.439086, 7.3698936, 0.0180974, 0.10054588, 9.786097
356769096809789, -0.0071784677, 6.4199433, 7.29452, 0.055113077, 0.11357689, 9.716471
356769106448695, 0.02751746, 6.407979, 7.2490563, 0.09450102, 0.11392212, 9.674187
356769116087601, -0.010767702, 6.3960147, 7.3459654, 0.027412176, 0.067368984, 9.739971
356769125726560, -0.040677983, 6.4127645, 7.440482, -0.02234459, 0.037130356, 9.822632
356769135365466, 0.0, 6.448657, 7.4919276, 0.012758255, 0.014527798, 9.88503
356769145004372, 0.04546363, 6.4474607, 7.5732837, 0.029271126, -0.052278996, 9.945997
356769154643331, 0.047856454, 6.4773707, 7.6869426, 0.007807493, -0.0989418, 10.051761
356769164282237, 0.029910283, 6.4797635, 7.7910304, -0.03672433, -0.1429162, 10.132453
356769173921143, 0.013160525, 6.4737816, 7.832905, -0.06614733, -0.16348171, 10.160379
356769183560101, 0.008374879, 6.4905314, 7.7647095, -0.04273033, -0.1068759, 10.1195135
356769193199008, 0.014356935, 6.495317, 7.661818, -0.0053272247, -0.046871662, 10.044432
356769202837914, -0.016749758, 6.4869423, 7.585248, -0.014914751, 0.0046334267, 9.980804
356769212476872, 0.0, 6.4881387, 7.576873, 0.002908945, 0.0025482178, 9.975217
356769222115778, -0.008374879, 6.48096, 7.4943204, 0.016882896, 0.04739666, 9.907837
356769231754685, 0.05742774, 6.4199433, 7.3459654, 0.09415865, 0.05577898, 9.755523
356769241393643, 0.050249275, 6.4163537, 7.3782687, 0.073071, 0.03730631, 9.777742
356769251032549, -0.023928227, 6.3888364, 7.2909307, 0.023569345, 0.1033597, 9.693516
356769260671456, -0.02871387, 6.3804617, 7.140183, 0.057840347, 0.18157291, 9.573767
356769270310414, -0.008374879, 6.381658, 7.1102724, 0.08382964, 0.18887568, 9.551907
356769279949320, 0.009571291, 6.393622, 7.3028946, 0.047962666, 0.0763855, 9.705805
356769289588226, -0.016749758, 6.422336, 7.5457664, -0.03723836, -0.03296709, 9.908724
356769299227185, -0.029910283, 6.4701924, 7.716853, -0.08082509, -0.091116905, 10.069721
356769308866091, -0.02632105, 6.502496, 7.8029947, -0.088608265, -0.11683035, 10.1562
356769318504997, -0.022731815, 6.509674, 7.826923, -0.08619332, -0.124426365, 10.179104
356769328143956, 0.0011964113, 6.5048885, 7.763513, -0.04776168, -0.097715855, 10.127876
356769337782862, 0.0023928226, 6.491728, 7.643872, -0.014668703, -0.036470413, 10.028448
356769347421768, 0.023928227, 6.4773707, 7.548159, 0.027678251, -5.426407E-4, 9.9464
356769357060726, 0.008374879, 6.452246, 7.466803, 0.028644085, 0.035371304, 9.868265
356769366699633, -0.047856454, 6.4331036, 7.429714, -0.019536972, 0.066473484, 9.827663
356769376338539, -0.062213387, 6.4354963, 7.38784, -0.019998789, 0.09752035, 9.797437
356769385977497, -0.03589234, 6.4570317, 7.3926253, 0.00976634, 0.097626686, 9.8150835
356769395616403, 0.0059820567, 6.4618177, 7.422536, 0.040026665, 0.06326389, 9.840913
356769405255310, -0.0011964113, 6.4462643, 7.450053, 0.017385006, 0.040415764, 9.851684
356769414894268, 0.03708875, 6.4354963, 7.533802, 0.024451733, -0.03139448, 9.908259
356769424533174, 0.039481573, 6.442675, 7.6067834, 0.00912118, -0.0703001, 9.968338
