timestamp_acc,device_acc_x,device_acc_y,device_acc_z,earth_acc_x,earth_acc_y,earth_acc_z
1196282340408200, -0.059820566, 5.42094, 8.133204, 0.0031266212, 0.08647585, 9.774033
1196282350048512, -0.078963146, 5.3994045, 8.206185, -0.042988777, 0.047063828, 9.823299
1196282359688825, -0.058624156, 5.430511, 8.298309, -0.033125162, 0.0114171505, 9.917388
1196282369329137, -0.038285162, 5.4520464, 8.386844, -0.031704664, -0.025596857, 10.003187
1196282378969450, -0.051445685, 5.471189, 8.462217, -0.05294299, -0.039666414, 10.07677
1196282388609762, -0.011964113, 5.495117, 8.489735, -0.013736725, -0.05657339, 10.112797
1196282398250075, 0.02751746, 5.501099, 8.4682, 0.031236887, -0.0634563, 10.097933
1196282407890387, 0.013160525, 5.503492, 8.386844, 0.04383588, -0.016680479, 10.031229
1196282417530700, -0.0071784677, 5.503492, 8.257631, 0.058331966, 0.050788403, 9.923254
1196282427170908, -0.016749758, 5.465207, 8.191829, 0.05111432, 0.06039524, 9.847262
1196282436811221, -0.040677983, 5.4221363, 8.142776, 0.02106452, 0.061963797, 9.782726
1196282446451533, -0.05383851, 5.389833, 8.155936, -0.0126879215, 0.034637213, 9.776051
1196282456091846, -0.07298109, 5.393422, 8.170293, -0.03199148, 0.039821863, 9.790068
1196282465732158, -0.06580263, 5.440082, 8.199007, -0.015258551, 0.05515623, 9.839677
1196282475372471, -0.069391854, 5.4640107, 8.216953, -0.012523651, 0.06482935, 9.867836
1196282485012783, -0.047856454, 5.465207, 8.230113, 0.006738186, 0.047491074, 9.879436
1196282494653096, -0.0035892338, 5.477171, 8.233703, 0.04926133, 0.032423735, 9.888872
1196282504293408, -0.034695927, 5.4664035, 8.267202, 0.01352644, 0.025393486, 9.911033
1196282513933721, -0.0526421, 5.4963136, 8.353344, -0.013067484, 0.015230656, 9.999509
1196282523574033, -0.061016977, 5.487939, 8.423932, -0.040592432, -0.018278837, 10.053948
1196282533214346, -0.07537391, 5.4867425, 8.484949, -0.06716585, -0.038475513, 10.104374
1196282542854658, -0.07537391, 5.4819565, 8.514859, -0.068664074, -0.057929516, 10.126811
1196282552494867, -0.06699903, 5.4867425, 8.4347, -0.03633499, -0.021365166, 10.062368
1196282562135179, -0.08015956, 5.4628143, 8.323434, -0.021142483, 0.017127514, 9.956284
1196282571775492, -0.02751746, 5.4149575, 8.255239, 0.027834892, -0.02166915, 9.872702
1196282581415804, -0.019142581, 5.460421, 8.145168, 0.09028578, 0.054255724, 9.8055725
1196282591056117, 0.013160525, 5.4352965, 8.105687, 0.11758757, 0.03730774, 9.758564
1196282600696429, 0.032303106, 5.42094, 8.152347, 0.11421037, -0.0066924095, 9.78955
1196282610336742, 0.031106694, 5.406583, 8.187042, 0.096140146, -0.031956434, 9.810682
1196282619977054, 0.039481573, 5.426922, 8.208578, 0.10655117, -0.030941725, 9.83979
1196282629617367, 0.03708875, 5.436493, 8.196614, 0.11099839, -0.014387369, 9.835081
1196282639257679, -0.016749758, 5.4520464, 8.221739, 0.06523037, 0.013675451, 9.86497
1196282648897992, -0.05383851, 5.4699926, 8.257631, 0.029849768, 0.030642986, 9.905068
1196282658538304, -0.09571291, 5.491528, 8.2348995, 0.010606289, 0.07952142, 9.898139
1196282668178617, -0.148355, 5.473582, 8.276773, -0.05404997, 0.07551408, 9.923631
1196282677818929, -0.17826529, 5.4795637, 8.313862, -0.08620882, 0.078692675, 9.958117
1196282687459242, -0.1591227, 5.4436717, 8.353344, -0.09091997, 0.027008533, 9.971372
1196282697099554, -0.13160525, 5.373083, 8.384451, -0.109226465, -0.052030087, 9.9585
1196282706739762, -0.15314065, 5.416154, 8.386844, -0.1043973, -0.0094816685, 9.9843025
1196282716380075, -0.14955142, 5.4759746, 8.394022, -0.06598067, 0.029031277, 10.023128
1196282726020387, -0.040677983, 5.5190454, 8.408379, 0.040329218, -0.008467197, 10.057865
1196282735660700, -0.03708875, 5.5094743, 8.432307, 0.03913951, -0.028080702, 10.072597
1196282745301012, -0.078963146, 5.4676, 8.496913, -0.031903267, -0.06346154, 10.104126
1196282754941325, -0.05623133, 5.454439, 8.477771, -0.011029005, -0.07604933, 10.080713
1196282764581637, -0.043070808, 5.4352965, 8.362915, 0.024426699, -0.04427886, 9.97397
1196282774221950, -0.06460621, 5.416154, 8.242078, 0.032538176, 0.009821653, 9.862534
1196282783862262, -0.08255238, 5.428118, 8.155936, 0.04562497, 0.06619668, 9.79715
1196282793502575, -0.07058827, 5.426922, 8.133204, 0.060436964, 0.06704903, 9.777388
1196282803142887, -0.0849452, 5.4424753, 8.179864, 0.04115987, 0.062037468, 9.8250885
1196282812783200, -0.111266255, 5.4460645, 8.2348995, 0.0049495697, 0.052444935, 9.873337
1196282822423512, -0.08733802, 5.4412785, 8.279166, 0.01204443, 0.01576972, 9.90754
1196282832063825, -0.09212367, 5.4257255, 8.257631, 0.00706625, 0.01748681, 9.881048
1196282841704033, -0.09810573, 5.45085, 8.256434, 0.013931036, 0.038688898, 9.893858
1196282851344346, -0.10289137, 5.460421, 8.281559, 0.0075774193, 0.035902023, 9.920164
1196282860984658, -0.1160519, 5.4484572, 8.330612, -0.018001795, 0.010848522, 9.954789
1196282870624971, -0.16031912, 5.4460645, 8.3581295, -0.06094265, 0.019441366, 9.976952
1196282880265283, -0.148355, 5.4089756, 8.382058, -0.06918526, -0.025110722, 9.976599
1196282889905596, -0.11964113, 5.4089756, 8.382058, -0.044493914, -0.03976822, 9.976306
1196282899545908, -0.09930214, 5.407779, 8.338987, -0.01246953, -0.030775785, 9.939394
1196282909186221, -0.07537391, 5.40419, 8.30788, 0.018000841, -0.03169632, 9.911131
1196282918826533, 0.0023928226, 5.4089756, 8.322237, 0.08746719, -0.07558346, 9.924883
1196282928466846, 0.0, 5.4125648, 8.362915, 0.07724571, -0.090132, 9.960929
1196282938107158, -0.019142581, 5.4053864, 8.41795, 0.04061246, -0.11198354, 10.003313
1196282947747471, -0.043070808, 5.428118, 8.398808, 0.041695356, -0.07148814, 9.999973
1196282957387679, -0.09332009, 5.4376893, 8.3581295, 0.014790535, -0.019049168, 9.971707
1196282967027992, -0.15074782, 5.4352965, 8.352147, -0.029717922, 0.0114860535, 9.96607
1196282976668304, -0.14237295, 5.4388857, 8.338987, -0.017304897, 0.015741348, 9.956903
1196282986308617, -0.12801601, 5.447261, 8.281559, 0.01589036, 0.03891468, 9.9131975
1196282995948929, -0.15074782, 5.419743, 8.270791, -0.012176514, 0.03192711, 9.889447
1196283005589242, -0.15194423, 5.4556355, 8.283952, -5.7458878E-5, 0.04984975, 9.920102
1196283015229554, -0.15792629, 5.4520464, 8.30788, -0.013720274, 0.039327383, 9.938255
1196283024869867, -0.19740787, 5.4640107, 8.370093, -0.058151484, 0.03765607, 9.997401
1196283034510179, -0.21296121, 5.4687963, 8.395218, -0.073590994, 0.036132574, 10.021281
1196283044150492, -0.18783657, 5.4687963, 8.440681, -0.056448698, -0.0023257732, 10.059073
1196283053790804, -0.16869399, 5.4699926, 8.523234, -0.063250065, -0.05099964, 10.128583
1196283063431012, -0.18305093, 5.4783673, 8.543573, -0.072448015, -0.04840541, 10.150421
1196283073071325, -0.18664017, 5.4580283, 8.525627, -0.07592559, -0.053426743, 10.124357
1196283082711637, -0.14476576, 5.453243, 8.40479, -0.005556345, -0.026270151, 10.019911
1196283092351950, -0.1268196, 5.4376893, 8.257631, 0.045812845, 0.012639284, 9.887911
1196283101992262, -0.14596218, 5.407779, 8.190632, 0.034684658, 0.03391528, 9.815779
1196283111632575, -0.16031912, 5.4149575, 8.152347, 0.03528309, 0.05957699, 9.787924
1196283121272887, -0.1363909, 5.4149575, 8.117651, 0.06258583, 0.055428743, 9.758568
1196283130913200, -0.12801601, 5.3982077, 8.122437, 0.058975697, 0.033462763, 9.753277
1196283140553512, -0.111266255, 5.3790655, 8.143971, 0.058546066, 6.6304207E-4, 9.76051
1196283150193825, -0.11365908, 5.428118, 8.142776, 0.07638812, 0.035115242, 9.786477
1196283159834033, -0.14237295, 5.410172, 8.141579, 0.041784763, 0.037100792, 9.776114
1196283169474346, -0.18783657, 5.4053864, 8.189436, -0.015017509, 0.034094334, 9.814223
1196283179114658, -0.1698904, 5.4053864, 8.258827, -0.018815279, -0.008115768, 9.8719225
1196283188754971, -0.1471586, 5.426922, 8.26481, 0.00943923, -0.0058989525, 9.888382
1196283198395283, -0.08973085, 5.4819565, 8.240881, 0.08940959, 0.014764547, 9.897668
1196283208035596, -0.1268196, 5.4795637, 8.215756, 0.061552763, 0.045041084, 9.875958
1196283217675908, -0.19381863, 5.432904, 8.16431, -0.0035939217, 0.07064104, 9.808414
1196283227316221, -0.21894327, 5.471189, 8.129615, 0.001478672, 0.12722158, 9.800831
1196283236956533, -0.18783657, 5.4616175, 8.123632, 0.026038408, 0.106767654, 9.7900915
1196283246596742, -0.16510476, 5.4496536, 8.127222, 0.040085793, 0.08539033, 9.786156
1196283256237054, -0.16031912, 5.4185467, 8.188239, 0.016130686, 0.03358245, 9.819991
1196283265877367, -0.16869399, 5.424529, 8.30788, -0.02133584, -0.014579058, 9.923416
1196283275517679, -0.18783657, 5.4149575, 8.4012, -0.057175398, -0.048277855, 9.99658
1196283285157992, -0.17826529, 5.413761, 8.452646, -0.06453323, -0.077801466, 10.038805
1196283294798304, -0.18544376, 5.4592247, 8.432307, -0.03874135, -0.027870893, 10.046843
1196283304438617, -0.16749759, 5.4484572, 8.423932, -0.016847134, -0.034005404, 10.033691
1196283314078929, -0.15672988, 5.456832, 8.474181, -0.017851591, -0.057534456, 10.080164
1196283323719137, -0.13758731, 5.491528, 8.472985, 0.018978119, -0.036354303, 10.097803
1196283333359450, -0.16630118, 5.501099, 8.477771, -0.0017616749, -0.013916254, 10.10753
1196283342999762, -0.20937198, 5.4556355, 8.512466, -0.06828618, -0.037561893, 10.112556
1196283352640075, -0.2117648, 5.3826547, 8.508878, -0.10182524, -0.086673975, 10.069803
1196283362280387, -0.20338993, 5.3443694, 8.415557, -0.08625579, -0.072787285, 9.970582
1196283371920700, -0.19142582, 5.35753, 8.270791, -0.030288458, -0.0018045902, 9.856209
1196283381561012, -0.09930214, 5.2331033, 8.096115, 0.041677475, -0.05622363, 9.640405
1196283391201325, -0.29312077, 5.6267223, 8.246863, 0.005669117, 0.25224233, 9.98464
1196283400841533, -0.015553347, 5.312066, 8.030313, 0.16545153, -0.015796661, 9.626868
1196283410481846, -0.35653058, 5.300102, 8.366505, -0.22297692, -0.0025508404, 9.90792
1196283420122158, 0.038285162, 5.7990055, 8.328219, 0.34896374, 0.15728569, 10.141137
1196283429762471, -0.2835495, 4.9363933, 8.340183, -0.31464958, -0.28117967, 9.686535
1196283439402783, -0.03708875, 6.101698, 8.4682, 0.38466835, 0.35737896, 10.4243355
1196283449043096, -0.17347965, 4.7198424, 8.072187, -0.2593186, -0.36171246, 9.341795
1196283458683304, -0.13998012, 6.09093, 8.262417, 0.3627181, 0.49154067, 10.247604
1196283468323617, -0.032303106, 4.847859, 7.773084, 0.009925842, -0.20593405, 9.158663
1196283477963929, -0.25722843, 5.771488, 8.187042, 0.12785316, 0.36427474, 10.012735
1196283487604242, 0.08973085, 5.221139, 7.8903327, 0.2560532, -0.064240694, 9.458118
1196283497244554, -0.26081768, 5.2941203, 8.246863, -0.10305047, 0.008272886, 9.802847
1196283506884867, 0.09571291, 5.680561, 8.1679, 0.39780688, 0.13328457, 9.940649
1196283516525179, -0.317049, 4.8299127, 8.249256, -0.3655541, -0.26810837, 9.553705
1196283526165387, -0.076570325, 5.966503, 8.472985, 0.30535436, 0.28632855, 10.354769
1196283535805700, -0.33379877, 4.5918264, 8.377272, -0.517753, -0.47443175, 9.533195
1196283545446012, -0.33020952, 6.0430737, 8.85823, 0.042195797, 0.32792473, 10.723185
1196283555086325, -0.25244278, 4.776074, 8.5423765, -0.38762522, -0.45860314, 9.771707
1196283564726637, -0.45583272, 5.828916, 8.99821, -0.20095778, 0.17712593, 10.72754
1196283574366950, -0.078963146, 5.2331033, 8.471788, 0.002882719, -0.19125438, 9.956215
1196283584007158, -0.37088752, 5.4843497, 8.578269, -0.15709472, 0.093339205, 10.186705
1196283593647471, 0.047856454, 5.6745787, 8.286345, 0.3632064, 0.13921452, 10.035704
1196283603287783, -0.27158538, 4.88734, 8.41795, -0.31274295, -0.30806947, 9.727745
1196283612928096, 0.015553347, 5.977271, 8.69791, 0.35913515, 0.1816988, 10.546073
1196283622568408, -0.21535404, 4.566702, 8.612965, -0.47540188, -0.64662766, 9.718034
1196283632208721, -0.16151553, 6.013163, 8.956335, 0.15253258, 0.19101238, 10.786121
1196283641848929, -0.08853444, 4.7306104, 8.495717, -0.2496965, -0.53956294, 9.706197
1196283651489242, -0.21535404, 5.918647, 8.784052, 0.104150295, 0.22635889, 10.591234
1196283661129554, 0.05383851, 5.1661043, 8.123632, 0.16333294, -0.13999414, 9.624898
1196283670769867, -0.31106696, 5.4149575, 8.123632, -0.037254572, 0.22290969, 9.765288
1196283680410179, 0.046660043, 5.554938, 7.6630144, 0.44175863, 0.3328483, 9.448565
1196283690050387, -0.33499518, 4.853841, 7.737192, -0.22104609, 0.0051436424, 9.1371355
1196283699690700, -0.04546363, 5.855237, 7.873583, 0.429708, 0.48961735, 9.790545
1196283709331012, -0.25962126, 4.5559344, 7.7407813, -0.29812384, -0.25761986, 8.977103
1196283718971325, -0.15314065, 6.0215383, 8.212168, 0.3197906, 0.49580383, 10.1673
1196283728611637, -0.106480606, 4.7222357, 8.018349, -0.1818819, -0.34222794, 9.298094
1196283738251950, -0.26081768, 5.9653068, 8.599805, 0.10453963, 0.3495412, 10.463099
1196283747892158, -0.0011964113, 5.1469617, 8.274381, 0.04098773, -0.2177949, 9.742047
1196283757532471, -0.33379877, 5.5310097, 8.620144, -0.15736032, 0.07272577, 10.245992
1196283767172783, 0.059820566, 5.6004014, 8.40479, 0.26952457, 0.011711359, 10.096325
1196283776813096, -0.30987054, 4.9782677, 8.551949, -0.3696103, -0.2888627, 9.8891325
1196283786453304, 0.0, 5.9210396, 8.577073, 0.33155847, 0.19167876, 10.415287
1196283796093617, -0.24646074, 4.6875396, 8.366505, -0.39821887, -0.4316423, 9.575347
1196283805733929, -0.12083755, 6.0981083, 8.715857, 0.26459455, 0.31886148, 10.629956
1196283815374242, -0.11006984, 4.752146, 8.288737, -0.2197504, -0.42921615, 9.542831
1196283825014554, -0.24885355, 5.98086, 8.664411, 0.13132215, 0.3327706, 10.525048
1196283834654762, -0.08015956, 5.005785, 8.148758, -0.039449215, -0.21281123, 9.561365
1196283844295075, -0.39840496, 5.5262237, 8.389236, -0.13176084, 0.21473336, 10.050557
1196283853935387, -0.021535404, 5.444868, 8.04467, 0.24524212, 0.10396099, 9.710449
1196283863575700, -0.43429732, 4.968696, 8.222935, -0.37377238, -0.086280584, 9.609687
1196283873216012, -0.101694964, 5.8540406, 8.323434, 0.28930497, 0.31073976, 10.167566
1196283882856221, -0.34576288, 4.642076, 8.343773, -0.4941671, -0.41342258, 9.532671
1196283892496533, -0.17467605, 6.02752, 8.675179, 0.21356583, 0.31094503, 10.558312
1196283902136846, -0.14955142, 4.6301117, 8.282756, -0.31675053, -0.50234985, 9.471625
1196283911777158, -0.17108682, 6.0227346, 8.65125, 0.22093868, 0.3162117, 10.535556
1196283921417367, 0.059820566, 5.048856, 8.184649, 0.08195472, -0.28236675, 9.612312
1196283931057679, -0.28594232, 5.672186, 8.586644, -0.026394367, 0.15786624, 10.293701
1196283940697992, 0.03708875, 5.5022955, 8.283952, 0.24962044, 0.0030736923, 9.94174
1196283950338304, -0.3385844, 5.1649075, 8.335398, -0.24460125, -0.04720688, 9.808554
1196283959978617, 0.015553347, 5.919843, 8.096115, 0.48638487, 0.3763461, 10.010677
1196283969618825, -0.3062813, 4.7246284, 7.82453, -0.2782724, -0.13704586, 9.140183
1196283979259137, -0.07776674, 6.0311093, 8.080562, 0.46758842, 0.49828434, 10.060264
1196283988899450, -0.1363909, 4.5858445, 7.7706914, -0.19939351, -0.30239415, 9.016708
1196283998539762, -0.22612174, 5.9437714, 8.297112, 0.25213265, 0.41968536, 10.197153
1196284008179971, -0.12203395, 4.843073, 7.9908314, -0.1204977, -0.236063, 9.340953
1196284017820283, -0.39601216, 5.569295, 8.445468, -0.1027925, 0.21583343, 10.121394
1196284027460596, -0.09092726, 5.288138, 8.142776, 0.09540248, -0.01628232, 9.709176
1196284037100908, -0.48454657, 5.0081778, 8.403593, -0.43209338, -0.10471392, 9.784647
1196284046741117, -0.076570325, 5.704489, 8.352147, 0.26250148, 0.17219067, 10.109742
1196284056381429, -0.3792624, 4.7318068, 8.386844, -0.44859612, -0.3438151, 9.620476
1196284066021742, -0.20338993, 6.0083776, 8.719446, 0.21195722, 0.3161888, 10.584224
1196284075662054, -0.27756742, 4.618148, 8.405986, -0.3868301, -0.4953339, 9.574442
1196284085302262, -0.20578274, 6.0729837, 8.790034, 0.22894931, 0.33997774, 10.678022
1196284094942575, 0.0059820567, 4.928018, 8.348558, 0.015064001, -0.3853619, 9.686852
1196284104582887, -0.21296121, 5.7762737, 8.815159, 0.08228803, 0.12504148, 10.540176
1196284114223200, 0.13519448, 5.3503513, 8.471788, 0.27924728, -0.20117354, 10.014853
1196284123863408, -0.27756742, 5.2031927, 8.740981, -0.21212101, -0.21662569, 10.171681
1196284133503721, 0.05742774, 5.7224355, 8.547162, 0.3538704, 0.07809591, 10.2797
1196284143144033, -0.30987054, 4.715057, 8.49811, -0.39160228, -0.4385128, 9.705669
1196284152784242, -0.061016977, 5.960521, 8.618947, 0.3344381, 0.26903057, 10.470605
1196284162424554, -0.2321038, 4.5391846, 8.237292, -0.35030568, -0.4765818, 9.38942
1196284172064867, -0.21415763, 5.9617176, 8.390432, 0.24744916, 0.45425868, 10.282009
1196284181705179, -0.1698904, 4.741378, 7.786245, -0.1026541, -0.16378856, 9.115798
1196284191345387, -0.4031906, 5.7320065, 8.10808, 0.059005022, 0.5142045, 9.924291
1196284200985700, -0.069391854, 5.271388, 7.652247, 0.25683832, 0.2267313, 9.286111
1196284210626012, -0.4426722, 5.2486563, 7.9334035, -0.14945686, 0.2669983, 9.517858
1196284220266325, -0.046660043, 5.6733823, 7.885547, 0.40586042, 0.3766234, 9.698698
1196284229906533, -0.38524446, 4.7485566, 8.072187, -0.36067438, -0.18122482, 9.364533
1196284239546846, -0.09810573, 5.919843, 8.439486, 0.3151734, 0.3282385, 10.299126
1196284249187158, -0.27038896, 4.493721, 8.287541, -0.42731404, -0.5112426, 9.407764
1196284258827471, -0.21774685, 5.8935223, 8.700303, 0.15516734, 0.27994585, 10.505897
1196284268467679, -0.09451649, 4.6528435, 8.297112, -0.18475652, -0.48420763, 9.499019
1196284278107992, -0.3074777, 5.73081, 8.785249, -0.018476486, 0.17360926, 10.492228
1196284287748304, -0.02632105, 5.1529436, 8.41795, 0.06765604, -0.20254445, 9.867613
1196284297388512, -0.4235296, 5.282156, 8.825927, -0.3145268, -0.09799957, 10.289266
1196284307028825, -0.029910283, 5.6207404, 8.737391, 0.20479989, 0.0021924973, 10.387188
1196284316669137, -0.35533416, 4.8382874, 8.907282, -0.46982408, -0.46876907, 10.120993
1196284326309450, -0.009571291, 5.99761, 9.092726, 0.2946303, 0.0982523, 10.888187
1196284335949658, -0.16749759, 4.6576295, 8.830712, -0.37551856, -0.64649105, 9.957112
1196284345589971, -0.09212367, 6.1232333, 9.069994, 0.2859819, 0.2518916, 10.937187
1196284355230283, -0.04426722, 4.7772703, 8.49811, -0.15704346, -0.47492123, 9.7361145
1196284364870492, -0.23808585, 5.8169518, 8.770891, 0.08721924, 0.24087334, 10.524093
1196284374510804, 0.039481573, 5.0644093, 8.065009, 0.14542365, -0.128865, 9.521367
1196284384151117, -0.2656033, 5.2737813, 8.2660055, -0.069188595, 0.09262228, 9.807998
1196284393791325, 0.032303106, 5.4867425, 8.017152, 0.33822536, 0.18849444, 9.707224
1196284403431637, -0.34097722, 4.7676992, 8.163115, -0.35785568, -0.18763375, 9.450947
1196284413071950, -0.07178468, 5.8971114, 8.451449, 0.2996955, 0.32626033, 10.296204
1196284422712262, -0.3481557, 4.5714874, 8.306684, -0.51834273, -0.39833355, 9.465378
1196284432352471, -0.22492532, 6.033502, 8.6345005, 0.18015218, 0.4080646, 10.526603
1196284441992783, -0.1052842, 4.6707897, 8.1344, -0.22905421, -0.3914132, 9.36964
1196284451633096, -0.1902294, 5.922236, 8.380861, 0.22067428, 0.4158113, 10.253113
1196284461273304, 0.039481573, 5.17089, 7.806584, 0.21259284, 0.018655777, 9.361457
1196284470913617, -0.30029923, 5.4819565, 8.032705, 0.003685236, 0.31502485, 9.724564
1196284480553929, 0.059820566, 5.5740805, 7.804191, 0.414464, 0.28064442, 9.577515
1196284490194137, -0.34456646, 4.9088755, 8.037491, -0.30046773, -0.0726378, 9.419209
1196284499834450, -0.02751746, 5.986842, 8.07458, 0.4377601, 0.4974084, 10.030097
1196284509474762, -0.31106696, 4.59063, 7.8592257, -0.36203814, -0.24854136, 9.09644
1196284519115075, -0.22971097, 6.026324, 8.256434, 0.2508788, 0.5396075, 10.207052
1196284528755283, -0.16630118, 4.698307, 7.9704924, -0.2161076, -0.3075962, 9.246036
1196284538395596, -0.2656033, 5.916254, 8.622537, 0.070994854, 0.304245, 10.4557705
1196284548035908, -0.03708875, 4.9938207, 8.251649, -0.04692197, -0.28712153, 9.640783
1196284557676117, -0.35174492, 5.4903316, 8.612965, -0.18122387, 0.06082678, 10.218321
1196284567316429, 0.062213387, 5.5022955, 8.331808, 0.26529622, -0.009985924, 9.981367
1196284576956742, -0.29312077, 4.989035, 8.553144, -0.33074403, -0.28844666, 9.89647
1196284586596950, 0.05503492, 5.9030933, 8.708678, 0.34724283, 0.10777712, 10.514678
1196284596237262, -0.2321038, 4.648058, 8.666803, -0.4526806, -0.61533475, 9.80756
1196284605877575, -0.051445685, 6.1040907, 8.974281, 0.27830195, 0.19614744, 10.848244
1196284615517783, -0.09332009, 4.6672006, 8.538788, -0.28256607, -0.6054683, 9.7085495
1196284625158096, -0.20697916, 5.9784675, 8.944371, 0.089309454, 0.19578314, 10.758271
1196284634798408, -0.008374879, 5.011767, 8.456235, -0.041386127, -0.36312294, 9.823046
1196284644438617, -0.35174492, 5.581259, 8.827123, -0.18189168, 0.043856144, 10.447836
1196284654078929, 0.02871387, 5.4460645, 8.4012, 0.18908048, -0.06247282, 10.010043
1196284663719242, -0.34097722, 5.0392847, 8.483752, -0.34232235, -0.17421865, 9.86596
1196284673359554, 0.010767702, 5.8468623, 8.338987, 0.37468648, 0.23448253, 10.1749325
1196284682999762, -0.27996024, 4.7210393, 8.26481, -0.40350246, -0.32817268, 9.508057
1196284692640075, -0.13040884, 6.0861444, 8.323434, 0.36487293, 0.4727056, 10.294714
1196284702280387, -0.27158538, 4.615755, 7.7706914, -0.31185722, -0.19447827, 9.034795
1196284711920596, -0.23688944, 6.0119667, 8.087741, 0.29753232, 0.5745132, 10.0594635
1196284721560908, -0.011964113, 4.9639106, 7.6259255, 0.09337878, -0.07021332, 9.098443
1196284731201221, -0.27517462, 5.6733823, 8.170293, 0.05268097, 0.31741214, 9.945509
1196284740841429, 0.1902294, 5.45085, 7.975278, 0.38645387, -0.005681753, 9.654202
1196284750481742, -0.15314065, 5.15414, 8.380861, -0.16307092, -0.20857811, 9.836532
1196284760122054, 0.19142582, 5.9712887, 8.263613, 0.54535794, 0.21591854, 10.180185
1196284769762262, -0.18903299, 4.8562336, 8.212168, -0.2782433, -0.31266475, 9.533272
1196284779402575, -0.08255238, 6.1603217, 8.38804, 0.3864863, 0.44441938, 10.390799
1196284789042887, -0.21774685, 4.686343, 7.958528, -0.3043182, -0.29546404, 9.228623
1196284798683096, -0.29072794, 6.0311093, 8.318648, 0.16473722, 0.49840903, 10.26563
1196284808323408, -0.12562318, 4.8885365, 7.8029947, -0.07583022, -0.14830422, 9.2072
1196284817963721, -0.39840496, 5.6961145, 8.298309, -0.061721325, 0.33867836, 10.067169
1196284827603929, -0.08015956, 5.3515477, 7.9130645, 0.15239334, 0.10295701, 9.55135
1196284837244242, -0.4103691, 5.2223353, 8.210971, -0.26480794, 0.05112672, 9.735939
1196284846884554, 0.061016977, 5.864808, 8.136793, 0.4519484, 0.2851336, 10.016064
1196284856524762, -0.276371, 4.7832522, 8.215756, -0.3442253, -0.32365847, 9.499016
1196284866165075, 0.0047856453, 6.023931, 8.449057, 0.41154575, 0.29363918, 10.364302
1196284875805387, -0.16630118, 4.5595236, 8.232507, -0.3591678, -0.53260946, 9.390336
1196284885445596, -0.16749759, 5.9413786, 8.773284, 0.15005636, 0.19359207, 10.594271
1196284895085908, -0.02871387, 4.753342, 8.469396, -0.2018764, -0.5688226, 9.693371
1196284904726221, -0.31585258, 5.6745787, 9.073584, -0.16843176, -0.034261703, 10.705187
1196284914366429, -0.033499517, 5.255835, 8.681161, -0.007115841, -0.29652858, 10.143939
1196284924006742, -0.39960137, 5.285745, 8.928818, -0.3663876, -0.1879201, 10.375597
1196284933647054, -0.041874398, 5.771488, 8.676374, 0.23504162, 0.08259535, 10.417738
1196284943287367, -0.43788654, 4.814359, 8.563912, -0.5122297, -0.335608, 9.81506
1196284952927575, -0.16031912, 6.07418, 8.603394, 0.29448843, 0.3844807, 10.521655
1196284962567887, -0.34576288, 4.6492543, 8.257631, -0.4324442, -0.36082625, 9.466064
1196284972208200, -0.317049, 6.07418, 8.69791, 0.1371975, 0.41849566, 10.604521
1196284981848408, -0.10767702, 4.820341, 8.285149, -0.17461228, -0.38305378, 9.576729
1196284991488721, -0.26919255, 5.812166, 8.723035, 0.04724884, 0.19439244, 10.483562
1196285001129033, 0.0634098, 5.2426744, 8.189436, 0.18797636, -0.1535685, 9.720987
1196285010769242, -0.27038896, 5.302495, 8.312666, -0.09094715, 0.02604866, 9.863114
1196285020409554, 0.12203395, 5.672186, 7.98126, 0.5027962, 0.1843853, 9.777642
1196285030049867, -0.28594232, 4.7832522, 8.04108, -0.29008484, -0.20312881, 9.353867
1196285039690075, 0.029910283, 5.946164, 8.281559, 0.45620346, 0.29483914, 10.180713
1196285049330387, -0.12562318, 4.557131, 8.07458, -0.2878971, -0.47697592, 9.255901
1196285058970700, -0.11844472, 6.0526447, 8.446664, 0.32544827, 0.3891716, 10.379658
1196285068610908, -0.101694964, 4.706682, 7.938189, -0.14883327, -0.32127166, 9.222402
1196285078251221, -0.3278167, 5.8301125, 8.322237, 0.073420525, 0.4058404, 10.158112
1196285087891533, -0.051445685, 5.1696935, 7.897511, 0.11329961, -0.011479378, 9.438542
1196285097531742, -0.4319045, 5.375476, 8.333005, -0.23403716, 0.13642073, 9.92209
1196285107172054, -0.03708875, 5.6757755, 8.2049885, 0.27677846, 0.18652892, 9.9712715
1196285116812367, -0.43788654, 4.9196434, 8.405986, -0.46839142, -0.20273471, 9.736259
1196285126452575, -0.16390835, 5.992824, 8.565108, 0.23918772, 0.31306434, 10.4473295
1196285136092887, -0.3684947, 4.62413, 8.389236, -0.5350673, -0.43840218, 9.561337
1196285145733200, -0.2536392, 6.094519, 8.76132, 0.14830065, 0.3426242, 10.66906
1196285155373408, -0.22013968, 4.776074, 8.26481, -0.29110312, -0.36879873, 9.536545
1196285165013721, -0.38883367, 5.953343, 8.760123, -0.03234291, 0.32033825, 10.593847
1196285174654033, -0.10767702, 5.2019963, 8.292327, -0.00599885, -0.14545178, 9.788456
1196285184294242, -0.44865423, 5.528617, 8.678768, -0.25083613, 0.08747864, 10.296473
1196285193934554, -0.07298109, 5.6303115, 8.355737, 0.20274115, 0.10379481, 10.073341
1196285203574867, -0.40438703, 4.944768, 8.535198, -0.45049345, -0.29039, 9.8578205
1196285213215075, -0.014356935, 5.9916277, 8.597412, 0.34148192, 0.20783806, 10.471654
1196285222855387, -0.19381863, 4.7114677, 8.396415, -0.34218383, -0.5027652, 9.610692
1196285232495700, -0.039481573, 6.1268225, 8.630911, 0.36504507, 0.286191, 10.574354
1196285242135908, 0.038285162, 4.7712884, 8.124829, -0.07181239, -0.4748726, 9.41004
1196285251776221, -0.043070808, 5.9784675, 8.645268, 0.27524018, 0.16677618, 10.506237
1196285261416533, 0.26081768, 5.1122656, 8.124829, 0.26267195, -0.35663748, 9.592703
1196285271056846, -0.10289137, 5.4819565, 8.49811, -0.0016038418, -0.07489681, 10.113094
1196285280697054, 0.2416751, 5.5501523, 7.9716887, 0.46957707, 0.03418064, 9.70509
1196285290337367, -0.17706887, 5.035695, 8.050652, -0.15080237, -0.14085436, 9.495262
1196285299977679, 0.14596218, 5.983253, 8.009974, 0.5390775, 0.36874747, 9.977661
1196285309617887, -0.11485548, 4.705486, 7.897511, -0.23094535, -0.33613777, 9.184724
1196285319258200, -0.025124637, 6.148358, 8.161918, 0.41998887, 0.48571277, 10.198408
1196285328898512, -0.15194423, 4.7306104, 7.773084, -0.2270639, -0.24563098, 9.094543
1196285338538721, -0.32662028, 6.0083776, 8.349754, 0.0414989, 0.46778202, 10.281301
1196285348179033, -0.11485548, 5.1050873, 7.921439, -0.072152615, -0.07649279, 9.424079
1196285357819346, -0.47377887, 5.6793647, 8.368897, -0.23179054, 0.3080511, 10.117779
1196285367459554, -0.04546363, 5.6685967, 7.96451, 0.2409606, 0.25317788, 9.769663
1196285377099867, -0.43070808, 5.218746, 8.159525, -0.33913422, 0.062285423, 9.689159
1196285386740179, -0.05623133, 6.0490556, 8.122437, 0.36774826, 0.4469216, 10.111046
1196285396380492, -0.34097722, 4.813163, 8.02792, -0.40289927, -0.21300769, 9.355352
1196285406020700, -0.15672988, 6.1854467, 8.273184, 0.30307722, 0.5303023, 10.312945
1196285415661012, -0.2117648, 4.682754, 7.9980097, -0.32906628, -0.36144233, 9.257552
1196285425301325, -0.33260235, 5.9653068, 8.566305, 0.0075912476, 0.35146594, 10.43808
1196285434941533, -0.14476576, 4.944768, 8.300702, -0.23653412, -0.336509, 9.65423
1196285444581846, -0.40079778, 5.5920267, 8.750552, -0.26343918, 0.06039667, 10.388962
1196285454222158, 0.062213387, 5.453243, 8.414361, 0.15428495, -0.13881493, 10.024976
1196285463862367, -0.29192436, 5.176872, 8.683554, -0.33876848, -0.24814653, 10.105097
1196285473502679, 0.101694964, 5.9174504, 8.63809, 0.3478601, 0.077411175, 10.464997
1196285483142992, -0.18664017, 4.802395, 8.556734, -0.38029122, -0.5054574, 9.793643
1196285492783200, 0.011964113, 6.117251, 8.586644, 0.3878858, 0.28820038, 10.531754
1196285502423512, -0.009571291, 4.703093, 8.1679, -0.16874671, -0.47778535, 9.411535
1196285512063825, -0.025124637, 6.0215383, 8.538788, 0.31745172, 0.27763653, 10.439951
1196285521704137, 0.14955142, 4.8909297, 8.151151, 0.045719624, -0.42289782, 9.497573
1196285531344346, -0.16031912, 5.6386867, 8.512466, 0.025702477, 0.11129737, 10.211244
1196285540984658, 0.21296121, 5.3647084, 8.142776, 0.3151512, -0.11421561, 9.747712
1196285550624971, -0.23090738, 5.168497, 8.413164, -0.22527218, -0.13230371, 9.873184
1196285560265179, 0.17587246, 5.8420763, 8.43111, 0.4198947, 0.10139537, 10.249773
1196285569905492, -0.18065812, 4.7581277, 8.445468, -0.39360166, -0.45055437, 9.676798
1196285579545804, -0.020338992, 6.068198, 8.559127, 0.3167839, 0.32497168, 10.4821825
1196285589186012, -0.22492532, 4.5942197, 8.188239, -0.42633462, -0.41594815, 9.37283
1196285598826325, -0.26081768, 6.0023956, 8.4502535, 0.123692036, 0.47152877, 10.356927
1196285608466637, 0.0047856453, 4.979464, 8.019546, -0.0036818981, -0.19230509, 9.437754
1196285618106950, -0.37567315, 5.791827, 8.419147, -0.060833454, 0.39457726, 10.218073
1196285627747158, -0.010767702, 5.3407803, 8.1344, 0.11719751, 0.008436203, 9.730299
1196285637387471, -0.40677986, 5.221139, 8.238488, -0.30131269, 0.087834835, 9.757046
1196285647027783, -0.023928227, 5.7583275, 8.059027, 0.3319726, 0.33590102, 9.893623
1196285656667992, -0.36131623, 4.7784667, 8.157132, -0.445395, -0.19930911, 9.448016
1196285666308304, -0.08255238, 6.013163, 8.372486, 0.314327, 0.39425302, 10.296078
1196285675948617, -0.20458634, 4.5631127, 8.2014, -0.4224682, -0.45525527, 9.367022
1196285685588825, -0.15433706, 6.064609, 8.545966, 0.24021125, 0.39410257, 10.47014
1196285695229137, -0.019142581, 4.846662, 8.238488, -0.1387186, -0.36748004, 9.550337
1196285704869450, -0.3481557, 5.7631135, 8.60459, -0.06642985, 0.29198432, 10.3578005
1196285714509762, 0.07178468, 5.3036914, 8.212168, 0.17068172, -0.08844566, 9.774306
1196285724149971, -0.28713873, 5.3132625, 8.472985, -0.19378996, 0.0064635277, 10.003354
1196285733790283, 0.09810573, 5.7260246, 8.440681, 0.32856536, 0.10189009, 10.194301
1196285743430596, -0.22731815, 4.8287163, 8.53161, -0.3800354, -0.39296603, 9.790695
1196285753070908, 0.083748795, 6.0526447, 8.644072, 0.41427135, 0.25794888, 10.541507
1196285762711117, -0.09092726, 4.625326, 8.41795, -0.34136748, -0.54823923, 9.583668
1196285772351429, -0.034695927, 6.0526447, 8.671589, 0.29905176, 0.31981206, 10.566004
1196285781991742, 0.08973085, 4.7784667, 8.313862, -0.087991476, -0.48816943, 9.576849
1196285791631950, -0.18424734, 5.759524, 8.595019, 0.056167603, 0.22237444, 10.345425
1196285801272262, 0.16390835, 5.1613183, 8.238488, 0.16510558, -0.22063279, 9.719199
1196285810912575, -0.25722843, 5.285745, 8.391629, -0.17402959, 0.028377295, 9.919355
1196285820552887, 0.13160525, 5.6303115, 8.196614, 0.36496234, 0.13998151, 9.937275
1196285830193096, -0.276371, 4.8418765, 8.2660055, -0.3773451, -0.2105515, 9.573936
1196285839833408, -0.0047856453, 6.0418773, 8.419147, 0.37656188, 0.40847826, 10.347836
1196285849473721, -0.22731815, 4.6468616, 8.286345, -0.43214965, -0.37583756, 9.4858055
1196285859113929, -0.1363909, 6.0490556, 8.691928, 0.19066286, 0.35432458, 10.582882
1196285868754242, -0.041874398, 4.7318068, 8.415557, -0.27275443, -0.47864032, 9.638977
1196285878394554, -0.2727818, 5.877969, 8.592627, 0.039171934, 0.3658061, 10.407825
1196285888034867, 0.039481573, 5.111069, 8.059027, 0.06914115, -0.11213684, 9.542283
1196285897675075, -0.32183465, 5.3742795, 8.19781, -0.13672757, 0.21876788, 9.804284
1196285907315387, 0.106480606, 5.613562, 7.98126, 0.3960638, 0.22824693, 9.747563
1196285916955700, -0.26919255, 4.880162, 8.17149, -0.33421803, -0.13865137, 9.514767
1196285926596012, 0.038285162, 5.928218, 8.433503, 0.35529423, 0.29080963, 10.298468
1196285936236221, -0.18544376, 4.6205406, 8.423932, -0.4564774, -0.4803996, 9.586829
1196285945876533, -0.09092726, 6.0634127, 8.690732, 0.2363131, 0.34901166, 10.5888815
1196285955516846, -0.020338992, 4.7102714, 8.303095, -0.2383933, -0.46286225, 9.531915
1196285965157158, -0.19142582, 5.8743796, 8.580662, 0.08025956, 0.32928634, 10.39509
1196285974797367, 0.09930214, 5.0751767, 8.2253275, 0.062153578, -0.22990847, 9.66264
1196285984437679, -0.26799613, 5.4664035, 8.538788, -0.15964985, 0.098306894, 10.1404705
1196285994077992, 0.15194423, 5.538188, 8.319844, 0.2876327, 0.023889542, 9.991553
1196286003718304, -0.2428715, 4.9256253, 8.364112, -0.33549833, -0.21579027, 9.701547
1196286013358512, 0.11485548, 5.9557357, 8.37129, 0.42679214, 0.31958246, 10.260516
1196286022998825, -0.13280165, 4.6408796, 8.219346, -0.34177613, -0.41067505, 9.42484
1196286032639137, -0.020338992, 6.0729837, 8.414361, 0.3498211, 0.45327067, 10.361237
1196286042279450, 0.0011964113, 4.715057, 8.143971, -0.16607308, -0.39699268, 9.400577
1196286051919658, -0.13758731, 5.9449677, 8.56152, 0.15083504, 0.37125158, 10.416361
1196286061559971, 0.08733802, 4.9866424, 8.364112, -0.03135848, -0.34062338, 9.732194
1196286071200283, -0.2943172, 5.4520464, 8.669196, -0.23577952, 0.047222137, 10.24249
1196286080840596, 0.15433706, 5.477171, 8.34138, 0.24861097, -0.013288498, 9.976967
1196286090480804, -0.2620141, 5.0081778, 8.391629, -0.33499122, -0.14897585, 9.769112
1196286100121117, 0.051445685, 5.8803616, 8.3784685, 0.3330419, 0.3083341, 10.226144
1196286109761429, -0.19381863, 4.6815577, 8.303095, -0.3988484, -0.37447667, 9.518227
1196286119401742, -0.043070808, 6.0897336, 8.52443, 0.3139944, 0.43732738, 10.462446
1196286129041950, -0.083748795, 4.6695933, 8.258827, -0.3036263, -0.41721582, 9.473863
1196286138682262, -0.20458634, 5.940182, 8.59143, 0.084929705, 0.38178277, 10.439699
1196286148322575, 0.07298109, 4.9567323, 8.1344, -0.004323244, -0.2550621, 9.522495
1196286157962887, -0.22731815, 5.554938, 8.333005, -0.031490564, 0.23957658, 10.014468
1196286167603096, 0.18305093, 5.4017973, 8.105687, 0.30525208, 0.012354612, 9.737648
1196286177243408, -0.20458634, 5.056034, 8.329415, -0.24770641, -0.12215567, 9.7420845
1196286186883721, 0.1363909, 5.8636117, 8.433503, 0.38841057, 0.21321583, 10.262955
1196286196524033, -0.18903299, 4.7114677, 8.441878, -0.42916512, -0.42161894, 9.650753
1196286206164346, -0.014356935, 6.088537, 8.606983, 0.3147905, 0.3686645, 10.531651
1196286215804554, -0.05742774, 4.627719, 8.29113, -0.3160088, -0.4814117, 9.477886
1196286225444867, -0.16271193, 5.9724855, 8.537591, 0.1697104, 0.40858006, 10.411139
1196286235085179, 0.041874398, 4.928018, 8.170293, -0.049107075, -0.27507424, 9.537437
1196286244725492, -0.29072794, 5.5968122, 8.5016985, -0.10353708, 0.22651124, 10.17967
1196286254365700, 0.086141616, 5.3563333, 8.26122, 0.17393851, -0.04267192, 9.844461
1196286264006012, -0.29192436, 5.131408, 8.452646, -0.30162716, -0.079303026, 9.887696
1196286273646325, 0.096909314, 5.8229337, 8.40479, 0.36575842, 0.21627021, 10.216454
1196286283286637, -0.2105684, 4.7282176, 8.364112, -0.39213753, -0.36219668, 9.5955105
1196286292926950, 0.014356935, 6.064609, 8.459825, 0.38915586, 0.40141916, 10.394026
1196286302567158, -0.051445685, 4.62413, 8.200203, -0.25175738, -0.4509399, 9.400098
1196286312207471, -0.11365908, 6.003592, 8.572288, 0.22501755, 0.376714, 10.456941
1196286321847783, 0.04426722, 4.8526444, 8.319844, -0.1090765, -0.39748335, 9.622891
1196286331488096, -0.25842485, 5.633901, 8.677571, -0.09287357, 0.1615622, 10.347616
1196286341128408, 0.09092726, 5.3072805, 8.30788, 0.15038705, -0.09840894, 9.857185
1196286350768617, -0.28953153, 5.178068, 8.427522, -0.26542687, -0.02816844, 9.89182
1196286360408929, 0.08015956, 5.6350975, 8.238488, 0.31764817, 0.16512156, 9.975234
1196286370049242, -0.16390835, 5.279763, 8.37129, -0.09800291, -0.009808779, 9.898059
1196286379689554, -0.050249275, 5.426922, 8.315059, 0.08328271, 0.059589148, 9.928933
1196286389329867, -0.10767702, 5.3623157, 8.384451, -0.014443159, 0.012490511, 9.953125
1196286398970075, -0.12203395, 5.3647084, 8.420342, -0.035662413, 0.0050120354, 9.984782
1196286408610387, -0.09092726, 5.332405, 8.432307, -0.024566889, -0.039105654, 9.977198
1196286418250700, -0.078963146, 5.3072805, 8.3784685, -0.009807825, -0.037917137, 9.918199
1196286427891012, -0.06580263, 5.312066, 8.325827, 0.017886877, -0.016403675, 9.876293
1196286437531325, -0.08255238, 5.343173, 8.315059, 0.022160053, 0.0195961, 9.884111
1196286447171533, -0.106480606, 5.3587265, 8.362915, -0.0042021275, 0.020855904, 9.933035
1196286456811846, -0.096909314, 5.3611193, 8.386844, -5.733967E-4, 0.0060539246, 9.954402
1196286466452158, -0.10289137, 5.352744, 8.352147, 0.001948595, 0.017807722, 9.92071
1196286476092471, -0.12083755, 5.3587265, 8.32463, -0.0029993057, 0.044237852, 9.900909
1196286485732783, -0.07776674, 5.363512, 8.319844, 0.038089752, 0.025937557, 9.89904
1196286495372992, -0.05383851, 5.365905, 8.383254, 0.041901827, -0.01369071, 9.953533
1196286505013304, -0.046660043, 5.369494, 8.505288, 0.016479015, -0.06906271, 10.058256
1196286514653617, -0.09212367, 5.377869, 8.549556, -0.030744314, -0.06004834, 10.100511
1196286524293929, -0.12562318, 5.3611193, 8.539984, -0.06385946, -0.048802853, 10.083761
1196286533934242, -0.1363909, 5.3479586, 8.476574, -0.06209159, -0.023208857, 10.023331
1196286543574450, -0.13399807, 5.316852, 8.374879, -0.047578335, 5.4597855E-5, 9.920846
1196286553214762, -0.12801601, 5.322834, 8.285149, -0.017967701, 0.040673256, 9.848383
1196286562855075, -0.12801601, 5.3443694, 8.301898, -0.013101101, 0.048404694, 9.87409
1196286572495387, -0.1268196, 5.3826547, 8.384451, -0.018503428, 0.035514116, 9.96426
1196286582135700, -0.12083755, 5.4149575, 8.4813595, -0.026120424, 0.009056807, 10.063255
1196286591776012, -0.1160519, 5.4017973, 8.500503, -0.034467697, -0.013269424, 10.072243
1196286601416221, -0.106480606, 5.375476, 8.438289, -0.023580313, -0.010093927, 10.005555
1196286611056533, -0.08015956, 5.349155, 8.270791, 0.032593966, 0.035864353, 9.850053
1196286620696846, -0.069391854, 5.3096733, 8.161918, 0.050731182, 0.049959898, 9.737005
1196286630337158, -0.051445685, 5.319245, 8.158329, 0.067522764, 0.046499252, 9.739027
1196286639977471, -0.059820566, 5.3503513, 8.213364, 0.056710005, 0.04582739, 9.8022375
1196286649617783, -0.061016977, 5.38744, 8.335398, 0.03845215, 0.015481949, 9.924986
1196286659257992, -0.069391854, 5.4125648, 8.429914, 0.016410828, -0.006140709, 10.018173
1196286668898304, -0.10887343, 5.389833, 8.504091, -0.047386885, -0.034563065, 10.068679
1196286678538617, -0.12083755, 5.3563333, 8.471788, -0.06283212, -0.036017418, 10.023516
1196286688178929, -0.11485548, 5.363512, 8.395218, -0.031528234, 0.0013594627, 9.962887
1196286697819242, -0.06699903, 5.339584, 8.306684, 0.023566723, -0.0029096603, 9.875023
1196286707459554, -0.058624156, 5.3407803, 8.269595, 0.04185176, 0.010075569, 9.844375
1196286717099762, -0.07058827, 5.367101, 8.287541, 0.038279533, 0.02625966, 9.873801
1196286726740075, -0.09571291, 5.359923, 8.382058, -0.014002085, -0.009494066, 9.949699
1196286736380387, -0.11964113, 5.3766723, 8.414361, -0.03561139, 5.965233E-4, 9.986145
1196286746020700, -0.12801601, 5.3826547, 8.383254, -0.030780792, 0.023049116, 9.963275
1196286755661012, -0.11246266, 5.386244, 8.367701, -0.01222682, 0.02222395, 9.951988
1196286765301325, -0.11365908, 5.3623157, 8.340183, -0.016794682, 0.01790762, 9.915917
1196286774941637, -0.076570325, 5.3766723, 8.376076, 0.011038542, -0.008461952, 9.95354
1196286784581846, -0.058624156, 5.386244, 8.392825, 0.025773287, -0.019107103, 9.972639
1196286794222158, -0.06580263, 5.3766723, 8.386844, 0.017050505, -0.01929593, 9.962501
1196286803862471, -0.05623133, 5.38744, 8.402397, 0.02586937, -0.023776531, 9.9813175
1196286813502783, -0.05383851, 5.38744, 8.41795, 0.023708582, -0.03142786, 9.994386
1196286823143096, -0.06819545, 5.3539405, 8.364112, 0.009697437, -0.024255514, 9.931113
1196286832783408, -0.05503492, 5.3886366, 8.248059, 0.068864346, 0.047172308, 9.852104
1196286842423617, -0.07298109, 5.3850474, 8.23131, 0.05471134, 0.058259487, 9.836267
1196286852063929, -0.086141616, 5.3706903, 8.273184, 0.024683475, 0.036241055, 9.863842
1196286861704242, -0.11485548, 5.3886366, 8.348558, -0.012439251, 0.028442621, 9.937206
1196286871344554, -0.13878371, 5.359923, 8.391629, -0.056360245, 0.0011498928, 9.958127
1196286880984867, -0.15314065, 5.3647084, 8.386844, -0.05996251, 0.0140480995, 9.956852
1196286890625179, -0.14237295, 5.3383875, 8.335398, -0.04818034, 0.01394105, 9.899242
1196286900265492, -0.11006984, 5.3276196, 8.333005, -0.020498037, -0.009878159, 9.891111
1196286909905804, -0.06460621, 5.3922257, 8.303095, 0.055602074, 0.025594711, 9.9004
1196286919546012, -0.05742774, 5.3970113, 8.330612, 0.058968067, 0.014096022, 9.926049
1196286929186325, -0.07537391, 5.375476, 8.365308, 0.024379969, -0.00838089, 9.943797
1196286938826637, -0.07178468, 5.365905, 8.359326, 0.02593255, -0.012591839, 9.933558
1196286948466950, -0.06819545, 5.377869, 8.280363, 0.056103706, 0.031012297, 9.873522
1196286958107262, -0.06699903, 5.373083, 8.242078, 0.065135956, 0.045837402, 9.838699
1196286967747575, -0.062213387, 5.3814583, 8.233703, 0.074002266, 0.05439973, 9.836126
1196286977387887, -0.049052864, 5.3814583, 8.209774, 0.0917604, 0.058813572, 9.815855
1196286987028200, -0.1698904, 5.3156557, 8.269595, -0.05640626, 0.046991587, 9.831881
1196286996668408, -0.17347965, 5.3096733, 8.420342, -0.10327196, -0.023528814, 9.955584
1196287006308721, -0.12801601, 5.3790655, 8.545966, -0.060481787, -0.04981947, 10.098423
1196287015949033, -0.13758731, 5.369494, 8.592627, -0.085525274, -0.07349157, 10.132666
1196287025589346, -0.1471586, 5.3300123, 8.548359, -0.096390486, -0.07348919, 10.074246
1196287035229658, -0.11964113, 5.3419766, 8.425129, -0.03284359, -0.017282963, 9.976595
1196287044869971, -0.07776674, 5.367101, 8.30788, 0.04558611, 0.03523612, 9.890873
1196287054510283, -0.06819545, 5.365905, 8.283952, 0.059343815, 0.042207718, 9.869961
1196287064150492, -0.047856454, 5.3503513, 8.392825, 0.041204453, -0.030125618, 9.953161
1196287073790804, -0.05623133, 5.35753, 8.506484, 0.006077051, -0.06856346, 10.052951
1196287083431117, -0.059820566, 5.373083, 8.548359, -0.0010848045, -0.07189083, 10.096676
1196287093071429, -0.07537391, 5.3515477, 8.573483, -0.030242443, -0.089015245, 10.10646
1196287102711742, -0.07178468, 5.346762, 8.543573, -0.021229267, -0.080378294, 10.078629
1196287112352054, -0.07776674, 5.3407803, 8.510074, -0.020588636, -0.06439185, 10.047227
1196287121992367, -0.09810573, 5.359923, 8.446664, -0.013677597, -0.009776115, 10.004212
1196287131632679, -0.09810573, 5.3682976, 8.364112, 0.011974335, 0.034207344, 9.939078
1196287141272992, -0.104087785, 5.3790655, 8.338987, 0.01577735, 0.054284573, 9.923745
1196287150913304, -0.13878371, 5.359923, 8.37129, -0.031013727, 0.04440856, 9.941007
1196287160553512, -0.12801601, 5.349155, 8.328219, -0.018436432, 0.048757076, 9.898807
1196287170193825, -0.11365908, 5.352744, 8.285149, 0.00273633, 0.059747934, 9.8643265
1196287179834137, -0.12203395, 5.3276196, 8.236095, -7.171631E-4, 0.06879401, 9.809535
1196287189474450, -0.09571291, 5.328816, 8.260024, 0.013596535, 0.042928457, 9.830127
1196287199114762, -0.06699903, 5.3503513, 8.355737, 0.020331621, -0.0018465519, 9.922131
1196287208755075, -0.05503492, 5.35753, 8.458628, 0.005473852, -0.050472498, 10.01259
1196287218395387, -0.07058827, 5.367101, 8.52802, -0.021939516, -0.06725407, 10.076353
1196287228035700, -0.061016977, 5.3766723, 8.502895, -0.001978159, -0.05210042, 10.060261
1196287237676012, -0.07776674, 5.3503513, 8.471788, -0.019167185, -0.047012568, 10.020027
1196287247316221, -0.07298109, 5.352744, 8.382058, 0.009402752, -0.0055422783, 9.94565
1196287256956533, -0.059820566, 5.369494, 8.269595, 0.055836916, 0.0513494, 9.859792
1196287266596846, -0.08135597, 5.3515477, 8.242078, 0.035306215, 0.05984211, 9.827141
1196287276237158, -0.07298109, 5.352744, 8.250452, 0.03991151, 0.05081582, 9.834785
1196287285877471, -0.078963146, 5.3766723, 8.286345, 0.03467369, 0.05360937, 9.87797
1196287295517783, -0.106480606, 5.3790655, 8.372486, -0.011755228, 0.029162169, 9.952045
1196287305158096, -0.101694964, 5.3982077, 8.446664, -0.019621134, 0.0060167313, 10.024804
1196287314798408, -0.10887343, 5.3850474, 8.475378, -0.04020953, -0.012680292, 10.041954
1196287324438721, -0.09092726, 5.3611193, 8.4682, -0.03339815, -0.03608513, 10.022867
1196287334079033, -0.07058827, 5.3682976, 8.383254, 0.009834766, -0.0022594929, 9.955023
