timestamp_acc,device_acc_x,device_acc_y,device_acc_z,earth_acc_x,earth_acc_y,earth_acc_z
1196297379260492, -0.0047856453, 5.3766723, 8.273184, 0.045615196, -0.014748335, 9.866706
1196297388900804, -0.014356935, 5.3922257, 8.239685, 0.04987693, 0.016618967, 9.847129
1196297398541117, -0.010767702, 5.4185467, 8.273184, 0.053679466, 0.017943144, 9.889546
1196297408181429, -0.046660043, 5.4185467, 8.331808, 0.0068182945, 0.008811235, 9.938902
1196297417821742, -0.06819545, 5.4293146, 8.362915, -0.017664194, 0.013111591, 9.970958
1196297427462054, -0.07537391, 5.4221363, 8.365308, -0.027671576, 0.010628223, 9.9690895
1196297437102367, -0.076570325, 5.4233327, 8.333005, -0.019568443, 0.026650906, 9.94265
1196297446742679, -0.061016977, 5.413761, 8.313862, -0.0050172806, 0.020357847, 9.92131
1196297456382887, -0.05742774, 5.4185467, 8.329415, -0.0022370815, 0.01498127, 9.936945
1196297466023200, -0.06580263, 5.410172, 8.327023, -0.010747194, 0.015208483, 9.93042
1196297475663512, -0.05623133, 5.4113684, 8.34138, -0.005139351, 0.0044243336, 9.943069
1196297485303825, -0.062213387, 5.3982077, 8.323434, -0.011049032, 0.0065209866, 9.920881
1196297494944137, -0.047856454, 5.38744, 8.333005, -0.0058181286, -0.013786793, 9.92298
1196297504584450, -0.05623133, 5.410172, 8.318648, 0.001234293, 0.013638258, 9.92335
1196297514224762, -0.038285162, 5.4376893, 8.362915, 0.016151905, 0.0031485558, 9.975371
1196297523865075, -0.049052864, 5.444868, 8.451449, -0.0149896145, -0.026499033, 10.053611
1196297533505387, -0.05503492, 5.453243, 8.467003, -0.020890713, -0.023732185, 10.071247
1196297543145700, -0.041874398, 5.456832, 8.445468, -0.0023174286, -0.017832756, 10.055068
1196297552785908, -0.02871387, 5.460421, 8.3784685, 0.029129267, 0.009294033, 10.000741
1196297562426221, -0.019142581, 5.4125648, 8.321041, 0.029656649, -0.0036337376, 9.926481
1196297572066533, -0.0059820567, 5.3970113, 8.289934, 0.042801857, -0.00709033, 9.891859
1196297581706846, 0.03589234, 5.3946185, 8.208578, 0.09774661, 0.00653553, 9.822136
1196297591347158, 0.019142581, 5.365905, 8.130812, 0.08646774, 0.029950142, 9.741409
1196297600987471, 0.02632105, 5.3886366, 8.122437, 0.10307312, 0.045761824, 9.74676
1196297610627783, -0.01794617, 5.4029937, 8.163115, 0.058501005, 0.061421394, 9.788867
1196297620268096, -0.0526421, 5.3706903, 8.303095, -0.025863409, -0.007065296, 9.888769
1196297629908408, -0.059820566, 5.395815, 8.411968, -0.051352024, -0.034119844, 9.993789
1196297639548721, -0.050249275, 5.4388857, 8.445468, -0.034061193, -0.02344656, 10.045308
1196297649188929, -0.07058827, 5.432904, 8.441878, -0.0512352, -0.012064934, 10.039122
1196297658829242, -0.086141616, 5.413761, 8.455039, -0.076882124, -0.023085356, 10.039795
1196297668469554, -0.09332009, 5.4388857, 8.493324, -0.08133888, -0.017894983, 10.085625
1196297678109867, -0.05623133, 5.4759746, 8.445468, -0.019302368, 0.010101318, 10.065533
1196297687750179, -0.08733802, 5.440082, 8.311469, -0.022487879, 0.06230879, 9.933695
1196297697390492, -0.09212367, 5.3994045, 8.190632, -0.012221575, 0.089637995, 9.810216
1196297707030804, -0.09212367, 5.3718867, 8.135597, -0.008616686, 0.09311867, 9.749094
1196297716671117, -0.07298109, 5.3503513, 8.110473, 0.0056419373, 0.07544184, 9.716256
1196297726311429, -0.07298109, 5.3790655, 8.099705, 0.021879673, 0.10009742, 9.72288
1196297735951742, -0.03708875, 5.389833, 8.157132, 0.041267157, 0.062505245, 9.776753
1196297745591950, -0.021535404, 5.4352965, 8.252846, 0.049768686, 0.041863203, 9.881708
1196297755232262, -0.016749758, 5.454439, 8.350951, 0.03798151, 0.008742809, 9.97437
1196297764872575, -0.021535404, 5.4173503, 8.4502535, -0.006163597, -0.05976653, 10.037497
1196297774512887, 0.0011964113, 5.4173503, 8.471788, 0.013010025, -0.07504463, 10.0555
1196297784153200, 0.013160525, 5.419743, 8.386844, 0.05065179, -0.03759432, 9.985438
1196297793793512, 0.010767702, 5.424529, 8.318648, 0.06981921, -0.0018787384, 9.930795
1196297803433825, 0.020338992, 5.389833, 8.318648, 0.06362152, -0.030833244, 9.911894
1196297813074137, 0.020338992, 5.3718867, 8.440681, 0.022770405, -0.09557295, 10.00465
1196297822714450, -0.06460621, 5.432904, 8.538788, -0.04665494, -0.049732447, 10.120615
1196297832354762, -0.078963146, 5.4293146, 8.544769, -0.060041904, -0.04726076, 10.123781
1196297841995075, -0.061016977, 5.4053864, 8.480164, -0.037030697, -0.043533564, 10.056434
1196297851635283, -0.06460621, 5.4017973, 8.402397, -0.019763947, -0.008197308, 9.989165
1196297861275596, -0.039481573, 5.436493, 8.389236, 0.020462751, 0.007721424, 9.996792
1196297870915908, -0.049052864, 5.4484572, 8.465807, -0.0042846203, -0.01469636, 10.067658
1196297880556221, -0.034695927, 5.406583, 8.492127, -0.018073082, -0.064611435, 10.0669775
1196297890196533, -0.062213387, 5.3982077, 8.438289, -0.030592442, -0.0306952, 10.017351
1196297899836846, -0.06580263, 5.3682976, 8.364112, -0.026608467, -0.015612125, 9.938832
1196297909477158, -0.047856454, 5.363512, 8.269595, 0.009869099, 0.0109779835, 9.856751
1196297919117471, -0.034695927, 5.3922257, 8.210971, 0.048026085, 0.04903674, 9.823067
1196297928757783, -0.062213387, 5.400601, 8.2348995, 0.021408081, 0.05904174, 9.847843
1196297938397992, -0.049052864, 5.3814583, 8.273184, 0.0073111057, 0.017562151, 9.8695345
1196297948038304, -0.0741775, 5.410172, 8.269595, -0.0020623207, 0.052272797, 9.882255
1196297957678617, -0.10049855, 5.373083, 8.29472, -0.048089266, 0.027490854, 9.883291
1196297967318929, -0.08853444, 5.3910294, 8.297112, -0.03193426, 0.03190875, 9.895002
1196297976959242, -0.061016977, 5.383851, 8.240881, 0.004234791, 0.038331985, 9.843791
1196297986599554, -0.023928227, 5.3982077, 8.202596, 0.052600622, 0.0463562, 9.819312
1196297996239867, -0.015553347, 5.400601, 8.190632, 0.064037085, 0.04797101, 9.810544
1196298005880179, 0.0, 5.40419, 8.212168, 0.07242513, 0.03109026, 9.830502
1196298015520492, 0.0047856453, 5.410172, 8.262417, 0.065890074, 0.009699345, 9.875885
1196298025160700, -0.0011964113, 5.395815, 8.325827, 0.03651595, -0.027553082, 9.921296
1196298034801012, -0.022731815, 5.42094, 8.402397, 0.008692503, -0.03293395, 9.999311
1196298044441325, -0.009571291, 5.426922, 8.43111, 0.0170815, -0.046123505, 10.026605
1196298054081637, -0.03708875, 5.4352965, 8.446664, -0.0068502426, -0.032632828, 10.044344
1196298063721950, -0.05383851, 5.393422, 8.449057, -0.039953947, -0.052088737, 10.02368
1196298073362262, -0.038285162, 5.4113684, 8.420342, -0.010186911, -0.033799887, 10.00926
1196298083002575, -0.039481573, 5.38744, 8.391629, -0.014823675, -0.03624916, 9.972161
1196298092642887, -0.02632105, 5.389833, 8.373683, 0.0026214123, -0.0335989, 9.958335
1196298102283096, -0.032303106, 5.4257255, 8.309076, 0.03066039, 0.025119305, 9.923645
1196298111923408, -0.04426722, 5.3982077, 8.295917, 0.011970043, 0.018213987, 9.897696
1196298121563721, -0.020338992, 5.4053864, 8.311469, 0.026498795, 0.0026948452, 9.9145565
1196298131204033, -0.021535404, 5.424529, 8.32463, 0.030291319, 0.010830641, 9.936016
1196298140844346, -0.08015956, 5.3946185, 8.3581295, -0.045995712, 0.004827261, 9.9480915
1196298150484658, -0.08853444, 5.3706903, 8.360522, -0.06428218, -0.009711027, 9.937117
1196298160124971, -0.08853444, 5.393422, 8.3377905, -0.050022364, 0.016376257, 9.9304
1196298169765283, -0.09930214, 5.4089756, 8.275578, -0.035465717, 0.06253576, 9.8867035
1196298179405492, -0.078963146, 5.373083, 8.242078, -0.025339603, 0.041380405, 9.838991
1196298189045804, -0.046660043, 5.3886366, 8.200203, 0.018085241, 0.054540396, 9.812219
1196298198686117, -0.03589234, 5.4173503, 8.233703, 0.029206753, 0.053539515, 9.855917
1196298208326429, -0.059820566, 5.4341, 8.23131, 0.016473293, 0.07894707, 9.8631115
1196298217966742, -0.040677983, 5.42094, 8.270791, 0.015548229, 0.0409503, 9.888999
1196298227607054, -0.033499517, 5.4233327, 8.292327, 0.017033815, 0.028519392, 9.908342
1196298237247367, -0.02871387, 5.45085, 8.282756, 0.037103176, 0.050153017, 9.915277
1196298246887575, -0.034695927, 5.432904, 8.293523, 0.024415493, 0.0356884, 9.91455
1196298256527887, -0.0023928226, 5.406583, 8.303095, 0.040388823, -0.004397154, 9.908122
1196298266168200, -0.010767702, 5.4233327, 8.370093, 0.021799088, -0.019061327, 9.973478
1196298275808512, -0.021535404, 5.4257255, 8.428718, 3.4570694E-4, -0.038271427, 10.024009
1196298285448825, -0.0634098, 5.40419, 8.455039, -0.049114943, -0.043960094, 10.034572
1196298295089137, -0.062213387, 5.406583, 8.4682, -0.045928955, -0.048116207, 10.046939
1196298304729450, -0.058624156, 5.4113684, 8.444271, -0.033646345, -0.0358119, 10.02944
1196298314369658, -0.07537391, 5.4053864, 8.398808, -0.033557653, -0.011039019, 9.988123
1196298324009971, -0.05742774, 5.4125648, 8.37129, -0.0074551105, -0.0022490025, 9.968831
1196298333650283, -0.041874398, 5.4125648, 8.330612, 0.019141674, 0.0073781013, 9.934602
1196298343290596, -0.04426722, 5.430511, 8.311469, 0.03229046, 0.026714087, 9.928302
1196298352930908, -0.008374879, 5.3850474, 8.368897, 0.027544498, -0.05432415, 9.951561
1196298362571221, -0.039481573, 5.3718867, 8.256434, 0.026443243, 0.0049767494, 9.850214
1196298372211533, -0.047856454, 5.4089756, 8.111669, 0.07617307, 0.09864187, 9.748997
1196298381851742, -0.031106694, 5.377869, 8.2348995, 0.041805744, 0.008012772, 9.835357
1196298391492054, -0.07298109, 5.3910294, 8.304291, -0.007278204, 0.006542206, 9.900993
1196298401132367, -0.05383851, 5.4257255, 8.271988, 0.033857346, 0.036528826, 9.892658
1196298410772679, -0.047856454, 5.410172, 8.364112, 0.005889654, -0.02052331, 9.961433
1196298420412992, -0.039481573, 5.063213, 8.301898, -0.1241014, -0.24220777, 9.720346
1196298430053304, -0.14356937, 5.930611, 8.519645, 0.12042594, 0.3297503, 10.375637
1196298439693512, 0.03708875, 4.924429, 8.176275, -0.092856884, -0.3165369, 9.53908
1196298449333825, -0.21774685, 5.682954, 8.493324, -0.047646046, 0.20331621, 10.21941
1196298458974137, 0.16271193, 5.3012986, 8.135597, 0.19785976, -0.1053226, 9.709169
1196298468614450, -0.24885355, 5.224728, 8.4012, -0.25904965, -0.05291295, 9.892926
1196298478254762, 0.13280165, 5.832505, 8.297112, 0.37474465, 0.20081162, 10.133955
1196298487895075, -0.20697916, 4.8681974, 8.338987, -0.38142848, -0.29260945, 9.646233
1196298497535283, 0.021535404, 6.114858, 8.433503, 0.3740065, 0.39394093, 10.402926
1196298507175596, -0.14237295, 4.674379, 8.123632, -0.34136224, -0.369864, 9.36003
1196298516815908, -0.148355, 6.064609, 8.37129, 0.22023606, 0.48279738, 10.324652
1196298526456221, 0.008374879, 4.8502517, 8.003992, -0.106117964, -0.28373957, 9.3539915
1196298536096533, -0.24765715, 5.7248282, 8.471788, -0.04435563, 0.25953484, 10.224328
1196298545736742, 0.10289137, 5.265406, 8.230113, 0.104337454, -0.14731908, 9.7692
1196298555377054, -0.25962126, 5.2642097, 8.575876, -0.30259418, -0.09530401, 10.061029
1196298565017367, 0.14955142, 5.751149, 8.373683, 0.33399582, 0.09815979, 10.153595
1196298574657679, -0.20458634, 4.8418765, 8.359326, -0.3914714, -0.3274889, 9.6490135
1196298584297992, 0.11246266, 6.117251, 8.423932, 0.4642558, 0.34847355, 10.395146
1196298593938304, -0.058624156, 4.7282176, 8.216953, -0.28242183, -0.41457272, 9.467109
1196298603578512, -0.05742774, 6.1328044, 8.492127, 0.3075595, 0.42687082, 10.462027
1196298613218825, 0.029910283, 4.8502517, 8.188239, -0.14220619, -0.3775344, 9.508436
1196298622859137, -0.24047868, 5.8013983, 8.580662, -0.036489725, 0.2562065, 10.357357
1196298632499450, 0.10887343, 5.2199426, 8.118847, 0.11488867, -0.13387609, 9.651123
1196298642139762, -0.2943172, 5.308477, 8.2456665, -0.21607232, 0.09330535, 9.808272
1196298651779971, 0.13399807, 5.6937213, 7.9680996, 0.404886, 0.24563026, 9.78278
1196298661420283, -0.20338993, 4.863412, 8.117651, -0.31335664, -0.20615673, 9.457786
1196298671060596, 0.09571291, 6.0287166, 8.29113, 0.42579293, 0.35083318, 10.236847
1196298680700908, -0.124426775, 4.6755753, 8.220542, -0.3697703, -0.4330647, 9.440844
1196298690341221, -0.08255238, 6.099305, 8.598608, 0.23148608, 0.36778522, 10.533545
1196298699981429, -0.03708875, 4.8155556, 8.310273, -0.24659276, -0.41887712, 9.592461
1196298709621742, -0.2620141, 5.8396835, 8.689535, -0.0795393, 0.241889, 10.469658
1196298719262054, 0.1052842, 5.197211, 8.228917, 0.07070732, -0.19071102, 9.731176
1196298728902367, -0.27038896, 5.4149575, 8.475378, -0.21226048, 0.052056313, 10.0587845
1196298738542575, 0.11485548, 5.697311, 8.170293, 0.3332281, 0.17518854, 9.954121
1196298748182887, -0.26679972, 4.9674997, 8.256434, -0.3504889, -0.16281319, 9.631542
1196298757823200, 0.086141616, 6.0729837, 8.3174515, 0.4357531, 0.38245916, 10.282626
1196298767463512, -0.14955142, 4.698307, 8.189436, -0.35796857, -0.38459635, 9.428005
1196298777103825, -0.0741775, 6.0981083, 8.439486, 0.27519202, 0.42846107, 10.399906
1196298786744033, -0.0047856453, 4.7509494, 8.084151, -0.18678546, -0.3873372, 9.366969
1196298796384346, -0.17108682, 5.881558, 8.519645, 0.07071161, 0.30161405, 10.349415
1196298806024658, 0.106480606, 5.1589255, 8.209774, 0.06870818, -0.21392488, 9.69411
1196298815664971, -0.27517462, 5.440082, 8.610572, -0.2428875, -0.0026712418, 10.185931
1196298825305283, 0.15792629, 5.615955, 8.3377905, 0.28368998, 0.021513462, 10.049959
1196298834945492, -0.2428715, 4.9782677, 8.407183, -0.3649881, -0.2517414, 9.763517
1196298844585804, 0.11485548, 6.0011992, 8.362915, 0.40535736, 0.30927873, 10.281341
1196298854226117, -0.10887343, 4.703093, 8.212168, -0.33112144, -0.42261195, 9.4489355
1196298863866429, -0.009571291, 6.113662, 8.398808, 0.34493256, 0.4270959, 10.37379
1196298873506637, -0.029910283, 4.743771, 8.020741, -0.19559455, -0.34855103, 9.310037
1196298883146950, -0.19980069, 5.9437714, 8.394022, 0.11222005, 0.417696, 10.278175
1196298892787262, 0.05742774, 5.0416775, 8.063812, 0.0065865517, -0.20274568, 9.508193
1196298902427575, -0.28115666, 5.4616175, 8.40479, -0.18265867, 0.12217641, 10.024995
1196298912067783, 0.17228323, 5.558527, 8.047063, 0.34536266, 0.10031152, 9.775111
1196298921708096, -0.2117648, 5.0344987, 8.210971, -0.27219677, -0.12239337, 9.629227
1196298931348408, 0.12083755, 5.973682, 8.256434, 0.43753648, 0.32595897, 10.17696
1196298940988721, -0.12921242, 4.705486, 8.2660055, -0.36574125, -0.42368126, 9.495888
1196298950628929, 0.0035892338, 6.114858, 8.550752, 0.31016374, 0.35296297, 10.5017185
1196298960269242, -0.011964113, 4.7569313, 8.297112, -0.25624347, -0.46577215, 9.549242
1196298969909554, -0.15672988, 6.0215383, 8.689535, 0.10446, 0.32438016, 10.567657
1196298979549867, 0.061016977, 5.046463, 8.246863, -0.03875637, -0.27964592, 9.66445
1196298989190075, -0.2835495, 5.5872407, 8.537591, -0.15896201, 0.15698719, 10.204813
1196298998830387, 0.13998012, 5.501099, 8.161918, 0.26413035, 0.03549528, 9.840098
1196299008470700, -0.25962126, 5.042874, 8.298309, -0.32551098, -0.11632323, 9.70775
1196299018111012, 0.11006984, 5.9138613, 8.254042, 0.41739535, 0.28485608, 10.141978
1196299027751221, -0.19980069, 4.7306104, 8.242078, -0.4225185, -0.3335023, 9.49003
1196299037391533, -0.031106694, 6.0598235, 8.429914, 0.3090551, 0.38655305, 10.370195
1196299047031846, -0.05383851, 4.6552362, 8.112865, -0.29681873, -0.41676497, 9.33975
1196299056672158, -0.12921242, 5.985646, 8.453842, 0.1814847, 0.38342857, 10.350468
1196299066311355, 0.078963146, 4.983053, 8.175078, -0.03907585, -0.29729605, 9.569696
1196299075951667, -0.24646074, 5.6350975, 8.677571, -0.14751148, 0.11391425, 10.347973
1196299085591980, 0.13519448, 5.491528, 8.408379, 0.18418479, -0.07265687, 10.041752
1196299095232292, -0.2835495, 5.150551, 8.620144, -0.38610792, -0.18094587, 10.036616
1196299104872500, 0.11365908, 5.9090757, 8.405986, 0.36280775, 0.23375225, 10.2666645
1196299114512813, -0.20219351, 4.7569313, 8.166703, -0.36301112, -0.29272246, 9.441761
1196299124153125, 0.013160525, 6.0825553, 8.176275, 0.42738318, 0.5063031, 10.169077
1196299133793334, -0.0023928226, 4.6815577, 7.885547, -0.16248822, -0.33507085, 9.162979
1196299143433646, -0.0849452, 6.0119667, 8.361719, 0.25276327, 0.41750026, 10.287424
1196299153073959, 0.0634098, 4.87418, 8.109276, -0.08705473, -0.33534026, 9.455262
1196299162714271, -0.22731815, 5.6554365, 8.579466, -0.09868264, 0.16107273, 10.276536
1196299172354480, 0.15672988, 5.3718867, 8.216953, 0.1977439, -0.08233905, 9.816017
1196299181994792, -0.23808585, 5.1553364, 8.394022, -0.2814858, -0.10722375, 9.849014
1196299191635105, 0.17228323, 5.8229337, 8.246863, 0.4072585, 0.22364712, 10.086184
1196299201275313, -0.17108682, 4.822734, 8.336594, -0.35602438, -0.35603833, 9.619424
1196299210915625, 0.046660043, 6.166304, 8.545966, 0.36294127, 0.4073534, 10.5243225
1196299220555938, -0.09571291, 4.6911287, 8.366505, -0.36351633, -0.49576735, 9.572686
1196299230196250, -0.13160525, 6.0370917, 8.635697, 0.13995743, 0.36127567, 10.530383
1196299239836459, 0.03589234, 4.8729835, 8.117651, -0.100152254, -0.3204763, 9.462072
1196299249476771, -0.24646074, 5.6937213, 8.397611, -0.0493865, 0.28167176, 10.144816
1196299259117084, 0.124426775, 5.3132625, 8.021938, 0.1992414, -0.018023014, 9.620692
1196299268757292, -0.28115666, 5.1996036, 8.311469, -0.27757978, -0.0063853264, 9.803997
1196299278397605, 0.124426775, 5.7690954, 8.269595, 0.33631992, 0.1873796, 10.076505
1196299288037917, -0.20219351, 4.820341, 8.449057, -0.4345219, -0.3716042, 9.712685
1196299297678230, 0.038285162, 6.096912, 8.646464, 0.3118255, 0.30104637, 10.571058
1196299307318438, -0.09332009, 4.6803613, 8.385647, -0.37210393, -0.5036042, 9.583397
1196299316958750, -0.076570325, 6.108876, 8.624929, 0.21696448, 0.378942, 10.560445
1196299326599063, 0.04546363, 4.8729835, 8.177471, -0.11712003, -0.35262322, 9.512151
1196299336239271, -0.21774685, 5.802595, 8.488539, -0.0039029121, 0.30466104, 10.280078
1196299345879584, 0.13399807, 5.272585, 8.05783, 0.17774677, -0.06724572, 9.628635
1196299355519896, -0.24885355, 5.2893343, 8.258827, -0.19824481, 0.058101654, 9.808391
1196299365160105, 0.106480606, 5.690132, 8.038688, 0.34584928, 0.2539239, 9.839987
1196299374800417, -0.22013968, 4.802395, 8.145168, -0.36465526, -0.2538948, 9.447635
1196299384440730, 0.096909314, 6.0526447, 8.29113, 0.42462492, 0.39344263, 10.249471
1196299394080938, -0.10767702, 4.651647, 8.1738825, -0.34976244, -0.42102623, 9.389471
1196299403721250, -0.0634098, 6.0777693, 8.547162, 0.23706079, 0.3864689, 10.478155
1196299413361563, 0.04546363, 4.8191447, 8.275578, -0.16732359, -0.43385887, 9.565311
1196299423001875, -0.17467605, 5.852844, 8.670393, 0.002251625, 0.22644019, 10.459958
1196299432642084, 0.16271193, 5.235496, 8.246863, 0.12729383, -0.18937898, 9.767065
1196299442282396, -0.22612174, 5.339584, 8.425129, -0.20388412, 0.013292789, 9.975136
1196299451922709, 0.18065812, 5.6410794, 8.112865, 0.36594915, 0.142977, 9.875153
1196299461562917, -0.19142582, 4.900501, 8.2014, -0.31312513, -0.21311498, 9.548353
1196299471203230, 0.09451649, 6.0358953, 8.347362, 0.4032128, 0.36745214, 10.286972
1196299480843542, -0.1268196, 4.664808, 8.353344, -0.39879704, -0.49142265, 9.547478
1196299490483750, -0.062213387, 6.145965, 8.738588, 0.20568419, 0.3423853, 10.676148
1196299500124063, -0.0059820567, 4.8095737, 8.385647, -0.24300241, -0.459136, 9.653044
1196299509764375, -0.22971097, 5.871987, 8.683554, -0.038718462, 0.26765895, 10.481601
1196299519404584, 0.10289137, 5.1493545, 8.133204, 0.07603526, -0.16254687, 9.625136
1196299529044896, -0.2428715, 5.430511, 8.382058, -0.16467834, 0.099799156, 9.988556
1196299538685209, 0.18783657, 5.6733823, 8.139186, 0.37802458, 0.15193605, 9.914782
1196299548325417, -0.21296121, 4.944768, 8.35454, -0.34808803, -0.25414324, 9.700961
1196299557965730, 0.09332009, 6.0011992, 8.49452, 0.34459877, 0.25628924, 10.392092
1196299567606042, -0.16510476, 4.644469, 8.380861, -0.4588169, -0.4962232, 9.559313
1196299577246250, -0.020338992, 6.101698, 8.545966, 0.28767323, 0.36755562, 10.49032
1196299586886563, 0.014356935, 4.74736, 8.086544, -0.1883471, -0.39308333, 9.366955
1196299596526875, -0.1591227, 5.9042897, 8.384451, 0.11928034, 0.37217665, 10.248525
1196299606167084, 0.1363909, 5.1385865, 7.982456, 0.12880206, -0.13599706, 9.492535
1196299615807396, -0.2536392, 5.5393844, 8.3377905, -0.1250906, 0.18924451, 10.010816
1196299625447709, 0.13280165, 5.6063833, 8.132008, 0.29357195, 0.10938406, 9.873226
1196299635087917, -0.25842485, 5.0045886, 8.373683, -0.39824104, -0.1891458, 9.748686
1196299644728230, 0.10887343, 5.992824, 8.384451, 0.38039875, 0.26518106, 10.296105
1196299654368542, -0.1698904, 4.6935215, 8.218149, -0.4345932, -0.3842566, 9.447723
1196299664008855, 0.0, 6.1244297, 8.360522, 0.35484838, 0.42909193, 10.348766
1196299673649063, 0.034695927, 4.727021, 7.999206, -0.17946553, -0.37600088, 9.282223
1196299683289375, -0.09930214, 5.9724855, 8.380861, 0.20364356, 0.3727715, 10.282939
1196299692929688, 0.13519448, 5.0620165, 8.09133, 0.021108627, -0.2480917, 9.5420065
1196299702569896, -0.22253251, 5.605187, 8.539984, -0.14301825, 0.1320827, 10.215726
1196299712210209, 0.12323037, 5.5405807, 8.276773, 0.18962836, 0.0041127205, 9.959026
1196299721850521, -0.2883351, 5.020142, 8.3581295, -0.42687368, -0.14934611, 9.743652
1196299731490730, 0.13878371, 5.956932, 8.275578, 0.39971542, 0.2826836, 10.185765
1196299741131042, -0.12083755, 4.7605205, 8.185846, -0.35856104, -0.3552425, 9.456769
1196299750771355, 0.040677983, 6.174679, 8.397611, 0.3743441, 0.43798876, 10.407509
1196299760411563, 0.0023928226, 4.74736, 8.13799, -0.23644328, -0.4090526, 9.409626
1196299770051875, -0.13878371, 6.038288, 8.560323, 0.11092305, 0.38110757, 10.469089
1196299779692188, 0.10049855, 5.048856, 8.242078, -0.05210662, -0.30230212, 9.6612
1196299789332396, -0.22253251, 5.645865, 8.56152, -0.13775015, 0.14644551, 10.25595
1196299798972709, 0.18185452, 5.49751, 8.218149, 0.23340487, -0.01856041, 9.886297
1196299808613021, -0.2428715, 5.1182475, 8.37129, -0.3415351, -0.12326479, 9.808267
1196299818253230, 0.13878371, 5.928218, 8.34138, 0.35648894, 0.2447784, 10.225197
1196299827893542, -0.1794617, 4.782056, 8.303095, -0.42846894, -0.3537724, 9.567285
1196299837533750, -0.02871387, 6.1399827, 8.451449, 0.28620052, 0.43831968, 10.433273
1196299847174063, -0.05503492, 4.6301117, 8.078169, -0.32669377, -0.43954825, 9.295044
1196299856814375, -0.06819545, 6.0155563, 8.323434, 0.22668576, 0.4329636, 10.258279
1196299866454584, 0.14596218, 5.0081778, 7.975278, 0.052707672, -0.23044801, 9.415537
1196299876094896, -0.15433706, 5.71765, 8.455039, -0.024924994, 0.20251799, 10.20595
1196299885735209, 0.22013968, 5.465207, 8.2253275, 0.24431181, -0.06589198, 9.8746605
1196299895375417, -0.20219351, 5.1936216, 8.478967, -0.30917287, -0.14625359, 9.939341
1196299905015730, 0.17826529, 5.9007006, 8.3784685, 0.35984635, 0.1945169, 10.241165
1196299914656042, -0.14596218, 4.772485, 8.3174515, -0.40428638, -0.39048123, 9.574028
1196299924296250, 0.03589234, 6.070591, 8.343773, 0.33531284, 0.4097693, 10.30493
1196299933936563, -0.05623133, 4.651647, 7.982456, -0.28165007, -0.37150693, 9.22731
1196299943576875, -0.06580263, 6.046663, 8.303095, 0.24620819, 0.46963644, 10.258005
1196299953217084, 0.1052842, 4.9256253, 8.063812, -0.048900127, -0.3021531, 9.444799
1196299962857396, -0.20817557, 5.7343993, 8.507681, -0.07606554, 0.22660732, 10.25915
1196299972497709, 0.16031912, 5.383851, 8.254042, 0.15464997, -0.0953877, 9.854327
1196299982137917, -0.19621146, 5.245067, 8.534002, -0.29007292, -0.1346755, 10.013799
1196299991778230, 0.19980069, 5.8337016, 8.360522, 0.362365, 0.15334725, 10.188989
1196300001418542, -0.16271193, 4.82752, 8.301898, -0.38291144, -0.3400848, 9.591176
1196300011058750, 0.08733802, 6.1244297, 8.425129, 0.36815524, 0.39298797, 10.402359
1196300020699063, -0.034695927, 4.6875396, 8.228917, -0.31680632, -0.4692917, 9.453502
1196300030339375, -0.06699903, 6.0921264, 8.550752, 0.20446396, 0.40023184, 10.489608
1196300039979584, 0.051445685, 4.875376, 8.218149, -0.1536529, -0.37488604, 9.54703
1196300049619896, -0.18544376, 5.7487564, 8.49452, -0.03844881, 0.24280953, 10.255685
1196300059260209, 0.1698904, 5.2701917, 8.056634, 0.17014122, -0.08280349, 9.626907
1196300068900417, -0.21655045, 5.255835, 8.274381, -0.2249856, 0.01728797, 9.802304
1196300078540730, 0.19740787, 5.7810597, 8.207381, 0.38372302, 0.18221784, 10.031961
1196300088181042, -0.19740787, 4.877769, 8.391629, -0.42354608, -0.29973698, 9.694423
1196300097821250, 0.083748795, 6.1160545, 8.59143, 0.3320706, 0.3027804, 10.536787
1196300107461563, -0.07058827, 4.6731825, 8.338987, -0.39156437, -0.48869395, 9.538879
1196300117101875, -0.029910283, 6.1005015, 8.508878, 0.2541988, 0.39885092, 10.459173
1196300126742084, 0.08973085, 4.8083773, 8.070991, -0.11825466, -0.35814285, 9.387608
1196300136382396, -0.14117654, 5.814559, 8.368897, 0.07118726, 0.33372688, 10.185825
1196300146022709, 0.19621146, 5.24746, 8.094919, 0.1670754, -0.12952065, 9.646624
1196300155662917, -0.22612174, 5.35753, 8.403593, -0.22498155, 0.042813063, 9.966053
1196300165303230, 0.1794617, 5.7224355, 8.300702, 0.31311584, 0.12012458, 10.078078
1196300174943542, -0.20338993, 4.8729835, 8.391629, -0.4269414, -0.30283332, 9.691893
1196300184583750, 0.083748795, 6.046663, 8.483752, 0.33461452, 0.32421756, 10.407982
1196300194224063, -0.08733802, 4.6672006, 8.248059, -0.3790393, -0.4368596, 9.4597225
1196300203864375, -0.021535404, 6.088537, 8.438289, 0.2754135, 0.43760633, 10.392695
1196300213504584, 0.076570325, 4.796413, 8.100901, -0.14140105, -0.37563777, 9.406111
1196300223144896, -0.13280165, 5.9066825, 8.467003, 0.09397483, 0.3565302, 10.317981
1196300232785209, 0.16630118, 5.2259245, 8.203793, 0.106550455, -0.16452432, 9.726343
1196300242425417, -0.24526432, 5.375476, 8.496913, -0.2550323, 0.035989046, 10.054209
1196300252065730, 0.20338993, 5.6650076, 8.309076, 0.31445217, 0.07749653, 10.053333
1196300261706042, -0.18903299, 4.9268217, 8.419147, -0.39193845, -0.2742355, 9.744872
1196300271346250, 0.106480606, 5.99761, 8.471788, 0.3377478, 0.29693604, 10.370709
1196300280986563, -0.08853444, 4.6755753, 8.282756, -0.37319326, -0.44335508, 9.494053
1196300290626875, 0.022731815, 6.13759, 8.484949, 0.3227725, 0.44002295, 10.457872
1196300300267084, 0.032303106, 4.7449675, 8.142776, -0.19966483, -0.4039936, 9.413685
1196300309907396, -0.16630118, 5.8947186, 8.488539, 0.045930624, 0.35802913, 10.329587
1196300319547709, 0.12083755, 5.0883374, 8.111669, 0.043596983, -0.1934247, 9.574218
1196300329187917, -0.25244278, 5.4484572, 8.364112, -0.18574977, 0.14694309, 9.98257
1196300338828230, 0.16869399, 5.593223, 8.210971, 0.28073883, 0.09431863, 9.932016
1196300348468542, -0.18544376, 4.942375, 8.400003, -0.37055707, -0.253083, 9.737564
1196300358108750, 0.15074782, 6.017949, 8.465807, 0.38960886, 0.27890706, 10.376837
1196300367749063, -0.124426775, 4.674379, 8.380861, -0.43522453, -0.4612975, 9.576112
1196300377389375, -0.0011964113, 6.117251, 8.556734, 0.28899002, 0.39973164, 10.506909
1196300387029584, 0.04426722, 4.7246284, 8.183454, -0.21342182, -0.42822266, 9.437376
1196300396669896, -0.08973085, 5.962914, 8.455039, 0.1688168, 0.38714886, 10.337973
1196300406310209, 0.14117654, 5.0919266, 8.145168, 0.05447197, -0.21545553, 9.604271
1196300415950417, -0.19501504, 5.5513487, 8.462217, -0.11554289, 0.14368033, 10.120802
1196300425590730, 0.20338993, 5.558527, 8.208578, 0.29736185, 0.05648732, 9.910991
1196300435231042, -0.21655045, 5.011767, 8.330612, -0.3411975, -0.16450787, 9.7170105
1196300444871355, 0.13519448, 5.936593, 8.352147, 0.3679204, 0.2895825, 10.237213
1196300454511563, -0.12203395, 4.668397, 8.268398, -0.39944744, -0.42932343, 9.4779415
1196300464151875, 0.040677983, 6.105287, 8.476574, 0.32300568, 0.40652514, 10.433547
1196300473792188, 0.01794617, 4.703093, 8.210971, -0.24034882, -0.44791102, 9.448867
1196300483432396, -0.12562318, 5.9844494, 8.5423765, 0.115915775, 0.37718415, 10.423336
1196300493072709, 0.11365908, 5.0189457, 8.215756, -0.026451826, -0.2826438, 9.623971
1196300502713021, -0.23090738, 5.593223, 8.554341, -0.14876175, 0.15867424, 10.220907
1196300512353230, 0.15792629, 5.5190454, 8.274381, 0.22773528, 0.025395155, 9.944731
1196300521993542, -0.25004998, 5.0919266, 8.41795, -0.35426474, -0.12760663, 9.834141
1196300531633855, 0.15194423, 5.8935223, 8.362915, 0.36512542, 0.24582982, 10.222589
1196300541274063, -0.13040884, 4.698307, 8.271988, -0.39176297, -0.40710998, 9.497246
1196300550914375, 0.05742774, 6.128019, 8.416754, 0.37797022, 0.43026376, 10.395657
1196300560554688, -0.013160525, 4.674379, 8.177471, -0.28264785, -0.43022776, 9.405107
1196300570194896, -0.11365908, 5.994021, 8.538788, 0.14032698, 0.3725493, 10.425623
1196300579835209, 0.10767702, 4.961518, 8.220542, -0.061337233, -0.31758165, 9.596924
1196300589475521, -0.20338993, 5.6530433, 8.556734, -0.09559631, 0.1796925, 10.255462
1196300599115834, 0.18065812, 5.4460645, 8.218149, 0.22717762, -0.022257328, 9.857896
1196300608756042, -0.21655045, 5.12423, 8.365308, -0.2957523, -0.09952164, 9.807426
1196300618396355, 0.16390835, 5.8624153, 8.29472, 0.38588405, 0.23275518, 10.148602
1196300628036667, -0.16151553, 4.7748775, 8.285149, -0.39011812, -0.3314271, 9.550246
1196300637676875, 0.05383851, 6.108876, 8.467003, 0.35142946, 0.39273357, 10.427544
1196300647317188, -0.062213387, 4.6492543, 8.213364, -0.34397054, -0.45140743, 9.421078
1196300656957500, -0.096909314, 6.053841, 8.465807, 0.20623803, 0.444355, 10.396553
1196300666597709, 0.106480606, 4.9459643, 8.106883, -0.028132439, -0.28050828, 9.492945
1196300676238021, -0.18903299, 5.6889358, 8.471788, -0.04864168, 0.23354912, 10.2036295
1196300685878334, 0.1902294, 5.3706903, 8.175078, 0.21192884, -0.06442118, 9.780764
1196300695518542, -0.2009971, 5.2235317, 8.429914, -0.25528216, -0.074524164, 9.915565
1196300705158855, 0.17467605, 5.8301125, 8.376076, 0.35632706, 0.1780746, 10.199054
1196300714799167, -0.17108682, 4.776074, 8.384451, -0.42764163, -0.37763786, 9.6339855
1196300724439480, 0.0741775, 6.07418, 8.487342, 0.34943986, 0.34732795, 10.425613
1196300734079688, -0.046660043, 4.648058, 8.159525, -0.3063538, -0.43032336, 9.375792
1196300743720000, -0.07537391, 6.0717874, 8.456235, 0.23354363, 0.45265436, 10.398114
1196300753360313, 0.07776674, 4.8622155, 8.160722, -0.10491061, -0.347147, 9.492791
1196300763000521, -0.20697916, 5.76431, 8.562716, -0.0465827, 0.2584126, 10.320915
1196300772640834, 0.14596218, 5.3336015, 8.224132, 0.14718986, -0.08875942, 9.801805
1196300782281146, -0.27158538, 5.2498527, 8.400003, -0.2952628, 0.003927231, 9.904928
1196300791921459, 0.1698904, 5.788238, 8.219346, 0.37549543, 0.22647405, 10.044796
1196300801561667, -0.15792629, 4.833502, 8.26122, -0.33981085, -0.29822898, 9.561958
1196300811201980, 0.106480606, 6.0753765, 8.426325, 0.38125086, 0.36805582, 10.375147
1196300820842292, -0.032303106, 4.6779685, 8.238488, -0.29962683, -0.4604659, 9.458083
1196300830482500, -0.020338992, 6.0933228, 8.539984, 0.26068854, 0.38768053, 10.480555
1196300840122813, 0.062213387, 4.8382874, 8.237292, -0.14608741, -0.39335036, 9.544098
1196300849763125, -0.16869399, 5.8013983, 8.611769, -0.017898321, 0.24210572, 10.382114
1196300859403438, 0.18185452, 5.2402816, 8.249256, 0.12929988, -0.18072033, 9.772127
1196300869043646, -0.22731815, 5.312066, 8.429914, -0.23894143, 0.0073046684, 9.9637375
1196300878683959, 0.16749759, 5.7379885, 8.219346, 0.35276365, 0.18937469, 10.017481
1196300888324271, -0.19262223, 4.8825545, 8.29113, -0.36821532, -0.24025083, 9.613844
1196300897964584, 0.083748795, 6.06102, 8.432307, 0.37367487, 0.34956336, 10.372316
1196300907604792, -0.11485548, 4.664808, 8.286345, -0.4101131, -0.43692446, 9.490946
1196300917245105, -0.031106694, 6.1160545, 8.581859, 0.2743225, 0.38872862, 10.527537
1196300926885417, 0.06460621, 4.784449, 8.190632, -0.17957687, -0.40974665, 9.475307
1196300936525625, -0.15553348, 5.8301125, 8.496913, 0.05443549, 0.30310416, 10.301314
1196300946165938, 0.17228323, 5.2235317, 8.128419, 0.14136076, -0.14304161, 9.661558
1196300955806250, -0.20937198, 5.3982077, 8.425129, -0.17871237, 0.06792855, 10.006534
1196300965446563, 0.17347965, 5.6709895, 8.2660055, 0.31631923, 0.11104417, 10.020214
1196300975086771, -0.22372891, 4.880162, 8.397611, -0.42368364, -0.27836847, 9.702006
1196300984727084, 0.08255238, 5.9952173, 8.482556, 0.31930637, 0.29140735, 10.378649
1196300994367396, -0.11006984, 4.6839504, 8.283952, -0.37979364, -0.44036722, 9.499327
1196301004007709, -0.02871387, 6.117251, 8.477771, 0.27817225, 0.44180226, 10.441342
1196301013647917, 0.038285162, 4.776074, 8.110473, -0.16562176, -0.36514306, 9.403794
1196301023288230, -0.13758731, 5.925825, 8.471788, 0.11286545, 0.36892438, 10.332314
1196301032928542, 0.13280165, 5.186443, 8.142776, 0.09077644, -0.14853287, 9.653564
1196301042568855, -0.2428715, 5.440082, 8.475378, -0.20442057, 0.079321384, 10.071614
1196301052209063, 0.18065812, 5.5944195, 8.258827, 0.28782296, 0.049644947, 9.972616
1196301061849375, -0.19740787, 4.944768, 8.35454, -0.35918975, -0.23387814, 9.700739
1196301071489688, 0.13399807, 6.0119667, 8.37129, 0.40628266, 0.31569624, 10.294438
1196301081130000, -0.10289137, 4.6911287, 8.251649, -0.3730619, -0.41870904, 9.475891
1196301090770209, 0.033499517, 6.135197, 8.5220375, 0.3279457, 0.3939638, 10.488287
1196301100410521, 0.016749758, 4.743771, 8.219346, -0.2294426, -0.43747425, 9.477197
1196301110050834, -0.14476576, 5.948557, 8.548359, 0.08941054, 0.3556013, 10.408953
1196301119691146, 0.12203395, 5.0715876, 8.149954, 0.03053999, -0.23060775, 9.597059
1196301129331355, -0.2416751, 5.4664035, 8.46461, -0.18934369, 0.099111795, 10.076901
1196301138971667, 0.16151553, 5.5740805, 8.159525, 0.29087806, 0.09558129, 9.878288
1196301148611980, -0.23569304, 5.0249276, 8.297112, -0.3363793, -0.13175678, 9.696238
1196301158252292, 0.13280165, 6.005985, 8.396415, 0.39289308, 0.30378318, 10.312256
1196301167892500, -0.12323037, 4.735396, 8.366505, -0.4034779, -0.4184935, 9.596855
1196301177532813, 0.013160525, 6.141179, 8.585447, 0.30590224, 0.38564706, 10.544281
1196301187173125, 0.0035892338, 4.6971107, 8.1942215, -0.26073503, -0.43844628, 9.431219
1196301196813438, -0.11844472, 5.9449677, 8.463413, 0.13889623, 0.36735082, 10.335947
1196301206453646, 0.1268196, 5.032106, 8.103293, 0.024003267, -0.23484492, 9.536552
1196301216093959, -0.21535404, 5.5501523, 8.467003, -0.12755442, 0.14590836, 10.124384
1196301225734271, 0.15792629, 5.4795637, 8.195417, 0.23365808, 0.012857437, 9.857011
1196301235374584, -0.23808585, 5.042874, 8.374879, -0.35516167, -0.14858365, 9.771267
1196301245014896, 0.12801601, 5.925825, 8.390432, 0.3630123, 0.25579524, 10.263233
1196301254655105, -0.15314065, 4.733003, 8.315059, -0.4171815, -0.37314463, 9.552576
1196301264295417, 0.023928227, 6.1184473, 8.465807, 0.34846854, 0.4152224, 10.4313
1196301273935730, -0.02871387, 4.6731825, 8.181061, -0.29450536, -0.4371302, 9.406987
1196301283576042, -0.10887343, 5.992824, 8.555537, 0.14201903, 0.35756516, 10.43911
1196301293216250, 0.0849452, 4.981857, 8.199007, -0.052514553, -0.28640294, 9.589842
1196301302856563, -0.21296121, 5.5896335, 8.465807, -0.10021949, 0.18039346, 10.144785
1196301312496875, 0.17826529, 5.4891353, 8.190632, 0.26392484, 0.024817467, 9.85792
1196301322137188, -0.22971097, 5.1062837, 8.435896, -0.32387424, -0.14271927, 9.85728
1196301331777396, 0.1471586, 5.8767724, 8.361719, 0.36333132, 0.23922753, 10.212111
1196301341417709, -0.148355, 4.753342, 8.299505, -0.3651662, -0.38007212, 9.55093
1196301351058021, 0.05623133, 6.1507506, 8.46461, 0.37358594, 0.4306171, 10.447943
1196301360698334, -0.013160525, 4.694718, 8.170293, -0.24302292, -0.425776, 9.410308
1196301370338646, -0.07178468, 6.017949, 8.5423765, 0.19033003, 0.37825155, 10.440965
1196301379978855, 0.11844472, 4.9256253, 8.1942215, -0.035160065, -0.3448856, 9.555151
1196301389619167, -0.20338993, 5.6590257, 8.530413, -0.0785017, 0.19896579, 10.2366085
1196301399259480, 0.043070808, 5.1696935, 8.195417, 0.0056762695, -0.12902999, 9.6889515
1196301408899792, -0.07298109, 5.42094, 8.376076, -0.029210806, 0.02868247, 9.97742
1196301418540105, -0.05503492, 5.3419766, 8.349754, -0.041526318, -0.022803307, 9.912413
1196301428180313, -0.01794617, 5.426922, 8.331808, 0.036191463, 0.023876667, 9.943287
1196301437820625, -0.041874398, 5.377869, 8.311469, -1.0728836E-4, 0.012096167, 9.899677
1196301447460938, -0.07178468, 5.3790655, 8.319844, -0.026551485, 0.025908947, 9.907469
1196301457101250, -0.050249275, 5.416154, 8.304291, 0.015118122, 0.044739008, 9.914448
1196301466741563, -0.059820566, 5.4221363, 8.325827, 0.004052162, 0.045327663, 9.935817
1196301476381771, -0.06699903, 5.38744, 8.34138, -0.023422956, 0.019346714, 9.930092
1196301486022084, -0.059820566, 5.4029937, 8.348558, -0.010776281, 0.023563623, 9.9445305
1196301495662396, -0.039481573, 5.3994045, 8.311469, 0.016889572, 0.026583672, 9.911339
1196301505302709, -0.034695927, 5.3982077, 8.2253275, 0.048170567, 0.061712027, 9.838279
1196301514943021, -0.043070808, 5.393422, 8.136793, 0.06407833, 0.10484123, 9.761311
1196301524583230, -0.05623133, 5.3336015, 8.106883, 0.034426928, 0.08337808, 9.703809
1196301534223542, -0.029910283, 5.3276196, 8.135597, 0.04732108, 0.05193329, 9.724579
1196301543863855, 0.0011964113, 5.3563333, 8.207381, 0.072307825, 0.027850866, 9.800277
1196301553504167, 0.0741775, 5.3419766, 8.293523, 0.1041615, -0.06047368, 9.864595
1196301563144480, 0.10887343, 5.395815, 8.504091, 0.10141325, -0.1355834, 10.070629
1196301572784792, 0.03708875, 5.4233327, 8.713464, 0.0042893887, -0.1610372, 10.262183
1196301582425000, -0.062213387, 5.4221363, 8.780462, -0.09961176, -0.14124751, 10.318434
1196301592065313, -0.14476576, 5.334798, 8.605786, -0.15476203, -0.06992674, 10.12481
1196301601705625, 0.058624156, 5.505885, 8.516056, 0.119152784, -0.011487961, 10.14037
1196301611345938, -0.039481573, 5.4053864, 8.477771, 0.00514555, -0.0125386715, 10.054461
1196301620986250, -0.05383851, 5.3742795, 8.413164, -0.0050976276, 0.003014803, 9.983341
1196301630626459, -0.032303106, 5.3946185, 8.318648, 0.048460722, 0.048022747, 9.914545
1196301640266771, -0.09092726, 5.363512, 8.355737, -0.02883935, 0.039390326, 9.929324
1196301649907084, -0.09092726, 5.3718867, 8.437093, -0.04813814, 0.008485317, 10.00238
1196301659547396, -0.096909314, 5.375476, 8.551949, -0.086669445, -0.037465572, 10.101092
1196301669187709, -0.08973085, 5.377869, 8.664411, -0.11180544, -0.09096241, 10.197095
1196301678828021, -0.08853444, 5.38744, 8.699107, -0.11801815, -0.09994292, 10.231466
1196301688468230, -0.08733802, 5.383851, 8.615358, -0.0966115, -0.06730604, 10.158939
1196301698108542, -0.111266255, 5.373083, 8.413164, -0.069849014, 0.027371407, 9.982891
1196301707748855, -0.11844472, 5.343173, 8.212168, -0.038117886, 0.09785795, 9.797562
1196301717389167, -0.12562318, 5.2773705, 8.038688, -0.024220705, 0.1348288, 9.616037
1196301727029480, -0.0526421, 5.2510495, 7.954939, 0.045760393, 0.112006426, 9.531144
1196301736669792, 0.025124637, 5.271388, 7.993224, 0.108371735, 0.06538677, 9.57412
1196301746310105, 0.06580263, 5.326423, 8.139186, 0.12606478, 0.013164997, 9.72653
1196301755950313, 0.07776674, 5.3419766, 8.327023, 0.09083104, -0.06644535, 9.892896
1196301765590625, 0.046660043, 5.3982077, 8.478967, 0.047154903, -0.077712774, 10.05124
1196301775230938, -0.014356935, 5.424529, 8.532805, -0.0067129135, -0.049698353, 10.110984
1196301784871250, -0.04426722, 5.393422, 8.439486, -0.018581867, -0.013292074, 10.015757
1196301794511563, -0.047856454, 5.4221363, 8.271988, 0.03753972, 0.08672619, 9.890335
1196301804151875, -0.050249275, 5.4089756, 8.142776, 0.06916618, 0.13481593, 9.774527
1196301813792084, -0.07776674, 5.3826547, 8.105687, 0.04656577, 0.14634061, 9.729216
1196301823432396, -0.09571291, 5.328816, 8.184649, -0.014643908, 0.08065748, 9.766638
1196301833072709, -0.062213387, 5.3144593, 8.331808, -0.025115728, -0.012773037, 9.88259
1196301842713021, -0.031106694, 5.3336015, 8.496913, -0.031739235, -0.08808446, 10.031801
1196301852353334, -0.022731815, 5.312066, 8.5938225, -0.06334281, -0.15174842, 10.1017475
1196301861993646, 0.0059820567, 5.3479586, 8.608179, -0.024327517, -0.14445877, 10.133115
1196301871633959, 0.049052864, 5.38744, 8.632108, 0.02640915, -0.14707613, 10.174374
1196301881274167, 0.01794617, 5.406583, 8.672786, -0.001842022, -0.13076353, 10.219177
1196301890914480, -0.034695927, 5.3982077, 8.699107, -0.057861328, -0.12082291, 10.237108
1196301900554792, -0.05742774, 5.4149575, 8.665607, -0.06267905, -0.080479145, 10.217995
1196301910195105, -0.08973085, 5.4412785, 8.565108, -0.049815178, 0.001938343, 10.147617
1196301919835417, -0.11485548, 5.4484572, 8.398808, -0.025987387, 0.091080666, 10.011487
1196301929475730, -0.09332009, 5.410172, 8.255239, 0.016109943, 0.11778879, 9.869828
1196301939116042, -0.08135597, 5.4029937, 8.149954, 0.04938817, 0.1495192, 9.777315
1196301948756250, -0.08733802, 5.3814583, 8.072187, 0.05080843, 0.1637578, 9.70044
1196301958396563, -0.051445685, 5.3383875, 8.039884, 0.07080102, 0.12803936, 9.649837
1196301968036875, -0.058624156, 5.332405, 8.05783, 0.050219774, 0.11522341, 9.661821
1196301977677188, -0.05503492, 5.3156557, 8.175078, 0.011019468, 0.04825592, 9.751343
1196301987317500, -0.038285162, 5.339584, 8.254042, 0.012355804, 0.01945138, 9.830631
1196301996957813, -0.034695927, 5.3563333, 8.348558, -0.0022349358, -0.011764288, 9.919164
1196302006598125, -0.02632105, 5.3850474, 8.411968, -7.586479E-4, -0.025017262, 9.987994
1196302016238438, -0.01794617, 5.407779, 8.445468, 0.011790037, -0.025544405, 10.028437
1196302025878646, -0.02632105, 5.389833, 8.455039, -0.0038576126, -0.035977364, 10.026834
1196302035518959, -0.009571291, 5.3982077, 8.426325, 0.02474904, -0.02427888, 10.007121
1196302045159271, -0.0023928226, 5.40419, 8.383254, 0.046030283, -0.0048298836, 9.97407
1196302054799584, -0.039481573, 5.377869, 8.306684, 0.02827096, 0.033218384, 9.895561
1196302064439896, -0.043070808, 5.3479586, 8.226524, 0.034734964, 0.050643682, 9.8119545
1196302074080209, -0.03708875, 5.3359947, 8.220542, 0.03705907, 0.04129076, 9.800431
1196302083720521, -0.02751746, 5.3336015, 8.254042, 0.035399914, 0.019250631, 9.827291
1196302093360834, -0.05503492, 5.3443694, 8.310273, 0.005509138, 0.019193888, 9.880565
1196302103001146, -0.058624156, 5.343173, 8.437093, -0.034470797, -0.03761363, 9.986735
1196302112641355, -0.062213387, 5.334798, 8.553144, -0.07275128, -0.09100509, 10.080012
1196302122281667, -0.0526421, 5.383851, 8.599805, -0.052754402, -0.08003354, 10.145743
1196302131921980, -0.047856454, 5.3850474, 8.577073, -0.03985071, -0.06669688, 10.127249
1196302141562292, -0.034695927, 5.3910294, 8.535198, -0.01360321, -0.05082798, 10.09511
1196302151202605, -0.05742774, 5.393422, 8.469396, -0.013950586, -0.006017208, 10.041051
1196302160842917, -0.0634098, 5.3982077, 8.390432, 0.005377054, 0.03523922, 9.977111
1196302170483230, -0.09212367, 5.386244, 8.352147, -0.014330864, 0.058018208, 9.938557
1196302180123542, -0.09810573, 5.346762, 8.321041, -0.02866149, 0.0455513, 9.891124
1196302189763855, -0.09332009, 5.3096733, 8.301898, -0.03669834, 0.024759293, 9.854993
1196302199404063, -0.049052864, 5.3108697, 8.281559, 0.00980401, 0.009775162, 9.83828
1196302209044375, -0.022731815, 5.3682976, 8.327023, 0.045027256, 0.016052246, 9.907379
1196302218684688, -0.021535404, 5.375476, 8.446664, 0.017674446, -0.03371358, 10.012037
1196302228325000, -0.03708875, 5.3718867, 8.538788, -0.020076513, -0.06714201, 10.087842
1196302237965313, -0.0741775, 5.3336015, 8.555537, -0.07092881, -0.08363414, 10.081568
1196302247605625, -0.07537391, 5.355137, 8.457432, -0.036781788, -0.021149397, 10.01047
1196302257245938, -0.07298109, 5.3766723, 8.233703, 0.036975622, 0.096018076, 9.833474
1196302266886250, -0.05623133, 5.343173, 8.105687, 0.067836285, 0.11816096, 9.707537
1196302276526563, -0.032303106, 5.352744, 8.070991, 0.10074425, 0.12940407, 9.683332
1196302286166875, 0.0071784677, 5.359923, 8.122437, 0.120782614, 0.08897591, 9.73038
1196302295807084, -0.010767702, 5.365905, 8.268398, 0.06824446, 0.034083605, 9.856655
1196302305447396, -0.039481573, 5.3623157, 8.391629, 0.00689435, -0.008458376, 9.958679
1196302315087709, -0.08853444, 5.3563333, 8.471788, -0.059744596, -0.020570993, 10.023241
1196302324728021, -0.1052842, 5.3443694, 8.526823, -0.092460155, -0.040362358, 10.063293
1196302334368334, -0.08973085, 5.3407803, 8.575876, -0.09241724, -0.07270551, 10.102665
1196302344008646, -0.086141616, 5.3443694, 8.535198, -0.074368, -0.0513494, 10.07031
1196302353648959, -0.08853444, 5.3276196, 8.487342, -0.0703218, -0.040150404, 10.020967
1196302363289271, -0.050249275, 5.3647084, 8.467003, -0.013700485, -0.024497509, 10.023572
1196302372929584, -0.022731815, 5.3970113, 8.422736, 0.037611723, 0.0043592453, 10.003463
