timestamp_acc,device_acc_x,device_acc_y,device_acc_z,earth_acc_x,earth_acc_y,earth_acc_z
1123993887749734, 0.66999036, 3.5198421, 9.352347, -0.020637095, -0.032667875, 10.015142
1123993897389213, 0.7190432, 3.5569308, 9.41815, -0.05663085, -0.06244278, 10.0927305
1123993907028797, 0.7405786, 3.562913, 9.396614, -0.07146913, -0.08387971, 10.076061
1123993916668380, 0.7501499, 3.5365918, 9.342776, -0.084768474, -0.082163095, 10.017172
1123993926307963, 0.7704889, 3.5246277, 9.292527, -0.10376519, -0.09749198, 9.967319
1123993935947443, 0.7812566, 3.5234313, 9.245867, -0.11010146, -0.11650944, 9.923976
1123993945587026, 0.7070791, 3.5114672, 9.238688, -0.04671675, -0.07998037, 9.908338
1123993955226609, 0.59940207, 3.4839497, 9.27817, 0.03811252, -7.491112E-4, 9.928756
1123993964866088, 0.5300102, 3.4480574, 9.361918, 0.08053261, 0.08410239, 9.990093
1123993974505672, 0.49651068, 3.4337006, 9.442079, 0.09467709, 0.13001204, 10.058023
1123993984145255, 0.4869394, 3.4301112, 9.48156, 0.09858173, 0.15057683, 10.093085
1123993993784734, 0.5084748, 3.4360933, 9.454042, 0.07821566, 0.11871004, 10.07095
1123994003424318, 0.60059845, 3.4863427, 9.367901, 0.017451167, 0.008024454, 10.013617
1123994013063901, 0.6879365, 3.5318062, 9.29492, -0.03962463, -0.08976388, 9.966585
1123994022703380, 0.7082755, 3.5437703, 9.226724, -0.04887241, -0.13164043, 9.908214
1123994032342963, 0.62452674, 3.4983068, 9.209974, 0.011379063, -0.064585686, 9.87155
1123994041982547, 0.5383851, 3.4540396, 9.287741, 0.0652166, 0.034187794, 9.923556
1123994051622026, 0.5132605, 3.4301112, 9.375079, 0.07120365, 0.09477663, 9.995358
1123994061261609, 0.51206404, 3.4396825, 9.433703, 0.069273174, 0.104382515, 10.053492
1123994070901193, 0.56470615, 3.487539, 9.419347, 0.039868593, 0.034018755, 10.059979
1123994080540672, 0.6305088, 3.5401812, 9.409775, -0.0010308027, -0.042378902, 10.073355
1123994090180255, 0.69152576, 3.528217, 9.3308115, -0.055778205, -0.08197379, 9.999037
1123994099819838, 0.68075806, 3.522235, 9.24467, -0.04134047, -0.10091424, 9.915725
1123994109459318, 0.65084773, 3.4995031, 9.206385, -0.019521534, -0.08284593, 9.870177
1123994119098901, 0.5886344, 3.434897, 9.23151, 0.009186447, 0.0062863827, 9.867404
1123994128738484, 0.5706882, 3.438486, 9.317652, 0.019780695, 0.039806366, 9.948142
1123994138377963, 0.6017949, 3.4839497, 9.383454, 0.0024963617, 0.0070021152, 10.027424
1123994148017547, 0.62931234, 3.507878, 9.407382, -0.015541732, -0.015990973, 10.0598
1123994157657130, 0.5910272, 3.4719856, 9.430114, 0.0026538968, 0.035073042, 10.066272
1123994167296713, 0.552742, 3.4325042, 9.44806, 0.020104408, 0.08775997, 10.067043
1123994176936193, 0.5694918, 3.4325042, 9.425328, 0.006087959, 0.07284975, 10.046783
1123994186575776, 0.5455636, 3.4217365, 9.375079, 0.027683258, 0.0743227, 9.994585
1123994196215359, 0.567099, 3.4217365, 9.262616, 0.01735586, 0.02741909, 9.890647
1123994205854838, 0.60777694, 3.4576287, 9.190832, -0.0028662086, -0.04440713, 9.838394
1123994215494422, 0.6329016, 3.5234313, 9.157332, 0.0016688108, -0.12194991, 9.8314295
1123994225134005, 0.634098, 3.5174494, 9.188439, -0.00549978, -0.10673857, 9.858526
1123994234773484, 0.6197411, 3.4839497, 9.200403, -0.0061258078, -0.06838155, 9.857216
1123994244413068, 0.5886344, 3.481557, 9.263813, 0.016949713, -0.034924746, 9.913853
1123994254052651, 0.55513483, 3.4695928, 9.373882, 0.034722805, 0.025565386, 10.010698
1123994263692130, 0.56829536, 3.4660037, 9.525827, 0.010350049, 0.07428479, 10.152435
1123994273331713, 0.55752766, 3.4672, 9.594023, 0.01616919, 0.09906769, 10.216042
1123994282971297, 0.52283174, 3.4337006, 9.559326, 0.03813547, 0.12747455, 10.16989
1123994292610776, 0.50129634, 3.414558, 9.461221, 0.057027936, 0.11791086, 10.070155
1123994302250359, 0.48215377, 3.4337006, 9.306884, 0.09403926, 0.055758715, 9.931209
1123994311889943, 0.47976094, 3.4624143, 9.199206, 0.11084998, -0.003790617, 9.840305
1123994321529526, 0.4941179, 3.5006995, 9.145369, 0.11624712, -0.060415506, 9.804064
1123994331169005, 0.4761717, 3.5234313, 9.209974, 0.13434768, -0.04902911, 9.871397
1123994340808588, 0.4331009, 3.5198421, 9.286545, 0.16398937, -3.5715103E-4, 9.93931
1123994350448172, 0.39840496, 3.493521, 9.376275, 0.17830193, 0.06647849, 10.012081
1123994360087651, 0.4211368, 3.4911282, 9.473185, 0.14662814, 0.09517956, 10.103269
1123994369727234, 0.5312066, 3.5294135, 9.434899, 0.06321114, 0.008102894, 10.087232
1123994379366818, 0.65682983, 3.5473595, 9.314062, -0.03406173, -0.093290806, 9.987846
1123994389006297, 0.7752745, 3.5473595, 9.235099, -0.13370413, -0.16171622, 9.92108
1123994398645880, 0.85064846, 3.5353954, 9.176475, -0.20134073, -0.20229769, 9.86655
1123994408285463, 0.8578269, 3.487539, 9.206385, -0.22201318, -0.1443088, 9.878573
1123994417924943, 0.79441714, 3.4121652, 9.311669, -0.19747382, -0.016273737, 9.946953
1123994427564526, 0.7645068, 3.3834512, 9.403793, -0.18852949, 0.052965164, 10.0212345
1123994437204109, 0.7645068, 3.3583267, 9.440882, -0.19721901, 0.08677268, 10.047222
1123994446843588, 0.7465607, 3.324827, 9.416953, -0.1885699, 0.11252093, 10.012124
1123994456483172, 0.7298109, 3.3236306, 9.412168, -0.17081761, 0.11603308, 10.006271
1123994466122755, 0.74895346, 3.379862, 9.412168, -0.16490513, 0.05787897, 10.027102
1123994475762234, 0.78723866, 3.438486, 9.341579, -0.1700995, -0.03339696, 9.983887
1123994485401818, 0.80757767, 3.501896, 9.243474, -0.15666878, -0.13062572, 9.915425
1123994495041401, 0.75972116, 3.5365918, 9.203992, -0.09536284, -0.15667677, 9.887591
1123994504680880, 0.69272214, 3.5617166, 9.24826, -0.02652651, -0.13612199, 9.933618
1123994514320463, 0.5706882, 3.5413775, 9.267402, 0.07541269, -0.06472182, 9.936895
1123994523960047, 0.46779683, 3.5246277, 9.270991, 0.16340142, -0.009524345, 9.928059
1123994533599526, 0.38404804, 3.4923246, 9.3104725, 0.21643841, 0.059253454, 9.948788
1123994543239109, 0.38165522, 3.5066817, 9.359526, 0.22010517, 0.06463766, 9.999528
1123994552878693, 0.39840496, 3.546163, 9.402596, 0.2116158, 0.03596592, 10.054688
1123994562518172, 0.43429732, 3.5413775, 9.440882, 0.17015791, 0.03695488, 10.091081
1123994572157755, 0.45822555, 3.5581272, 9.432507, 0.15229076, 0.01076889, 10.090547
1123994581797338, 0.4354937, 3.51386, 9.396614, 0.1535613, 0.047538996, 10.040289
1123994591436818, 0.37208393, 3.4791641, 9.312865, 0.20511377, 0.07431364, 9.9461
1123994601076401, 0.38763726, 3.4719856, 9.250652, 0.18884444, 0.057589293, 9.88638
1123994610715984, 0.3792624, 3.4396825, 9.238688, 0.18330103, 0.08543396, 9.863455
1123994620355463, 0.40917268, 3.4444683, 9.209974, 0.15901935, 0.060741186, 9.840042
1123994629995047, 0.4977071, 3.4707892, 9.236296, 0.08625114, 0.01134944, 9.879053
1123994639634630, 0.64247286, 3.5306098, 9.332008, -0.030668318, -0.061734676, 9.997979
1123994649274109, 0.72502524, 3.5712879, 9.298509, -0.088038266, -0.14023256, 9.985723
1123994658913693, 0.73100734, 3.5581272, 9.305687, -0.09864056, -0.12645006, 9.988231
1123994668553276, 0.74177504, 3.528217, 9.329616, -0.119552076, -0.0941174, 10.000855
1123994678192755, 0.74536425, 3.507878, 9.343972, -0.12692606, -0.067818165, 10.00749
1123994687832338, 0.7501499, 3.4923246, 9.341579, -0.13661301, -0.05812478, 10.000106
1123994697471922, 0.7585248, 3.507878, 9.353543, -0.1365664, -0.07035136, 10.017272
1123994707111401, 0.7465607, 3.4923246, 9.375079, -0.12881291, -0.045250177, 10.031308
1123994716750984, 0.73459655, 3.4803605, 9.372686, -0.122320116, -0.03115058, 10.024163
1123994726390568, 0.72502524, 3.4432719, 9.361918, -0.1259988, 6.303787E-4, 10.000571
1123994736030047, 0.6891329, 3.438486, 9.292527, -0.08874601, -0.005645275, 9.93183
1123994745669630, 0.62452674, 3.426522, 9.229117, -0.028477728, 0.007140875, 9.864425
1123994755309213, 0.58983076, 3.3954153, 9.142975, -0.0017803907, 0.017343998, 9.770897
1123994764948693, 0.5515456, 3.3894334, 9.174082, 0.026790202, 0.04471183, 9.795587
1123994774588276, 0.5491528, 3.4205399, 9.349955, 0.026426196, 0.07934785, 9.970774
1123994784227859, 0.5599205, 3.4408789, 9.476774, 0.014195204, 0.09748721, 10.097162
1123994793867338, 0.55034924, 3.4337006, 9.554541, 0.014295816, 0.13005948, 10.166876
1123994803506922, 0.5096712, 3.4193435, 9.54138, 0.04765016, 0.14917278, 10.14717
1123994813146401, 0.49172506, 3.4289148, 9.444471, 0.07468605, 0.11504769, 10.058751
1123994822785984, 0.4953143, 3.4025939, 9.376275, 0.06680387, 0.11245704, 9.9860115
1123994832425568, 0.51086766, 3.4025939, 9.276974, 0.05874306, 0.07453728, 9.8940325
1123994842065047, 0.5383851, 3.4420755, 9.196814, 0.05419588, 0.004025221, 9.834438
1123994851704630, 0.6029913, 3.5150564, 9.135797, 0.02649635, -0.10394716, 9.806656
1123994861344213, 0.63888365, 3.5641093, 9.145369, 0.011803448, -0.15158248, 9.834922
1123994870983693, 0.6891329, 3.5808592, 9.236296, -0.035079896, -0.15370965, 9.928833
1123994880623276, 0.69152576, 3.6191442, 9.297313, -0.026487768, -0.16420174, 9.999439
1123994890262859, 0.6831509, 3.5964124, 9.332008, -0.026448011, -0.12398243, 10.023531
1123994899902338, 0.6233303, 3.5688949, 9.333204, 0.018815994, -0.07485509, 10.011408
1123994909541922, 0.5599205, 3.5114672, 9.32124, 0.056705415, -0.0046052933, 9.97628
1123994919181401, 0.49172506, 3.4660037, 9.373882, 0.09799224, 0.07865262, 10.005441
1123994928820984, 0.51445687, 3.5940197, 9.461221, 0.11813456, -0.010565996, 10.133227
1123994938460568, 0.39481574, 3.2135608, 9.397811, 0.08855349, 0.34086108, 9.933663
1123994948100047, 0.73100734, 3.888337, 9.546165, 0.01790291, -0.3145554, 10.328772
1123994957739630, 0.6017949, 2.9108686, 9.186047, -0.19944817, 0.4534042, 9.642272
1123994967379213, 0.8386843, 4.174279, 9.534202, 0.022131622, -0.6009588, 10.424364
1123994977018693, 0.5886344, 2.7672994, 8.941978, -0.21883821, 0.5036459, 9.362792
1123994986658276, 0.715454, 4.130012, 9.348758, 0.14032757, -0.5740862, 10.228337
1123994996297755, 0.63888365, 2.993421, 8.903693, -0.18180579, 0.27555895, 9.409331
1123995005937338, 0.6113662, 3.8404803, 9.300901, 0.12894231, -0.30329347, 10.075775
1123995015576922, 0.67477596, 3.4576287, 9.241081, -0.06541103, -0.023842335, 9.889552
1123995025216401, 0.5192425, 3.3619158, 9.38824, 0.032359958, 0.16531825, 9.984126
1123995034855984, 0.76689965, 3.9373896, 9.584451, -0.0027928352, -0.3543179, 10.383993
1123995044495568, 0.54436713, 2.9443684, 9.257831, -0.1379683, 0.46827674, 9.717754
1123995054135047, 0.7752745, 4.2317066, 9.682557, 0.084350765, -0.5886419, 10.578595
1123995063774630, 0.5706882, 2.7948167, 9.110672, -0.20443022, 0.53972673, 9.529319
1123995073414109, 0.6664011, 4.1240296, 9.51147, 0.15749586, -0.5044584, 10.374992
1123995083053693, 0.4869394, 2.8642087, 9.017352, -0.09307873, 0.46971846, 9.4617195
1123995092693276, 0.47856453, 3.751946, 9.387043, 0.20661455, -0.15683007, 10.117085
1123995102332755, 0.587438, 3.2757742, 9.194421, -0.0536294, 0.13836432, 9.777073
1123995111972338, 0.4319045, 3.2769706, 9.282955, 0.079722285, 0.22551036, 9.850945
1123995121611818, 0.61854464, 3.769892, 9.442079, 0.07688421, -0.21497202, 10.183095
1123995131251401, 0.35533416, 2.824727, 9.269794, -0.02369827, 0.63323736, 9.676411
1123995140890984, 0.5778667, 4.0761733, 9.678967, 0.21330458, -0.3911128, 10.508715
1123995150530463, 0.40677986, 2.7098715, 9.142975, -0.09605801, 0.6725118, 9.520576
1123995160170047, 0.64606214, 4.2006, 9.598808, 0.19780195, -0.5431826, 10.481669
1123995169809526, 0.567099, 2.9467611, 9.099904, -0.14815885, 0.38635015, 9.572986
1123995179449109, 0.62811595, 3.9278183, 9.474381, 0.12623149, -0.34018636, 10.269107
1123995189088693, 0.72741807, 3.3810585, 9.131011, -0.1377573, -0.020502567, 9.763025
1123995198728172, 0.6412765, 3.4923246, 9.138189, -0.013781905, -0.08026409, 9.80344
1123995208367755, 0.8279166, 3.8739798, 9.260223, -0.056067526, -0.435915, 10.062392
1123995218007234, 0.57427746, 2.9886355, 9.116654, -0.1344639, 0.38018298, 9.6027355
1123995227646818, 0.79800636, 4.119244, 9.590433, 0.0507468, -0.517817, 10.455175
1123995237286401, 0.58624154, 2.757728, 9.141779, -0.23719156, 0.581074, 9.546043
1123995246925880, 0.7692925, 4.21735, 9.631111, 0.09975141, -0.5706692, 10.526182
1123995256565463, 0.5838487, 2.865405, 9.160921, -0.18960464, 0.48747945, 9.6021
1123995266204943, 0.60059845, 3.912265, 9.556933, 0.15809822, -0.27792907, 10.3392105
1123995275844526, 0.6879365, 3.278167, 9.190832, -0.13175511, 0.106901646, 9.780707
1123995285484005, 0.5706882, 3.4851463, 9.281759, 0.04275745, 0.0086865425, 9.930817
1123995295123588, 0.69272214, 3.760321, 9.263813, 0.032864273, -0.28224945, 10.017852
1123995304763172, 0.44745782, 2.961118, 9.080762, -0.022093058, 0.43350387, 9.551978
1123995314402651, 0.65324056, 4.0833516, 9.516255, 0.1667707, -0.46260285, 10.364254
1123995324042234, 0.45104706, 2.7625136, 9.084352, -0.099271595, 0.60695577, 9.485891
1123995333681713, 0.6556334, 4.2257247, 9.597611, 0.22130269, -0.55866957, 10.489981
1123995343321297, 0.44985065, 2.8606195, 9.089137, -0.064377844, 0.5133414, 9.525244
1123995352960880, 0.48215377, 3.9684963, 9.548559, 0.2804798, -0.28011036, 10.344047
1123995362600359, 0.52283174, 3.2303107, 9.256635, -0.012055337, 0.22587109, 9.815415
1123995372239943, 0.4438686, 3.5234313, 9.413364, 0.154356, 0.06481719, 10.059572
1123995381879422, 0.60059845, 3.6729827, 9.424132, 0.067117214, -0.12071395, 10.131472
1123995391519005, 0.43070808, 3.0125637, 9.176475, -0.0091151595, 0.4241972, 9.658608
1123995401158484, 0.74536425, 4.078566, 9.445667, 0.09051162, -0.50996256, 10.302555
1123995410798068, 0.573081, 2.786442, 8.975478, -0.20955163, 0.50344586, 9.39971
1123995420437547, 0.81954175, 4.214957, 9.469596, 0.075075746, -0.6410532, 10.377583
1123995430077130, 0.7190432, 2.8701909, 9.0029955, -0.3089797, 0.38789272, 9.463774
1123995439716713, 0.8709874, 4.089334, 9.469596, -0.018383801, -0.551476, 10.33683
1123995449356193, 0.87936234, 3.2650065, 9.194421, -0.31484175, 0.05439496, 9.791264
1123995458995776, 0.73100734, 3.5856447, 9.449257, -0.07568234, -0.07241607, 10.132558
1123995468635255, 0.7728817, 3.611966, 9.431311, -0.09489989, -0.12013435, 10.127676
1123995478274838, 0.47258246, 3.0161529, 9.302098, -0.039507627, 0.4619, 9.779296
1123995487914318, 0.6364908, 3.9960139, 9.597611, 0.16656953, -0.33269334, 10.4090805
1123995497553901, 0.43429732, 2.7792635, 9.113065, -0.084365726, 0.6156218, 9.5170765
1123995507193380, 0.70229346, 4.2006, 9.549755, 0.18785483, -0.54875326, 10.440291
1123995516832963, 0.573081, 2.8115666, 9.0029955, -0.18785936, 0.48687053, 9.4347725
1123995526472547, 0.6855437, 4.078566, 9.383454, 0.16632211, -0.49598908, 10.241106
1123995536112026, 0.64247286, 3.1405797, 9.035298, -0.13144183, 0.19855309, 9.58415
1123995545751609, 0.55034924, 3.6394832, 9.311669, 0.124792874, -0.0937264, 10.011572
1123995555391088, 0.6795616, 3.621537, 9.275777, 0.0021151304, -0.14680195, 9.97977
1123995565030672, 0.47018966, 3.150151, 9.251849, 0.012325048, 0.3276677, 9.77925
1123995574670151, 0.6723832, 4.028317, 9.611969, 0.13334167, -0.37728214, 10.435961
1123995584309734, 0.37686956, 2.8163524, 9.220742, -0.027007163, 0.63132524, 9.627911
1123995593949213, 0.62093747, 4.2017965, 9.6275215, 0.23748869, -0.5046139, 10.508035
1123995603588797, 0.4833502, 2.7637103, 9.053245, -0.12899423, 0.5827353, 9.459214
1123995613228276, 0.6305088, 4.0737805, 9.515059, 0.17992389, -0.4410882, 10.3587
1123995622867859, 0.64247286, 3.0819557, 9.142975, -0.16198403, 0.28240252, 9.664328
1123995632507338, 0.6161518, 3.6849468, 9.35474, 0.071742654, -0.15701246, 10.071735
1123995642146922, 0.75254273, 3.554538, 9.227921, -0.093678534, -0.13943672, 9.916016
1123995651786401, 0.5515456, 3.1860433, 9.211171, -0.042963386, 0.2495699, 9.758925
1123995661425984, 0.8003992, 3.9864426, 9.538987, 6.7192316E-4, -0.41642284, 10.361044
1123995671065568, 0.5395815, 2.8462625, 9.243474, -0.16693151, 0.5571809, 9.669325
1123995680705047, 0.70348984, 4.194618, 9.6993065, 0.16017711, -0.5013609, 10.577772
1123995690344630, 0.48933223, 2.7038896, 9.111869, -0.171668, 0.6412592, 9.493997
1123995699984109, 0.64008003, 4.0642095, 9.486345, 0.18800265, -0.438298, 10.329123
1123995709623693, 0.6257231, 2.9874392, 9.062816, -0.17663878, 0.33129764, 9.555626
1123995719263172, 0.72741807, 3.7423747, 9.306884, 0.0045247674, -0.2622037, 10.054047
1123995728902755, 0.930808, 3.5796626, 9.072387, -0.2275356, -0.27864885, 9.7907715
1123995738542234, 0.78723866, 3.3750763, 9.103494, -0.17346805, -0.035444498, 9.739259
1123995748181818, 0.9559326, 4.065406, 9.394221, -0.08552569, -0.59198284, 10.263283
1123995757821297, 0.65682983, 2.9575288, 9.120243, -0.2125898, 0.381428, 9.600342
1123995767460880, 0.80159557, 4.240082, 9.662218, 0.10629392, -0.5924437, 10.564895
1123995777100359, 0.465404, 2.7338, 9.233903, -0.12566185, 0.6773937, 9.616682
1123995786739943, 0.53599226, 4.06062, 9.780663, 0.26670617, -0.3046744, 10.595911
1123995796379422, 0.42592242, 2.914458, 9.314062, -0.024686038, 0.55869555, 9.752665
1123995806019005, 0.37686956, 3.6993039, 9.565309, 0.28592396, -0.014951706, 10.258658
1123995815658484, 0.4749753, 3.3200414, 9.241081, 0.075908124, 0.16431189, 9.829197
1123995825298068, 0.40797627, 3.2147572, 9.0544405, 0.10588801, 0.21515536, 9.613871
1123995834937547, 0.7082755, 3.912265, 9.178867, 0.08369255, -0.4579966, 9.992112
1123995844577130, 0.51565325, 2.9503503, 8.919247, -0.08528876, 0.35597563, 9.4015665
1123995854216609, 0.7465607, 4.2711883, 9.458828, 0.16034985, -0.6858907, 10.38141
1123995863856193, 0.5096712, 2.853441, 9.072387, -0.12509018, 0.4872477, 9.51089
1123995873495672, 0.64008003, 4.2352962, 9.698111, 0.22113931, -0.5235884, 10.5866785
1123995883135255, 0.5288138, 2.9850461, 9.318848, -0.11455107, 0.45759392, 9.788184
1123995892774734, 0.46779683, 3.8129628, 9.647861, 0.22522402, -0.12717104, 10.381321
1123995902414318, 0.56470615, 3.3260236, 9.367901, -0.02344811, 0.16022062, 9.955536
1123995912053797, 0.48933223, 3.306881, 9.317652, 0.040057838, 0.1909492, 9.897245
1123995921693380, 0.7573284, 3.8297126, 9.300901, -0.0058906674, -0.36677623, 10.080299
1123995931332859, 0.56829536, 2.9539394, 8.986245, -0.14116907, 0.346658, 9.468961
1123995940972443, 0.8147561, 4.2041893, 9.437292, 0.07230574, -0.66397953, 10.341927
1123995950611922, 0.55752766, 2.778067, 9.008977, -0.20024216, 0.5183022, 9.427694
1123995960251505, 0.6855437, 4.1898327, 9.553345, 0.17805684, -0.5503099, 10.438223
1123995969890984, 0.53599226, 2.9503503, 9.12144, -0.12493169, 0.41384315, 9.591959
1123995979530568, 0.526421, 3.8703907, 9.524631, 0.19966054, -0.24253559, 10.289651
1123995989170047, 0.59700924, 3.347559, 9.266206, -0.041969955, 0.08996582, 9.869917
1123995998809630, 0.48215377, 3.4289148, 9.329616, 0.08331108, 0.08089495, 9.9507885
1123996008449109, 0.64845496, 3.7830527, 9.37149, 0.058597386, -0.27484488, 10.123135
1123996018088693, 0.3684947, 2.8510482, 9.175279, -0.019914508, 0.5669601, 9.598342
1123996027728172, 0.5838487, 4.022335, 9.657433, 0.17940825, -0.35536742, 10.47032
1123996037367755, 0.39960137, 2.664408, 9.128618, -0.111542225, 0.69704413, 9.491685
1123996047007234, 0.6257231, 4.1204405, 9.54138, 0.18591863, -0.49857688, 10.398286
1123996056646818, 0.573081, 2.8426733, 9.036494, -0.20318806, 0.43374872, 9.478293
1123996066286297, 0.654437, 3.9565322, 9.516255, 0.10317159, -0.38938856, 10.318882
1123996075925880, 0.6723832, 3.2949169, 9.296116, -0.14424789, 0.09730339, 9.884133
1123996085565359, 0.5084748, 3.4360933, 9.377472, 0.052300155, 0.06771755, 9.999748
1123996095204943, 0.65922266, 3.7208393, 9.409775, 0.015568674, -0.22340107, 10.137699
1123996104844422, 0.424726, 2.9395826, 9.239884, -0.051374137, 0.47905684, 9.693547
1123996114484005, 0.6580262, 4.058227, 9.628718, 0.1278367, -0.44450927, 10.459469
1123996124123484, 0.485743, 2.705086, 9.175279, -0.1945194, 0.6256809, 9.555619
1123996133763068, 0.74895346, 4.1587257, 9.626326, 0.08578372, -0.5567081, 10.497847
1123996143402547, 0.6269195, 2.824727, 9.018549, -0.26034373, 0.4153211, 9.458651
1123996153042130, 0.6305088, 3.9194436, 9.424132, 0.1219362, -0.3735931, 10.218581
1123996162681609, 0.62811595, 3.1645079, 9.141779, -0.1398583, 0.16932392, 9.691881
1123996172321193, 0.5371887, 3.4767714, 9.323633, 0.045303404, 0.005066633, 9.965168
1123996181960672, 0.6939186, 3.7184465, 9.304491, -0.0049180984, -0.2737007, 10.040267
1123996191600255, 0.5096712, 3.050849, 9.190832, -0.08025521, 0.32921505, 9.69144
1123996201239734, 0.77407813, 4.1144586, 9.62154, 0.04450023, -0.53402233, 10.479258
1123996210879213, 0.4989035, 2.8055844, 9.200403, -0.16347438, 0.54286075, 9.614896
1123996220518797, 0.65682983, 4.21735, 9.708878, 0.18861586, -0.5452266, 10.589945
1123996230158380, 0.4319045, 2.7900312, 9.192028, -0.10907638, 0.57636404, 9.597921
1123996239797859, 0.4881358, 3.940979, 9.592826, 0.24299008, -0.28423357, 10.375552
1123996249437338, 0.41156548, 3.0783663, 9.220742, 0.013484657, 0.3482561, 9.723494
1123996259076922, 0.33379877, 3.458825, 9.363115, 0.21505141, 0.10931587, 9.984219
1123996268716401, 0.5706882, 3.5880375, 9.2793665, 0.050839722, -0.12644386, 9.964327
1123996278355984, 0.4211368, 3.0604203, 9.066405, 0.0012344718, 0.3130467, 9.573152
1123996287995463, 0.70588267, 4.072584, 9.332008, 0.102749705, -0.57811785, 10.189496
1123996297635047, 0.5515456, 2.841477, 8.976674, -0.1892758, 0.41676617, 9.420689
1123996307274526, 0.82911307, 4.2568316, 9.492328, 0.042420685, -0.7181792, 10.411281
1123996316914109, 0.66400826, 2.8582265, 9.085547, -0.28902584, 0.41187215, 9.534377
1123996326553588, 0.7393822, 4.0869412, 9.669396, 0.053403556, -0.47397923, 10.512825
1123996336193172, 0.6472585, 3.1310084, 9.369097, -0.19784123, 0.27318406, 9.893854
1123996345832651, 0.47856453, 3.562913, 9.610772, 0.10339153, 0.044034243, 10.260492
1123996355472234, 0.5623133, 3.534199, 9.4636135, 0.027200103, -0.012496948, 10.1176
1123996365111713, 0.41156548, 3.0999017, 9.189635, 0.025072455, 0.32458043, 9.701661
1123996374751297, 0.7322037, 4.042674, 9.316455, 0.071025014, -0.5619867, 10.166356
1123996384390776, 0.5694918, 2.8606195, 8.920443, -0.19349611, 0.37533903, 9.375685
1123996394030359, 0.8063812, 4.314259, 9.424132, 0.09925908, -0.7818637, 10.366109
1123996403669838, 0.5599205, 2.8307092, 9.01137, -0.2109986, 0.43257022, 9.449845
1123996413309422, 0.51206404, 3.9828532, 9.5868435, 0.2244814, -0.3268721, 10.38632
1123996422948901, 0.34337005, 2.92044, 9.297313, -0.004275799, 0.5417373, 9.73619
1123996432588484, 0.24526432, 3.4827533, 9.662218, 0.2740425, 0.21900725, 10.267673
1123996442227963, 0.40079778, 3.347559, 9.540184, 0.08334559, 0.22330308, 10.115587
1123996451867443, 0.30987054, 2.9958138, 9.3200445, 0.057985306, 0.48318052, 9.782502
1123996461507026, 0.72023964, 3.9254255, 9.410972, 0.010313749, -0.4406476, 10.212729
1123996471146505, 0.5814559, 2.861816, 9.0029955, -0.21580654, 0.38614178, 9.454433
1123996480786088, 0.8219346, 4.2915273, 9.495916, 0.024950385, -0.7615092, 10.425195
1123996490425568, 0.6149554, 2.8677979, 9.004191, -0.23954898, 0.384516, 9.459
1123996500065151, 0.67836523, 4.214957, 9.6071825, 0.14980274, -0.60415244, 10.4945965
1123996509704630, 0.5240282, 3.0867412, 9.282955, -0.09626335, 0.32525063, 9.790853
1123996519344213, 0.3924229, 3.7160535, 9.598808, 0.23077059, -0.060446978, 10.2977295
1123996528983693, 0.5072784, 3.458825, 9.385847, 0.04228878, 0.042522907, 10.015554
1123996538623276, 0.3924229, 3.1645079, 9.212367, 0.048456192, 0.28015375, 9.744485
1123996548262755, 0.6939186, 3.8847475, 9.327223, 0.03527844, -0.41709518, 10.119025
1123996557902338, 0.54317075, 2.8390841, 8.971889, -0.19409847, 0.41593194, 9.414858
1123996567541818, 0.82911307, 4.2352962, 9.488738, 0.044069946, -0.71189666, 10.399643
1123996577181401, 0.6041877, 2.774478, 9.062816, -0.2828802, 0.48855472, 9.480437
1123996586820880, 0.6305088, 4.101298, 9.644272, 0.15677565, -0.46727204, 10.48748
1123996596460463, 0.45104706, 2.9180472, 9.267402, -0.10218048, 0.49246883, 9.713405
1123996606099943, 0.3912265, 3.6681972, 9.652647, 0.20940548, 0.007003784, 10.3314295
1123996615739526, 0.526421, 3.3499517, 9.406186, -0.012912095, 0.13199282, 9.997902
1123996625379005, 0.4354937, 3.2183464, 9.288938, 0.02608794, 0.23829412, 9.837394
1123996635018588, 0.7429714, 3.8775692, 9.397811, -0.02445364, -0.40785456, 10.185258
1123996644658068, 0.53599226, 2.882155, 9.05803, -0.17084569, 0.41646934, 9.509964
1123996654297651, 0.7645068, 4.211368, 9.5665045, 0.057611883, -0.6414962, 10.460558
1123996663937130, 0.47736812, 2.7493532, 9.053245, -0.15674257, 0.547302, 9.456426
1123996673576713, 0.55393845, 4.141976, 9.512667, 0.24546361, -0.52343464, 10.373978
1123996683216193, 0.465404, 2.9300113, 9.080762, -0.08387905, 0.41666627, 9.543647
1123996692855776, 0.5312066, 3.8321054, 9.458828, 0.15604812, -0.2552743, 10.215044
1123996702495255, 0.6376872, 3.4241292, 9.209974, -0.07285452, -0.03708577, 9.84623
1123996712134734, 0.48095736, 3.3607194, 9.305687, 0.037952542, 0.11334419, 9.904912
1123996721774318, 0.67477596, 3.8871403, 9.522238, 0.036095977, -0.33978868, 10.301526
1123996731413797, 0.42592242, 2.9120653, 9.296116, -0.079176664, 0.51327944, 9.737022
1123996741053380, 0.587438, 4.119244, 9.732806, 0.19544673, -0.42762756, 10.574485
1123996750692859, 0.2883351, 2.6225336, 9.205189, -0.054834604, 0.79191184, 9.542861
1123996760332443, 0.46061835, 4.022335, 9.638289, 0.28129947, -0.32597184, 10.445219
1123996769971922, 0.45942193, 2.7816563, 9.035298, -0.13682449, 0.5308678, 9.449061
1123996779611505, 0.6113662, 3.8201413, 9.334401, 0.08699268, -0.31674767, 10.09903
1123996789250984, 0.7752745, 3.3690944, 9.053245, -0.2068817, -0.0863657, 9.688283
1123996798890568, 0.66400826, 3.4456646, 9.186047, -0.080340624, -0.06486106, 9.83292
1123996808530151, 0.8279166, 3.8488553, 9.375079, -0.08828062, -0.4082148, 10.159568
1123996818169630, 0.57188463, 2.9587252, 9.2590275, -0.17754817, 0.42072797, 9.726365
1123996827809109, 0.8171489, 4.2221355, 9.742377, 0.03522086, -0.60131884, 10.632275
1123996837448693, 0.5563313, 2.821138, 9.223135, -0.21423721, 0.5308347, 9.644007
1123996847088172, 0.68075806, 4.182654, 9.657433, 0.15247637, -0.54553175, 10.531056
1123996856727755, 0.526421, 2.8462625, 9.062816, -0.16189665, 0.45670366, 9.501481
1123996866367234, 0.4977071, 3.8620157, 9.403793, 0.21578008, -0.27844667, 10.172026
1123996876006818, 0.5132605, 3.2327034, 9.132208, -0.012373626, 0.1555717, 9.699829
1123996885646297, 0.37208393, 3.3870404, 9.251849, 0.16406184, 0.11825514, 9.857296
1123996895285880, 0.56829536, 3.7160535, 9.426525, 0.09341031, -0.17918181, 10.146456
1123996904925359, 0.36610186, 2.9479575, 9.3308115, -0.008515418, 0.52121925, 9.778382
1123996914564943, 0.6257231, 4.101298, 9.723235, 0.16410905, -0.4394226, 10.560942
1123996924204422, 0.44626144, 2.7493532, 9.221938, -0.1569938, 0.6226337, 9.611968
1123996933844005, 0.67118675, 4.2006, 9.664611, 0.17190975, -0.560215, 10.543096
1123996943483484, 0.55752766, 2.8390841, 9.104691, -0.21396148, 0.45212436, 9.540255
1123996953123068, 0.634098, 3.979264, 9.46481, 0.12868738, -0.4143021, 10.277698
1123996962762547, 0.70348984, 3.2829528, 9.092726, -0.16634196, 0.021005392, 9.691348
1123996972402130, 0.57906306, 3.5557344, 9.276974, 0.034871876, -0.09148669, 9.951443
1123996982041609, 0.6879365, 3.7280176, 9.314062, -5.387664E-4, -0.26859045, 10.052413
1123996991681193, 0.485743, 3.03051, 9.164511, -0.06486261, 0.35704994, 9.657975
1123997001320672, 0.77766734, 4.113262, 9.487542, 0.04838276, -0.56972027, 10.3542385
1123997010960255, 0.5395815, 2.7960134, 9.046066, -0.1930024, 0.49351215, 9.468863
1123997020599734, 0.7262217, 4.202993, 9.571291, 0.11511153, -0.59895253, 10.460888
1123997030239318, 0.5563313, 2.7972097, 9.113065, -0.22256976, 0.51004076, 9.53269
1123997039878901, 0.59342, 3.9637108, 9.632308, 0.15414655, -0.33331585, 10.426392
1123997049518380, 0.5599205, 3.1250265, 9.323633, -0.11824101, 0.28881335, 9.844391
1123997059157963, 0.44745782, 3.481557, 9.513863, 0.10845137, 0.09549308, 10.139733
1123997068797443, 0.56111693, 3.5605202, 9.455238, 0.040335, -0.037395477, 10.118828
1123997078437026, 0.36251262, 2.9874392, 9.276974, 0.0068591833, 0.46865487, 9.7416
1123997088076505, 0.67836523, 4.0091743, 9.491131, 0.11497736, -0.45638752, 10.314733
1123997097716088, 0.44626144, 2.745764, 8.969496, -0.15273541, 0.53500295, 9.374467
1123997107355568, 0.6795616, 4.194618, 9.46481, 0.1948728, -0.612453, 10.355006
1123997116995151, 0.506082, 2.812763, 9.010174, -0.17376983, 0.4604609, 9.439743
1123997126634630, 0.5922236, 4.063013, 9.546165, 0.20772779, -0.45016623, 10.379898
1123997136274213, 0.5623133, 3.1322048, 9.238688, -0.114821315, 0.2447989, 9.76766
1123997145913693, 0.47138608, 3.6167514, 9.47797, 0.13850862, -0.040492535, 10.154515
1123997155553276, 0.64965135, 3.6167514, 9.391829, -0.01591134, -0.1496563, 10.083984
1123997165192755, 0.465404, 3.138187, 9.284152, -0.030153155, 0.29490304, 9.806755
1123997174832338, 0.6831509, 4.0031924, 9.554541, 0.091644585, -0.44033408, 10.37204
1123997184471818, 0.38285163, 2.7601209, 9.107083, -0.078658044, 0.58678484, 9.505436
1123997194111401, 0.58504516, 4.145565, 9.583255, 0.22947228, -0.50584126, 10.443095
1123997203750880, 0.424726, 2.7146573, 9.093923, -0.13756555, 0.60107493, 9.479926
1123997213390463, 0.58983076, 4.019942, 9.622736, 0.1731621, -0.40003228, 10.43623
1123997223030047, 0.587438, 3.0436704, 9.255438, -0.172692, 0.30965805, 9.754303
1123997232669526, 0.52522457, 3.6658044, 9.523434, 0.09925383, -0.09950471, 10.217144
1123997242309109, 0.7070791, 3.5593238, 9.437292, -0.098374605, -0.11330485, 10.109832
1123997251948588, 0.5455636, 3.1680973, 9.306884, -0.086107194, 0.24449134, 9.843035
1123997261588172, 0.7465607, 3.993621, 9.503095, 0.029668212, -0.47140455, 10.324343
1123997271227651, 0.44506502, 2.766103, 9.084352, -0.1305297, 0.5599623, 9.489166
1123997280867234, 0.66400826, 4.1371903, 9.498309, 0.16666788, -0.5547688, 10.365309
1123997290506713, 0.49292147, 2.7409782, 9.008977, -0.17666507, 0.53980994, 9.412492
1123997300146297, 0.6628119, 4.121637, 9.512667, 0.16352355, -0.54281735, 10.372881
1123997309785776, 0.6029913, 3.0496526, 9.141779, -0.17073917, 0.2677107, 9.650663
1123997319425359, 0.55513483, 3.7339997, 9.533006, 0.1082384, -0.15959454, 10.251437
1123997329064838, 0.67118675, 3.5437703, 9.412168, -0.061253548, -0.0839324, 10.079033
1123997338704422, 0.48933223, 3.2530425, 9.382257, -0.005944252, 0.22812366, 9.939637
1123997348344005, 0.66041905, 3.9601214, 9.510274, 0.097323835, -0.40270805, 10.31467
1123997357983484, 0.37686956, 2.8103702, 9.11785, -0.05144596, 0.56443167, 9.531745
1123997367623068, 0.587438, 4.1371903, 9.536594, 0.23188144, -0.51698756, 10.39649
1123997377262547, 0.3385844, 2.684747, 8.99821, -0.052469373, 0.64670134, 9.373864
1123997386902130, 0.48933223, 4.052245, 9.519845, 0.29075736, -0.4107418, 10.34574
1123997396541609, 0.50368917, 2.9192436, 9.096315, -0.13133961, 0.4036188, 9.557117
1123997406181193, 0.58504516, 3.7531424, 9.456435, 0.08689237, -0.2174561, 10.188115
1123997415820672, 0.7501499, 3.4839497, 9.347562, -0.15748739, -0.089263916, 10.002239
1123997425460255, 0.57547385, 3.3176486, 9.364311, -0.060673773, 0.13212085, 9.950235
1123997435099838, 0.762114, 3.8943188, 9.533006, -0.026611626, -0.37671924, 10.319017
1123997444739318, 0.47138608, 2.8462625, 9.233903, -0.1256724, 0.5323, 9.658637
1123997454378901, 0.6472585, 4.132405, 9.694521, 0.15316826, -0.48645806, 10.54606
1123997464018380, 0.41754755, 2.672783, 9.157332, -0.13234484, 0.6738744, 9.523824
1123997473657963, 0.5814559, 4.0797625, 9.549755, 0.20729584, -0.45505404, 10.388953
1123997483297443, 0.5587241, 2.9300113, 9.077172, -0.16560745, 0.37866926, 9.545752
1123997492937026, 0.6269195, 3.8608193, 9.42174, 0.09240329, -0.32870364, 10.195663
1123997502576609, 0.72023964, 3.4444683, 9.211171, -0.12698752, -0.08389139, 9.85929
1123997512216088, 0.5515456, 3.3810585, 9.29492, -0.0039184093, 0.06996322, 9.905877
1123997521855672, 0.73579293, 3.8931224, 9.497113, 0.0063198805, -0.36897635, 10.283811
1123997531495151, 0.46181476, 2.9300113, 9.233903, -0.08356959, 0.47114158, 9.686809
1123997541134734, 0.6795616, 4.1443686, 9.610772, 0.14389354, -0.5279386, 10.474021
1123997550774213, 0.45224348, 2.6799614, 9.128618, -0.1584053, 0.65128493, 9.501006
1123997560413797, 0.6436693, 4.1240296, 9.614362, 0.16240722, -0.48803806, 10.468684
1123997570053380, 0.5455636, 2.8510482, 9.126225, -0.18304724, 0.47448778, 9.563236
1123997579692859, 0.5204389, 3.7663028, 9.512667, 0.15587312, -0.17677593, 10.24164
1123997589332443, 0.567099, 3.2614172, 9.26142, -0.055676043, 0.15826988, 9.83383
1123997598971922, 0.4546363, 3.3750763, 9.336794, 0.08241218, 0.12680745, 9.937339
1123997608611505, 0.7369894, 3.8356948, 9.457631, -0.0136078, -0.33745313, 10.226849
1123997618250984, 0.5491528, 3.0317063, 9.192028, -0.12261301, 0.33891988, 9.687944
1123997627890568, 0.8578269, 4.28076, 9.525827, 0.03251344, -0.7421944, 10.452284
1123997637530151, 0.62811595, 2.8761728, 9.078369, -0.24664205, 0.4079101, 9.531867
1123997647169630, 0.73818576, 4.24726, 9.583255, 0.13735205, -0.6430967, 10.487635
1123997656809213, 0.5814559, 2.9120653, 9.042477, -0.17695451, 0.37897396, 9.508401
1123997666448693, 0.5240282, 3.9421754, 9.431311, 0.22281724, -0.34331918, 10.22729
1123997676088276, 0.55752766, 3.257828, 9.1669035, -0.041627944, 0.13318372, 9.743559
1123997685727859, 0.46779683, 3.4085758, 9.268599, 0.08574164, 0.07635188, 9.885897
1123997695367338, 0.7046863, 3.749553, 9.369097, -0.013679385, -0.27573586, 10.112343
1123997705006922, 0.47018966, 2.9958138, 9.243474, -0.073640406, 0.4139862, 9.719105
1123997714646401, 0.6759724, 4.082155, 9.639486, 0.11660129, -0.45856, 10.47935
1123997724285984, 0.37208393, 2.652444, 9.250652, -0.10585308, 0.74348235, 9.601277
1123997733925568, 0.51086766, 4.078566, 9.816555, 0.25398922, -0.3319614, 10.634178
1123997743565047, 0.3589234, 2.7146573, 9.273384, -0.08038843, 0.70223475, 9.643353
1123997753204630, 0.4941179, 3.8536408, 9.580862, 0.19837373, -0.2218628, 10.334362
1123997762844109, 0.64606214, 3.2135608, 9.162118, -0.14869642, 0.115740776, 9.728993
1123997772483693, 0.6053841, 3.5449667, 9.21476, 0.0037748814, -0.1312871, 9.890795
1123997782123276, 0.7501499, 3.7567315, 9.169296, -0.046517015, -0.38558745, 9.929799
1123997791762755, 0.5204389, 3.0257242, 9.036494, -0.095440626, 0.2866156, 9.539017
1123997801402338, 0.7405786, 4.1180477, 9.54497, 0.06959677, -0.5654423, 10.406182
1123997811041922, 0.45104706, 2.7816563, 9.255438, -0.13187659, 0.5965407, 9.655617
1123997820681401, 0.61734825, 4.15394, 9.796216, 0.17702454, -0.4562409, 10.647192
1123997830320984, 0.43788654, 2.7421749, 9.24467, -0.13745463, 0.6256373, 9.631452
1123997839960463, 0.55393845, 3.940979, 9.633504, 0.16840184, -0.3222196, 10.416832
1123997849600047, 0.56470615, 3.1441689, 9.266206, -0.11691445, 0.23740053, 9.797817
1123997859239630, 0.48933223, 3.5186458, 9.399008, 0.08415425, -0.0148460865, 10.047604
1123997868879109, 0.6520442, 3.6382868, 9.342776, -0.018007219, -0.19790173, 10.04541
1123997878518693, 0.44865423, 3.07717, 9.213564, -0.03200358, 0.3179469, 9.718946
1123997888158276, 0.62811595, 4.042674, 9.552148, 0.1415239, -0.46653605, 10.379961
1123997897797755, 0.3481557, 2.7230322, 9.098708, -0.06751847, 0.6187959, 9.483414
1123997907437338, 0.5455636, 4.1024942, 9.623933, 0.2339043, -0.46295595, 10.463228
1123997917076818, 0.43429732, 3.2159536, 9.254242, 0.027810752, 0.21319366, 9.804374
1123997926716401, 0.552742, 3.5389848, 9.339187, 0.028171599, -0.07705784, 10.002182
1123997936355984, 0.5587241, 3.4600215, 9.292527, -0.004621148, -0.027167797, 9.931477
1123997945995463, 0.57906306, 3.5330026, 9.272188, 0.0064507723, -0.10454965, 9.938808
1123997955635047, 0.5886344, 3.5353954, 9.276974, -0.0034597516, -0.10959935, 9.944633
1123997965274630, 0.56590253, 3.5712879, 9.348758, 0.025891185, -0.106610775, 10.023053
1123997974914109, 0.50129634, 3.5353954, 9.399008, 0.06692737, -0.033284187, 10.054157
1123997984553693, 0.40558344, 3.4492538, 9.399008, 0.12179124, 0.07792425, 10.019096
1123997994193276, 0.38763726, 3.4396825, 9.410972, 0.13285357, 0.09685993, 10.026018
1123998003832755, 0.40558344, 3.4205399, 9.428918, 0.10610592, 0.1124835, 10.037191
1123998013472338, 0.43669012, 3.3990045, 9.444471, 0.06679338, 0.12451577, 10.045994
1123998023111818, 0.46899325, 3.3786657, 9.396614, 0.032735944, 0.1140995, 9.995879
1123998032751401, 0.5204389, 3.3966117, 9.318848, 0.0010528564, 0.055104494, 9.9320545
1123998042390984, 0.5371887, 3.3918262, 9.274581, -0.00787884, 0.043076277, 9.889845
1123998052030463, 0.5694918, 3.418147, 9.29492, -0.029482424, 0.015152931, 9.919804
1123998061670047, 0.6089734, 3.4743786, 9.403793, -0.04796028, -0.0047078133, 10.043463
1123998071309630, 0.61016977, 3.4648073, 9.285348, -0.036742747, -0.03078413, 9.929379
1123998080949109, 0.59940207, 3.4672, 9.383454, -0.026415586, 0.012524605, 10.021433
1123998090588693, 0.66161543, 3.493521, 9.339187, -0.06989986, -0.049113274, 9.992775
1123998100228276, 0.64008003, 3.487539, 9.334401, -0.049010277, -0.03366089, 9.984997
1123998109867755, 0.6687939, 3.4947174, 9.4229355, -0.07561922, -0.015120983, 10.072045
1123998119507338, 0.75613195, 3.5377884, 9.300901, -0.122154295, -0.11865735, 9.978249
1123998129146922, 0.7812566, 3.6023946, 9.361918, -0.12029362, -0.15666175, 10.059528
1123998138786401, 0.74416786, 3.5856447, 9.273384, -0.08188212, -0.15300632, 9.9687605
1123998148425984, 0.67477596, 3.5365918, 9.243474, -0.032185555, -0.09032583, 9.919448
1123998158065568, 0.66161543, 3.5198421, 9.296116, -0.028758943, -0.049839973, 9.962
1123998167705047, 0.65324056, 3.5270207, 9.340384, -0.020243645, -0.036274195, 10.005382
1123998177344630, 0.60777694, 3.5066817, 9.437292, 0.006363809, 0.03212428, 10.086012
1123998186984213, 0.56350976, 3.481557, 9.466006, 0.034464777, 0.080905676, 10.101303
1123998196623693, 0.6269195, 3.51386, 9.466006, -0.013493538, 0.026145935, 10.116552
1123998206263276, 0.6735796, 3.5150564, 9.407382, -0.051073253, -0.011991739, 10.06506
1123998215902859, 0.65324056, 3.4923246, 9.304491, -0.032464802, -0.020062923, 9.959677
1123998225542338, 0.63888365, 3.4672, 9.225528, -0.022233963, -0.016873121, 9.876196
1123998235181922, 0.5922236, 3.4995031, 9.170493, 0.038067818, -0.041795254, 9.833208
1123998244821505, 0.573081, 3.493521, 9.229117, 0.04885286, -0.0066683292, 9.884701
1123998254461088, 0.5419743, 3.4851463, 9.432507, 0.05742079, 0.084665775, 10.06984
1123998264100568, 0.5395815, 3.507878, 9.584451, 0.055828333, 0.12050462, 10.21961
1123998273740151, 0.57547385, 3.5042887, 9.554541, 0.025395572, 0.099243164, 10.192643
1123998283379734, 0.58265233, 3.5150564, 9.431311, 0.032950997, 0.045606136, 10.081744
1123998293019213, 0.60059845, 3.4995031, 9.334401, 0.018538415, 0.02038765, 9.986868
1123998302658797, 0.5886344, 3.475575, 9.2590275, 0.026043892, 0.028320312, 9.907283
1123998312298380, 0.5766702, 3.4887354, 9.086744, 0.056740165, -0.0337739, 9.750301
1123998321937859, 0.5886344, 3.5042887, 8.973084, 0.061191082, -0.091515064, 9.650423
1123998331577443, 0.57906306, 3.5353954, 9.060423, 0.07585788, -0.07900691, 9.742361
1123998341217026, 0.5778667, 3.546163, 9.232706, 0.06863743, -0.02336979, 9.906907
1123998350856609, 0.5778667, 3.5473595, 9.439685, 0.054115057, 0.050835133, 10.100487
1123998360496088, 0.6017949, 3.583252, 9.543773, 0.04071164, 0.048632145, 10.211828
1123998370135672, 0.6652047, 3.5976088, 9.562916, -0.01048547, 0.019758701, 10.238855
1123998379775255, 0.7573284, 3.6323047, 9.504292, -0.069256306, -0.05751729, 10.202483
1123998389414734, 0.81595254, 3.6753755, 9.369097, -0.09401566, -0.16465354, 10.095453
1123998399054318, 0.81834537, 3.6849468, 9.176475, -0.07177591, -0.23458481, 9.919477
1123998408693901, 0.7788638, 3.6598222, 9.046066, -0.032269895, -0.2302723, 9.786633
1123998418333380, 0.6436693, 3.5988052, 9.062816, 0.0649721, -0.118040085, 9.771498
1123998427972963, 0.44865423, 3.5114672, 9.138189, 0.20238733, 0.06842899, 9.797579
1123998437612547, 0.2955136, 3.4205399, 9.208778, 0.29800403, 0.23357844, 9.820675
1123998447252130, 0.26081768, 3.397808, 9.341579, 0.306893, 0.3130679, 9.934086
1123998456891609, 0.3493521, 3.4313076, 9.420543, 0.231965, 0.27268267, 10.025685
1123998466531193, 0.5383851, 3.5174494, 9.402596, 0.09547621, 0.11278367, 10.052328
1123998476170776, 0.74536425, 3.6263227, 9.347562, -0.04088676, -0.0826633, 10.053565
1123998485810255, 0.9379865, 3.7244284, 9.290133, -0.17214221, -0.26371622, 10.047814
1123998495449838, 0.9906286, 3.7411783, 9.251849, -0.20131797, -0.3022077, 10.022106
1123998505089422, 0.97866446, 3.7016966, 9.267402, -0.20265037, -0.2550156, 10.021925
1123998514729005, 0.88414794, 3.6191442, 9.334401, -0.15561235, -0.12365341, 10.048456
1123998524368484, 0.7848458, 3.5030923, 9.38465, -0.11325598, 0.035657406, 10.047148
1123998534008068, 0.72023964, 3.4396825, 9.396614, -0.07906389, 0.11932993, 10.031252
1123998543647651, 0.71425754, 3.3870404, 9.379865, -0.091033995, 0.15678048, 9.99656
1123998553287234, 0.721436, 3.3607194, 9.302098, -0.10046512, 0.14715695, 9.915251
1123998562926713, 0.7716853, 3.3966117, 9.2590275, -0.12832999, 0.08112168, 9.891361
1123998572566297, 0.8327023, 3.463611, 9.242277, -0.15251869, -0.0064411163, 9.903858
1123998582205880, 0.9164511, 3.5066817, 9.274581, -0.2108342, -0.06432295, 9.955198
1123998591845359, 0.9236295, 3.5246277, 9.35833, -0.21367544, -0.05101037, 10.040226
1123998601484943, 0.8961121, 3.562913, 9.413364, -0.1737299, -0.05316925, 10.103256
1123998611124526, 0.86141616, 3.5413775, 9.442079, -0.1496008, -0.01173687, 10.119967
1123998620764109, 0.90089774, 3.566502, 9.387043, -0.16987169, -0.069019556, 10.080402
1123998630403588, 0.88295156, 3.6083765, 9.250652, -0.12660354, -0.14678288, 9.966793
1123998640043172, 0.8003992, 3.5784662, 9.135797, -0.05417818, -0.13107705, 9.843206
1123998649682755, 0.6843473, 3.5162528, 9.135797, 0.027882814, -0.03417945, 9.812908
1123998659322338, 0.5383851, 3.4695928, 9.226724, 0.13661939, 0.09319854, 9.870816
1123998668961818, 0.46301118, 3.446861, 9.35474, 0.18670118, 0.184582, 9.976846
1123998678601401, 0.50368917, 3.463611, 9.444471, 0.14467329, 0.17837214, 10.069539
1123998688240984, 0.56829536, 3.5126636, 9.457631, 0.10159165, 0.11214757, 10.103745
1123998697880568, 0.6089734, 3.5234313, 9.482756, 0.06496036, 0.09494758, 10.133846
1123998707520047, 0.715454, 3.5449667, 9.457631, -0.022078693, 0.025763273, 10.125428
1123998717159630, 0.8063812, 3.6000016, 9.389436, -0.07742077, -0.08128023, 10.087574
1123998726799213, 0.762114, 3.6335013, 9.309277, -0.0135471225, -0.11357093, 10.021611
1123998736438797, 0.66999036, 3.5988052, 9.249456, 0.061239064, -0.06447697, 9.947102
1123998746078276, 0.5288138, 3.5437703, 9.241081, 0.16898298, 0.035700798, 9.909879
1123998755717859, 0.4223332, 3.4851463, 9.215957, 0.24332893, 0.12268543, 9.858206
1123998765357443, 0.4127619, 3.4432719, 9.19801, 0.23279703, 0.15885305, 9.826008
1123998774997026, 0.41994038, 3.4576287, 9.251849, 0.22433329, 0.16344166, 9.881864
1123998784636505, 0.44745782, 3.493521, 9.304491, 0.21032381, 0.13905406, 9.945596
1123998794276088, 0.5419743, 3.5030923, 9.396614, 0.12142712, 0.1253531, 10.041479
1123998803915672, 0.64247286, 3.5557344, 9.432507, 0.04879898, 0.055569172, 10.100631
1123998813555255, 0.73579293, 3.6083765, 9.426525, -0.008533001, -0.022035122, 10.120305
1123998823194734, 0.7680961, 3.6430724, 9.312865, -0.010720968, -0.09909701, 10.029033
1123998832834318, 0.7908279, 3.6693935, 9.245867, -0.015150785, -0.15413427, 9.977572
1123998842473901, 0.81834537, 3.702893, 9.18126, -0.019741476, -0.20991516, 9.9313755
1123998852113484, 0.8458628, 3.714857, 9.105886, -0.03149593, -0.25147247, 9.867553
1123998861752963, 0.8446664, 3.6837504, 9.158528, -0.042242646, -0.19401526, 9.90569
1123998871392547, 0.80757767, 3.644269, 9.236296, -0.03096348, -0.118103266, 9.961282
1123998881032130, 0.81236327, 3.5772698, 9.29133, -0.065277815, -0.039734364, 9.988982
