timestamp_acc,device_acc_x,device_acc_y,device_acc_z,earth_acc_x,earth_acc_y,earth_acc_z
1124106753565418, -0.6664011, 3.9170506, 8.752945, 0.22516656, 0.016878843, 9.609912
1124106763204949, -0.42711884, 3.9361932, 8.85823, -0.008780599, -0.061161995, 9.7026005
1124106772844481, -0.25842485, 3.999603, 8.876176, -0.14211643, -0.17612791, 9.73647
1124106782484012, -0.23090738, 3.9888353, 8.79123, -0.15480626, -0.20754719, 9.653124
1124106792123543, -0.21296121, 3.9744785, 8.800801, -0.16140676, -0.20571923, 9.655444
1124106801763127, -0.21535404, 3.9565322, 8.82473, -0.16226292, -0.1865542, 9.670328
1124106811402658, -0.25842485, 3.9074793, 8.993423, -0.16969717, -0.068894625, 9.807309
1124106821042189, -0.37088752, 3.8620157, 9.32124, -0.13413179, 0.12009692, 10.09484
1124106830681720, -0.49172506, 3.845266, 9.664611, -0.087162375, 0.2882867, 10.408742
1124106840321252, -0.61016977, 3.8488553, 9.851251, -0.0059480667, 0.3806641, 10.5871725
1124106849960783, -0.66759753, 3.9014974, 9.840483, 0.06509125, 0.32510138, 10.601534
1124106859600314, -0.66041905, 3.8727834, 9.626326, 0.08347523, 0.2666993, 10.393395
1124106869239897, -0.5563313, 3.8009987, 9.387043, 0.0017564297, 0.20748663, 10.140545
1124106878879429, -0.46660042, 3.8129628, 9.221938, -0.050794363, 0.108636856, 9.989302
1124106888518960, -0.50488555, 3.8057845, 9.0544405, 0.013878822, 0.06969881, 9.834468
1124106898158491, -0.5407779, 3.8476589, 8.930014, 0.080326796, 0.004636526, 9.738357
1124106907798022, -0.5347959, 3.8763726, 8.877372, 0.09002507, -0.039035797, 9.70105
1124106917437554, -0.5587241, 3.912265, 9.001799, 0.0991956, -0.014332294, 9.83058
1124106927077085, -0.5599205, 3.9720855, 9.116654, 0.09916425, -0.024343967, 9.959616
1124106936716616, -0.5300102, 3.9924245, 9.230313, 0.0570426, -0.012022972, 10.070535
1124106946356147, -0.51445687, 3.970889, 9.230313, 0.038856387, 0.0051078796, 10.0613
1124106955995731, -0.46779683, 3.9720855, 9.19801, 0.0016289949, -0.024131298, 10.02991
1124106965635262, -0.40797627, 3.9601214, 9.178867, -0.05221057, -0.038072824, 10.004821
1124106975274793, -0.4127619, 3.9601214, 9.153743, -0.039998293, -0.040466785, 9.98202
1124106984914324, -0.40079778, 3.938586, 9.081959, -0.04044032, -0.04050231, 9.907158
1124106994553856, -0.3924229, 3.918247, 9.007781, -0.041299105, -0.052058697, 9.830684
1124107004193387, -0.44027936, 3.9302113, 8.943174, 0.018807769, -0.063129425, 9.778364
1124107013832918, -0.43908295, 3.9194436, 8.96471, 0.01072073, -0.042468548, 9.793823
1124107023472502, -0.40558344, 3.8991046, 8.983852, -0.030890822, -0.026791334, 9.801808
1124107033112033, -0.36729828, 3.932604, 8.992228, -0.057495832, -0.06377578, 9.821052
1124107042751564, -0.35533416, 3.9361932, 9.089137, -0.08542335, -0.03593898, 9.910788
1124107052391095, -0.4977071, 3.9110687, 9.08794, 0.042616963, 0.036846876, 9.906141
1124107062030627, -0.5623133, 3.9421754, 9.165708, 0.10336363, 0.06274247, 9.992624
1124107071670158, -0.54317075, 3.926622, 9.172886, 0.07997501, 0.071050644, 9.9921875
1124107081309689, -0.46899325, 3.9577286, 9.158528, 0.022710323, 0.012969732, 9.9880705
1124107090949220, -0.39840496, 4.01396, 9.201599, -0.03152454, -0.04254341, 10.046751
1124107100588752, -0.4127619, 4.0773697, 9.138189, 0.013014317, -0.11460614, 10.014415
1124107110228335, -0.44745782, 4.078566, 9.062816, 0.059063196, -0.12702823, 9.947358
1124107119867866, -0.43070808, 4.0701914, 8.908479, 0.0686146, -0.17054844, 9.801998
1124107129507397, -0.4103691, 4.0295134, 8.8701935, 0.04470694, -0.15596676, 9.74984
1124107139146929, -0.3912265, 4.007978, 8.878569, 0.02208066, -0.13645625, 9.748171
1124107148786460, -0.41754755, 3.9361932, 8.827123, 0.04247272, -0.081208706, 9.673554
1124107158425991, -0.42951167, 3.8524444, 8.897711, 0.015851378, 0.02086091, 9.705379
1124107168065522, -0.42592242, 3.863212, 8.915657, 0.016976237, 0.014863014, 9.725958
1124107177705054, -0.45822555, 3.8739798, 9.029316, 0.036660433, 0.042941332, 9.835807
1124107187344585, -0.49172506, 3.8823547, 9.085547, 0.061039686, 0.067276716, 9.89209
1124107196984168, -0.49651068, 3.8823547, 9.275777, 0.036225796, 0.11800432, 10.0669775
1124107206623699, -0.55034924, 3.8608193, 9.328419, 0.07101202, 0.17415977, 10.109049
1124107216263231, -0.51445687, 3.8440695, 9.355937, 0.030575633, 0.16767669, 10.126504
1124107225902762, -0.5515456, 3.8213377, 9.439685, 0.044753194, 0.22985959, 10.196062
1124107235542293, -0.5072784, 3.8333018, 9.355937, 0.0186944, 0.15998507, 10.122211
1124107245181824, -0.33020952, 3.8572302, 9.285348, -0.12942243, 0.05502391, 10.059085
1124107254821356, -0.11844472, 3.9349968, 9.016156, -0.26700962, -0.18342972, 9.832821
1124107264460887, -0.08853444, 4.004389, 8.754142, -0.2423414, -0.35954404, 9.617171
1124107274100418, -0.4426722, 4.1072803, 9.754341, -0.045032382, 0.021445513, 10.592942
1124107283740002, -0.65084773, 3.8895333, 9.61795, 0.11790049, 0.2709818, 10.390847
1124107293379533, -0.5599205, 3.7244284, 9.322437, 0.0320822, 0.28003693, 10.050534
1124107303019064, -0.39720857, 3.8691943, 9.176475, -0.06564438, 0.09424758, 9.966089
1124107312658595, -0.20697916, 3.973282, 9.290133, -0.23612702, 0.009861231, 10.103491
1124107322298127, -0.18664017, 4.0642095, 9.485149, -0.26490355, 0.032676935, 10.317434
1124107331937658, -0.45104706, 4.1383867, 8.796016, 0.12578952, -0.19522476, 9.7286005
1124107341577189, -0.30508488, 4.0881376, 8.663215, -0.013476133, -0.15835524, 9.582901
1124107351216720, -0.4103691, 4.082155, 8.449057, 0.12120283, -0.19677877, 9.38965
1124107360856252, -0.4833502, 4.2006, 8.706285, 0.17499983, -0.14420009, 9.676087
1124107370495783, -0.5479564, 4.1371903, 8.914461, 0.16894507, 0.047717094, 9.8414135
1124107380135314, -0.54436713, 4.066602, 9.013762, 0.12531638, 0.14483476, 9.90176
1124107389774897, -0.38883367, 4.098905, 8.962317, -0.006893873, 0.066213846, 9.862602
1124107399414429, -0.36490545, 4.1431723, 8.790034, 0.01708293, -0.045599222, 9.724266
1124107409053960, -0.39481574, 4.078566, 8.565108, 0.05952406, -0.052781343, 9.494489
1124107418693491, -0.35294133, 4.1288157, 8.52802, 0.039223433, -0.12629819, 9.480577
1124107428333022, -0.2847459, 4.1587257, 8.711071, -0.04786551, -0.10606265, 9.656362
1124107437972554, -0.28115666, 4.1144586, 8.880961, -0.09748769, -0.009834528, 9.7913065
1124107447612085, -0.357727, 4.1694937, 9.126225, -0.05282736, 0.055994987, 10.039659
1124107457251616, -0.41515473, 4.206582, 9.455238, -0.045396924, 0.15882087, 10.355767
1124107466891147, -0.4438686, 4.1874394, 9.598808, -0.048262, 0.23038554, 10.479187
1124107476530731, -0.51086766, 4.1491547, 9.479167, 0.024219632, 0.23283911, 10.357427
1124107486170262, -0.4977071, 4.1228333, 9.206385, 0.05457151, 0.14741945, 10.098431
1124107495809793, -0.44147578, 4.139583, 9.012567, 0.040472627, 0.039709568, 9.927446
1124107505449324, -0.41635114, 4.159922, 8.883354, 0.044092655, -0.033352137, 9.817803
1124107515088856, -0.3684947, 4.202993, 8.773284, 0.030131102, -0.124755144, 9.734218
1124107524728387, -0.37806597, 4.1898327, 8.69791, 0.043617368, -0.13028789, 9.66087
1124107534367918, -0.34097722, 4.229314, 8.739784, 0.013060451, -0.1610353, 9.713964
1124107544007449, -0.35653058, 4.2017965, 8.805588, 0.006061554, -0.10367894, 9.762674
1124107553646981, -0.36131623, 4.2017965, 8.885747, -0.003967762, -0.07203174, 9.835494
1124107563286512, -0.32542387, 4.180261, 8.999406, -0.06420982, -0.024475098, 9.927995
1124107572926043, -0.3505485, 4.1443686, 9.09153, -0.0678817, 0.050266027, 9.997374
1124107582565574, -0.36610186, 4.126423, 9.286545, -0.09312272, 0.142802, 10.167215
1124107592205106, -0.40558344, 4.139583, 9.328419, -0.058631778, 0.15844703, 10.212322
1124107601844689, -0.4103691, 4.1288157, 9.286545, -0.052716017, 0.14975953, 10.170067
1124107611484220, -0.4139583, 4.197011, 9.1465645, -0.006989002, 0.04003477, 10.071955
1124107621123752, -0.44147578, 4.197011, 9.001799, 0.041520715, -0.0018429756, 9.941853
1124107630763283, -0.49052864, 4.1491547, 8.868998, 0.09455478, 0.008748293, 9.803378
1124107640402814, -0.56350976, 4.152744, 8.891729, 0.16011095, 0.03956008, 9.828453
1124107650042345, -0.62093747, 4.1347976, 8.940782, 0.19892251, 0.093229294, 9.867695
1124107659681877, -0.5204389, 4.125226, 8.919247, 0.103284, 0.059080124, 9.840079
1124107669321408, -0.44027936, 4.213761, 8.965906, 0.043049335, -0.028360844, 9.916374
1124107678960939, -0.37208393, 4.2257247, 8.943174, -0.013002276, -0.072227, 9.897989
1124107688600470, -0.2644069, 4.1814575, 8.909675, -0.120197296, -0.079319715, 9.844596
1124107698240002, -0.22492532, 4.210171, 8.953942, -0.15725124, -0.09959817, 9.89518
1124107707879585, -0.30388847, 4.1874394, 8.99821, -0.09343135, -0.035401344, 9.928989
1124107717519116, -0.38644084, 4.1850467, 9.012567, -0.014136434, 0.0037558079, 9.94435
1124107727158647, -0.46899325, 4.1587257, 9.0436735, 0.051396966, 0.06503415, 9.964745
1124107736798179, -0.4642076, 4.188636, 9.036494, 0.054656506, 0.035916805, 9.970662
1124107746437710, -0.38644084, 4.213761, 9.081959, -0.019719958, 0.0068113804, 10.019314
1124107756077241, -0.38165522, 4.2257247, 9.046066, -0.01748085, -0.017616272, 9.9916525
1124107765716772, -0.39840496, 4.1874394, 8.958728, 0.00144732, -0.0113425255, 9.897073
1124107775356304, -0.36729828, 4.182654, 8.866604, -0.014626503, -0.05246377, 9.810363
1124107784995835, -0.32542387, 4.162315, 8.906086, -0.06656146, -0.033275366, 9.835834
1124107794635366, -0.33020952, 4.145565, 9.059227, -0.09282327, 0.041852713, 9.967647
1124107804274897, -0.36729828, 4.1814575, 9.090333, -0.049162865, 0.033769608, 10.012497
1124107813914429, -0.5491528, 4.019942, 8.993423, 0.095039845, 0.19491959, 9.863882
1124107823553960, -0.3385844, 4.462614, 9.0029955, 0.014744878, -0.2530756, 10.050833
1124107833193491, -0.6831509, 3.6933217, 8.79123, 0.15994787, 0.44515562, 9.548262
1124107842833022, -0.24765715, 4.800002, 9.000603, 0.020139694, -0.5766399, 10.187212
1124107852472606, -0.66999036, 3.5497525, 8.823533, 0.09882331, 0.5783105, 9.516311
1124107862112137, -0.3062813, 4.843073, 9.049655, 0.072790146, -0.56710887, 10.252733
1124107871751668, -0.51565325, 3.6586258, 8.907282, -0.040554047, 0.46330094, 9.631968
1124107881391199, -0.41874397, 4.5894337, 9.090333, 0.09910631, -0.29946804, 10.186897
1124107891030731, -0.41754755, 4.028317, 9.144172, -0.072971344, 0.19224858, 9.998765
1124107900670262, -0.5204389, 4.101298, 9.113065, 0.051633596, 0.15633988, 10.005615
1124107910309793, -0.1052842, 4.4339004, 9.127422, -0.24113071, -0.27079225, 10.141446
1124107919949324, -0.5587241, 3.7052858, 8.96471, 0.003896594, 0.45250344, 9.705801
1124107929588856, -0.13998012, 4.7425747, 9.157332, -0.12639141, -0.5107331, 10.300076
1124107939228387, -0.6125626, 3.4372897, 8.840283, -0.004693508, 0.6589887, 9.481905
1124107948867918, -0.31345975, 4.7988057, 9.02812, 0.081436396, -0.5386281, 10.214548
1124107958507449, -0.6436693, 3.5796626, 8.811569, 0.07748997, 0.52651143, 9.517816
1124107968146981, -0.51445687, 4.613362, 8.99462, 0.21743083, -0.32466006, 10.114262
1124107977786564, -0.3696911, 4.0007997, 9.000603, -0.09822607, 0.14622188, 9.855095
1124107987426095, -0.46779683, 4.26401, 8.980264, 0.0698961, -0.052505493, 9.951788
1124107997065627, -0.23449662, 4.537988, 9.059227, -0.08472943, -0.33552504, 10.129076
1124108006705158, -0.65084773, 3.81057, 8.897711, 0.12654805, 0.36910963, 9.693352
1124108016344689, -0.22971097, 4.820341, 8.995817, 0.0037913322, -0.60206866, 10.190716
1124108025984220, -0.65084773, 3.5114672, 8.755338, 0.06499922, 0.57191944, 9.438147
1124108035623752, -0.23569304, 4.8729835, 9.110672, -0.0022337437, -0.6018405, 10.317154
1124108045263283, -0.5168497, 3.5928233, 8.991031, -0.08118236, 0.5463166, 9.680345
1124108054902814, -0.3792624, 4.6564326, 9.138189, 0.068721056, -0.34841347, 10.257026
1124108064542345, -0.45702913, 3.9457645, 8.913264, -0.016752243, 0.19461274, 9.756335
1124108074181877, -0.5706882, 4.23051, 8.779266, 0.19353807, -0.053363085, 9.760027
1124108083821408, -0.22971097, 4.3728833, 8.779266, -0.08931804, -0.29397106, 9.805919
1124108093460939, -0.5910272, 3.760321, 8.658429, 0.09251726, 0.31177998, 9.452618
1124108103100470, -0.19381863, 4.772485, 8.980264, -0.047783494, -0.5759022, 10.155066
1124108112740002, -0.64965135, 3.5198421, 8.956335, 0.015746474, 0.64992785, 9.623131
1124108122379533, -0.22372891, 4.8969116, 9.297313, -0.03873825, -0.5451896, 10.4962435
1124108132019064, -0.5706882, 3.5724843, 9.15135, -0.07958007, 0.6375668, 9.819508
1124108141658647, -0.39361933, 4.6767716, 9.169296, 0.08532965, -0.35403633, 10.294198
1124108151298179, -0.4127619, 3.8644085, 8.977871, -0.0963105, 0.26711106, 9.778832
1124108160937710, -0.5276174, 4.2795634, 8.9312105, 0.13606775, -0.067487955, 9.916477
1124108170577241, -0.23928227, 4.351348, 8.916854, -0.11349821, -0.2308476, 9.921473
1124108180216772, -0.54436713, 3.8356948, 8.725428, 0.062206388, 0.24501133, 9.543484
1124108189856304, -0.12203395, 4.752146, 8.94796, -0.10872185, -0.5992768, 10.113991
1124108199495835, -0.6221339, 3.5365918, 8.8701935, 0.02380681, 0.5867586, 9.551441
1124108209135366, -0.2213361, 4.863412, 9.192028, -0.027757645, -0.5643027, 10.386333
1124108218774897, -0.613759, 3.487539, 8.939586, -0.009324908, 0.6492665, 9.593445
1124108228414429, -0.40677986, 4.671986, 9.084352, 0.1136806, -0.382627, 10.215628
1124108238053960, -0.49651068, 3.8297126, 8.98146, -0.025360227, 0.3191836, 9.771251
1124108247693491, -0.58624154, 4.319045, 9.038888, 0.18733585, -0.045797348, 10.033052
1124108257333022, -0.32542387, 4.258028, 9.108279, -0.087781906, -0.061802864, 10.059122
1124108266972554, -0.634098, 3.8237305, 9.008977, 0.09122753, 0.37881613, 9.799635
1124108276612085, -0.18544376, 4.6492543, 9.170493, -0.11977208, -0.4268551, 10.273818
1124108286251616, -0.68075806, 3.5186458, 8.949157, 0.070996046, 0.63313246, 9.619034
1124108295891147, -0.20937198, 4.855037, 9.129815, -0.03134942, -0.6047411, 10.324828
1124108305530731, -0.56350976, 3.4983068, 8.9108715, -0.027355194, 0.5982225, 9.570826
1124108315170262, -0.25962126, 4.773681, 9.056833, 0.009846091, -0.5460191, 10.2266035
1124108324809793, -0.34456646, 3.784249, 8.904889, -0.16241479, 0.27831268, 9.676388
1124108334449324, -0.41635114, 4.365705, 8.88814, 0.06946218, -0.20712996, 9.908785
1124108344088856, -0.22851457, 4.223332, 8.876176, -0.14100015, -0.15545821, 9.830117
1124108353728387, -0.5563313, 3.8931224, 8.7984085, 0.086330175, 0.21172571, 9.634604
1124108363367918, -0.20219351, 4.671986, 9.103494, -0.07564318, -0.46530986, 10.223488
1124108373007449, -0.73100734, 3.5437703, 9.02453, 0.11098707, 0.6528175, 9.700328
1124108382646981, -0.25124636, 4.8693943, 9.3308115, -0.006602049, -0.52576303, 10.514833
1124108392286512, -0.6556334, 3.4779677, 9.097511, 0.012609363, 0.7056606, 9.736156
1124108401926043, -0.37806597, 4.7449675, 9.2075815, 0.096137285, -0.42595315, 10.355991
1124108411565574, -0.52283174, 3.7052858, 9.036494, -0.04506755, 0.44811606, 9.770254
1124108421205106, -0.4546363, 4.4004006, 9.000603, 0.10131502, -0.18688893, 10.026757
1124108430844689, -0.2321038, 4.141976, 8.864211, -0.15648794, -0.09605694, 9.78521
1124108440484220, -0.48095736, 3.9493537, 8.675179, 0.05655837, 0.08927822, 9.543388
1124108450123752, -0.08135597, 4.6301117, 8.900104, -0.15875804, -0.54716706, 10.016577
1124108459763283, -0.59700924, 3.5940197, 8.733803, 0.057748437, 0.4622178, 9.451757
1124108469402814, -0.1591227, 4.82752, 8.955139, -0.03947091, -0.67111397, 10.152479
1124108479042345, -0.6089734, 3.5042887, 8.924032, 0.006608367, 0.60678816, 9.587545
1124108488681877, -0.33499518, 4.7748775, 9.152547, 0.07721591, -0.4832313, 10.317039
1124108498321408, -0.5455636, 3.6681972, 9.040084, -0.019066572, 0.4828112, 9.75925
1124108507960939, -0.4881358, 4.4578285, 9.174082, 0.12546062, -0.15960836, 10.209459
1124108517600470, -0.34217364, 4.1108694, 9.239884, -0.12390447, 0.10575628, 10.117571
1124108527240002, -0.6580262, 3.9541395, 9.138189, 0.14915395, 0.3044622, 9.972952
1124108536879533, -0.32063824, 4.5224347, 9.195618, -0.013098836, -0.2794094, 10.248726
1124108546519064, -0.762114, 3.5401812, 8.958728, 0.14791024, 0.6267626, 9.641462
1124108556158595, -0.30269206, 4.7856455, 9.132208, 0.06316841, -0.53870034, 10.300341
1124108565798127, -0.6987042, 3.4229329, 8.904889, 0.06217265, 0.69087815, 9.540468
1124108575437710, -0.2835495, 4.802395, 8.997013, 0.07836878, -0.61116934, 10.183809
1124108585077241, -0.43429732, 3.629912, 8.751749, -0.095149994, 0.35266614, 9.477583
1124108594716772, -0.317049, 4.5044885, 8.809176, 0.05362177, -0.4104817, 9.890457
1124108604356304, -0.20219351, 4.058227, 8.866604, -0.2013464, -0.039606333, 9.751135
1124108613995835, -0.42831525, 4.06062, 8.88455, 0.011765122, 0.039619923, 9.777813
1124108623635366, -0.101694964, 4.53081, 9.084352, -0.19589198, -0.3980584, 10.142347
1124108633274897, -0.587438, 3.6430724, 8.968299, 0.031559587, 0.4848516, 9.685628
1124108642914429, -0.18664017, 4.8442693, 9.245867, -0.053589106, -0.5881293, 10.423006
1124108652553960, -0.70229346, 3.4660037, 9.040084, 0.076321006, 0.7018461, 9.681482
1124108662193491, -0.33020952, 4.7605205, 9.169296, 0.07233429, -0.5016773, 10.324277
1124108671833022, -0.5168497, 3.5581272, 9.042477, -0.07246745, 0.54944944, 9.715279
1124108681472606, -0.37328035, 4.5044885, 9.178867, 0.04248047, -0.25399256, 10.228148
1124108691112137, -0.31106696, 3.940979, 9.085547, -0.16230965, 0.16997719, 9.905556
1124108700751668, -0.51565325, 4.0187454, 8.906086, 0.082817554, 0.104801655, 9.783494
1124108710391199, -0.18424734, 4.3932223, 9.000603, -0.13265133, -0.29999185, 10.011874
1124108720030731, -0.6029913, 3.6263227, 8.906086, 0.052946925, 0.47046256, 9.623306
1124108729670262, -0.13040884, 4.755735, 9.152547, -0.099488616, -0.5686829, 10.299021
1124108739309793, -0.5838487, 3.426522, 8.940782, -0.015859246, 0.6408398, 9.571238
1124108748949324, -0.15194423, 4.82752, 9.160921, -0.06410003, -0.6193776, 10.337446
1124108758588856, -0.43669012, 3.5509489, 8.922835, -0.11374819, 0.47580123, 9.600918
1124108768228439, -0.36131623, 4.5762734, 8.988638, 0.08930087, -0.40120268, 10.084617
1124108777867970, -0.3804588, 3.9421754, 8.916854, -0.0568825, 0.117144346, 9.755963
1124108787507502, -0.5802595, 4.1467614, 8.977871, 0.17695713, 0.029864311, 9.904661
1124108797147033, -0.2416751, 4.447061, 9.123833, -0.08009243, -0.2849579, 10.148472
1124108806786564, -0.6963114, 3.7076788, 9.0029955, 0.15124094, 0.4612007, 9.749365
1124108816426095, -0.2955136, 4.7138605, 9.170493, 0.037988424, -0.48482323, 10.303847
1124108826065627, -0.74177504, 3.4396825, 8.896515, 0.13127708, 0.6669407, 9.542933
1124108835705158, -0.31345975, 4.7748775, 9.081959, 0.07981646, -0.56908965, 10.249364
1124108845344689, -0.59342, 3.5042887, 8.908479, 0.0031751394, 0.56342673, 9.574744
1124108854984272, -0.4127619, 4.564309, 9.138189, 0.10390842, -0.33452392, 10.216999
1124108864623804, -0.40917268, 3.8775692, 9.120243, -0.09781611, 0.25380874, 9.9150305
1124108874263335, -0.5312066, 4.1515474, 9.097511, 0.104656935, 0.04503274, 10.0134535
1124108883902866, -0.2321038, 4.3262234, 9.171689, -0.14029503, -0.17625475, 10.140966
1124108893542397, -0.6149554, 3.7160535, 9.077172, 0.06056249, 0.4421847, 9.817488
1124108903181929, -0.106480606, 4.698307, 9.205189, -0.15393007, -0.5280707, 10.320774
1124108912821460, -0.56350976, 3.4743786, 8.861818, -0.019925356, 0.56143117, 9.518669
1124108922461043, -0.13280165, 4.8358946, 8.937193, -0.040907145, -0.7356572, 10.135781
1124108932100574, -0.46061835, 3.5066817, 8.669196, -0.07452607, 0.4181671, 9.353264
1124108941740106, -0.29072794, 4.6289153, 8.866604, 0.062048793, -0.51788926, 9.992798
1124108951379637, -0.37208393, 3.8368912, 8.962317, -0.11247563, 0.21697831, 9.753132
1124108961019168, -0.53240305, 4.211368, 9.119047, 0.12576556, 0.00808835, 10.057843
1124108970658699, -0.317049, 4.269992, 9.203992, -0.0733335, -0.08351588, 10.15059
1124108980298231, -0.65922266, 3.7268212, 9.089137, 0.10735464, 0.45565724, 9.834481
1124108989937814, -0.23090738, 4.6301117, 9.285348, -0.062632084, -0.3935206, 10.370642
1124108999577345, -0.6580262, 3.4672, 9.133404, 0.01723814, 0.6875725, 9.767318
1124109009216877, -0.19980069, 4.843073, 9.26142, -0.0244143, -0.60866857, 10.435425
1124109018856408, -0.55034924, 3.4983068, 8.928818, -0.034670472, 0.5433223, 9.590016
1124109028495939, -0.31106696, 4.6600223, 9.008977, 0.06646323, -0.50317144, 10.134922
1124109038135522, -0.37567315, 3.7663028, 8.847462, -0.10543406, 0.23691916, 9.61959
1124109047775054, -0.42711884, 4.267599, 8.872586, 0.091068864, -0.16923022, 9.852954
1124109057414585, -0.19860429, 4.2556353, 8.955139, -0.13793564, -0.20677376, 9.913759
1124109067054116, -0.5886344, 3.8009987, 8.85464, 0.10325992, 0.28424358, 9.649212
1124109076693647, -0.13998012, 4.5918264, 9.055637, -0.1080035, -0.47406268, 10.142613
1124109086333179, -0.65922266, 3.5042887, 8.997013, 0.046439648, 0.613266, 9.658293
1124109095972710, -0.29790643, 4.8239303, 9.265009, 0.06884956, -0.5517242, 10.435053
1124109105612293, -0.6879365, 3.4660037, 9.05803, 0.067367315, 0.6714747, 9.6994295
1124109115251824, -0.38644084, 4.7078786, 9.152547, 0.12750363, -0.46820903, 10.288202
1124109124891356, -0.51206404, 3.7734814, 8.993423, 0.003215909, 0.32765698, 9.760926
1124109134530887, -0.5288138, 4.316652, 8.993423, 0.1704241, -0.14355898, 9.987249
1124109144170418, -0.26679972, 4.173083, 8.993423, -0.11946356, -0.098938465, 9.916825
1124109153810002, -0.56590253, 3.8356948, 9.004191, 0.074246526, 0.2921605, 9.798848
1124109163449533, -0.16869399, 4.5966125, 9.186047, -0.12957251, -0.42340422, 10.263758
1124109173089064, -0.634098, 3.487539, 9.006584, 0.04658699, 0.6188657, 9.659109
1124109182728647, -0.18185452, 4.761717, 9.160921, -0.048597097, -0.57247996, 10.310161
1124109192368179, -0.5599205, 3.3990045, 8.925228, -0.043746233, 0.63138413, 9.545987
1124109202007710, -0.22851457, 4.694718, 9.131011, -0.016792536, -0.51016974, 10.257067
1124109211647241, -0.32662028, 3.6717863, 9.026923, -0.20673847, 0.35324502, 9.741999
1124109221286772, -0.3505485, 4.354937, 9.115458, 0.0050492287, -0.18391013, 10.106736
1124109230926356, -0.25722843, 4.125226, 9.075976, -0.14049196, -0.034471035, 9.971764
1124109240565887, -0.58265233, 3.8823547, 8.986245, 0.106321454, 0.25304317, 9.802523
1124109250205418, -0.20578274, 4.5918264, 9.090333, -0.04545617, -0.44761348, 10.176392
1124109259844949, -0.6939186, 3.5377884, 8.915657, 0.11861682, 0.5596049, 9.599959
1124109269484481, -0.23928227, 4.8119664, 9.115458, 0.049315095, -0.6173434, 10.291759
1124109279124064, -0.60777694, 3.4600215, 8.896515, 0.029746413, 0.59951806, 9.546143
1124109288763595, -0.2416751, 4.749753, 9.041281, 0.041248202, -0.5800843, 10.199271
1124109298403127, -0.44865423, 3.6634114, 8.920443, -0.06417775, 0.3697436, 9.646521
1124109308042710, -0.35294133, 4.4279184, 9.133404, 0.033740163, -0.23115563, 10.153597
1124109317682241, -0.20458634, 4.089334, 9.164511, -0.20537806, 0.014819622, 10.035456
1124109327321772, -0.49651068, 3.8991046, 8.987442, 0.049230337, 0.2140882, 9.806907
1124109336961356, -0.11964113, 4.5020957, 9.084352, -0.15533376, -0.3909955, 10.130727
1124109346600887, -0.59940207, 3.5509489, 8.904889, 0.07091105, 0.5209739, 9.591096
1124109356240418, -0.15792629, 4.776074, 9.119047, -0.051849604, -0.5994563, 10.277685
1124109365879949, -0.5910272, 3.4504502, 8.970692, 0.026834607, 0.62194276, 9.6094055
1124109375519481, -0.29671, 4.786842, 9.150154, 0.07072675, -0.56517506, 10.315173
1124109385159064, -0.53359944, 3.609573, 8.98146, 0.009960771, 0.4771669, 9.68259
1124109394798595, -0.49292147, 4.4374895, 9.038888, 0.18282998, -0.23496294, 10.077061
1124109404438127, -0.3684947, 4.0235314, 9.02812, -0.043572783, 0.074742556, 9.890606
1124109414077710, -0.59700924, 3.9960139, 8.980264, 0.17289424, 0.15104938, 9.844643
1124109423717241, -0.28235307, 4.4662037, 9.052048, -0.012956023, -0.32699037, 10.092531
1124109433356772, -0.73818576, 3.5688949, 8.937193, 0.19929874, 0.55070186, 9.633917
1124109442996356, -0.23449662, 4.796413, 9.213564, -0.0067139864, -0.5774553, 10.373852
1124109452635887, -0.6376872, 3.473182, 9.048459, 0.0570364, 0.6359675, 9.692087
1124109462275418, -0.24526432, 4.796413, 9.229117, -0.0013905764, -0.57024884, 10.388318
1124109471915002, -0.4331009, 3.6000016, 8.99821, -0.09665859, 0.45083857, 9.690344
1124109481554533, -0.2656033, 4.5212383, 9.09153, -0.021771908, -0.3732097, 10.150287
1124109491194064, -0.22372891, 3.9948175, 9.018549, -0.19009554, 0.042844296, 9.864324
1124109500833647, -0.43669012, 3.999603, 8.913264, 0.031234026, 0.07306743, 9.778933
1124109510473179, -0.124426775, 4.3872404, 9.000603, -0.1656326, -0.33218884, 10.006819
1124109520112710, -0.552742, 3.5784662, 8.894122, 0.019021988, 0.47286916, 9.591268
1124109529752293, -0.13519448, 4.7198424, 9.139386, -0.07927668, -0.567925, 10.271065
1124109539391824, -0.61016977, 3.3906298, 8.99462, -0.0128006935, 0.6907904, 9.607004
1124109549031356, -0.23569304, 4.76411, 9.206385, 0.03354764, -0.5381856, 10.354663
1124109558670939, -0.5024927, 3.5557344, 9.05803, -0.06774247, 0.5298462, 9.729251
1124109568310522, -0.3684947, 4.5272202, 9.138189, 0.091777205, -0.32932353, 10.199076
1124109577950054, -0.38763726, 3.9074793, 8.9826565, -0.054202557, 0.15579891, 9.802019
1124109587589585, -0.5168497, 4.0797625, 9.040084, 0.108267665, 0.075696945, 9.930623
1124109597229168, -0.12083755, 4.3992043, 9.144172, -0.18185925, -0.30299234, 10.141923
1124109606868699, -0.57188463, 3.6646078, 9.053245, 0.022779703, 0.45632648, 9.772865
1124109616508231, -0.16630118, 4.7018967, 9.202796, -0.056437373, -0.52717495, 10.322104
1124109626147814, -0.65922266, 3.397808, 9.000603, 0.043622255, 0.698715, 9.617715
1124109635787397, -0.24646074, 4.7748775, 9.178867, 0.054673553, -0.5595231, 10.334205
1124109645426929, -0.52163535, 3.5030923, 8.958728, -0.046871543, 0.5344441, 9.618459
1124109655066460, -0.3912265, 4.5714874, 9.090333, 0.13746738, -0.37366104, 10.174832
1124109664706043, -0.45224348, 3.8703907, 8.941978, 0.0055977106, 0.19203162, 9.752256
1124109674345574, -0.54436713, 4.1647077, 8.941978, 0.17626834, -0.023605824, 9.877675
1124109683985106, -0.2847459, 4.3441696, 9.084352, -0.042652726, -0.21510625, 10.07126
1124109693624689, -0.66999036, 3.696911, 9.052048, 0.14145935, 0.46171665, 9.788892
1124109703264272, -0.22372891, 4.674379, 9.2075815, -0.02691245, -0.47981572, 10.317388
1124109712903804, -0.64965135, 3.4396825, 9.008977, 0.055250287, 0.65312195, 9.642899
1124109722543335, -0.16151553, 4.834698, 9.18485, -0.038356543, -0.63981485, 10.361035
1124109732182918, -0.45702913, 3.5449667, 8.9013, -0.073227644, 0.45555496, 9.581019
1124109741822502, -0.28713873, 4.6169515, 9.02812, 0.04864943, -0.46775532, 10.133335
1124109751462033, -0.37208393, 3.8356948, 8.94796, -0.082535505, 0.2060566, 9.7400055
1124109761101564, -0.52283174, 4.210171, 9.025727, 0.15320885, -0.03628564, 9.971855
1124109770741147, -0.2548356, 4.3034916, 9.06162, -0.080426335, -0.19832706, 10.032553
1124109780380731, -0.6089734, 3.7220356, 9.013762, 0.094968915, 0.40596557, 9.7620945
1124109790020262, -0.16031912, 4.6695933, 9.150154, -0.0822227, -0.51636434, 10.260738
1124109799659793, -0.62093747, 3.438486, 8.949157, 0.03592789, 0.6237993, 9.58675
1124109809299377, -0.12562318, 4.82752, 9.138189, -0.058965802, -0.6713867, 10.313729
1124109818938960, -0.45942193, 3.473182, 8.96471, -0.11915445, 0.54324436, 9.6088915
1124109828578491, -0.29910284, 4.6205406, 9.178867, 0.03125155, -0.41787362, 10.272043
1124109838218022, -0.44506502, 3.7651064, 9.066405, -0.0564847, 0.32718515, 9.821587
1124109847857606, -0.4989035, 4.213761, 9.141779, 0.109817505, -0.007803917, 10.077931
1124109857497189, -0.22971097, 4.214957, 9.108279, -0.13654745, -0.116770506, 10.037287
1124109867136720, -0.58265233, 3.7196429, 9.0544405, 0.06333923, 0.40819, 9.797319
1124109876776252, -0.18664017, 4.5894337, 9.237492, -0.09275699, -0.40317178, 10.3081455
1124109886415835, -0.61016977, 3.4672, 9.096315, -0.004496813, 0.6465037, 9.732355
1124109896055418, -0.16271193, 4.8179483, 9.288938, -0.06145215, -0.5982127, 10.448054
1124109905695002, -0.526421, 3.4791641, 8.980264, -0.048256993, 0.5741091, 9.627819
1124109915334533, -0.317049, 4.6815577, 8.992228, 0.09765947, -0.5295155, 10.12856
1124109924974064, -0.45104706, 3.7483566, 8.8187475, -0.014682531, 0.25815678, 9.589425
1124109934613647, -0.4761717, 4.3202415, 8.9312105, 0.15149689, -0.1892519, 9.929702
1124109944253231, -0.26679972, 4.2161536, 8.941978, -0.0772202, -0.16422963, 9.888032
1124109953892814, -0.6041877, 3.851248, 8.949157, 0.13062644, 0.26989603, 9.756774
1124109963532345, -0.23569304, 4.631308, 9.135797, -0.026637554, -0.45952678, 10.235012
1124109973171877, -0.6867401, 3.507878, 9.038888, 0.0914793, 0.62448835, 9.699483
1124109982811460, -0.20338993, 4.8035913, 9.262616, -0.023674846, -0.5639138, 10.4208145
1124109992451043, -0.63529444, 3.4444683, 9.053245, 0.019563437, 0.6733985, 9.683767
1124110002090627, -0.31585258, 4.686343, 9.245867, 0.047073722, -0.44298363, 10.360945
1124110011730158, -0.39720857, 3.6993039, 9.123833, -0.13538063, 0.39089227, 9.844584
1124110021369689, -0.4235296, 4.348955, 9.177671, 0.06774783, -0.13713002, 10.163614
1124110031009272, -0.24765715, 4.1228333, 9.013762, -0.13375378, -0.060471535, 9.913902
1124110040648856, -0.5623133, 3.8560338, 8.8905325, 0.10811722, 0.2307713, 9.703701
1124110050288439, -0.19740787, 4.5726843, 8.9826565, -0.050381064, -0.47316647, 10.070259
1124110059927970, -0.6771688, 3.5389848, 8.816355, 0.1397314, 0.5227239, 9.508854
1124110069567502, -0.15074782, 4.8263235, 9.02453, -0.02929771, -0.6831491, 10.212282
1124110079207085, -0.55513483, 3.4983068, 8.897711, -0.010676861, 0.55013204, 9.561005
1124110088846668, -0.28115666, 4.7581277, 9.128618, 0.06349957, -0.53968024, 10.283735
1124110098486252, -0.42592242, 3.6873398, 9.017352, -0.09035671, 0.3876493, 9.743311
1124110108125835, -0.37567315, 4.421936, 9.169296, 0.046120882, -0.2055757, 10.184608
1124110117765366, -0.22253251, 4.098905, 9.132208, -0.18312812, 0.0055658817, 10.010705
1124110127404897, -0.51445687, 3.9086757, 9.101101, 0.044620514, 0.25322986, 9.914955
1124110137044481, -0.1698904, 4.490132, 9.1669035, -0.12425864, -0.33703327, 10.202609
1124110146684064, -0.6652047, 3.5246277, 9.06162, 0.08766937, 0.6166849, 9.725763
1124110156323647, -0.22971097, 4.7545385, 9.158528, 0.011021018, -0.55518365, 10.306732
1124110165963231, -0.613759, 3.4085758, 8.873783, 0.04201424, 0.6360464, 9.504357
1124110175602814, -0.26679972, 4.755735, 9.031709, 0.06524539, -0.58166003, 10.193987
1124110185242397, -0.46779683, 3.6382868, 8.919247, -0.043682218, 0.40656018, 9.635441
1124110194881929, -0.36011982, 4.469793, 9.038888, 0.07112813, -0.3015225, 10.085348
1124110204521460, -0.2440679, 4.0761733, 9.004191, -0.14665449, -0.01770711, 9.885768
1124110214161043, -0.56111693, 4.0151563, 8.974281, 0.14172566, 0.12968326, 9.845668
1124110223800627, -0.21655045, 4.476971, 9.044869, -0.060051203, -0.36033058, 10.087933
1124110233440210, -0.6664011, 3.5581272, 8.970692, 0.11698747, 0.5533352, 9.657008
1124110243079793, -0.23449662, 4.7808595, 9.24826, 0.007665634, -0.5340526, 10.399839
1124110252719377, -0.634098, 3.4360933, 9.096315, 0.022252083, 0.6998496, 9.719131
1124110262358960, -0.2213361, 4.772485, 9.243474, -0.010752916, -0.5468893, 10.390777
1124110271998543, -0.45583272, 3.6000016, 9.081959, -0.093155384, 0.49275088, 9.767204
1124110281638074, -0.40797627, 4.5296135, 9.201599, 0.10125351, -0.2822206, 10.259793
1124110291277606, -0.35294133, 4.005585, 9.089137, -0.076354384, 0.10384941, 9.938063
1124110300917189, -0.5563313, 4.037888, 8.96471, 0.14510965, 0.09971213, 9.846273
1124110310556772, -0.2105684, 4.4518466, 8.958728, -0.058735967, -0.3724811, 9.998996
1124110320196356, -0.60658056, 3.6311083, 8.874979, 0.092217445, 0.4429345, 9.597576
1124110329835939, -0.11246266, 4.773681, 9.0747795, -0.08364189, -0.6307471, 10.234621
1124110339475522, -0.5204389, 3.434897, 8.891729, -0.042375803, 0.593658, 9.527748
1124110349115106, -0.14596218, 4.786842, 9.055637, -0.040323853, -0.6461649, 10.22353
1124110358754689, -0.4642076, 3.5700915, 8.902496, -0.05604613, 0.46173263, 9.5916195
1124110368394272, -0.34217364, 4.5332026, 9.176475, 0.05128777, -0.3067441, 10.236112
1124110378033856, -0.30149564, 3.9673, 9.199206, -0.15015125, 0.17194915, 10.020164
1124110387673387, -0.5347959, 4.1347976, 9.224331, 0.11365843, 0.112727165, 10.121523
1124110397312918, -0.2548356, 4.4255257, 9.15494, -0.058890343, -0.25865746, 10.168224
1124110406952502, -0.6520442, 3.6406796, 9.001799, 0.12586832, 0.4896226, 9.718874
1124110416592085, -0.15314065, 4.7018967, 9.150154, -0.07892454, -0.52710843, 10.274849
1124110426231668, -0.5802595, 3.406183, 8.898908, 0.008291125, 0.63005304, 9.5253525
1124110435871252, -0.20338993, 4.7808595, 9.068798, -0.0020213127, -0.61871505, 10.23515
1124110445510835, -0.5407779, 3.5006995, 8.88814, -0.0010046959, 0.5400379, 9.552733
1124110455150418, -0.38165522, 4.56072, 9.025727, 0.112973094, -0.3790481, 10.112029
1124110464790002, -0.37447673, 3.8787656, 8.985049, -0.06653392, 0.18748736, 9.791659
1124110474429585, -0.5024927, 4.150351, 9.067601, 0.1131345, 0.029031277, 9.984271
1124110484069168, -0.19501504, 4.3561335, 9.138189, -0.1332339, -0.22579646, 10.121843
1124110493708752, -0.55752766, 3.7136607, 9.158528, 0.034300685, 0.4577129, 9.887875
1124110503348335, -0.09810573, 4.735396, 9.288938, -0.14658117, -0.5238085, 10.412593
1124110512987918, -0.5455636, 3.4516466, 9.05803, -0.03291118, 0.6366949, 9.687774
1124110522627502, -0.18424734, 4.7952166, 9.138189, -0.020474434, -0.6116724, 10.303398
1124110532267085, -0.5455636, 3.4899318, 8.879765, 0.009523988, 0.5479245, 9.540816
1124110541906668, -0.37447673, 4.627719, 9.0029955, 0.13797915, -0.44632745, 10.118879
1124110551546252, -0.40797627, 3.8524444, 8.904889, -0.025792122, 0.19929647, 9.708988
1124110561185835, -0.51565325, 4.2257247, 8.9826565, 0.16269076, -0.06557369, 9.938813
1124110570825418, -0.25124636, 4.3118663, 9.044869, -0.07908225, -0.19815183, 10.020952
1124110580465002, -0.6053841, 3.7770705, 9.01137, 0.11821675, 0.36438942, 9.782167
1124110590104585, -0.1698904, 4.6695933, 9.232706, -0.09142792, -0.46023273, 10.337149
1124110599744168, -0.61016977, 3.4660037, 9.098708, 0.030200005, 0.6644585, 9.732912
1124110609383752, -0.18424734, 4.802395, 9.232706, -0.034905076, -0.58097005, 10.392356
1124110619023335, -0.5694918, 3.455236, 8.959925, 0.008745313, 0.6061685, 9.600819
1124110628662918, -0.3182454, 4.645665, 9.083155, 0.07578504, -0.45780826, 10.196659
1124110638302502, -0.37447673, 3.7974095, 9.0233345, -0.09341395, 0.27345586, 9.792733
1124110647942085, -0.43070808, 4.2927237, 9.101101, 0.0844425, -0.1044178, 10.070998
1124110657581668, -0.17706887, 4.2652063, 9.0544405, -0.15559125, -0.17841554, 10.007507
1124110667221252, -0.5240282, 3.7686956, 8.980264, 0.051521063, 0.3349595, 9.747203
1124110676860835, -0.111266255, 4.6600223, 9.159725, -0.12915039, -0.50163746, 10.2645235
1124110686500418, -0.57906306, 3.4911282, 8.992228, 0.028027296, 0.59598804, 9.645074
1124110696140002, -0.17347965, 4.8239303, 9.15135, -0.016242623, -0.61939454, 10.32781
1124110705779585, -0.5455636, 3.4672, 8.935996, 4.3714046E-4, 0.5947292, 9.582142
1124110715419168, -0.32063824, 4.6899323, 9.083155, 0.0973891, -0.48028016, 10.215763
1124110725058752, -0.46301118, 3.751946, 8.944371, -0.0024996996, 0.32396412, 9.705066
1124110734698335, -0.47856453, 4.339384, 9.052048, 0.15286684, -0.1402626, 10.047678
1124110744337918, -0.28235307, 4.2185464, 9.040084, -0.06215012, -0.107641935, 9.979156
1124110753977502, -0.6029913, 3.867998, 8.983852, 0.15153646, 0.2800517, 9.79455
1124110763617137, -0.16151553, 4.6372905, 9.113065, -0.06864047, -0.47810602, 10.214951
1124110773256772, -0.57547385, 3.507878, 8.950353, 0.027111888, 0.5668869, 9.613694
1124110782896356, -0.12203395, 4.5631127, 9.119047, -0.13383853, -0.42077184, 10.188176
1124110792535939, -0.40079778, 4.0151563, 9.075976, -0.013482571, 0.11661792, 9.931852
1124110802175522, -0.33499518, 4.130012, 9.1681, -0.057685137, 0.037189007, 10.060745
1124110811815106, -0.36251262, 4.0965123, 9.236296, -0.05065, 0.0985446, 10.109881
1124110821454689, -0.37567315, 4.0977087, 9.18126, -0.026052475, 0.08005571, 10.060854
1124110831094272, -0.39601216, 4.0881376, 9.053245, 0.011526465, 0.046030283, 9.941261
1124110840733856, -0.3792624, 4.0881376, 8.989835, 0.0060583353, 0.016430616, 9.882994
1124110850373439, -0.37806597, 4.1180477, 8.9826565, 0.0138812065, -0.01218915, 9.888835
1124110860013022, -0.3696911, 4.126423, 9.001799, 0.0053761005, -0.014110804, 9.909398
1124110869652606, -0.3469593, 4.1647077, 9.008977, -0.0060807467, -0.051121473, 9.930971
1124110879292189, -0.3505485, 4.17069, 9.001799, 2.014637E-4, -0.05787468, 9.927062
1124110888931824, -0.3385844, 4.1515474, 8.971889, -0.011498332, -0.055588007, 9.891489
1124110898571460, -0.32303107, 4.1491547, 9.0233345, -0.034824252, -0.037047625, 9.936689
1124110908211043, -0.35294133, 4.1347976, 9.0747795, -0.018487334, 0.0044732094, 9.978597
1124110917850627, -0.39960137, 4.1443686, 9.096315, 0.025165558, 0.018285513, 10.003873
1124110927490210, -0.39840496, 4.15394, 9.115458, 0.023507833, 0.015789747, 10.025204
1124110937129793, -0.4127619, 4.135994, 9.157332, 0.02504003, 0.051971197, 10.056352
1124110946769377, -0.40797627, 4.1276193, 9.178867, 0.0155290365, 0.06518769, 10.072278
1124110956408960, -0.4019942, 4.106084, 9.150154, 0.008750558, 0.07136154, 10.037016
1124110966048595, -0.4438686, 4.106084, 9.072387, 0.061234236, 0.05589938, 9.967862
1124110975688231, -0.37328035, 4.1288157, 9.013762, 0.010381103, -0.0077393055, 9.921401
1124110985327814, -0.36370903, 4.1240296, 8.955139, 0.010085702, -0.029077053, 9.865774
1124110994967397, -0.32422748, 4.141976, 8.935996, -0.018769503, -0.062060595, 9.854384
1124111004606981, -0.32303107, 4.1431723, 8.937193, -0.019722223, -0.062035084, 9.85593
1124111014246564, -0.33738798, 4.156333, 8.96471, -0.006916642, -0.057687283, 9.886941
1124111023886147, -0.36370903, 4.1467614, 9.025727, 0.004527211, -0.01738143, 9.939384
1124111033525731, -0.4103691, 4.1551366, 9.066405, 0.043794036, 0.0066330433, 9.981547
1124111043165366, -0.43669012, 4.156333, 9.090333, 0.06469643, 0.022471666, 10.004763
1124111052805002, -0.4235296, 4.1491547, 9.114262, 0.04529357, 0.03233385, 10.02305
1124111062444585, -0.35174492, 4.1647077, 9.109476, -0.018433094, -0.008921623, 10.022508
1124111072084168, -0.30508488, 4.168297, 9.119047, -0.062093258, -0.02376628, 10.030972
1124111081723752, -0.33499518, 4.152744, 9.1669035, -0.04661894, 0.017681837, 10.0691185
1124111091363335, -0.38524446, 4.1371903, 9.0951185, 0.009435892, 0.022187233, 9.999269
1124111101002970, -0.38763726, 4.130012, 8.969496, 0.032174468, -0.016927004, 9.882194
1124111110642606, -0.38883367, 4.150351, 8.986245, 0.035078645, -0.024955988, 9.905925
1124111120282189, -0.41515473, 4.1276193, 8.99821, 0.05024755, 0.009180069, 9.908318
1124111129921772, -0.40917268, 4.1407795, 9.025727, 0.043795347, 0.0061683655, 9.938575
1124111139561356, -0.38763726, 4.130012, 9.081959, 0.009616137, 0.02832222, 9.984406
1124111149200991, -0.38404804, 4.109673, 9.060423, 0.0037215948, 0.0362885, 9.956245
1124111158840627, -0.3397808, 4.133601, 9.0544405, -0.028479457, -0.004044771, 9.9591255
1124111168480210, -0.3505485, 4.104887, 9.020942, -0.021377206, 0.011763334, 9.917146
1124111178119793, -0.40797627, 4.112066, 9.019745, 0.03539896, 0.02512002, 9.921161
1124111187759377, -0.38404804, 4.1108694, 9.065208, 0.004754424, 0.033248425, 9.961104
1124111197399012, -0.3912265, 4.1240296, 9.120243, 0.005545497, 0.045273304, 10.016857
1124111207038647, -0.41994038, 4.132405, 9.104691, 0.038595796, 0.042200565, 10.007259
1124111216678231, -0.38524446, 4.1467614, 9.066405, 0.01794231, 0.002427578, 9.977145
1124111226317814, -0.36490545, 4.125226, 9.072387, -0.008804321, 0.015894175, 9.972889
1124111235957397, -0.36370903, 4.1587257, 9.092726, -0.0030543804, -0.005477667, 10.005246
1124111245597033, -0.32063824, 4.168297, 9.120243, -0.043931484, -0.01891613, 10.03265
1124111255236668, -0.30987054, 4.191029, 9.068798, -0.03681588, -0.060774326, 9.994938
1124111264876252, -0.33260235, 4.1551366, 8.970692, -0.009125233, -0.056462765, 9.891705
1124111274515835, -0.3397808, 4.1587257, 8.930014, 0.005330801, -0.07235217, 9.856486
1124111284155470, -0.32063824, 4.1491547, 8.939586, -0.016759038, -0.06536102, 9.860525
1124111293795106, -0.357727, 4.1479583, 8.9312105, 0.018791318, -0.05359006, 9.853773
1124111303434689, -0.36729828, 4.1072803, 8.959925, 0.010972023, -0.0044341087, 9.863305
1124111313074272, -0.3900301, 4.1084766, 9.062816, 0.0156059265, 0.03950596, 9.958139
1124111322713856, -0.4019942, 4.126423, 9.218349, 0.0052785873, 0.08728504, 10.1073885
1124111332353491, -0.40677986, 4.106084, 9.254242, -7.753372E-4, 0.115550995, 10.131784
1124111341993127, -0.37208393, 4.1072803, 9.242277, -0.031481504, 0.09839344, 10.120137
1124111351632710, -0.3589234, 4.139583, 9.133404, -0.016331553, 0.023051977, 10.034103
1124111361272293, -0.35294133, 4.1288157, 9.040084, -0.009603381, -0.0037932396, 9.944583
1124111370911929, -0.34456646, 4.1515474, 8.987442, -0.0022435188, -0.044419527, 9.905869
1124111380551564, -0.35174492, 4.156333, 8.961121, 0.010306716, -0.05391097, 9.884204
1124111390191147, -0.36131623, 4.1694937, 8.959925, 0.023276687, -0.060563326, 9.888946
1124111399830731, -0.39481574, 4.168297, 8.983852, 0.050860167, -0.03699994, 9.911419
1124111409470366, -0.36729828, 4.17069, 9.0341015, 0.016955018, -0.028541327, 9.957081
1124111419110002, -0.38165522, 4.15394, 9.026923, 0.026670933, -0.01193881, 9.944114
1124111428749585, -0.3924229, 4.1204405, 9.013762, 0.0297364, 0.01622796, 9.918609
1124111438389220, -0.35413775, 4.1240296, 9.066405, -0.01413548, 0.020207167, 9.96655
1124111448028856, -0.35533416, 4.095316, 9.084352, -0.024263978, 0.050590754, 9.970968
1124111457668439, -0.40438703, 4.0881376, 9.0341015, 0.02845776, 0.054003716, 9.924095
1124111467308022, -0.40558344, 4.1108694, 9.052048, 0.032441497, 0.03967738, 9.949908
1124111476947658, -0.37806597, 4.1479583, 9.068798, 0.014490128, 0.004773617, 9.979546
1124111486587293, -0.32063824, 4.174279, 9.093923, -0.037220478, -0.027986765, 10.011229
1124111496226877, -0.27756742, 4.1778684, 9.105886, -0.07916701, -0.03953314, 10.022024
1124111505866512, -0.30987054, 4.1754756, 9.084352, -0.0458982, -0.034769297, 10.002638
1124111515506147, -0.3469593, 4.1443686, 9.086744, -0.018961549, 0.006518841, 9.993232
1124111525145731, -0.40677986, 4.1204405, 9.098708, 0.02940476, 0.05327463, 9.996315
1124111534785314, -0.44147578, 4.1168513, 9.035298, 0.07257271, 0.04484725, 9.938446
1124111544424949, -0.4331009, 4.121637, 9.017352, 0.06891394, 0.030942202, 9.923831
1124111554064585, -0.36490545, 4.1479583, 8.979067, 0.018329501, -0.030180693, 9.8975315
1124111563704168, -0.2955136, 4.150351, 8.977871, -0.046809316, -0.056910515, 9.894921
1124111573343804, -0.27876383, 4.150351, 8.949157, -0.057364106, -0.07269907, 9.86823
1124111582983439, -0.32183465, 4.1431723, 8.939586, -0.016541839, -0.053900957, 9.858117
1124111592623022, -0.37088752, 4.1240296, 8.943174, 0.023443818, -0.017611504, 9.855186
1124111602262658, -0.37806597, 4.126423, 9.02453, 0.01688385, 0.013725042, 9.930356
1124111611902293, -0.4031906, 4.1240296, 9.12503, 0.022095442, 0.061146498, 10.021582
1124111621541877, -0.38763726, 4.1479583, 9.202796, 9.112358E-4, 0.060301542, 10.1016655
1124111631181460, -0.3924229, 4.1479583, 9.250652, -0.00298357, 0.07832646, 10.145344
1124111640821095, -0.36251262, 4.176672, 9.235099, -0.018785119, 0.037345648, 10.142057
1124111650460731, -0.34097722, 4.2006, 9.199206, -0.025015712, -0.0049824715, 10.118599
1124111660100366, -0.36370903, 4.1575294, 9.005388, 0.017741084, -0.030088186, 9.92538
1124111669740002, -0.34217364, 4.2053857, 8.94796, 0.021263123, -0.097579, 9.892338
1124111679379585, -0.34097722, 4.1754756, 8.85464, 0.02684915, -0.10452533, 9.795094
1124111689019168, -0.30269206, 4.1778684, 8.823533, -0.0038864613, -0.12974119, 9.7664795
1124111698658804, -0.34217364, 4.168297, 8.851051, 0.02525425, -0.09725714, 9.788913
1124111708298439, -0.34456646, 4.15394, 8.908479, 0.012077689, -0.06107402, 9.835194
1124111717938074, -0.36370903, 4.17069, 9.008977, 0.018203735, -0.030278444, 9.934152
1124111727577710, -0.41156548, 4.1276193, 9.131011, 0.030496359, 0.06595564, 10.028793
1124111737217293, -0.43070808, 4.109673, 9.221938, 0.028535247, 0.11888933, 10.104658
1124111746856929, -0.4426722, 4.0965123, 9.306884, 0.02116251, 0.16656804, 10.1768
