timestamp_acc,device_acc_x,device_acc_y,device_acc_z,earth_acc_x,earth_acc_y,earth_acc_z
1134333274372436, 8.16431, 0.4354937, 5.877969, -0.010356665, -0.0041151047, 10.069558
1134333284011863, 8.147561, 0.42951167, 5.832505, 0.00200665, 0.019165516, 10.029206
1134333293651290, 8.122437, 0.4127619, 5.8241305, 0.0151565075, 0.0073666573, 10.003226
1134333303290717, 8.096115, 0.41156548, 5.832505, 0.011008859, -0.016507149, 9.9867
1134333312930144, 8.111669, 0.4235296, 5.8217373, 0.0046287775, 0.003443718, 9.993555
1134333322569571, 8.099705, 0.4139583, 5.8097734, 0.013802409, 0.003021717, 9.976465
1134333332208998, 8.110473, 0.4223332, 5.79422, 0.01041007, 0.022831917, 9.976497
1134333341848425, 8.114061, 0.4354937, 5.7966127, -0.0019527674, 0.026401043, 9.981365
1134333351487852, 8.124829, 0.4534399, 5.771488, -0.011646271, 0.055947304, 9.976235
1134333361127280, 8.117651, 0.465404, 5.802595, -0.03070879, 0.029944897, 9.98905
1134333370766707, 8.116454, 0.44147578, 5.820541, -0.011043429, 0.0076856613, 9.997512
1134333380406082, 8.127222, 0.44985065, 5.8133626, -0.013422728, 0.023676872, 10.002427
1134333390045509, 8.127222, 0.45224348, 5.84088, -0.020998716, 0.0025072098, 10.018568
1134333399684936, 8.143971, 0.43788654, 5.837291, -0.0013190508, 0.013655186, 10.029447
1134333409324363, 8.139186, 0.4319045, 5.8707905, -0.0022574663, -0.016448498, 10.04484
1134333418963790, 8.12124, 0.41515473, 5.8911295, 0.0068104267, -0.045467377, 10.041424
1134333428603217, 8.149954, 0.41156548, 5.907879, 0.012391329, -0.041068554, 10.074341
1134333438242644, 8.170293, 0.42592242, 5.9318075, -0.0030863285, -0.042362213, 10.105426
1134333447882071, 8.175078, 0.44027936, 5.9246287, -0.015911102, -0.027674198, 10.105739
1134333457521498, 8.184649, 0.44147578, 5.9030933, -0.01135087, -0.0050139427, 10.100977
1134333467160925, 8.177471, 0.43908295, 5.864808, -0.0037814379, 0.021813393, 10.072701
1134333476800352, 8.178668, 0.44626144, 5.831309, -0.004785061, 0.047068596, 10.054438
1134333486439727, 8.163115, 0.43788654, 5.818148, 0.0029883385, 0.043138027, 10.0338
1134333496079155, 8.143971, 0.4211368, 5.820541, 0.015109301, 0.026192188, 10.018952
1134333505718582, 8.135597, 0.4031906, 5.8217373, 0.030647874, 0.013628483, 10.012094
1134333515358009, 8.133204, 0.42711884, 5.8360944, 0.0043598413, 0.0075240135, 10.019549
1134333524997436, 8.114061, 0.41635114, 5.845666, 0.009067178, -0.011854649, 10.009143
1134333534636863, 8.120044, 0.4235296, 5.844469, 0.0044829845, -0.0027618408, 10.013605
1134333544276290, 8.123632, 0.43669012, 5.845666, -0.0077170134, 0.0018677711, 10.0177765
1134333553915717, 8.126026, 0.424726, 5.81097, 0.013281345, 0.024453163, 9.998964
1134333563555144, 8.126026, 0.42831525, 5.802595, 0.0113505125, 0.032122135, 9.994233
1134333573194571, 8.147561, 0.43669012, 5.8277197, 0.0024818182, 0.024861813, 10.026722
1134333582833998, 8.124829, 0.44865423, 5.8301125, -0.013940692, 0.013615608, 10.010195
1134333592473373, 8.123632, 0.47018966, 5.8133626, -0.032643914, 0.033358097, 10.000375
1134333602112800, 8.129615, 0.4749753, 5.820541, -0.039135695, 0.03598833, 10.009601
1134333611752227, 8.153543, 0.47976094, 5.8229337, -0.040056467, 0.048416615, 10.030605
1134333621391655, 8.148758, 0.4546363, 5.844469, -0.019980669, 0.021172523, 10.038222
1134333631031082, 8.152347, 0.40917268, 5.8432727, 0.026081204, 0.012851715, 10.038485
1134333640670509, 8.154739, 0.3912265, 5.871987, 0.038666487, -0.013216019, 10.056412
1134333650309936, 8.1344, 0.3912265, 5.8731833, 0.0353657, -0.024133205, 10.040617
1134333659949363, 8.127222, 0.3696911, 5.8564334, 0.05811715, -0.017617702, 10.024097
1134333669588790, 8.116454, 0.3684947, 5.8839507, 0.051169038, -0.042634487, 10.031404
1134333679228217, 8.130812, 0.38763726, 5.9042897, 0.028810263, -0.044199944, 10.055757
1134333688867644, 8.143971, 0.41515473, 5.922236, -0.0020240545, -0.042394638, 10.07808
1134333698507019, 8.1679, 0.4426722, 5.9270215, -0.028860569, -0.02422285, 10.101421
1134333708146446, 8.1679, 0.44147578, 5.892326, -0.020503521, 0.0026807785, 10.081099
1134333717785873, 8.175078, 0.4438686, 5.864808, -0.014775395, 0.028000355, 10.070943
1134333727425300, 8.140383, 0.44027936, 5.8133626, -0.007921934, 0.048351765, 10.012614
1134333737064727, 8.103293, 0.4331009, 5.7786665, -1.5258789E-5, 0.05139494, 9.961992
1134333746704155, 8.086544, 0.43070808, 5.790631, -0.0022056103, 0.029624462, 9.955312
1134333756343582, 8.1020975, 0.424726, 5.784649, 0.007638812, 0.039145947, 9.964184
1134333765983009, 8.10808, 0.41994038, 5.8061843, 0.005071521, 0.024409771, 9.981406
1134333775622436, 8.124829, 0.41874397, 5.8432727, 0.0019658804, 0.0041565895, 10.016586
1134333785261863, 8.148758, 0.43070808, 5.8827543, -0.015174389, -0.008450985, 10.059536
1134333794901290, 8.190632, 0.4354937, 5.9138613, -0.020258546, -0.002166748, 10.111847
1134333804540665, 8.203793, 0.41754755, 5.928218, -0.0033341646, -0.011074543, 10.130163
1134333814180092, 8.16431, 0.39720857, 5.9318075, 0.008941889, -0.036314487, 10.09944
1134333823819519, 8.151151, 0.38524446, 5.9497533, 0.013840675, -0.061101913, 10.098779
1134333833458946, 8.148758, 0.3900301, 5.9641104, 0.0065295696, -0.070714, 10.105442
1134333843098373, 8.139186, 0.39481574, 5.942575, 0.005700588, -0.056322575, 10.085297
1134333852737800, 8.111669, 0.41874397, 5.9294147, -0.019743681, -0.054631233, 10.056297
1134333862377227, 8.127222, 0.43788654, 5.9066825, -0.031365037, -0.023364544, 10.056385
1134333872016655, 8.115258, 0.4223332, 5.881558, -0.014297247, -0.01600647, 10.031353
1134333881656082, 8.143971, 0.43908295, 5.844469, -0.017654657, 0.031532764, 10.033623
1134333891295457, 8.175078, 0.4749753, 5.7990055, -0.038034797, 0.08798361, 10.033782
1134333900934884, 8.177471, 0.485743, 5.7834525, -0.044473648, 0.0993886, 10.027138
1134333910574311, 8.136793, 0.46181476, 5.7559347, -0.02447009, 0.09180641, 9.977097
1134333920213738, 8.10449, 0.44985065, 5.736792, -0.014873743, 0.080767155, 9.939274
1134333929853165, 8.088937, 0.4139583, 5.7284174, 0.019652724, 0.06579876, 9.920298
1134333939492592, 8.066205, 0.3912265, 5.7343993, 0.036794186, 0.040898323, 9.904396
1134333949132019, 8.072187, 0.40917268, 5.773881, 0.013236046, 0.017496586, 9.93302
1134333958771446, 8.114061, 0.41156548, 5.81097, 0.011331677, 0.016348362, 9.988712
1134333968410873, 8.155936, 0.42592242, 5.8672013, -0.0054563284, -9.913445E-4, 10.056079
1134333978050248, 8.169097, 0.4426722, 5.9007006, -0.02481854, -0.013124943, 10.087001
1134333987689675, 8.188239, 0.45702913, 5.938986, -0.03864765, -0.024977684, 10.12549
1134333997329102, 8.190632, 0.41994038, 5.948557, -0.004151106, -0.04070282, 10.131458
1134334006968530, 8.169097, 0.41874397, 5.956932, -0.0060031414, -0.058760166, 10.118845
1134334016607957, 8.147561, 0.40797627, 5.9114685, 0.01018393, -0.037442207, 10.074381
1134334026247384, 8.135597, 0.4103691, 5.8683977, 0.014734268, -0.01233387, 10.039625
1134334035886811, 8.12124, 0.41994038, 5.834898, 0.008189797, 0.0050201416, 10.008837
1134334045526238, 8.145168, 0.41994038, 5.8061843, 0.016622186, 0.037667274, 10.011503
1134334055165665, 8.145168, 0.41635114, 5.79422, 0.021276355, 0.043284893, 10.004389
1134334064805040, 8.169097, 0.43669012, 5.8037915, 0.0038545132, 0.052443504, 10.030258
1134334074444467, 8.184649, 0.43070808, 5.814559, 0.011143565, 0.05005884, 10.0489025
1134334084083894, 8.165507, 0.4534399, 5.8217373, -0.01568687, 0.03971386, 10.038521
1134334093723321, 8.146365, 0.43429732, 5.8360944, -0.0023562908, 0.012244701, 10.030539
1134334103362748, 8.115258, 0.44626144, 5.8396835, -0.018451571, -0.0051412582, 10.007903
1134334113002123, 8.085348, 0.45104706, 5.828916, -0.024493098, -0.012991905, 9.977566
1134334122641550, 8.086544, 0.45224348, 5.784649, -0.014529347, 0.021511078, 9.9528
1134334132280977, 8.112865, 0.43788654, 5.7930236, 0.004204035, 0.02391529, 9.978421
1134334141920405, 8.130812, 0.44626144, 5.7954164, -1.7547607E-4, 0.031919003, 9.994753
1134334151559832, 8.175078, 0.47018966, 5.8193445, -0.020093203, 0.04242134, 10.045673
1134334161199259, 8.184649, 0.47138608, 5.8420763, -0.023343205, 0.030572414, 10.0667305
1134334170838686, 8.184649, 0.48215377, 5.85763, -0.03569734, 0.021318436, 10.076262
1134334180478061, 8.178668, 0.4534399, 5.864808, -0.008143187, 0.0051169395, 10.074329
1134334190117488, 8.154739, 0.4426722, 5.85763, -8.401871E-4, -0.005200386, 10.05025
1134334199756915, 8.139186, 0.4331009, 5.8707905, 0.0056294203, -0.027662277, 10.044866
1134334209396342, 8.116454, 0.41515473, 5.8540406, 0.026335835, -0.03507948, 10.01584
1134334219035769, 8.100901, 0.4139583, 5.8097734, 0.032726288, -0.008936405, 9.977388
1134334228675196, 8.10449, 0.39840496, 5.7894344, 0.053281903, 0.0046491623, 9.967757
1134334238314623, 8.124829, 0.39601216, 5.814559, 0.053135872, -0.004277706, 9.998797
1134334247953998, 8.149954, 0.4019942, 5.84088, 0.044864893, -0.007899761, 10.034796
1134334257593425, 8.176275, 0.40677986, 5.8683977, 0.037642956, -0.0112810135, 10.0724125
1134334267232852, 8.190632, 0.44745782, 5.875576, -0.0022072792, 0.0031194687, 10.090047
1134334276872280, 8.191829, 0.4642076, 5.8827543, -0.01993537, 0.0018153191, 10.095938
1134334286511707, 8.1738825, 0.4749753, 5.8468623, -0.026394844, 0.02071619, 10.060946
1134334296151082, 8.139186, 0.4546363, 5.8061843, -0.004630685, 0.025049686, 10.008205
1134334305790509, 8.10449, 0.42592242, 5.802595, 0.018470049, -0.0015630722, 9.976671
1134334315429936, 8.10449, 0.44865423, 5.7870417, -7.274151E-4, 0.016478539, 9.968634
1134334325069363, 8.068598, 0.24765715, 5.7667027, 0.19157004, -0.039601803, 9.91868
1134334334708790, 8.154739, 0.74177504, 5.7667027, -0.2726099, 0.13819742, 10.010567
1134334344348165, 8.054241, -0.050249275, 5.733203, 0.4771253, -0.10286474, 9.874448
1134334353987592, 8.23131, 1.099502, 5.895915, -0.6212963, 0.1777072, 10.164033
1134334363627019, 8.060223, -0.20219351, 5.7116675, 0.6217824, -0.13088131, 9.860399
1134334373266446, 8.269595, 1.1533405, 5.992824, -0.69389164, 0.15327263, 10.253066
1134334382905873, 8.100901, -0.124426775, 5.6745787, 0.56029344, -0.06531048, 9.87536
1134334392545248, 8.220542, 0.87218386, 6.009574, -0.43647158, 0.03914976, 10.210825
1134334402184675, 8.141579, 0.23688944, 5.7009, 0.22775495, 0.042906284, 9.939214
1134334411824102, 8.130812, 0.39481574, 5.940182, 0.022253275, -0.09866667, 10.07678
1134334421463530, 8.142776, 0.6664011, 5.79422, -0.20656133, 0.10530138, 10.013396
1134334431102957, 8.013563, -0.06580263, 5.818148, 0.45975935, -0.20163393, 9.890417
1134334440742332, 8.187042, 1.0229317, 5.9353967, -0.57417715, 0.13031673, 10.146738
1134334450381759, 8.017152, -0.31465617, 5.7583275, 0.70638156, -0.21792841, 9.848126
1134334460021186, 8.208578, 1.1330016, 6.0490556, -0.6919148, 0.084047794, 10.235708
1134334469660561, 8.054241, -0.17467605, 5.6961145, 0.5845071, -0.11637545, 9.848444
1134334479299988, 8.238488, 0.92482597, 6.0191455, -0.48522043, 0.06426811, 10.233207
1134334488939415, 8.130812, 0.25004998, 5.666204, 0.20307696, 0.08400583, 9.911116
1134334498578842, 8.160722, 0.51565325, 5.8540406, -0.07836461, 0.028720856, 10.056148
1134334508218269, 8.187042, 0.6963114, 5.645865, -0.2040326, 0.25417566, 9.964039
1134334517857644, 8.070991, -0.011964113, 5.73081, 0.43650043, -0.090453625, 9.888605
1134334527497071, 8.2049885, 1.0301101, 5.8480587, -0.5639386, 0.20027685, 10.11062
1134334537136498, 7.995617, -0.2847459, 5.709275, 0.6759647, -0.20041895, 9.803556
1134334546775873, 8.215756, 1.1078769, 5.989235, -0.65799713, 0.11521149, 10.205428
1134334556415300, 8.053044, -0.2117648, 5.6985073, 0.61609495, -0.13918018, 9.847356
1134334566054727, 8.252846, 0.9523434, 6.076573, -0.52256453, 0.038429737, 10.279427
1134334575694155, 8.148758, 0.18185452, 5.782256, 0.24360287, -0.0230937, 9.990493
1134334585333582, 8.212168, 0.5096712, 6.0346985, -0.10346711, -0.0809021, 10.20293
1134334594972957, 8.238488, 0.6149554, 5.831309, -0.15028095, 0.12844038, 10.110189
1134334604612384, 8.136793, 0.032303106, 5.8887367, 0.3673085, -0.1537795, 10.03629
1134334614251811, 8.249256, 1.0109676, 5.9676995, -0.5544598, 0.15896034, 10.215333
1134334623891186, 8.042277, -0.2943172, 5.7966127, 0.6806451, -0.22480488, 9.892006
1134334633530613, 8.2145605, 1.079163, 6.0311093, -0.645519, 0.10097122, 10.2269745
1134334643170040, 8.038688, -0.2739782, 5.7020965, 0.6911578, -0.14288616, 9.834193
1134334652809415, 8.208578, 0.9607183, 6.026324, -0.5347137, 0.058097363, 10.214255
1134334662448842, 8.094919, 0.083748795, 5.686543, 0.3521924, 0.0033755302, 9.886731
1134334672088269, 8.151151, 0.56470615, 5.942575, -0.14226973, -0.029809475, 10.1021385
1134334681727644, 8.130812, 0.5886344, 5.7248282, -0.12579417, 0.13314438, 9.959755
1134334691367071, 8.030313, 0.11485548, 5.7655063, 0.29885733, -0.08875179, 9.881448
1134334701006498, 8.140383, 1.0037891, 5.741578, -0.51841635, 0.24575043, 9.9955
1134334710645873, 7.993224, -0.21296121, 5.593223, 0.6384808, -0.08010244, 9.736891
1134334720285300, 8.193025, 1.1760724, 5.8360944, -0.6902242, 0.24039364, 10.101218
1134334729924727, 7.9920278, -0.22851457, 5.562116, 0.66796994, -0.06432772, 9.71656
1134334739564155, 8.191829, 1.0169497, 5.9449677, -0.5630833, 0.10334253, 10.156532
1134334749203582, 8.079366, 0.05383851, 5.690132, 0.387743, -0.0252285, 9.874496
1134334758842957, 8.158329, 0.61016977, 6.0167527, -0.20168328, -0.077794075, 10.153088
1134334768482384, 8.178668, 0.47736812, 5.8097734, -0.023332119, 0.06268215, 10.043282
1134334778121811, 8.127222, 0.06580263, 5.9521465, 0.33430564, -0.19266462, 10.06654
1134334787761186, 8.244471, 0.9056834, 5.9880385, -0.46128672, 0.08039904, 10.219046
1134334797400613, 8.073383, -0.25124636, 5.8683977, 0.64354694, -0.25317812, 9.960044
1134334807040040, 8.292327, 1.0935199, 6.0514483, -0.6341139, 0.12137222, 10.303479
1134334816679415, 8.085348, -0.30149564, 5.7284174, 0.72109604, -0.15313339, 9.8861065
1134334826318842, 8.268398, 1.0372887, 6.0430737, -0.5871361, 0.093720436, 10.276557
1134334835958269, 8.122437, 0.019142581, 5.6937213, 0.41652334, -0.016057968, 9.910554
1134334845597644, 8.213364, 0.69152576, 5.9653068, -0.25630462, 0.023509026, 10.171341
1134334855237071, 8.195417, 0.5072784, 5.6685967, -0.024706006, 0.18741512, 9.975943
1134334864876498, 8.115258, 0.19621146, 5.8265233, 0.22290814, -0.07769728, 9.989424
1134334874515873, 8.177471, 0.9176475, 5.820541, -0.4478364, 0.17229843, 10.067849
1134334884155300, 7.9716887, -0.21415763, 5.733203, 0.61274767, -0.21354961, 9.800114
1134334893794727, 8.1738825, 1.1282159, 5.919843, -0.6655661, 0.15077782, 10.132328
1134334903434102, 7.948957, -0.31226337, 5.623133, 0.7262294, -0.17257833, 9.71318
1134334913073477, 8.166703, 1.0169497, 5.9617176, -0.56913716, 0.07671261, 10.146009
1134334922712905, 8.042277, -0.07178468, 5.6303115, 0.51244247, -0.043194294, 9.804046
1134334932352332, 8.146365, 0.6771688, 5.98086, -0.26526576, -0.048330784, 10.125207
1134334941991707, 8.140383, 0.4331009, 5.7260246, 0.023427248, 0.08199406, 9.9616
1134334951631134, 8.133204, 0.23808585, 5.881558, 0.1762172, -0.1002121, 10.037794
1134334961270561, 8.246863, 0.8817552, 5.825327, -0.4095801, 0.18028164, 10.125337
1134334970909936, 8.092526, -0.1591227, 5.7762737, 0.5687443, -0.14492846, 9.926488
1134334980549363, 8.267202, 1.1377872, 5.956932, -0.6740992, 0.15103626, 10.22981
1134334990188790, 8.039884, -0.27996024, 5.6949177, 0.70109975, -0.13830423, 9.830541
1134334999828165, 8.208578, 1.0588241, 6.0107703, -0.6174202, 0.055072784, 10.210142
1134335009467592, 8.084151, -0.101694964, 5.676972, 0.52815855, -0.060286522, 9.864546
1134335019107019, 8.190632, 0.73100734, 6.0215383, -0.30970067, -0.04499483, 10.187336
1134335028746394, 8.12124, 0.33738798, 5.76431, 0.09613478, 0.018484116, 9.964239
1134335038385769, 8.118847, 0.25603202, 5.9377894, 0.13957238, -0.13730097, 10.059833
1134335048025196, 8.206185, 0.8063812, 5.832505, -0.35428703, 0.14675188, 10.09271
1134335057664623, 8.055437, -0.13040884, 5.797809, 0.5295025, -0.172122, 9.91018
1134335067303998, 8.2348995, 1.1174482, 5.9270215, -0.6662059, 0.17947006, 10.184096
1134335076943425, 8.030313, -0.2835495, 5.660222, 0.69853437, -0.13897514, 9.802916
1134335086582852, 8.221739, 1.1138589, 5.956932, -0.67554724, 0.13191271, 10.190631
1134335096222227, 8.04108, -0.101694964, 5.6482577, 0.52716637, -0.072221756, 9.8126955
1134335105861655, 8.185846, 0.8111669, 6.02752, -0.3960445, -0.0148358345, 10.19019
1134335115501082, 8.13799, 0.32542387, 5.7403817, 0.11726737, 0.045678616, 9.963379
1134335125140457, 8.147561, 0.35174492, 5.938986, 0.0485065, -0.09552336, 10.08794
1134335134779832, 8.232507, 0.802792, 5.800202, -0.33158207, 0.19671011, 10.095164
1134335144419259, 8.128419, -0.09092726, 5.797809, 0.50111663, -0.14057064, 9.971117
1134335154058686, 8.288737, 1.1138589, 5.9114685, -0.6443434, 0.22503519, 10.218781
1134335163698061, 8.039884, -0.2620141, 5.6350975, 0.6864078, -0.12091446, 9.796782
1134335173337436, 8.213364, 1.1318051, 5.905486, -0.6594473, 0.20071316, 10.155784
1134335182976863, 8.045866, -0.13998012, 5.5860443, 0.57197964, -0.05054283, 9.779045
1134335192616290, 8.16431, 0.83748794, 5.948557, -0.4012676, 0.035672665, 10.128199
1134335202255665, 8.100901, 0.24047868, 5.6578293, 0.21114385, 0.045193672, 9.881641
1134335211895092, 8.12124, 0.33260235, 5.9007006, 0.077849746, -0.09866905, 10.043285
1134335221534519, 8.184649, 0.70229346, 5.802595, -0.23766613, 0.12645817, 10.053822
1134335231173894, 8.070991, -0.10049855, 5.8396835, 0.49493074, -0.21156311, 9.948025
1134335240813269, 8.2145605, 1.0564312, 5.985646, -0.6148912, 0.1197691, 10.199538
1134335250452696, 8.04108, -0.33260235, 5.8217373, 0.7143935, -0.28237867, 9.903139
1134335260092123, 8.254042, 1.079163, 6.101698, -0.6467483, 0.037691593, 10.300719
1134335269731498, 8.045866, -0.21894327, 5.7379885, 0.6248281, -0.16776371, 9.863563
1134335279370925, 8.200203, 0.8805587, 6.050252, -0.470024, 0.0052423477, 10.217794
1134335289010352, 8.109276, 0.23928227, 5.656633, 0.21562612, 0.06894255, 9.88756
1134335298649727, 8.153543, 0.4761717, 5.838487, -0.04098785, 0.02141428, 10.039562
1134335308289102, 8.220542, 0.72502524, 5.65424, -0.22908837, 0.26442242, 9.997549
1134335317928530, 8.124829, -0.0011964113, 5.7116675, 0.43504012, -0.06091404, 9.921846
1134335327567957, 8.26481, 1.0779666, 5.8241305, -0.5912193, 0.24780846, 10.147839
1134335337207332, 8.0817585, -0.25722843, 5.65424, 0.68762493, -0.098045826, 9.842204
1134335346846707, 8.262417, 1.1449656, 5.9437714, -0.68054295, 0.16437197, 10.218451
1134335356486134, 8.032705, -0.20458634, 5.642276, 0.61776376, -0.09897995, 9.798473
1134335366125561, 8.155936, 0.92602235, 6.023931, -0.5198659, -0.00641346, 10.168297
1134335375764936, 8.042277, 0.13758731, 5.751149, 0.26991653, -0.07541704, 9.884043
1134335385404311, 8.100901, 0.46181476, 6.017949, -0.07594752, -0.16118908, 10.100585
1134335395043738, 8.147561, 0.58265233, 5.81097, -0.14313829, 0.06861162, 10.023193
1134335404683165, 8.073383, -0.0634098, 5.910272, 0.43944025, -0.23547602, 9.993313
1134335414322540, 8.255239, 0.9762716, 6.000003, -0.5343002, 0.09027958, 10.237602
1134335423961967, 8.092526, -0.29072794, 5.8624153, 0.65996754, -0.2670374, 9.971689
1134335433601394, 8.287541, 1.1294123, 6.0825553, -0.68770874, 0.10172939, 10.318581
1134335443240769, 8.069795, -0.20937198, 5.7487564, 0.6130209, -0.17188597, 9.889808
1134335452880144, 8.221739, 0.99661064, 6.067002, -0.57030994, 0.041144848, 10.250452
1134335462519571, 8.078169, 0.15792629, 5.7140603, 0.2757268, -0.022585392, 9.892204
1134335472158998, 8.12124, 0.56590253, 5.938986, -0.15793979, -0.047121048, 10.075671
1134335481798373, 8.153543, 0.62452674, 5.676972, -0.145172, 0.19114017, 9.9519205
1134335491437748, 8.076973, 0.06819545, 5.753542, 0.3526759, -0.0832839, 9.910301
1134335501077175, 8.203793, 0.9834501, 5.7954164, -0.50449485, 0.22264004, 10.07731
1134335510716602, 8.04467, -0.2620141, 5.6650076, 0.68111587, -0.13330364, 9.818147
1134335520355977, 8.251649, 1.14018, 5.9270215, -0.6732123, 0.18128252, 10.199668
1134335529995352, 8.04467, -0.2428715, 5.6446686, 0.6682795, -0.10757971, 9.807131
1134335539634780, 8.203793, 1.0085747, 5.9964137, -0.57050514, 0.06489229, 10.195426
1134335549274207, 8.038688, 0.076570325, 5.7080784, 0.3492397, -0.06577873, 9.853031
1134335558913582, 8.094919, 0.6053841, 6.017949, -0.2156043, -0.11714506, 10.101965
1134335568552957, 8.109276, 0.526421, 5.751149, -0.07433033, 0.07913351, 9.954969
1134335578192384, 8.078169, 0.09092726, 5.8707905, 0.30656433, -0.16418505, 9.980497
1134335587831811, 8.252846, 0.9272188, 5.905486, -0.46625245, 0.15831757, 10.178482
1134335597471186, 8.111669, -0.25603202, 5.832505, 0.6531931, -0.22387171, 9.970258
1134335607110561, 8.347362, 1.1186446, 6.0598235, -0.6539916, 0.15276384, 10.353754
1134335616749988, 8.142776, -0.27996024, 5.7655063, 0.6850079, -0.15949678, 9.956383
1134335626389415, 8.311469, 1.0205388, 6.084948, -0.5877564, 0.08970547, 10.334173
1134335636028790, 8.142776, 0.010767702, 5.7260246, 0.427307, -0.036226273, 9.94527
1134335645668165, 8.181061, 0.62931234, 6.013163, -0.22286487, -0.05553913, 10.170111
1134335655307592, 8.145168, 0.44865423, 5.7056856, 0.007866025, 0.11126852, 9.954268
1134335664947019, 8.075776, 0.13399807, 5.8217373, 0.273134, -0.12049246, 9.951865
1134335674586394, 8.1942215, 0.8913264, 5.7786665, -0.41448689, 0.20501518, 10.055788
1134335684225769, 8.033902, -0.21296121, 5.7260246, 0.6190746, -0.17331457, 9.84698
1134335693865196, 8.216953, 1.1377872, 5.9497533, -0.69065845, 0.15844107, 10.183827
1134335703504623, 8.033902, -0.23569304, 5.6793647, 0.6394104, -0.14375591, 9.8196125
1134335713143998, 8.262417, 1.1090733, 6.0083776, -0.66640365, 0.12129402, 10.25375
1134335722783373, 8.090134, 0.040677983, 5.6709895, 0.3917575, -0.018384457, 9.872094
1134335732422800, 8.170293, 0.7369894, 6.0023956, -0.32085747, -0.03664589, 10.159788
1134335742062227, 8.130812, 0.4761717, 5.690132, -0.0056031942, 0.1080575, 9.934925
1134335751701602, 8.117651, 0.22013968, 5.788238, 0.2162422, -0.05396843, 9.969892
1134335761340977, 8.175078, 0.8662018, 5.757131, -0.3838874, 0.1868372, 10.027186
1134335770980405, 8.051848, -0.19381863, 5.7224355, 0.6088848, -0.15695429, 9.860059
1134335780619832, 8.256434, 1.1246266, 5.9030933, -0.6447542, 0.18007231, 10.189793
1134335790259207, 8.043473, -0.29072794, 5.6410794, 0.722924, -0.12155342, 9.801345
1134335799898582, 8.250452, 1.079163, 5.989235, -0.61952174, 0.10738182, 10.232798
1134335809538009, 8.1020975, -0.05383851, 5.6889358, 0.48484826, -0.06183529, 9.887971
1134335819177436, 8.166703, 0.7393822, 6.0717874, -0.33195084, -0.097667694, 10.19748
1134335828816811, 8.088937, 0.3469593, 5.814559, 0.07484782, -0.05070114, 9.967558
1134335838456186, 8.054241, 0.18185452, 5.966503, 0.19817102, -0.23185396, 10.020479
1134335848095613, 8.155936, 0.7728817, 5.8265233, -0.3167237, 0.1139245, 10.047473
1134335857735040, 8.001599, -0.20458634, 5.7750773, 0.59291387, -0.22568417, 9.849694
1134335867374415, 8.195417, 1.0660025, 5.918647, -0.6124927, 0.15412045, 10.145576
1134335877013790, 8.002795, -0.28235307, 5.631508, 0.7010001, -0.15106916, 9.763408
1134335886653217, 8.243274, 1.18684, 5.938986, -0.7263622, 0.19175291, 10.201341
1134335896292644, 8.100901, 0.014356935, 5.6267223, 0.4413749, 0.0031824112, 9.853424
1134335905932019, 8.233703, 0.9092726, 5.9521465, -0.4600402, 0.09099674, 10.189641
1134335915571394, 8.1738825, 0.43788654, 5.662615, 0.04096067, 0.14077187, 9.952278
1134335925210821, 8.1738825, 0.41874397, 5.852844, 0.025056124, -0.014513016, 10.061941
1134335934850248, 8.2253275, 0.8542377, 5.779863, -0.35964024, 0.20259762, 10.080782
1134335944489623, 8.076973, -0.104087785, 5.7858453, 0.5170586, -0.17849731, 9.920943
1134335954128998, 8.222935, 1.0336994, 5.9820566, -0.5810211, 0.09682226, 10.204079
1134335963768425, 8.031509, -0.38404804, 5.77747, 0.7774613, -0.2645359, 9.866983
1134335973407852, 8.248059, 0.99900347, 6.114858, -0.5629237, -0.0011863708, 10.300635
1134335983047227, 8.092526, -0.23688944, 5.7990055, 0.64902294, -0.182693, 9.935741
1134335992686602, 8.233703, 0.75613195, 6.1040907, -0.3482694, -0.06452465, 10.271322
1134336002326030, 8.178668, 0.23330021, 5.7607207, 0.21166873, 0.032986164, 10.0042515
1134336011965457, 8.182257, 0.33140594, 5.907879, 0.09346604, -0.05924368, 10.097027
1134336021604832, 8.220542, 0.7393822, 5.7427745, -0.26360822, 0.19505072, 10.049673
1134336031244207, 8.072187, -0.061016977, 5.7224355, 0.48672867, -0.09668207, 9.882507
1134336040883634, 8.206185, 1.0851451, 5.834898, -0.6221523, 0.19456387, 10.10644
1134336050523061, 7.9968133, -0.29072794, 5.6183476, 0.7148899, -0.11820412, 9.7506075
1134336060162436, 8.193025, 1.1330016, 5.925825, -0.6898366, 0.13515139, 10.1504
1134336069801811, 8.018349, -0.13040884, 5.6267223, 0.54998577, -0.07109308, 9.7807665
1134336079441238, 8.196614, 0.9595219, 5.994021, -0.52480376, 0.040520668, 10.186089
1134336089080665, 8.110473, 0.30029923, 5.7188463, 0.13703525, 0.029881, 9.927512
1134336098720040, 8.124829, 0.50009996, 5.983253, -0.09786737, -0.115364075, 10.101455
1134336108359415, 8.191829, 0.74416786, 5.800202, -0.27857107, 0.13508034, 10.060137
1134336117998842, 8.100901, -0.015553347, 5.8468623, 0.42620635, -0.17356157, 9.979923
1134336127638269, 8.281559, 1.038485, 5.9676995, -0.57062346, 0.13201046, 10.243685
1134336137277644, 8.079366, -0.3505485, 5.79422, 0.74669874, -0.23626995, 9.917592
1134336146917019, 8.29113, 1.0600204, 6.076573, -0.6232027, 0.06280804, 10.314984
1134336156556446, 8.096115, -0.26679972, 5.753542, 0.68731296, -0.15583849, 9.910845
1134336166195873, 8.2456665, 0.86141616, 6.096912, -0.44705045, -0.024341583, 10.281292
1134336175835248, 8.10808, 0.16869399, 5.743971, 0.26250207, -0.019956112, 9.934451
1134336185474623, 8.147561, 0.48095736, 5.962914, -0.065576196, -0.085008144, 10.107369
1134336195114050, 8.149954, 0.66400826, 5.761917, -0.20118856, 0.119494915, 10.0003805
1134336204753477, 8.055437, 0.009571291, 5.79422, 0.40269697, -0.13756323, 9.913733
1134336214392852, 8.221739, 1.0420742, 5.838487, -0.5553446, 0.20792437, 10.120237
1134336224032227, 8.066205, -0.23569304, 5.712864, 0.6523465, -0.15646267, 9.864381
1134336233671655, 8.279166, 1.1736795, 5.966503, -0.7045462, 0.18697023, 10.24646
1134336243311082, 8.073383, -0.18903299, 5.690132, 0.61868525, -0.13390017, 9.858608
1134336252950457, 8.238488, 1.0097711, 6.0418773, -0.5748599, 0.052555084, 10.250044
1134336262589884, 8.070991, 0.1698904, 5.710471, 0.27284265, -0.0359807, 9.884507
1134336272229311, 8.112865, 0.58504516, 5.9521465, -0.16738951, -0.07258749, 10.077481
1134336281868686, 8.145168, 0.654437, 5.697311, -0.17034209, 0.16290092, 9.958706
1134336291508061, 8.056634, 0.124426775, 5.76431, 0.3044989, -0.10101652, 9.9019785
1134336301147488, 8.2049885, 1.0420742, 5.808577, -0.5469614, 0.21288824, 10.089739
1134336310786915, 8.060223, -0.24526432, 5.6793647, 0.68885696, -0.14915514, 9.837976
1134336320426290, 8.270791, 1.1712867, 5.9521465, -0.680151, 0.1596303, 10.233175
1134336330065665, 8.105687, -0.2213361, 5.65424, 0.67962873, -0.09514809, 9.861574
1134336339705092, 8.273184, 0.99302137, 6.0251274, -0.52361274, 0.0672431, 10.2691345
1134336349344519, 8.120044, 0.076570325, 5.7200427, 0.37313187, -0.048274994, 9.925638
1134336358983894, 8.196614, 0.59940207, 6.003592, -0.16595972, -0.07438946, 10.176139
1134336368623321, 8.202596, 0.5694918, 5.7858453, -0.08586168, 0.090657234, 10.053225
1134336378262748, 8.114061, 0.09092726, 5.866005, 0.33610082, -0.16049719, 10.005876
1134336387902123, 8.22772, 0.9667004, 5.881558, -0.47880363, 0.14289427, 10.147558
1134336397541498, 8.04108, -0.20338993, 5.7750773, 0.63350594, -0.22151136, 9.879345
1134336407180925, 8.254042, 1.1784651, 5.985646, -0.69476914, 0.14309788, 10.239276
1134336416820352, 8.051848, -0.2213361, 5.6937213, 0.6729435, -0.15884542, 9.839799
1134336426459727, 8.213364, 1.0540384, 6.056234, -0.5984889, 0.028952122, 10.241548
1134336436099102, 8.084151, 0.06460621, 5.7224355, 0.39820957, -0.08567476, 9.896365
1134336445738530, 8.181061, 0.6436693, 5.9820566, -0.19492853, -0.050988197, 10.153251
1134336455377957, 8.1679, 0.54436713, 5.7583275, -0.05243504, 0.08450985, 10.007967
1134336465017332, 8.122437, 0.21415763, 5.8683977, 0.23225486, -0.12996244, 10.019336
1134336474656759, 8.2456665, 0.9870393, 5.8564334, -0.47444034, 0.18052626, 10.149157
1134336484296186, 8.055437, -0.16151553, 5.721239, 0.6129633, -0.17347717, 9.861183
1134336493935561, 8.238488, 1.18684, 5.8540406, -0.6736419, 0.22094011, 10.1512785
1134336503574936, 8.009974, -0.25004998, 5.613562, 0.70419216, -0.12935114, 9.75816
1134336513214363, 8.222935, 1.0504491, 6.005985, -0.575163, 0.05356121, 10.220483
1134336522853790, 8.054241, -0.008374879, 5.5968122, 0.4994427, -0.01961565, 9.79517
1134336532493165, 8.132008, 0.7118647, 5.8480587, -0.23124981, 0.033150196, 10.039
1134336542132592, 8.111669, 0.48215377, 5.663811, 0.02218318, 0.0994401, 9.904547
1134336551772019, 8.072187, 0.23569304, 5.8672013, 0.21248949, -0.1554389, 9.978502
1134336561411394, 8.16431, 0.9559326, 5.858826, -0.461366, 0.10628843, 10.083226
1134336571050769, 8.049456, -0.11844472, 5.770292, 0.56258416, -0.18978262, 9.886936
1134336580690196, 8.285149, 1.2239288, 5.9844494, -0.71056485, 0.1497879, 10.267813
1134336590329623, 8.082955, -0.21894327, 5.6937213, 0.6922345, -0.12709045, 9.864341
1134336599968998, 8.300702, 1.1042876, 6.000003, -0.6058209, 0.13250208, 10.282828
1134336609608425, 8.124829, -0.034695927, 5.6877394, 0.51260126, -0.04140234, 9.904543
1134336619247852, 8.246863, 0.74177504, 6.0394845, -0.27088863, -0.038375854, 10.245072
1134336628887227, 8.215756, 0.40438703, 5.7930236, 0.085006356, 0.048206806, 10.060406
1134336638526655, 8.196614, 0.2440679, 5.9617176, 0.20067441, -0.13340235, 10.135486
1134336648166082, 8.236095, 0.86859465, 5.919843, -0.3866052, 0.105005264, 10.172108
1134336657805457, 8.093722, -0.13399807, 5.8468623, 0.56140697, -0.19692183, 9.967855
1134336667444832, 8.242078, 1.1485549, 5.959325, -0.6550714, 0.15628767, 10.213278
1134336677084259, 8.023134, -0.29312077, 5.608776, 0.7539698, -0.101445675, 9.764025
1134336686723686, 8.202596, 1.1138589, 5.849255, -0.62173545, 0.19191504, 10.115022
1134336696363061, 8.021938, -0.08015956, 5.5046883, 0.5671743, 0.02325821, 9.712738
1134336706002488, 8.114061, 0.8111669, 5.8875403, -0.3542177, 0.035132885, 10.051489
1134336715641915, 8.086544, 0.3912265, 5.633901, 0.09357238, 0.090826035, 9.86251
1134336725281290, 8.097312, 0.3696911, 5.804988, 0.08633137, -0.04306078, 9.96954
1134336734920717, 8.175078, 0.86859465, 5.74756, -0.3592838, 0.20506477, 10.022459
1134336744560144, 8.092526, -0.07058827, 5.7690954, 0.51771104, -0.14567137, 9.924072
1134336754199519, 8.276773, 1.160519, 5.9724855, -0.66018426, 0.16612768, 10.249826
1134336763838946, 8.068598, -0.28594232, 5.784649, 0.7079202, -0.22239685, 9.904322
1134336773478373, 8.258827, 1.0779666, 6.108876, -0.6261797, 0.039560318, 10.309944
1134336783117748, 8.094919, -0.14955142, 5.825327, 0.57034767, -0.19733047, 9.955916
1134336792757175, 8.2145605, 0.83030945, 6.1794643, -0.41520113, -0.10453272, 10.303925
1134336802396602, 8.130812, 0.32063824, 5.9246287, 0.106037974, -0.10153055, 10.064422
1134336812035977, 8.109276, 0.38165522, 6.1184473, 0.011650562, -0.24003315, 10.162858
1134336821675405, 8.159525, 0.8279166, 5.959325, -0.37377745, 0.049122334, 10.130881
1134336831314832, 8.02792, -0.05503492, 5.8600225, 0.47237158, -0.2058034, 9.925972
1134336840954207, 8.195417, 1.099502, 5.901897, -0.60402775, 0.19476843, 10.1392
1134336850593634, 7.9944205, -0.25244278, 5.6506505, 0.68770146, -0.12134504, 9.7681465
1134336860233061, 8.199007, 1.1521441, 5.9318075, -0.6641551, 0.16996098, 10.162063
1134336869872436, 8.012366, -0.13998012, 5.602794, 0.5864794, -0.054034233, 9.760227
1134336879511811, 8.188239, 0.89013004, 5.930611, -0.42445529, 0.082146645, 10.140257
1134336889151238, 8.10449, 0.26081768, 5.656633, 0.20614552, 0.079024315, 9.884308
1134336898790665, 8.141579, 0.4319045, 5.9174504, -4.8577785E-4, -0.052928925, 10.073989
1134336908430040, 8.183454, 0.74177504, 5.7930236, -0.26409912, 0.16601515, 10.048929
1134336918069467, 8.093722, -0.025124637, 5.832505, 0.4446789, -0.14658976, 9.965334
1134336927708894, 8.243274, 1.0707881, 5.99761, -0.6135603, 0.12662315, 10.231178
1134336937348321, 8.019546, -0.28235307, 5.8265233, 0.6822703, -0.2571149, 9.8898735
1134336946987748, 8.22772, 1.1282159, 6.081359, -0.68701935, 0.070512295, 10.270064
1134336956627123, 8.035098, -0.20338993, 5.7870417, 0.6091676, -0.1872487, 9.883717
1134336966266550, 8.208578, 0.91405827, 6.1447687, -0.48665476, -0.04660511, 10.282774
1134336975905977, 8.126026, 0.23330021, 5.8133626, 0.2138679, -0.024359226, 9.9917755
1134336985545352, 8.2049885, 0.51206404, 6.0346985, -0.08650768, -0.07442999, 10.19748
1134336995184780, 8.2660055, 0.7070791, 5.84088, -0.221721, 0.16686678, 10.142272
1134337004824207, 8.179864, 0.043070808, 5.8636117, 0.39171267, -0.08776474, 10.056482
1134337014463582, 8.301898, 1.0648061, 5.9150577, -0.57409465, 0.22662306, 10.23046
1134337024103009, 8.092526, -0.23688944, 5.706882, 0.6810607, -0.10745239, 9.881206
1134337033742436, 8.240881, 1.1485549, 5.9294147, -0.6712147, 0.19262648, 10.193214
1134337043381811, 7.9920278, -0.21655045, 5.5896335, 0.6537448, -0.07959366, 9.732918
1134337053021238, 8.118847, 0.93679005, 5.9210396, -0.47903413, 0.0694685, 10.080559
1134337062660665, 8.013563, 0.10887343, 5.5968122, 0.34934926, 0.020645618, 9.768873
1134337072300040, 8.069795, 0.48454657, 5.866005, -0.046646, -0.05331421, 9.988061
1134337081939467, 8.128419, 0.6197411, 5.692525, -0.13170838, 0.15345526, 9.940786
1134337091578894, 8.10808, 0.069391854, 5.7894344, 0.3756131, -0.09210777, 9.955588
1134337101218321, 8.283952, 1.052842, 5.9114685, -0.55904984, 0.19866037, 10.214001
1134337110857748, 8.130812, -0.2321038, 5.7990055, 0.65989625, -0.17499018, 9.966261
1134337120497123, 8.347362, 1.1904292, 6.078966, -0.7149869, 0.13053226, 10.369241
1134337130136550, 8.10808, -0.20338993, 5.7954164, 0.6330409, -0.16108131, 9.946984
1134337139775977, 8.252846, 1.0420742, 6.134001, -0.58812654, -0.0011582375, 10.318694
1134337149415352, 8.094919, 0.1268196, 5.81097, 0.32724726, -0.08741951, 9.959742
1134337159054780, 8.109276, 0.61854464, 6.070591, -0.1988827, -0.15067339, 10.14558
1134337168694207, 8.079366, 0.59700924, 5.8241305, -0.12949395, 0.01896286, 9.97677
1134337178333634, 8.026724, 0.09212367, 5.852844, 0.33887482, -0.17252016, 9.927133
1134337187973061, 8.193025, 1.0205388, 5.8636117, -0.51828116, 0.15962887, 10.112123
1134337197612436, 8.047063, -0.16031912, 5.7116675, 0.613263, -0.11997795, 9.849547
1134337207251863, 8.285149, 1.2394822, 5.9246287, -0.7248602, 0.22322893, 10.232594
1134337216891290, 8.106883, -0.16630118, 5.599205, 0.6524725, -0.0050959587, 9.832322
1134337226530665, 8.281559, 1.1066805, 5.9473605, -0.59984815, 0.16114712, 10.236908
1134337236170092, 8.099705, 0.13160525, 5.6446686, 0.35897064, 0.022522926, 9.866887
1134337245809519, 8.140383, 0.6831509, 5.953343, -0.21326888, -0.044989586, 10.105807
1134337255448946, 8.085348, 0.5407779, 5.7762737, -0.05279255, 0.028260708, 9.951233
1134337265088373, 7.9908314, 0.12921242, 5.8767724, 0.30175042, -0.21922207, 9.9129925
1134337274727748, 8.136793, 0.8985049, 5.869594, -0.40552735, 0.08842993, 10.064522
1134337284367175, 7.9908314, -0.276371, 5.751149, 0.71496415, -0.22911263, 9.820479
1134337294006602, 8.244471, 1.1078769, 5.948557, -0.6054975, 0.1427989, 10.207692
1134337303646030, 8.106883, -0.05742774, 5.692525, 0.53536713, -0.060433388, 9.89138
1134337313285457, 8.2145605, 0.5946164, 5.844469, -0.08801997, 0.0633769, 10.098446
1134337322924832, 8.19781, 0.42592242, 5.8396835, 0.060694814, 0.012053013, 10.073906
1134337332564259, 8.210971, 0.51445687, 5.8971114, -0.035315037, 0.0033402443, 10.122222
1134337342203686, 8.218149, 0.49052864, 5.916254, -0.014713764, -0.014158249, 10.138058
1134337351843113, 8.2049885, 0.506082, 5.905486, -0.03125608, -0.0058116913, 10.121844
1134337361482540, 8.160722, 0.49052864, 5.8827543, -0.02037847, -0.016625881, 10.071947
1134337371121915, 8.160722, 0.47258246, 5.8564334, 0.0031821728, -0.00485754, 10.055769
1134337380761342, 8.097312, 0.47138608, 5.8468623, -0.006189704, -0.032535076, 9.998669
1134337390400769, 8.079366, 0.44865423, 5.849255, 0.013454676, -0.05394554, 9.984394
1134337400040196, 8.086544, 0.46181476, 5.8301125, 0.0072294474, -0.03364992, 9.979705
1134337409679623, 8.106883, 0.48933223, 5.8193445, -0.013556957, -0.0056853294, 9.991274
1134337419318998, 8.139186, 0.51086766, 5.832505, -0.030591369, 0.0074739456, 10.026189
1134337428958425, 8.185846, 0.52522457, 5.8396835, -0.038825393, 0.03211069, 10.068928
1134337438597852, 8.183454, 0.55393845, 5.855237, -0.07126582, 0.02508068, 10.077394
1134337448237280, 8.2049885, 0.5383851, 5.8624153, -0.054294586, 0.026279926, 10.098315
1134337457876707, 8.196614, 0.5347959, 5.8468623, -0.04988718, 0.03369665, 10.082295
1134337467516082, 8.166703, 0.52522457, 5.8133626, -0.040712178, 0.04067135, 10.038067
1134337477155509, 8.151151, 0.49052864, 5.8265233, -0.011719584, 0.0139632225, 10.031447
1134337486794936, 8.149954, 0.47018966, 5.8360944, 0.00646019, 6.389618E-4, 10.035078
1134337496434363, 8.128419, 0.44865423, 5.858826, 0.019518852, -0.034565926, 10.029794
1134337506073790, 8.133204, 0.45942193, 5.8911295, 0.0056685805, -0.053791523, 10.052988
1134337515713217, 8.116454, 0.45224348, 5.901897, 0.00853765, -0.07126093, 10.045327
1134337525352644, 8.127222, 0.45104706, 5.8947186, 0.012481451, -0.057607174, 10.049848
1134337534992019, 8.149954, 0.44985065, 5.8468623, 0.026080012, -0.00649786, 10.040379
1134337544631446, 8.172686, 0.4546363, 5.852844, 0.024587631, 0.0025658607, 10.062537
1134337554270873, 8.161918, 0.4761717, 5.851648, -0.0016503334, -0.001262188, 10.054125
1134337563910300, 8.160722, 0.48933223, 5.808577, -0.007963061, 0.03338003, 10.02872
1134337573549727, 8.200203, 0.48454657, 5.7870417, 0.009090543, 0.07078123, 10.048028
1134337583189155, 8.195417, 0.5084748, 5.797809, -0.019103408, 0.06155157, 10.051559
1134337592828582, 8.184649, 0.51206404, 5.790631, -0.023402572, 0.062273502, 10.038809
1134337602468009, 8.170293, 0.5192425, 5.81097, -0.035726786, 0.03813505, 10.03932
1134337612107436, 8.151151, 0.5204389, 5.800202, -0.03700459, 0.03654957, 10.017572
1134337621746811, 8.142776, 0.4941179, 5.8241305, -0.017807603, 0.0060019493, 10.023426
1134337631386238, 8.099705, 0.46301118, 5.814559, 0.007727027, -0.017693996, 9.9814
1134337641025665, 8.073383, 0.43788654, 5.8073807, 0.029417992, -0.03016901, 9.954657
1134337650665092, 8.115258, 0.43669012, 5.8277197, 0.033599615, -0.020706177, 10.000444
1134337660304519, 8.118847, 0.44745782, 5.8360944, 0.022157192, -0.022902966, 10.00874
1134337669943946, 8.179864, 0.45942193, 5.8241305, 0.020062089, 0.0270648, 10.051896
1134337679583373, 8.216953, 0.48215377, 5.832505, 0.0016750097, 0.04733038, 10.087947
1134337689222748, 8.260024, 0.49172506, 5.866005, -0.0068330765, 0.046999454, 10.142857
1134337698862175, 8.275578, 0.4953143, 5.8839507, -0.010903001, 0.04235649, 10.166095
1134337708501602, 8.258827, 0.48454657, 5.8935223, -0.006039858, 0.022698402, 10.157562
1134337718141030, 8.2348995, 0.4761717, 5.9007006, -0.0031217337, 0.0037808418, 10.141921
1134337727780457, 8.178668, 0.47018966, 5.881558, -0.0035425425, -0.012308121, 10.084853
1134337737419884, 8.122437, 0.4331009, 5.851648, 0.028196692, -0.02945757, 10.020063
1134337747059311, 8.05783, 0.4354937, 5.8636117, 0.011471033, -0.07378054, 9.974701
1134337756698738, 7.9944205, 0.4235296, 5.8707905, 0.010416627, -0.118653774, 9.92684
1134337766338165, 7.9920278, 0.4211368, 5.8875403, 0.008893132, -0.13433552, 9.934529
1134337775977592, 8.031509, 0.45104706, 5.881558, -0.010979056, -0.09841585, 9.964513
1134337785617019, 8.050652, 0.47976094, 5.875576, -0.033197522, -0.07246113, 9.977936
1134337795256446, 8.106883, 0.52522457, 5.851648, -0.06188059, -0.0058460236, 10.01176
1134337804895873, 8.146365, 0.54675996, 5.845666, -0.07401192, 0.025384426, 10.041308
1134337814535300, 8.191829, 0.55034924, 5.818148, -0.06419492, 0.0730505, 10.062324
1134337824174727, 8.202596, 0.58265233, 5.797809, -0.08867681, 0.10174036, 10.060738
1134337833814102, 8.230113, 0.573081, 5.8169518, -0.07726514, 0.09411621, 10.093824
1134337843453530, 8.206185, 0.56350976, 5.825327, -0.07352185, 0.071195126, 10.078838
1134337853092957, 8.177471, 0.5168497, 5.837291, -0.03652215, 0.033341885, 10.060304
1134337862732384, 8.181061, 0.50488555, 5.832505, -0.022308826, 0.036520004, 10.05987
1134337872371811, 8.135597, 0.48454657, 5.8480587, -0.0135958195, -0.005437374, 10.031067
1134337882011238, 8.136793, 0.44147578, 5.8743796, 0.0236969, -0.03730917, 10.045332
1134337891650665, 8.13799, 0.45942193, 5.84088, 0.014392734, -0.005224228, 10.02764
1134337901290092, 8.1344, 0.43908295, 5.825327, 0.037243247, -2.9563904E-5, 10.014706
1134337910929519, 8.132008, 0.44626144, 5.8193445, 0.032909393, 0.0029444695, 10.009613
1134337920568946, 8.1344, 0.4211368, 5.7858453, 0.0640192, 0.023284435, 9.990854
1134337930208373, 8.1344, 0.4354937, 5.7810597, 0.050206423, 0.029542923, 9.988763
1134337939847800, 8.148758, 0.4438686, 5.8193445, 0.03700292, 0.008663654, 10.023105
1134337949487227, 8.147561, 0.44745782, 5.825327, 0.03222823, 0.004224777, 10.025785
1134337959126655, 8.151151, 0.44147578, 5.851648, 0.031675816, -0.013136864, 10.043743
1134337968766082, 8.185846, 0.44865423, 5.8504515, 0.029879332, 0.0102458, 10.07155
1134337978405509, 8.219346, 0.45942193, 5.8540406, 0.02396655, 0.028233528, 10.101343
1134337988044936, 8.232507, 0.46660042, 5.84088, 0.02150786, 0.04629135, 10.104709
1134337997684363, 8.238488, 0.4953143, 5.858826, -0.008514881, 0.042932034, 10.121361
1134338007323790, 8.22772, 0.50368917, 5.8839507, -0.022144675, 0.016527653, 10.127646
1134338016963217, 8.155936, 0.46660042, 5.8803616, 0.0011789799, -0.02992487, 10.065524
1134338026602644, 8.075776, 0.44745782, 5.858826, 0.011171818, -0.06241274, 9.987001
1134338036242071, 8.055437, 0.465404, 5.8360944, -0.00271523, -0.052404404, 9.958107
1134338045881498, 8.047063, 0.48215377, 5.8037915, -0.014273405, -0.029474735, 9.933308
1134338055520925, 8.05783, 0.485743, 5.7990055, -0.014680445, -0.021204472, 9.939436
1134338065160352, 8.079366, 0.47736812, 5.8133626, -0.005986929, -0.022900105, 9.964871
1134338074799780, 8.141579, 0.51565325, 5.8265233, -0.034519494, 0.010172844, 10.024883
1134338084439207, 8.2145605, 0.5347959, 5.844469, -0.045724273, 0.046229362, 10.095473
1134338094078634, 8.23131, 0.53359944, 5.8875403, -0.04892969, 0.0238595, 10.1340685
1134338103718061, 8.252846, 0.5180461, 5.9138613, -0.034559846, 0.011076927, 10.166134
1134338113357488, 8.219346, 0.5084748, 5.9042897, -0.02958417, -0.0012292862, 10.132915
1134338122996915, 8.147561, 0.485743, 5.871987, -0.012548566, -0.026069641, 10.054755
1134338132636342, 8.097312, 0.46181476, 5.790631, 0.015986681, 0.004406929, 9.965485
1134338142275769, 8.036295, 0.47018966, 5.7260246, 0.010620952, 0.019208908, 9.878765
1134338151915196, 8.020741, 0.4833502, 5.7056856, 1.1789799E-4, 0.024716377, 9.854956
1134338161554623, 8.070991, 0.4881358, 5.692525, 0.0083197355, 0.05800438, 9.888407
1134338171194050, 8.114061, 0.50368917, 5.741578, -0.009652257, 0.04805708, 9.952639
1134338180833477, 8.147561, 0.5084748, 5.7834525, -0.015826821, 0.034544468, 10.004408
1134338190472905, 8.200203, 0.4881358, 5.861219, -0.003050208, 6.6280365E-4, 10.091357
1134338200112332, 8.210971, 0.50488555, 5.9270215, -0.030952811, -0.035749912, 10.139149
1134338209751759, 8.2014, 0.49052864, 5.930611, -0.020266056, -0.0417161, 10.132797
1134338219391186, 8.165507, 0.4426722, 5.8971114, 0.026497722, -0.042514324, 10.081909
1134338229030613, 8.126026, 0.41515473, 5.866005, 0.053568125, -0.04562378, 10.03044
1134338238670040, 8.115258, 0.39720857, 5.8468623, 0.07376087, -0.04183054, 10.0096855
1134338248309467, 8.153543, 0.40558344, 5.866005, 0.068717, -0.034589767, 10.052307
1134338257948894, 8.236095, 0.4534399, 5.925825, 0.020968795, -0.017074585, 10.156454
1134338267588321, 8.26481, 0.5084748, 5.9413786, -0.029789686, 1.6736984E-4, 10.191405
