timestamp_acc,device_acc_x,device_acc_y,device_acc_z,earth_acc_x,earth_acc_y,earth_acc_z
1134288162218657, 8.447861, 1.2299109, 6.5922265, 0.12623951, -0.5661855, 10.7703285
1134288171857824, 8.408379, 1.2203395, 6.431907, 0.13470596, -0.494524, 10.644096
1134288181497095, 8.496913, 1.2095718, 6.1531434, 0.184154, -0.23359299, 10.556196
1134288191136262, 8.443074, 1.282553, 5.916254, 0.120682895, -0.061949253, 10.388172
1134288200775428, 8.306684, 1.329213, 5.828916, 0.058467776, -0.060330868, 10.23411
1134288210414699, 8.220542, 1.3734802, 5.753542, 0.007348776, -0.045069218, 10.127434
1134288220053866, 8.1020975, 1.3639089, 5.642276, -9.870529E-4, -0.019349575, 9.966901
1134288229693137, 8.015956, 1.3698909, 5.5094743, -0.012183219, 0.030715466, 9.822697
1134288239332303, 7.9920278, 1.3818551, 5.4424753, -0.022559315, 0.05443716, 9.767246
1134288248971574, 8.015956, 1.4081762, 5.380262, -0.040194333, 0.07161856, 9.755972
1134288258610741, 8.014759, 1.4117653, 5.3216376, -0.041133434, 0.1198411, 9.722819
1134288268250012, 8.035098, 1.4344971, 5.2235317, -0.05734846, 0.19276667, 9.6884165
1134288277889178, 8.087741, 1.4656038, 5.204389, -0.07467869, 0.21449757, 9.725925
1134288287528449, 8.151151, 1.4560326, 5.271388, -0.05594468, 0.18457842, 9.8138485
1134288297167616, 8.181061, 1.4763715, 5.2833524, -0.07182729, 0.19146919, 9.847914
1134288306806887, 8.157132, 1.4763715, 5.302495, -0.078131676, 0.16287804, 9.838816
1134288316446053, 8.16431, 1.4691931, 5.337191, -0.07164395, 0.13669538, 9.862874
1134288326085324, 8.249256, 1.4476577, 5.410172, -0.04351154, 0.11758947, 9.969965
1134288335724491, 8.293523, 1.430908, 5.4699926, -0.021196008, 0.08871651, 10.037059
1134288345363762, 8.312666, 1.4285151, 5.485546, -0.019404143, 0.08575535, 10.061043
1134288355002928, 8.281559, 1.4392828, 5.5130634, -0.03981173, 0.050099373, 10.05214
1134288364642199, 8.286345, 1.4500505, 5.5405807, -0.051668912, 0.034621716, 10.072752
1134288374281366, 8.297112, 1.4213367, 5.5980086, -0.02167958, -0.0034480095, 10.109377
1134288383920637, 8.262417, 1.402194, 5.6793647, -0.0150075555, -0.09254217, 10.123245
1134288393559803, 8.22772, 1.416551, 5.682954, -0.03147313, -0.10106182, 10.09885
1134288403199074, 8.216953, 1.4009976, 5.6949177, -0.019089222, -0.11918831, 10.094486
1134288412838241, 8.2049885, 1.3914263, 5.636294, -0.0067768395, -0.07574701, 10.050867
1134288422477512, 8.191829, 1.3579268, 5.517849, 0.029137313, 0.0017471313, 9.969746
1134288432116678, 8.208578, 1.3423735, 5.5202417, 0.04499021, -0.005698204, 9.982672
1134288441755949, 8.279166, 1.3698909, 5.619544, 0.024361461, -0.058145523, 10.099331
1134288451395116, 8.35454, 1.4679967, 5.6997037, -0.060975462, -0.06944227, 10.21917
1134288461034387, 8.373683, 1.5254245, 5.753542, -0.117453754, -0.102127075, 10.272512
1134288470673553, 8.313862, 1.5577276, 5.5669017, -0.14913496, 0.023522377, 10.12494
1134288480312824, 8.103293, 1.5134603, 5.3443694, -0.13149083, 0.07268906, 9.823118
1134288489951991, 8.050652, 1.3890336, 5.377869, -0.022604078, -0.0030283928, 9.780765
1134288499591157, 8.123632, 1.3244274, 5.355137, 0.05371058, 0.019052982, 9.819459
1134288509230428, 8.249256, 1.2981063, 5.2809596, 0.101444304, 0.11361742, 9.879305
1134288518869595, 8.330612, 1.2753744, 5.258228, 0.1324605, 0.14123869, 9.931625
1134288528508866, 8.370093, 1.3160524, 5.3539405, 0.0816184, 0.04366827, 10.022305
1134288538148032, 8.483752, 1.3483555, 5.4867425, 0.0649178, -0.0035357475, 10.192755
1134288547787303, 8.462217, 1.3040884, 5.4795637, 0.1080873, -0.0018644333, 10.164826
1134288557426470, 8.2348995, 1.375873, 5.3718867, 0.0028791428, -2.0265579E-4, 9.927928
1134288567065741, 8.1738825, 1.4416757, 5.337191, -0.07165289, 0.008319855, 9.867683
1134288576704907, 8.2049885, 1.4081762, 5.3826547, -0.02914226, 0.0033683777, 9.913471
1134288586344178, 8.250452, 1.3698909, 5.430511, 0.014074355, -0.018342972, 9.971786
1134288595983345, 8.233703, 1.3639089, 5.3946185, 0.018870205, 0.0019154549, 9.937589
1134288605622616, 8.26122, 1.3483555, 5.430511, 0.031998575, -0.021803379, 9.977714
1134288615261782, 8.3174515, 1.3268201, 5.4484572, 0.06351581, -0.011769772, 10.03105
1134288624901053, 8.299505, 1.3004991, 5.4029937, 0.08678332, 0.010707378, 9.987881
1134288634540220, 8.263613, 1.3304094, 5.487939, 0.04178539, -0.0705452, 10.008399
1134288644179387, 8.331808, 1.410569, 5.56092, -0.029036999, -0.07660389, 10.115624
1134288653818657, 8.330612, 1.3830515, 5.602794, -0.004755616, -0.09785509, 10.133788
1134288663457824, 8.340183, 1.4009976, 5.733203, -0.032317817, -0.19819593, 10.215222
1134288673097095, 8.376076, 1.4464613, 5.79422, -0.0756135, -0.21101713, 10.284631
1134288682736262, 8.2049885, 1.4045869, 5.444868, -0.041531295, -0.010064125, 9.946831
1134288692375532, 8.021938, 1.2562319, 5.3718867, 0.068229705, -0.07415342, 9.735328
1134288702014699, 8.143971, 1.3172488, 5.3718867, 0.028363854, -0.018759727, 9.844563
1134288711653970, 8.362915, 1.4273187, 5.252246, -0.0507046, 0.15689993, 9.976697
1134288721293137, 8.516056, 1.4081762, 4.194618, 0.06542677, 1.0870557, 9.534937
1134288730932407, 8.455039, 0.9870393, 5.436493, 0.359695, -0.11363602, 10.09332
1134288740571574, 8.500503, 1.1174482, 5.440082, 0.24181765, -0.06986952, 10.150784
1134288750210845, 8.472985, 1.2777673, 5.3300123, 0.07615578, 0.0141887665, 10.090947
1134288759850012, 8.334201, 1.4117653, 5.316852, -0.07986632, -0.04138279, 9.985631
1134288769489282, 8.318648, 1.4392828, 5.2689953, -0.08700162, -0.024746895, 9.95116
1134288779128449, 8.334201, 1.39023, 5.227121, -0.025485426, 0.0017309189, 9.935482
1134288788767616, 8.3581295, 1.3268201, 5.2079782, 0.045145214, 0.006421089, 9.936788
1134288798406887, 8.495717, 1.3806586, 5.160122, 0.02375698, 0.12503576, 10.034644
1134288808046053, 8.556734, 1.4081762, 5.271388, -0.0014787018, 0.045871735, 10.148207
1134288817685324, 8.376076, 1.396212, 5.377869, -0.0466972, -0.18647623, 10.049506
1134288827324491, 8.35454, 1.3663018, 5.386244, -0.02279374, -0.20941305, 10.03157
1134288836963762, 8.437093, 1.39023, 5.3383875, -0.030864447, -0.13834286, 10.079463
1134288846602928, 8.483752, 1.3686945, 5.2630134, -8.856058E-4, -0.06115818, 10.076853
1134288856242199, 8.457432, 1.3603196, 5.328816, -0.009491384, -0.13237762, 10.087482
1134288865881366, 8.41795, 1.3986049, 5.3240304, -0.056928933, -0.13777447, 10.05689
1134288875520637, 8.415557, 1.422533, 5.278567, -0.07392669, -0.083259106, 10.034744
1134288885159803, 8.411968, 1.4763715, 5.2606206, -0.12572467, -0.058181286, 10.029747
1134288894798970, 8.472985, 1.3998013, 5.1062837, -0.017360508, 0.08998394, 9.9908285
1134288904438241, 8.377272, 1.3471591, 5.1026945, 0.021566033, 0.027302742, 9.900999
1134288914077407, 8.342576, 1.3543376, 5.093123, 0.008094013, 0.019818783, 9.867737
1134288923716678, 8.3784685, 1.3483555, 5.056034, 0.025462627, 0.049880505, 9.878115
1134288933355845, 8.329415, 1.3866407, 5.0572305, -0.024549663, 0.022862911, 9.842581
1134288942995116, 8.37129, 1.3770695, 5.050052, -0.007831395, 0.040985107, 9.873
1134288952634282, 8.415557, 1.3722838, 5.0273204, 0.0057884157, 0.0765419, 9.898122
1134288962273553, 8.486146, 1.3854443, 5.0596237, 0.003389001, 0.082938194, 9.976323
1134288971912720, 8.482556, 1.3926228, 5.109873, -0.008503437, 0.039557934, 10.000115
1134288981551887, 8.495717, 1.3854443, 5.1493545, -0.0023460686, 0.010900974, 10.030572
1134288991191157, 8.463413, 1.3998013, 5.1553364, -0.021891981, 3.0231476E-4, 10.008287
1134289000830324, 8.46102, 1.416551, 5.209175, -0.04418242, -0.043177128, 10.036292
1134289010469595, 8.49811, 1.4153546, 5.2103715, -0.034056842, -0.0206666, 10.068142
1134289020108762, 8.477771, 1.3734802, 5.2008, 0.0034564734, -0.01808691, 10.040271
1134289029748032, 8.440681, 1.3471591, 5.224728, 0.017344415, -0.055406094, 10.017702
1134289039387199, 8.471788, 1.3435699, 5.215157, 0.02871883, -0.0325737, 10.038544
1134289049026470, 8.525627, 1.3232309, 5.1649075, 0.062764496, 0.040902138, 10.055243
1134289058665637, 8.457432, 1.3220345, 5.2008, 0.044715345, -0.0148973465, 10.0160885
1134289068304803, 8.370093, 1.3543376, 5.24746, -0.009905577, -0.08586931, 9.971011
1134289077944074, 8.394022, 1.3615161, 5.237889, -0.013159543, -0.05771637, 9.987257
1134289087583241, 8.413164, 1.3567305, 5.1409793, -2.7513504E-4, 0.04461813, 9.952374
1134289097222512, 8.382058, 1.3854443, 5.1266227, -0.03350535, 0.045898914, 9.922571
1134289106861678, 8.398808, 1.4464613, 5.127819, -0.090684, 0.06241703, 9.945583
1134289116500949, 8.421539, 1.4644074, 5.127819, -0.105382204, 0.07382965, 9.967186
1134289126140116, 8.4682, 1.4608182, 5.099105, -0.09073454, 0.12265539, 9.991096
1134289135779387, 8.46102, 1.4201403, 5.0213385, -0.04789099, 0.1810751, 9.939034
1134289145418553, 8.379665, 1.402194, 5.038088, -0.04965046, 0.12732029, 9.876669
1134289155057720, 8.3581295, 1.3866407, 5.0751767, -0.042350292, 0.08224392, 9.875725
1134289164696991, 8.329415, 1.3136597, 5.081159, 0.017992377, 0.055618286, 9.844776
1134289174336157, 8.292327, 1.2658032, 5.133801, 0.040002584, -0.001001358, 9.834596
1134289183975428, 8.312666, 1.2873386, 5.12423, 0.016091198, 0.030160904, 9.849579
1134289193614595, 8.349754, 1.3124632, 5.056034, 0.006765723, 0.11107063, 9.848454
1134289203253866, 8.368897, 1.308874, 4.9974103, 0.002878666, 0.18204165, 9.833238
1134289212893032, 8.376076, 1.3316058, 4.9196434, -0.020266354, 0.25635815, 9.801457
1134289222532199, 8.331808, 1.3914263, 4.8526444, -0.08302826, 0.30203438, 9.7367935
1134289232171470, 8.328219, 1.1916257, 4.7569313, 0.10249144, 0.33336306, 9.658466
1134289241810637, 8.312666, 1.6019948, 4.786842, -0.3137421, 0.3766966, 9.712896
1134289251449907, 8.111669, 0.8207382, 4.6612186, 0.40563545, 0.22498488, 9.380009
1134289261089074, 8.1344, 1.8424734, 4.7425747, -0.5901227, 0.36964464, 9.569239
1134289270728345, 8.002795, 0.59940207, 4.3812585, 0.5983796, 0.37148046, 9.116106
1134289280367512, 8.147561, 1.9657038, 4.5116673, -0.7011815, 0.6232531, 9.472159
1134289290006678, 7.9800634, 0.8327023, 4.1718864, 0.3762896, 0.5831742, 9.016527
1134289299645949, 8.087741, 1.7575282, 4.447061, -0.5672805, 0.6427381, 9.356383
1134289309285116, 7.938189, 1.0636097, 4.377669, 0.08612549, 0.4566791, 9.115598
1134289318924387, 8.048259, 1.1306087, 4.6636114, -0.020381153, 0.30242395, 9.365369
1134289328563553, 8.152347, 1.3447664, 4.8490553, -0.26831144, 0.27467632, 9.57262
1134289338202720, 8.116454, 0.5288138, 5.0344987, 0.4450209, -0.08140087, 9.5549965
1134289347841991, 8.304291, 1.5936198, 5.386244, -0.6199242, 0.055750847, 10.006252
1134289357481157, 8.215756, 0.27996024, 5.3850474, 0.56910837, -0.3159771, 9.805716
1134289367120428, 8.409575, 1.6079768, 5.7200427, -0.77048135, 0.02955532, 10.267956
1134289376759595, 8.246863, 0.31345975, 5.4484572, 0.45771778, -0.19566154, 9.876583
1134289386398866, 8.333005, 1.2562319, 5.7834525, -0.5242748, -0.07455683, 10.207107
1134289396038032, 8.293523, 0.573081, 5.663811, 0.11912775, -0.18030262, 10.056989
1134289405677199, 8.413164, 0.7298109, 5.942575, -0.09437263, -0.25512838, 10.322507
1134289415316470, 8.475378, 0.9523434, 6.026324, -0.30589533, -0.22399044, 10.436083
1134289424955637, 8.408379, 0.20817557, 6.0622163, 0.3323846, -0.44135523, 10.3532295
1134289434594907, 8.447861, 1.1282159, 6.2668023, -0.5674385, -0.29860067, 10.559399
1134289444234074, 8.226524, -0.2536392, 6.111269, 0.71835446, -0.65505886, 10.205024
1134289453873345, 8.405986, 0.9774681, 6.378069, -0.47628707, -0.3817482, 10.579379
1134289463512512, 8.343773, -0.14237295, 6.1040907, 0.62381387, -0.46587086, 10.309829
1134289473151678, 8.537591, 0.9738788, 6.4797635, -0.49186528, -0.32603073, 10.746069
1134289482790949, 8.420342, 0.2620141, 6.2871413, 0.19268739, -0.41310978, 10.501959
1134289492430116, 8.439486, 0.35653058, 6.3684974, 0.078237176, -0.41512918, 10.570305
1134289502069387, 8.397611, 0.5024927, 6.317052, -0.054534554, -0.30120897, 10.515884
1134289511708553, 8.26122, -0.20219351, 6.344569, 0.5953939, -0.5777526, 10.385274
1134289521347720, 8.342576, 0.83030945, 6.526424, -0.4330215, -0.37436867, 10.609173
1134289530986991, 8.196614, -0.47018966, 6.3182483, 0.83387685, -0.6111636, 10.308103
1134289540626157, 8.348558, 0.86141616, 6.524031, -0.45413697, -0.30299616, 10.61628
1134289550265428, 8.152347, -0.36729828, 6.2117677, 0.75282955, -0.50188065, 10.215825
1134289559904595, 8.323434, 0.79920274, 6.384051, -0.36156696, -0.2091937, 10.511893
1134289569543762, 8.178668, 0.08255238, 6.1292152, 0.35166597, -0.28230047, 10.210844
1134289579183032, 8.177471, 0.38644084, 6.224928, 0.040780306, -0.275002, 10.280701
1134289588822199, 8.181061, 0.50368917, 5.9952173, -0.024781942, -0.05929327, 10.1549
1134289598461470, 8.110473, -0.06699903, 5.8636117, 0.54159606, -0.16281843, 9.992316
1134289608100637, 8.135597, 0.86141616, 5.9138613, -0.35751426, 0.054911613, 10.088256
1134289617739907, 7.972885, -0.3278167, 5.643472, 0.801885, -0.17458963, 9.7390785
1134289627379074, 8.2049885, 1.0277174, 5.864808, -0.4938342, 0.16173124, 10.124426
1134289637018241, 8.019546, -0.19381863, 5.568098, 0.69452214, -0.059617996, 9.740044
1134289646657512, 8.178668, 1.1018949, 5.8636117, -0.5731636, 0.15238714, 10.106186
1134289656296678, 8.110473, 0.31944183, 5.663811, 0.20234072, 0.055749416, 9.895277
1134289665935949, 8.142776, 0.68075806, 5.9246287, -0.18677425, -0.02481699, 10.09128
1134289675575116, 8.088937, 0.59940207, 5.7870417, -0.092772484, 0.034366608, 9.963446
1134289685214282, 7.9920278, 0.039481573, 5.7379885, 0.43723524, -0.118855, 9.828189
1134289694853553, 8.0614195, 0.8757731, 5.851648, -0.3735013, 0.06310797, 9.992586
1134289704492720, 7.9393854, -0.30149564, 5.6530433, 0.7728691, -0.14666557, 9.719198
1134289714131991, 8.128419, 1.0516455, 5.9413786, -0.5501542, 0.08034897, 10.107819
1134289723771157, 7.989635, -0.28594232, 5.6877394, 0.75287414, -0.13740969, 9.781652
1134289733410428, 8.092526, 0.9272188, 6.013163, -0.4615348, -0.022345066, 10.114018
1134289743049595, 7.9633136, -0.021535404, 5.759524, 0.4753766, -0.12241936, 9.815599
1134289752688762, 8.024331, 0.5072784, 5.973682, -0.06251526, -0.114516735, 10.015742
1134289762328032, 8.049456, 0.44865423, 5.864808, 0.016136765, -0.019469738, 9.969471
1134289771967199, 8.087741, 0.09451649, 5.892326, 0.36126506, -0.10662794, 9.999906
1134289781606470, 8.163115, 0.8327023, 6.0418773, -0.3648315, 0.011046886, 10.183365
1134289791245637, 7.9094753, -0.5491528, 6.0311093, 0.9215417, -0.47219563, 9.907746
1134289800884803, 8.085348, 1.227518, 5.712864, -0.6920701, 0.33567333, 9.946096
1134289810524074, 8.056634, 0.09332009, 5.5429735, 0.42882508, 0.16752386, 9.768862
1134289820163241, 8.433503, 1.3256238, 6.4151573, -0.82955384, -0.037137985, 10.646407
1134289829802512, 8.0817585, 0.0011964113, 6.0574307, 0.44447267, -0.30312395, 10.085527
1134289839441678, 8.098508, 0.6903293, 6.218946, -0.23462564, -0.19026661, 10.229684
1134289849080845, 8.30788, 0.70947194, 6.0981083, -0.19907397, 0.06648207, 10.327976
1134289858720116, 8.343773, 0.3062813, 6.0119667, 0.20601392, 0.06820154, 10.286351
1134289868359282, 8.257631, 0.9487542, 6.1292152, -0.45272076, 0.09855127, 10.317036
1134289877998553, 8.17149, -0.09451649, 6.0107703, 0.5394435, -0.135005, 10.129281
1134289887637720, 8.300702, 1.1485549, 6.367301, -0.7231238, -0.024813175, 10.499516
1134289897276887, 8.062616, -0.29910284, 6.1399827, 0.67466164, -0.38013887, 10.109153
1134289906916157, 8.111669, 0.951147, 6.390033, -0.57899696, -0.21170092, 10.351634
1134289916555324, 7.9094753, -0.1363909, 5.922236, 0.5295552, -0.25067806, 9.864483
1134289926194595, 7.989635, 0.5455636, 6.0825553, -0.14342916, -0.14250231, 10.054279
1134289935833762, 8.026724, 0.31944183, 5.892326, 0.11812985, -0.02918911, 9.9616785
1134289945472928, 8.096115, 0.2548356, 5.899504, 0.18997097, -0.022881985, 10.018961
1134289955112199, 8.213364, 0.9607183, 5.844469, -0.4584859, 0.27510977, 10.112083
1134289964751366, 8.163115, -0.05623133, 5.697311, 0.5441413, 0.06173706, 9.939772
1134289974390637, 8.249256, 1.119841, 5.9377894, -0.61518943, 0.24972343, 10.20396
1134289984029803, 8.049456, -0.30388847, 5.672186, 0.7637193, -0.08364105, 9.82189
1134289993668970, 8.191829, 1.0588241, 5.9880385, -0.59018564, 0.12874317, 10.184248
1134290003308241, 8.000402, -0.083748795, 5.7284174, 0.5326865, -0.08056021, 9.825375
1134290012947407, 8.050652, 0.6855437, 6.026324, -0.26264656, -0.07134962, 10.075986
1134290022586678, 7.9980097, 0.3481557, 5.834898, 0.09294987, -0.035921097, 9.90583
1134290032225845, 8.043473, 0.2727818, 5.866005, 0.16819024, -0.055734158, 9.957433
1134290041865116, 8.115258, 0.7932207, 5.7966127, -0.3077162, 0.18393946, 9.99794
1134290051504282, 8.062616, -0.14476576, 5.6685967, 0.61308396, -0.014990807, 9.837868
1134290061143449, 8.152347, 1.0947163, 5.979664, -0.63050115, 0.13149023, 10.148927
1134290070782720, 7.975278, -0.2536392, 5.721239, 0.6767125, -0.15355206, 9.7939
1134290080421887, 8.109276, 1.079163, 6.0227346, -0.6207167, 0.06920719, 10.139439
1134290090061157, 7.9346, -0.11485548, 5.692525, 0.54366493, -0.11830521, 9.750197
1134290099700324, 8.009974, 0.7896315, 5.942575, -0.3454616, -0.0064234734, 9.998901
1134290109339491, 7.9238324, 0.29790643, 5.7200427, 0.14657366, -0.015334129, 9.776146
1134290118978762, 7.9800634, 0.31226337, 5.8767724, 0.11586702, -0.090792656, 9.914318
1134290128617928, 8.078169, 0.80997044, 5.933004, -0.35524857, 0.0688982, 10.049002
1134290138257199, 8.062616, 0.05383851, 5.919843, 0.37362576, -0.14672375, 9.994603
1134290147896366, 8.255239, 1.2454642, 6.135197, -0.7771671, 0.14211416, 10.330373
1134290157535532, 8.122437, -0.13280165, 5.8839507, 0.5652133, -0.13684273, 10.013705
1134290167174803, 8.2253275, 1.1473584, 6.1902323, -0.6861913, 0.04502535, 10.335305
1134290176813970, 8.032705, -0.14356937, 5.907879, 0.57569337, -0.19840622, 9.953754
1134290186453241, 8.169097, 0.7932207, 6.1639113, -0.34554768, -0.05533266, 10.258395
1134290196092407, 8.100901, 0.2416751, 5.905486, 0.22022891, -0.048431396, 10.025314
1134290205731678, 8.122437, 0.3696911, 6.0107703, 0.077313304, -0.0814991, 10.110757
1134290215370845, 8.188239, 0.7286145, 5.9617176, -0.24185348, 0.09777212, 10.151462
1134290225010012, 8.126026, -0.034695927, 5.953343, 0.47762752, -0.15614176, 10.060979
1134290234649282, 8.22772, 1.0420742, 6.1770716, -0.578371, 0.033353806, 10.32482
1134290244288449, 8.048259, -0.26081768, 5.8863435, 0.69211257, -0.22480774, 9.947963
1134290253927720, 8.2014, 1.1042876, 6.135197, -0.63079643, 0.0720582, 10.2820215
1134290263566887, 8.037491, -0.18903299, 5.7726846, 0.64903307, -0.12007666, 9.875485
1134290273206053, 8.10808, 0.82911307, 6.076573, -0.3824764, -0.03201151, 10.159026
1134290282845324, 7.9968133, 0.19980069, 5.8073807, 0.25173795, -0.06429815, 9.881655
1134290292484491, 8.019546, 0.42592242, 5.9042897, 0.0268116, -0.064833164, 9.967459
1134290302123762, 8.023134, 0.6472585, 5.7954164, -0.16825867, 0.07990551, 9.916742
1134290311762928, 8.012366, -0.020338992, 5.712864, 0.48506033, -0.05159998, 9.828391
1134290321402199, 8.152347, 1.0612168, 5.8803616, -0.5642427, 0.19079876, 10.090136
1134290331041366, 8.030313, -0.2117648, 5.6386867, 0.6903021, -0.029351711, 9.790209
1134290340680637, 8.206185, 1.2215359, 5.8875403, -0.70262516, 0.2431879, 10.146131
1134290350319803, 8.066205, -0.062213387, 5.576473, 0.5663791, 0.06065607, 9.789798
1134290359958970, 8.163115, 1.0408778, 5.9234324, -0.5512202, 0.13462305, 10.123484
1134290369598241, 8.039884, 0.22372891, 5.6961145, 0.25543153, 0.032639027, 9.852369
1134290379237407, 8.048259, 0.5096712, 5.9042897, -0.04806125, -0.048709393, 9.99451
1134290388876678, 8.037491, 0.62452674, 5.8229337, -0.1488015, 0.0467391, 9.943517
1134290398515845, 8.009974, 0.02751746, 5.814559, 0.42165065, -0.111561775, 9.888342
1134290408155116, 8.140383, 1.0372887, 6.0047884, -0.5708207, 0.09010792, 10.152111
1134290417794282, 8.051848, -0.18305093, 5.8073807, 0.6211777, -0.14401102, 9.908827
1134290427433449, 8.218149, 1.2167503, 6.081359, -0.73321927, 0.13594055, 10.268656
1134290437072720, 8.072187, -0.13399807, 5.7463636, 0.5982199, -0.06431389, 9.891252
1134290446711887, 8.2145605, 0.9870393, 6.0777693, -0.5148225, 0.06659508, 10.2529545
1134290456351157, 8.084151, 0.10887343, 5.814559, 0.34515285, -0.040659428, 9.952572
1134290465990324, 8.110473, 0.51445687, 5.9916277, -0.064543724, -0.055155277, 10.096378
1134290475629595, 8.097312, 0.54317075, 5.879165, -0.07592273, 0.043731213, 10.020897
1134290485268762, 8.0614195, 0.038285162, 5.8803616, 0.40115857, -0.11782646, 9.969543
1134290494908032, 8.140383, 0.9559326, 5.99761, -0.49426228, 0.09915686, 10.143808
1134290504547199, 8.01117, -0.24646074, 5.790631, 0.6763319, -0.13883209, 9.863788
1134290514186366, 8.190632, 1.1114662, 6.099305, -0.6476065, 0.0933342, 10.2515955
1134290523825637, 8.025527, -0.2321038, 5.7930236, 0.6544732, -0.13060236, 9.878092
1134290533464803, 8.152347, 1.0289137, 6.1268225, -0.6032955, 0.037213802, 10.231913
1134290543104074, 8.049456, 0.086141616, 5.8600225, 0.33432436, -0.078009605, 9.951038
1134290552743241, 8.122437, 0.60658056, 6.04427, -0.18585432, -0.028578281, 10.140994
1134290562382512, 8.130812, 0.5479564, 5.9473605, -0.107227325, 0.04054928, 10.088027
1134290572021678, 8.105687, 0.11844472, 5.9318075, 0.3042941, -0.08174324, 10.040083
1134290581660949, 8.161918, 0.9296116, 6.0430737, -0.48381907, 0.094575405, 10.186108
1134290591300116, 7.993224, -0.23569304, 5.849255, 0.63950646, -0.18223333, 9.885282
1134290600939282, 8.145168, 1.1353943, 6.113662, -0.70680046, 0.09860134, 10.222546
1134290610578553, 7.993224, -0.24885355, 5.7667027, 0.6681429, -0.13569927, 9.835833
1134290620217720, 8.118847, 1.0073783, 6.0729837, -0.5690146, 0.07407808, 10.1726265
1134290629856991, 7.952546, 0.0071784677, 5.8037915, 0.39668202, -0.1126132, 9.8365135
1134290639496157, 8.029117, 0.6089734, 6.0047884, -0.19426131, -0.043518066, 10.04268
1134290649135428, 7.98126, 0.4139583, 5.832505, 0.014028788, 0.006697178, 9.893925
1134290658774595, 7.978867, 0.08015956, 5.8193445, 0.3387475, -0.077374935, 9.869791
1134290668413866, 8.105687, 0.84107715, 5.8971114, -0.38060844, 0.14828444, 10.050803
1134290678053032, 7.9920278, -0.24646074, 5.7631135, 0.65946496, -0.11146021, 9.833586
1134290687692303, 8.163115, 1.1162517, 6.056234, -0.6689079, 0.12352991, 10.202829
1134290697331470, 8.007581, -0.23330021, 5.771488, 0.6531861, -0.10147762, 9.851339
1134290706970741, 8.177471, 1.1162517, 6.1100726, -0.68839693, 0.09794283, 10.245318
1134290716609907, 8.04108, 0.04426722, 5.8468623, 0.365646, -0.07404804, 9.935167
1134290726249178, 8.084151, 0.6975078, 6.068198, -0.2841773, -0.03338766, 10.128237
1134290735888345, 8.031509, 0.37567315, 5.881558, 0.04681182, 2.040863E-4, 9.961769
1134290745527616, 8.050652, 0.18185452, 5.9449677, 0.22474301, -0.091088295, 10.006493
1134290755166782, 8.176275, 0.80518484, 6.0047884, -0.35794085, 0.113782406, 10.169377
1134290764806053, 8.04467, -0.2321038, 5.8683977, 0.62690246, -0.16230536, 9.939282
1134290774445220, 8.147561, 1.0612168, 6.076573, -0.62657464, 0.10815191, 10.19948
1134290784084491, 8.018349, -0.27517462, 5.759524, 0.6777011, -0.11246824, 9.852403
1134290793723657, 8.146365, 1.0600204, 6.0897336, -0.64301455, 0.08967543, 10.205404
1134290803362928, 8.006385, -0.06819545, 5.771488, 0.4867525, -0.054614544, 9.857841
1134290813002095, 8.068598, 0.7405786, 6.07418, -0.34535164, -0.034107685, 10.120573
1134290822641262, 8.030313, 0.36370903, 5.918647, 0.04495597, -0.0339756, 9.982256
1134290832280532, 8.080562, 0.24526432, 6.0023956, 0.15233827, -0.09924269, 10.067339
1134290841919699, 8.12124, 0.7812566, 6.029913, -0.36532712, 0.045913696, 10.138501
1134290851558970, 8.015956, -0.17706887, 5.8887367, 0.5689095, -0.16461515, 9.930427
1134290861198241, 8.133204, 1.0911272, 6.111269, -0.6819843, 0.055753708, 10.208769
1134290870837407, 7.9393854, -0.26919255, 5.74756, 0.6645385, -0.10270786, 9.782054
1134290880476678, 8.084151, 1.0767702, 6.023931, -0.64642406, 0.09998131, 10.117947
1134290890115845, 7.952546, -0.05742774, 5.751149, 0.46245074, -0.07180691, 9.803214
1134290899755116, 8.069795, 0.82672024, 6.046663, -0.41834527, -0.009900093, 10.10901
1134290909394282, 8.0614195, 0.37447673, 5.8157554, 0.0594517, 0.04834795, 9.947052
1134290919033553, 8.115258, 0.37686956, 5.8875403, 0.06027162, 0.022892475, 10.0328665
1134290928672720, 8.160722, 0.80877405, 5.8672013, -0.34298342, 0.1813426, 10.075963
1134290938311991, 8.0614195, -0.07776674, 5.8133626, 0.49965203, -0.065096855, 9.926421
1134290947951157, 8.208578, 1.0755738, 6.0550375, -0.63177836, 0.13441086, 10.236401
1134290957590428, 8.051848, -0.28953153, 5.7954164, 0.71058774, -0.13246632, 9.898509
1134290967229595, 8.165507, 1.0755738, 6.117251, -0.6432688, 0.039706707, 10.239032
1134290976868866, 7.948957, -0.15074782, 5.8337016, 0.54139256, -0.17680311, 9.844611
1134290986508032, 8.001599, 0.79800636, 6.076573, -0.3971811, -0.08479452, 10.070858
1134290996147303, 7.8317084, 0.2548356, 5.733203, 0.17040932, -0.062517166, 9.707589
1134291005786470, 7.810173, 0.36131623, 5.7188463, 0.06524825, -0.03784895, 9.68653
1134291015425741, 7.87119, 0.6963114, 5.5968122, -0.21044153, 0.16297722, 9.6795635
1134291025064907, 7.8699937, -0.15433706, 5.534599, 0.6182064, -0.02265644, 9.60259
1134291034704178, 8.172686, 1.0313065, 5.889933, -0.52424717, 0.1819787, 10.111368
1134291044343345, 8.281559, -0.22612174, 5.751149, 0.7171707, -0.01137495, 10.059654
1134291053982616, 8.56152, 1.1760724, 6.256035, -0.66701114, 0.18402338, 10.646217
1134291063621887, 8.391629, -0.05742774, 6.1100726, 0.48469543, -0.13650179, 10.368325
1134291073261053, 8.335398, 1.012164, 6.352944, -0.60344565, 0.008275986, 10.51185
1134291082900324, 8.146365, 0.31345975, 5.9246287, 0.13022447, 0.024497986, 10.076963
1134291092539491, 8.124829, 0.3804588, 5.861219, 0.07586992, 0.080929756, 10.024927
1134291102178762, 8.066205, 0.58265233, 5.916254, -0.13711727, 0.05044508, 10.019175
1134291111817928, 7.932207, -0.21296121, 5.9497533, 0.59237826, -0.31830359, 9.89508
1134291121457199, 8.05783, 0.88414794, 6.1998034, -0.49120867, -0.11505318, 10.192809
1134291131096366, 7.9477606, -0.36610186, 5.9090757, 0.7487986, -0.29764366, 9.877691
1134291140735637, 8.175078, 1.0779666, 6.181857, -0.64013946, 0.018596172, 10.285871
1134291150374907, 8.056634, -0.12921242, 5.877969, 0.54155874, -0.120128155, 9.958355
1134291160014074, 8.19781, 0.9954142, 6.145965, -0.5562078, 0.066432476, 10.278816
1134291169653345, 8.055437, 0.24885355, 5.8241305, 0.19142628, 0.032265186, 9.941569
1134291179292512, 8.073383, 0.4977071, 5.9138613, -0.061765432, 0.039045334, 10.019764
1134291188931782, 8.085348, 0.66400826, 5.8265233, -0.20519143, 0.13050556, 9.985139
1134291198570949, 7.9980097, 0.009571291, 5.7750773, 0.41529906, -0.06379318, 9.856126
1134291208210220, 8.062616, 0.99900347, 5.912665, -0.544223, 0.13053036, 10.032456
1134291217849491, 7.9310107, -0.2943172, 5.639883, 0.7278795, -0.10771465, 9.708472
1134291227488657, 8.122437, 1.1138589, 5.9712887, -0.6559706, 0.17815828, 10.119729
1134291237127928, 7.958528, -0.19142582, 5.6757755, 0.6160219, -0.08588791, 9.75717
1134291246767095, 8.127222, 0.991825, 6.0622163, -0.5485262, 0.077773094, 10.172462
1134291256406366, 8.043473, 0.17826529, 5.8624153, 0.23998582, -0.058019638, 9.951693
1134291266045637, 8.096115, 0.57427746, 6.0825553, -0.1659286, -0.07585144, 10.14106
1134291275684803, 8.1020975, 0.6233303, 6.013163, -0.20050812, 0.0047240257, 10.10695
1134291285324074, 8.047063, 0.05742774, 5.960521, 0.33794236, -0.15638256, 10.007381
1134291294963241, 8.17149, 0.9834501, 6.0777693, -0.5394155, 0.09751701, 10.216616
1134291304602512, 8.015956, -0.24047868, 5.889933, 0.6409763, -0.2113347, 9.927195
1134291314241782, 8.163115, 1.0983056, 6.168697, -0.66427124, 0.056921482, 10.268935
1134291323880949, 8.042277, -0.29312077, 5.838487, 0.7083658, -0.1818738, 9.915504
1134291333520220, 8.172686, 0.9164511, 6.1603217, -0.4952271, 0.01791048, 10.263366
1134291343159387, 8.075776, 0.08255238, 5.8432727, 0.3560474, -0.041469097, 9.961944
1134291352798657, 8.140383, 0.57188463, 6.0323057, -0.14363837, -2.3651123E-4, 10.146968
1134291362437928, 8.115258, 0.56829536, 5.9066825, -0.116556644, 0.08245087, 10.052307
1134291372077095, 8.053044, 0.09571291, 5.895915, 0.32090437, -0.09015417, 9.97554
1134291381716366, 8.145168, 0.9559326, 6.0251274, -0.51306826, 0.11715269, 10.162813
1134291391355532, 7.989635, -0.22372891, 5.8396835, 0.6199198, -0.17614174, 9.8778
1134291400994803, 8.151151, 1.1282159, 6.0634127, -0.6785402, 0.12344599, 10.198208
1134291410634074, 8.02792, -0.25004998, 5.6530433, 0.68945134, -0.032615185, 9.797476
1134291420273241, 8.17149, 0.99302137, 5.9880385, -0.5271093, 0.14844894, 10.164452
1134291429912512, 8.025527, 0.049052864, 5.7188463, 0.39022994, -0.005244255, 9.84705
1134291439551782, 8.122437, 0.6329016, 5.985646, -0.19579363, 0.009637356, 10.107625
1134291449190949, 8.10449, 0.49052864, 5.8600225, -0.04334891, 0.053999424, 10.012915
1134291458830220, 8.066205, 0.1268196, 5.8971114, 0.29044354, -0.10077906, 9.98805
1134291468469491, 8.17149, 0.9164511, 6.005985, -0.47053713, 0.10619116, 10.17115
1134291478108657, 8.030313, -0.20697916, 5.820541, 0.6149373, -0.14827156, 9.899864
1134291487747928, 8.177471, 1.1186446, 6.0933228, -0.6838044, 0.09818983, 10.235905
1134291497387095, 8.033902, -0.2656033, 5.7750773, 0.68050444, -0.11718559, 9.873644
1134291507026366, 8.181061, 0.991825, 6.125626, -0.5691811, 0.02301979, 10.252427
1134291516665637, 8.025527, -0.016749758, 5.834898, 0.43735814, -0.10143328, 9.912306
1134291526304803, 8.129615, 0.64247286, 6.078966, -0.23101652, -0.059634686, 10.168594
1134291535944074, 8.112865, 0.4211368, 5.8420763, 0.024228454, 0.05881834, 10.006084
1134291545583345, 8.082955, 0.16390835, 5.8911295, 0.2585708, -0.06663418, 9.999756
1134291555222512, 8.189436, 0.910469, 6.003592, -0.46452475, 0.11706495, 10.183784
1134291564861782, 8.117651, -0.111266255, 5.8480587, 0.53144014, -0.090948105, 9.990883
1134291574501053, 8.2253275, 1.1820544, 6.101698, -0.7404549, 0.13040352, 10.2819605
1134291584140220, 8.02792, -0.23090738, 5.773881, 0.63917005, -0.13340235, 9.8697605
1134291593779491, 8.161918, 1.0588241, 6.0622163, -0.622908, 0.09032631, 10.202562
1134291603418762, 7.989635, -0.03589234, 5.736792, 0.4678378, -0.07302523, 9.824569
1134291613058032, 8.076973, 0.7262217, 6.0047884, -0.30557024, -0.007194996, 10.086077
1134291622697199, 8.063812, 0.39361933, 5.79422, 0.05883622, 0.047604084, 9.937166
1134291632336470, 8.063812, 0.24047868, 5.851648, 0.1926192, -0.04040861, 9.964233
1134291641975741, 8.1344, 0.81954175, 5.916254, -0.36539912, 0.11556578, 10.08441
1134291651614907, 8.039884, -0.16869399, 5.828916, 0.5776019, -0.15802956, 9.913922
1134291661254178, 8.178668, 1.1294123, 6.1160545, -0.699617, 0.07891655, 10.250689
1134291670893449, 8.019546, -0.25962126, 5.7523456, 0.6719955, -0.13356829, 9.8488865
1134291680532616, 8.166703, 1.1042876, 6.0251274, -0.6584157, 0.121361256, 10.186678
1134291690171887, 8.005188, -0.05623133, 5.7009, 0.48919046, -0.027253628, 9.81562
1134291699811157, 8.098508, 0.77766734, 5.989235, -0.34607756, 0.0135912895, 10.096613
1134291709450428, 8.04467, 0.33260235, 5.8420763, 0.10025966, -0.017674446, 9.947203
1134291719089595, 8.088937, 0.25962126, 5.948557, 0.16272187, -0.095835686, 10.04231
1134291728728866, 8.166703, 0.7932207, 6.0047884, -0.34745544, 0.055201054, 10.1615925
1134291738368137, 8.075776, -0.13998012, 5.9437714, 0.54072547, -0.19229507, 10.011834
1134291748007303, 8.257631, 1.0803595, 6.1232333, -0.6295613, 0.096675396, 10.317168
1134291757646574, 8.048259, -0.26081768, 5.8420763, 0.66210246, -0.16960907, 9.924978
1134291767285845, 8.206185, 1.1377872, 6.108876, -0.6943766, 0.075464725, 10.269691
1134291776925116, 8.055437, -0.038285162, 5.7631135, 0.4638071, -0.05532503, 9.893778
1134291786564282, 8.161918, 0.8446664, 6.04427, -0.40931916, 0.0019154549, 10.183125
1134291796203553, 8.088937, 0.33260235, 5.825327, 0.10307443, -0.011236668, 9.973225
1134291805842824, 8.127222, 0.37208393, 5.9007006, 0.0631274, -0.045821667, 10.049994
1134291815481991, 8.191829, 0.7908279, 5.8683977, -0.32504278, 0.120663166, 10.101947
1134291825121262, 8.10808, -0.08255238, 5.74756, 0.5279803, -0.057682514, 9.924723
1134291834760532, 8.252846, 1.0755738, 5.907879, -0.6023724, 0.19063854, 10.186765
1134291844399803, 7.989635, -0.2883351, 5.623133, 0.7275436, -0.09647417, 9.746714
1134291854038970, 8.099705, 1.0552348, 5.9090757, -0.6102054, 0.104012966, 10.062443
1134291863678241, 7.960921, -0.19142582, 5.5908303, 0.62393034, -0.05910921, 9.7096615
1134291873317512, 8.106883, 0.8039884, 5.8911295, -0.36527485, 0.052457333, 10.046749
1134291882956782, 8.04467, 0.22013968, 5.7152567, 0.22245204, 0.004389763, 9.868122
1134291892595949, 8.128419, 0.34456646, 5.8600225, 0.08581543, -0.023925781, 10.026058
1134291902235220, 8.182257, 0.6867401, 5.871987, -0.23530585, 0.08898306, 10.091476
1134291911874491, 8.112865, -0.069391854, 5.81097, 0.4847684, -0.107804775, 9.967154
1134291921513762, 8.238488, 1.0253245, 6.038288, -0.5816415, 0.10044098, 10.2487335
1134291931153032, 8.05783, -0.27876383, 5.7810597, 0.68703353, -0.15636921, 9.895985
1134291940792199, 8.248059, 1.1365907, 6.058627, -0.6932887, 0.106123924, 10.273138
1134291950431470, 8.072187, -0.12203395, 5.7080784, 0.552912, -0.05569744, 9.871597
1134291960070741, 8.196614, 0.8865408, 5.989235, -0.45694685, 0.06532097, 10.179799
1134291969710012, 8.10808, 0.21535404, 5.7894344, 0.2106694, -0.007930756, 9.962954
1134291979349178, 8.157132, 0.42592242, 5.9497533, -0.011158347, -0.049266815, 10.105307
1134291988988449, 8.169097, 0.64008003, 5.9030933, -0.20512915, 0.053122044, 10.096805
1134291998627720, 8.086544, -0.05623133, 5.845666, 0.45980787, -0.12752819, 9.966921
1134292008266991, 8.254042, 1.0049855, 6.0227346, -0.5606627, 0.113285065, 10.251115
1134292017906262, 8.035098, -0.29910284, 5.820541, 0.67893064, -0.2106247, 9.900791
1134292027545428, 8.216953, 1.1126626, 6.064609, -0.6881504, 0.11542463, 10.249338
1134292037184699, 8.045866, -0.22851457, 5.7009, 0.6344465, -0.0979681, 9.842576
1134292046823970, 8.183454, 0.91525465, 6.0490556, -0.4922974, 0.0540514, 10.205509
1134292056463241, 8.084151, 0.1794617, 5.797809, 0.23157811, -0.029901505, 9.94715
1134292066102512, 8.13799, 0.45583272, 5.99761, -0.056921482, -0.074977875, 10.119148
1134292075741782, 8.129615, 0.59700924, 5.9318075, -0.18400002, 0.017313957, 10.079646
1134292085380949, 8.10449, -0.014356935, 5.899504, 0.3998927, -0.14388657, 10.015313
1134292095020220, 8.222935, 0.97866446, 6.0514483, -0.55597717, 0.09235668, 10.240939
1134292104659491, 8.045866, -0.2620141, 5.8169518, 0.6414435, -0.15000343, 9.909976
1134292114298762, 8.203793, 1.1066805, 6.076573, -0.6905185, 0.0871191, 10.245356
1134292123938032, 8.04108, -0.24047868, 5.6961145, 0.6389235, -0.04661131, 9.836266
1134292133577199, 8.16431, 0.9272188, 6.005985, -0.5138446, 0.06414127, 10.164614
1134292143216470, 7.9920278, 0.11964113, 5.7140603, 0.28632104, -0.015208721, 9.821157
1134292152855741, 8.079366, 0.52522457, 5.885147, -0.12463486, 0.0052452087, 10.008567
1134292162495012, 8.093722, 0.5587241, 5.7762737, -0.13382053, 0.10670471, 9.95774
1134292172134282, 8.048259, 0.07537391, 5.7930236, 0.32516277, -0.053195, 9.91114
1134292181773553, 8.189436, 0.97507524, 5.9712887, -0.55170184, 0.11138582, 10.1664715
1134292191412824, 8.069795, -0.2213361, 5.7762737, 0.61971056, -0.10510206, 9.906607
1134292201051991, 8.159525, 0.65682983, 5.9820566, -0.24942756, 0.011942387, 10.135677
1134292210691262, 8.124829, 0.357727, 5.869594, 0.042551994, 0.0058789253, 10.029512
1134292220330532, 8.135597, 0.4139583, 5.907879, -0.013119936, -0.0034866333, 10.06291
1134292229969803, 8.145168, 0.38404804, 5.933004, 0.011638522, -0.025995255, 10.084195
1134292239609074, 8.1344, 0.38524446, 5.9377894, 0.0068854094, -0.032986164, 10.078347
1134292249248345, 8.153543, 0.36490545, 5.9413786, 0.028873563, -0.027860641, 10.095138
1134292258887616, 8.182257, 0.38165522, 5.940182, 0.018062353, -0.0067334175, 10.11832
1134292268526782, 8.165507, 0.4211368, 5.942575, -0.024375558, -0.005973339, 10.107742
1134292278166053, 8.163115, 0.4223332, 5.9377894, -0.025689125, -0.00379467, 10.103043
1134292287805324, 8.149954, 0.41156548, 5.9138613, -0.013239861, 0.0049176216, 10.077932
1134292297444595, 8.118847, 0.37806597, 5.9090757, 0.015631795, -0.021885395, 10.048634
1134292307083866, 8.070991, 0.38165522, 5.8911295, 0.0073535442, -0.035192013, 9.999533
1134292316723137, 8.080562, 0.3912265, 5.8564334, 0.0067379475, -5.2452087E-6, 9.987308
1134292326362407, 8.059027, 0.36370903, 5.8432727, 0.032920122, -0.0093307495, 9.961067
1134292336001678, 8.029117, 0.39840496, 5.855237, -0.007267952, -0.026662827, 9.945274
1134292345640949, 8.04108, 0.39960137, 5.8193445, 1.3649464E-4, 0.008788109, 9.9339485
1134292355280116, 8.097312, 0.43070808, 5.820541, -0.021648169, 0.04573345, 9.981389
1134292364919387, 8.115258, 0.44745782, 5.828916, -0.03731668, 0.051490307, 10.001493
1134292374558657, 8.127222, 0.43669012, 5.8624153, -0.030945659, 0.028858185, 10.030382
1134292384197928, 8.135597, 0.39840496, 5.8672013, 0.006516099, 0.019298553, 10.038442
1134292393837199, 8.143971, 0.4139583, 5.877969, -0.008615136, 0.020170212, 10.052148
1134292403476470, 8.126026, 0.4319045, 5.8863435, -0.02985084, 0.012372494, 10.043248
1134292413115741, 8.139186, 0.40797627, 5.881558, -0.0022188425, 0.018908978, 10.050133
1134292422755012, 8.122437, 0.38883367, 5.8875403, 0.0127877, 6.957054E-4, 10.0393305
1134292432394282, 8.124829, 0.37806597, 5.8839507, 0.024497509, 0.0031666756, 10.038729
1134292442033553, 8.10449, 0.38644084, 5.938986, 0.0024513006, -0.049310684, 10.054911
1134292451672824, 8.16431, 0.4235296, 5.9353967, -0.022436142, 0.0013923645, 10.102661
1134292461312095, 8.155936, 0.39720857, 5.9318075, 0.0025359392, -0.0050196648, 10.092739
1134292470951262, 8.110473, 0.39481574, 5.9318075, -0.002855122, -0.030812263, 10.055895
1134292480590532, 8.129615, 0.39481574, 5.8935223, 0.0068065524, 0.010308266, 10.04888
1134292490229803, 8.142776, 0.3924229, 5.879165, 0.013887942, 0.027355194, 10.050991
1134292499869074, 8.10808, 0.38404804, 5.9042897, 0.012250185, -0.020599365, 10.037356
1134292509508345, 8.099705, 0.3912265, 5.9090757, 0.0034538507, -0.028059483, 10.033677
1134292519147616, 8.124829, 0.41156548, 5.9270215, -0.0149847865, -0.02337265, 10.065339
1134292528786887, 8.135597, 0.4331009, 5.925825, -0.032905698, -0.006746292, 10.074215
1134292538426157, 8.142776, 0.42592242, 5.9413786, -0.027609468, -0.01635027, 10.088863
1134292548065428, 8.13799, 0.4139583, 5.916254, -0.011855364, -1.1968613E-4, 10.069766
1134292557704699, 8.133204, 0.41156548, 5.895915, -0.0068154335, 0.011981487, 10.053857
1134292567343970, 8.126026, 0.41754755, 5.871987, -0.009528637, 0.028355598, 10.034241
1134292576983241, 8.097312, 0.4319045, 5.8636117, -0.02728641, 0.019613743, 10.006688
1134292586622512, 8.099705, 0.41156548, 5.832505, -8.560419E-4, 0.03581667, 9.989566
1134292596261782, 8.066205, 0.39601216, 5.875576, -6.771088E-5, -0.021343231, 9.987112
1134292605901053, 8.048259, 0.36251262, 5.925825, 0.019045353, -0.079790115, 10.000729
1134292615540324, 8.1020975, 0.37567315, 5.8971114, 0.022327065, -0.021328926, 10.027966
1134292625179595, 8.127222, 0.4103691, 5.866005, -0.0018779039, 0.029634953, 10.031414
1134292634818866, 8.123632, 0.4354937, 5.8707905, -0.029079318, 0.03146887, 10.032319
1134292644458137, 8.135597, 0.4235296, 5.8731833, -0.019341588, 0.03008461, 10.042923
1134292654097407, 8.141579, 0.39361933, 5.875576, 0.0105211735, 0.024317265, 10.047982
1134292663736678, 8.103293, 0.38285163, 5.8887367, 0.008213997, -0.01340723, 10.024316
1134292673375949, 8.085348, 0.3804588, 5.9007006, 0.004209757, -0.032733917, 10.016726
1134292683015220, 8.10449, 0.3924229, 5.938986, -0.0112730265, -0.047813892, 10.055144
1134292692654491, 8.109276, 0.37806597, 5.973682, -0.0028657913, -0.07596636, 10.07881
1134292702293762, 8.112865, 0.38763726, 5.968896, -0.010761738, -0.06592131, 10.079291
1134292711933032, 8.140383, 0.3696911, 5.8743796, 0.029533982, 0.021211624, 10.045374
1134292721572303, 8.118847, 0.4211368, 5.869594, -0.023912072, 0.021833897, 10.02717
1134292731211574, 8.111669, 0.4019942, 5.8911295, -0.011127591, -0.009562492, 10.033243
1134292740850845, 8.139186, 0.4319045, 5.8636117, -0.03131616, 0.030777454, 10.040564
1134292750490116, 8.126026, 0.4331009, 5.8337016, -0.029343486, 0.047432423, 10.012434
1134292760129387, 8.129615, 0.40797627, 5.8337016, -0.0058213472, 0.038829327, 10.014371
1134292769768657, 8.12124, 0.37447673, 5.8337016, 0.02507639, 0.025707722, 10.006276
1134292779407928, 8.115258, 0.37806597, 5.8396835, 0.018615603, 0.018354416, 10.005078
1134292789047199, 8.122437, 0.38883367, 5.8887367, -7.5376034E-4, -0.012945652, 10.0400305
1134292798686470, 8.099705, 0.39361933, 5.8887367, -0.010096073, -0.024106026, 10.0218115
1134292808325741, 8.105687, 0.3912265, 5.8767724, -0.0034432411, -0.010883808, 10.01956
1134292817965012, 8.100901, 0.39840496, 5.8672013, -0.009349823, -0.0040946007, 10.010358
1134292827604282, 8.123632, 0.39840496, 5.898308, -0.011382699, -0.015268803, 10.046981
1134292837243553, 8.160722, 0.38285163, 5.892326, 0.01086998, 0.0072188377, 10.0729
1134292846882824, 8.151151, 0.3900301, 5.910272, -0.0014402866, -0.010189533, 10.075941
1134292856522095, 8.160722, 0.4211368, 5.9437714, -0.039402485, -0.019779205, 10.104514
1134292866161366, 8.149954, 0.39720857, 5.948557, -0.019770265, -0.034915447, 10.097686
1134292875800637, 8.128419, 0.38165522, 5.9270215, -0.004360676, -0.033730984, 10.0670395
1134292885439907, 8.122437, 0.3684947, 5.8731833, 0.018526673, 0.0013680458, 10.03014
1134292895079178, 8.135597, 0.3397808, 5.858826, 0.05189538, 0.010266781, 10.031273
1134292904718449, 8.122437, 0.36251262, 5.849255, 0.029114723, 0.015625477, 10.015891
1134292914357720, 8.130812, 0.38404804, 5.837291, 0.012652874, 0.03598261, 10.016491
1134292923996991, 8.118847, 0.40677986, 5.828916, -0.0103110075, 0.041998863, 10.002777
1134292933636262, 8.133204, 0.40558344, 5.852844, -0.014508009, 0.031017303, 10.028367
1134292943275532, 8.129615, 0.40797627, 5.8480587, -0.016498923, 0.03346443, 10.022749
1134292952914803, 8.151151, 0.40079778, 5.8624153, -0.012211084, 0.03133297, 10.048317
1134292962554074, 8.151151, 0.41156548, 5.866005, -0.024480939, 0.029854774, 10.050829
1134292972193345, 8.145168, 0.38165522, 5.877969, 3.912449E-4, 0.00864315, 10.05186
1134292981832720, 8.120044, 0.37686956, 5.8672013, 0.0027985573, -8.3494186E-4, 10.025029
1134292991471991, 8.078169, 0.36729828, 5.8827543, 0.0018754005, -0.038813114, 9.99985
1134293001111262, 8.109276, 0.37208393, 5.8540406, 0.008825421, 0.0023355484, 10.008421
1134293010750532, 8.126026, 0.37686956, 5.864808, 0.006183505, 0.007835865, 10.028469
1134293020389803, 8.142776, 0.38404804, 5.866005, 0.0015366077, 0.019890785, 10.043002
1134293030029074, 8.157132, 0.37806597, 5.8767724, 0.0067806244, 0.018966675, 10.060704
1134293039668345, 8.155936, 0.38524446, 5.930611, -0.010769486, -0.022173882, 10.091542
1134293049307616, 8.132008, 0.3804588, 5.9413786, -0.014028788, -0.044508934, 10.0782995
1134293058946887, 8.151151, 0.38883367, 5.899504, -0.012009263, 0.004902363, 10.069581
1134293068586157, 8.159525, 0.3912265, 5.879165, -0.009411454, 0.026162624, 10.0645275
1134293078225428, 8.148758, 0.38883367, 5.895915, -0.012285173, 0.006259918, 10.065539
1134293087864699, 8.139186, 0.3684947, 5.901897, 0.004818499, -0.010117531, 10.060536
1134293097503970, 8.146365, 0.3505485, 5.8911295, 0.027072906, -0.002813816, 10.059365
1134293107143345, 8.145168, 0.38763726, 5.885147, -0.008251607, 0.009551048, 10.056284
1134293116782616, 8.124829, 0.37567315, 5.889933, 3.4415722E-4, -0.007966518, 10.042172
1134293126421887, 8.114061, 0.37088752, 5.918647, 4.7630072E-4, -0.03687191, 10.050103
1134293136061157, 8.099705, 0.37088752, 5.912665, -4.4107437E-6, -0.03822708, 10.034985
1134293145700428, 8.09133, 0.36610186, 5.879165, 0.010699391, -0.013679981, 10.008392
1134293155339699, 8.079366, 0.35413775, 5.877969, 0.02001357, -0.023442268, 9.997557
1134293164978970, 8.088937, 0.36370903, 5.8731833, 0.011907458, -0.015116215, 10.002855
