timestamp_acc,device_acc_x,device_acc_y,device_acc_z,earth_acc_x,earth_acc_y,earth_acc_z
1134150157059537, 6.521638, -1.7527425, 7.536195, 0.09176743, -0.098267555, 10.118301
1134150166698600, 6.501299, -1.7300107, 7.4620175, 0.08315778, -0.059610367, 10.046446
1134150176337662, 6.526424, -1.7084754, 7.4883385, 0.053341925, -0.048211575, 10.078846
1134150185976725, 6.539584, -1.7024933, 7.3375907, 0.06605852, 0.06109619, 9.974808
1134150195615787, 6.5204415, -1.6881363, 7.3340015, 0.04583031, 0.061065674, 9.957294
1134150205254850, 6.539584, -1.6534405, 7.4512496, -0.009010434, -0.0050935745, 10.050922
1134150214893808, 6.5491557, -1.6833507, 7.533802, 0.007870197, -0.056523323, 10.123241
1134150224532870, 6.4869423, -1.7347964, 7.5050883, 0.07040781, -0.08363962, 10.069973
1134150234171933, 6.5204415, -1.7228323, 7.4452677, 0.06241089, -0.01753664, 10.045502
1134150243810995, 6.5168524, -1.7670995, 7.4356966, 0.10776323, -0.012917995, 10.043397
1134150253450058, 6.5144596, -1.7180467, 7.3974113, 0.0646314, 0.013397217, 10.00536
1134150263089120, 6.526424, -1.6761723, 7.3746796, 0.026091456, 0.041707993, 9.989357
1134150272728079, 6.5228343, -1.6773686, 7.4416785, 0.019405842, -0.0053281784, 10.036888
1134150282367141, 6.4737816, -1.7120646, 7.3866434, 0.06794971, -0.005815506, 9.969898
1134150292006204, 6.4462643, -1.7527425, 7.470392, 0.10268599, -0.079735756, 10.020794
1134150301645266, 6.4677997, -1.7120646, 7.4883385, 0.056833446, -0.072981834, 10.041427
1134150311284329, 6.4534426, -1.6067804, 7.4775705, -0.04871297, -0.06725645, 10.00679
1134150320923391, 6.4259253, -1.544567, 7.4656067, -0.10461146, -0.07593918, 9.969793
1134150330562350, 6.485746, -1.585245, 7.396215, -0.0588699, 0.016824245, 9.963842
1134150340201412, 6.4821568, -1.6283158, 7.496713, -0.023038149, -0.054293156, 10.043257
1134150349840475, 6.4737816, -1.6558332, 7.519445, 0.007855356, -0.07692146, 10.059211
1134150359479537, 6.521638, -1.6450655, 7.4344997, 0.0012336373, 0.014928341, 10.025448
1134150369118600, 6.518049, -1.6606189, 7.399804, 0.025567174, 0.03478527, 9.999892
1134150378757662, 6.503692, -1.672583, 7.4105716, 0.0438143, 0.013337612, 10.0005
1134150388396620, 6.521638, -1.6977077, 7.457232, 0.061040223, -0.0033650398, 10.050896
1134150398035683, 6.489335, -1.7730815, 7.4512496, 0.14120185, -0.025672913, 10.03772
1134150407674745, 6.5575304, -1.4967105, 7.365108, -0.13017279, 0.07517862, 9.973143
1134150417313808, 6.4534426, -1.4201403, 7.4392858, -0.20469427, -0.05805683, 9.947935
1134150426952870, 6.538388, -1.4129617, 7.5732837, -0.23846567, -0.09677315, 10.101255
1134150436591933, 6.550352, -1.6342978, 7.54457, -0.018575966, -0.0637126, 10.123941
1134150446230995, 6.6329045, -1.6498512, 7.381858, 0.004906535, 0.1022954, 10.059761
1134150455869954, 6.5575304, -1.6163517, 7.38784, -0.022898018, 0.021721363, 10.009645
1134150465509016, 6.5694947, -1.5732809, 7.493124, -0.07794684, -0.040868282, 10.0882435
1134150475148079, 6.6305118, -1.5469599, 7.348358, -0.095835745, 0.07518482, 10.017001
1134150484787141, 6.660422, -1.6809579, 6.8662047, 0.08853704, 0.40737104, 9.703495
1134150494426204, 6.704689, -1.8245273, 7.507481, 0.15289348, 0.013178825, 10.228416
1134150504065266, 6.7322063, -1.7216359, 7.570891, 0.033459008, -0.03587103, 10.276314
1134150513704225, 6.5611196, -1.7551354, 7.2658057, 0.12391907, 0.038407803, 9.945044
1134150523343287, 6.5898337, -1.7718852, 7.2346992, 0.14152753, 0.08011484, 9.943837
1134150532982350, 6.530013, -1.7395821, 7.2095747, 0.1186769, 0.05049038, 9.880716
1134150542621412, 6.5228343, -1.7599211, 7.2059855, 0.14026052, 0.036604404, 9.876736
1134150552260475, 6.613762, -1.6833507, 7.469196, 0.02037561, -0.069327354, 10.11727
1134150561899537, 6.5491557, -1.6007984, 7.524231, -0.059512794, -0.15973759, 10.101435
1134150571538495, 6.5431733, -1.5218352, 7.459625, -0.122805595, -0.123295784, 10.037172
1134150581177558, 6.5312095, -1.5924234, 7.4045897, -0.038024545, -0.09457445, 10.000503
1134150590816620, 6.539584, -1.6510476, 7.402197, 0.025035143, -0.084481716, 10.013835
1134150600455683, 6.579066, -1.6582261, 7.4440713, 0.024128973, -0.082354546, 10.071775
1134150610094745, 6.6101727, -1.6474584, 7.457232, 0.0029124022, -0.07391834, 10.100166
1134150619733808, 6.611369, -1.6019948, 7.5050883, -0.048971474, -0.111501694, 10.128579
1134150629372870, 6.611369, -1.625923, 7.499106, -0.02281326, -0.113526344, 10.128031
1134150639011829, 6.6795645, -1.6211374, 7.472785, -0.0272336, -0.05175686, 10.153016
1134150648650891, 6.7537417, -1.6426728, 7.393822, 0.0028190613, 0.04794264, 10.147791
1134150658289954, 6.710671, -1.6486548, 7.3770723, 0.023876548, 0.01704979, 10.107992
1134150667929016, 6.6628146, -1.6079768, 7.4309106, -0.018197894, -0.054243088, 10.1090975
1134150677568079, 6.650851, -1.550549, 7.4476604, -0.060248435, -0.093836784, 10.104119
1134150687207141, 6.674779, -1.5613167, 7.3746796, -0.042607605, -0.02726841, 10.068451
1134150696846100, 6.6711893, -1.585245, 7.373483, -0.0082812905, -0.041253567, 10.068974
1134150706485162, 6.664011, -1.5481563, 7.4416785, -0.03459072, -0.11913729, 10.10787
1134150716124225, 6.6711893, -1.5302101, 7.4045897, -0.04845333, -0.08861637, 10.08286
1134150725763287, 6.6999035, -1.4392828, 7.312466, -0.11961037, -0.013764381, 10.020874
1134150735402350, 6.6771717, -1.4524434, 7.271788, -0.08925766, -0.014317036, 9.978224
1134150745041412, 6.7334027, -1.5672989, 7.192825, 0.048425853, 0.050828934, 9.976318
1134150754680370, 6.7369924, -1.6474584, 7.213164, 0.12502867, 0.038134575, 10.00569
1134150764319433, 6.759724, -1.6701902, 7.2693954, 0.1529339, -0.029963017, 10.064951
1134150773958495, 6.7740808, -1.6414764, 7.2059855, 0.13067561, 0.023702621, 10.02453
1134150783597558, 6.771688, -1.6091732, 7.129415, 0.11679453, 0.04767561, 9.962824
1134150793236620, 6.8135624, -1.570888, 7.1509504, 0.08133781, 0.039277554, 10.001013
1134150802875683, 6.8446693, -1.4943178, 7.183254, 0.008015096, 0.018655777, 10.034002
1134150812514745, 6.8805614, -1.4536397, 7.1270223, -0.010965884, 0.055928707, 10.012312
1134150822153704, 6.8650084, -1.402194, 7.076773, -0.05500263, 0.07938099, 9.958206
1134150831792766, 6.8662047, -1.43689, 7.1066833, -0.009450078, 0.041235924, 9.985619
1134150841431829, 6.8518476, -1.4536397, 7.146165, 0.004829645, 0.0036821365, 10.006424
1134150851070891, 6.9116683, -1.4057833, 7.1688967, -0.045226514, 0.020614624, 10.05674
1134150860709954, 6.9523463, -1.430908, 7.172486, -0.0071126223, 0.014305115, 10.090933
1134150870349016, 6.95115, -1.4488541, 7.2179494, 0.020214379, -0.04037714, 10.124943
1134150879987975, 6.971489, -1.3950156, 7.26102, -0.039025545, -0.05621147, 10.161962
1134150889627037, 7.0002027, -1.3375878, 7.1952176, -0.05967474, -0.029974937, 10.127127
1134150899266100, 7.02772, -1.3339987, 7.203593, -0.051052094, -0.032501698, 10.151674
1134150908905162, 7.0193453, -1.3639089, 7.2299137, -0.009767652, -0.07043743, 10.168484
1134150918544225, 7.004988, -1.3938192, 7.125826, 0.038178205, -0.016198635, 10.089018
1134150928183287, 7.0169525, -1.3878372, 7.094719, 0.033669114, 0.014101982, 10.074594
1134150937822245, 7.0229344, -1.3627125, 7.1629148, 0.0056890845, -0.046913147, 10.123423
1134150947461308, 7.042077, -1.3184453, 7.1246295, -0.036925018, -0.006963253, 10.103865
1134150957100370, 7.0576305, -1.3304094, 7.0528445, -0.017730832, 0.0453887, 10.065802
1134150966739433, 7.038488, -1.3112668, 7.0085773, -0.02392739, 0.05001068, 10.018824
1134150976378495, 7.012167, -1.3064811, 7.076773, -0.022767305, -0.033766747, 10.047708
1134150986017558, 7.038488, -1.3579268, 7.129415, 0.032675862, -0.07010031, 10.109741
1134150995656620, 7.045666, -1.3986049, 7.09113, 0.099095285, -0.066830635, 10.092936
1134151005295579, 7.064809, -1.3459628, 7.0875406, 0.04532367, -0.050688267, 10.097116
1134151014934641, 7.0540414, -1.3016955, 7.0600233, 0.030938387, -0.06711483, 10.064411
1134151024573704, 7.0839515, -1.2849457, 7.012167, 0.015644968, -0.012010574, 10.050053
1134151034212766, 7.1485577, -1.2023934, 6.9738817, -0.036034167, 0.015003204, 10.058884
1134151043851829, 7.2083783, -1.1246266, 6.9224358, -0.114193976, 0.0936265, 10.056034
1134151053490891, 7.2095747, -1.1557333, 6.908079, -0.036408484, 0.03949833, 10.051485
1134151063129850, 7.21436, -1.2155539, 6.829116, 0.02820617, 0.10061741, 10.007521
1134151072768912, 7.2466636, -1.2203395, 6.782456, 0.056777, 0.12529993, 9.999308
1134151082407975, 7.271788, -1.1569297, 6.7322063, 0.033284336, 0.12769508, 9.976101
1134151092047037, 7.318448, -1.079163, 6.600601, -0.022003144, 0.2371993, 9.911381
1134151101686100, 7.342376, -1.0037891, 6.672386, -0.08817887, 0.18731403, 9.969751
1134151111325162, 7.3567333, -0.96909314, 6.6652074, -0.109880716, 0.19079542, 9.97182
1134151120964120, 7.3363943, -1.0277174, 6.6735826, -0.03521529, 0.15906906, 9.969406
1134151130603183, 7.37109, -1.0671989, 6.6041903, 0.0053054392, 0.23395205, 9.951506
1134151140242245, 7.4883385, -1.0241281, 6.4977098, -0.024127364, 0.37580824, 9.960043
1134151149881308, 7.57448, -1.1066805, 6.422336, 0.092505395, 0.43699598, 9.982203
1134151159520370, 7.588837, -1.1832508, 6.512067, 0.16227901, 0.38250828, 10.06106
1134151169159433, 7.635497, -1.0576276, 6.576673, 0.076961935, 0.29750776, 10.128059
1134151178798391, 7.725228, -0.87936234, 6.495317, -0.071550936, 0.38780308, 10.12354
1134151188437454, 7.7623167, -0.84347, 6.38764, -0.10456675, 0.49197626, 10.075415
1134151198076516, 7.7647095, -0.9272188, 6.2955165, 0.05484724, 0.5144534, 10.025782
1134151207715579, 7.789834, -0.8961121, 6.411568, 0.046709687, 0.41911745, 10.120025
1134151217354641, 7.9022965, -0.66161543, 6.439086, -0.18971899, 0.47235727, 10.202291
1134151226993704, 7.7120676, -1.3938192, 6.125626, 0.617772, 0.5373497, 9.913204
1134151236632662, 7.847262, -0.41156548, 6.242874, -0.31648564, 0.5070324, 10.018239
1134151246271725, 7.838887, -1.1413764, 6.1531434, 0.41778642, 0.54529476, 10.007005
1134151255910787, 7.982456, -0.5455636, 6.218946, -0.13443056, 0.54635715, 10.1181
1134151265549850, 7.90469, -0.45224348, 6.1854467, -0.22009847, 0.5223322, 10.031309
1134151275188912, 7.753942, -0.8781659, 6.390033, 0.28931487, 0.20555305, 10.079748
1134151284827975, 7.698907, 0.02751746, 6.410372, -0.60948294, 0.161901, 9.998455
1134151294466933, 7.4416785, -1.1246266, 6.2404814, 0.6540633, 0.07040453, 9.7547035
1134151304105995, 7.5349984, 0.40558344, 6.276374, -0.8767317, 0.10780096, 9.775137
1134151313745058, 7.2155566, -0.8315059, 6.3314085, 0.4613702, -0.21045732, 9.622122
1134151323384120, 7.365108, 0.5479564, 6.6963143, -0.9271365, -0.4218912, 9.917063
1134151333023183, 7.149754, -0.3385844, 6.6652074, -0.0038162991, -0.5404544, 9.765577
1134151342662245, 7.213164, 0.19980069, 6.8518476, -0.49490058, -0.6530905, 9.916956
1134151352301308, 7.068398, 0.09451649, 6.795616, -0.35334775, -0.68429804, 9.7754
1134151361940266, 6.9391856, -0.36131623, 7.048059, 0.15311508, -0.9160905, 9.853695
1134151371579329, 6.984649, 0.53240305, 7.0935225, -0.728542, -0.93092585, 9.898963
1134151381218391, 6.7573314, -0.6089734, 7.062416, 0.46357876, -0.95837593, 9.735332
1134151390857454, 6.9188466, 0.86859465, 7.1688967, -0.9950923, -1.0428243, 9.896479
1134151400496516, 6.707082, -0.6257231, 7.045666, 0.523682, -0.9856348, 9.683602
1134151410135579, 6.9499536, 0.6197411, 7.2442703, -0.69517195, -1.0973954, 9.973858
1134151419774537, 6.808777, -0.5072784, 7.024131, 0.4454232, -0.91867733, 9.742321
1134151429413600, 7.003792, 0.04546363, 7.0193453, -0.104144275, -0.83228064, 9.880427
1134151439052662, 7.01097, -0.14596218, 6.74776, 0.06028098, -0.60157585, 9.712968
1134151448691725, 7.117451, -0.41635114, 6.879365, 0.3317334, -0.560297, 9.886008
1134151458330787, 7.2909307, 0.4438686, 6.96431, -0.53005284, -0.5919752, 10.061061
1134151467969850, 7.26102, -0.7298109, 6.920043, 0.6229049, -0.43778515, 10.028079
1134151477608808, 7.4739814, 0.59700924, 6.9678993, -0.7072859, -0.44134998, 10.201637
1134151487247870, 7.283752, -0.93679005, 6.8398833, 0.82571775, -0.3280573, 9.99626
1134151496886933, 7.5553374, 0.4139583, 6.9355965, -0.5242655, -0.31360722, 10.24616
1134151506525995, 7.393822, -0.72502524, 6.6975107, 0.6060861, -0.1597271, 9.982889
1134151516165058, 7.578069, -0.046660043, 6.8398833, -0.068924546, -0.17379236, 10.20678
1134151525804120, 7.5433736, -0.28953153, 6.666404, 0.17001608, -0.03410387, 10.069616
1134151535443079, 7.63789, -0.40079778, 6.6628146, 0.27595946, 0.044975758, 10.139671
1134151545082141, 7.769495, 0.42592242, 6.6676, -0.5546998, 0.09008026, 10.231694
1134151554721204, 7.752745, -0.62811595, 6.690332, 0.4971363, 0.12829065, 10.246782
1134151564360266, 8.020741, 0.64247286, 6.7334027, -0.7804632, 0.19164467, 10.46126
1134151573999329, 7.8281193, -0.92602235, 6.5754766, 0.79343486, 0.2998309, 10.230074
1134151583638391, 8.003992, 0.5084748, 6.7585278, -0.64217895, 0.20140696, 10.466478
1134151593277350, 7.7946196, -0.66400826, 6.5682983, 0.5201415, 0.30464792, 10.196872
1134151602916412, 7.9537425, 0.22731815, 6.7238317, -0.3663618, 0.24448156, 10.408152
1134151612555475, 7.7671022, -0.06819545, 6.600601, -0.07436611, 0.23444223, 10.190189
1134151622194537, 7.8053875, -0.21655045, 6.7645097, 0.06845409, 0.15422344, 10.329622
1134151631833600, 7.8257265, 0.35413775, 6.735796, -0.50463164, 0.16101837, 10.317839
1134151641472662, 7.6462646, -0.77766734, 6.710671, 0.6258125, 0.1187973, 10.183195
1134151651111620, 7.7419777, 0.5084748, 6.7525454, -0.6744239, 0.110171795, 10.2628765
1134151660750683, 7.4847493, -0.9822537, 6.6735826, 0.80720603, 0.10162449, 10.042963
1134151670389745, 7.648658, 0.51206404, 6.884151, -0.7315841, 0.05667305, 10.277027
1134151680028808, 7.391429, -0.695115, 6.7369924, 0.46063736, 0.059354305, 10.014378
1134151689667870, 7.5326056, 0.22013968, 6.9092755, -0.4813602, 0.009259224, 10.212486
1134151699306933, 7.331609, -0.2847459, 6.8315086, 0.031664796, -0.045502186, 10.024969
1134151708945891, 7.3399835, -0.3469593, 7.015756, 0.052907683, -0.14182138, 10.158428
1134151718584954, 7.344769, 0.11964113, 6.876972, -0.42917338, -0.034160137, 10.053225
1134151728224016, 7.2490563, -0.88414794, 6.873383, 0.57808375, -0.07408285, 10.011705
1134151737863079, 7.379465, 0.37806597, 7.01097, -0.70006734, -0.11265898, 10.161218
1134151747502141, 7.1377897, -1.0683953, 6.9535427, 0.729989, -0.1835475, 9.993732
1134151757141204, 7.367501, 0.43669012, 7.0492554, -0.7815301, -0.14394951, 10.175032
1134151766780162, 7.146165, -0.8135597, 6.800402, 0.44723132, -0.04357767, 9.888029
1134151776419225, 7.300502, 0.11365908, 6.937989, -0.485934, -0.06666136, 10.060088
1134151786058287, 7.1018977, -0.5288138, 6.8374906, 0.14791542, -0.09060907, 9.8710575
1134151795697350, 7.105487, -0.5204389, 7.003792, 0.12720355, -0.19328928, 9.987911
1134151805336412, 7.0731835, -0.15074782, 6.9320073, -0.26602182, -0.15490532, 9.90003
1134151814975475, 7.0097737, -1.0372887, 6.9344, 0.5737784, -0.15478516, 9.896748
1134151824614537, 7.1617184, 0.19262223, 6.977471, -0.6597518, -0.08336544, 9.978487
1134151834253495, 6.966703, -1.3052847, 6.903293, 0.80648255, -0.13268614, 9.860333
1134151843892558, 7.2490563, 0.11006984, 7.025327, -0.6208942, -0.012993336, 10.076233
1134151853531620, 7.007381, -1.3423735, 6.8518476, 0.8152361, -0.056357384, 9.858265
1134151863170683, 7.160522, -0.27517462, 7.0325055, -0.26208976, -0.06889582, 10.036509
1134151872809745, 7.0133634, -0.9379865, 6.8865438, 0.39496592, -0.06306887, 9.865677
1134151882448808, 7.0875406, -0.7920243, 7.0301127, 0.22805059, -0.09635973, 10.011081
1134151892087766, 7.0803623, -0.41874397, 6.908079, -0.17939374, 0.017559052, 9.899292
1134151901726829, 6.983453, -1.2406785, 7.0540414, 0.64024895, -0.1500988, 9.981731
1134151911365891, 7.133004, -0.12203395, 7.172486, -0.502046, -0.12084389, 10.103096
1134151921004954, 6.971489, -1.5170496, 7.1102724, 0.86674774, -0.13525009, 10.034417
1134151930644016, 7.2095747, 0.016749758, 7.160522, -0.6962788, -0.0137319565, 10.137374
1134151940283079, 6.954739, -1.3998013, 7.025327, 0.73603374, -0.08010864, 9.956652
1134151949922037, 7.1856465, -0.34456646, 7.159325, -0.34564513, -0.019414425, 10.14339
1134151959561100, 7.0576305, -1.1688938, 6.957132, 0.46573156, 0.068330765, 9.967778
1134151969200162, 7.1772714, -0.8997013, 7.143772, 0.18295667, 0.01619482, 10.164765
1134151978839225, 7.166504, -0.64247286, 7.0636125, -0.09367815, 0.06868029, 10.082295
1134151988478287, 7.082755, -1.3663018, 7.1389866, 0.6313664, -0.015886784, 10.129089
1134151998117350, 7.1365933, -0.23808585, 7.1485577, -0.5055498, -0.023039818, 10.091255
1134152007756412, 6.8889365, -1.6211374, 7.1282187, 0.8822191, -0.1332779, 10.005047
1134152017395370, 7.0348988, -0.14476576, 7.2323065, -0.61332726, -0.13571835, 10.070869
1134152027034433, 6.782456, -1.6127625, 7.0408807, 0.8765104, -0.13132381, 9.868698
1134152036673495, 6.983453, -0.4139583, 7.21436, -0.3496818, -0.15583992, 10.041931
1134152046312558, 6.7764735, -1.2143575, 7.076773, 0.4687081, -0.18042803, 9.8602085
1134152055951620, 6.843473, -0.78364944, 7.21436, 0.014835775, -0.24121475, 9.971752
1134152065590683, 6.8111696, -0.61016977, 7.0959153, -0.15230659, -0.18465519, 9.851856
1134152075229641, 6.741778, -1.2669996, 7.1042905, 0.49526167, -0.22652388, 9.860588
1134152084868704, 6.8219376, -0.2644069, 7.0839515, -0.51217216, -0.16602468, 9.823502
1134152094507766, 6.649654, -1.6761723, 7.051648, 0.90168935, -0.24055529, 9.791949
1134152104146829, 6.8913293, -0.24047868, 7.1007013, -0.55517894, -0.1211524, 9.881563
1134152113785891, 6.6711893, -1.7443677, 6.9858456, 0.96342534, -0.19099617, 9.766521
1134152123424954, 6.9786673, -0.48095736, 7.2011995, -0.32340413, -0.13294744, 10.033352
1134152133064016, 6.910472, -1.4141582, 7.082755, 0.6144453, -0.06442928, 9.976883
1134152142702975, 7.0492554, -0.9236295, 7.196414, 0.11041325, -0.05635929, 10.115242
1134152152342037, 6.937989, -0.8578269, 7.0695944, 0.048840582, -0.032942295, 9.942197
1134152161981100, 6.8745794, -1.3555341, 7.186843, 0.53923464, -0.12423372, 10.022066
1134152171620162, 6.9248285, -0.36490545, 7.152147, -0.46320075, -0.0863719, 9.95076
1134152181259225, 6.7262244, -1.6175481, 7.135397, 0.8028909, -0.17531586, 9.904396
1134152190898287, 6.926025, -0.08733802, 7.2825556, -0.7351751, -0.19720745, 10.02166
1134152200537350, 6.7968125, -1.5062819, 7.186843, 0.67576706, -0.16400862, 9.981618
1134152210176308, 7.0935225, -0.23090738, 7.359126, -0.6222705, -0.09156084, 10.204535
1134152219815370, 6.9296145, -1.3052847, 7.198807, 0.4694094, -0.06865406, 10.065837
1134152229454433, 7.0959153, -0.6759724, 7.373483, -0.17484039, -0.07115841, 10.253857
1134152239093495, 7.036095, -0.66759753, 7.223932, -0.17225489, -0.009506702, 10.104837
1134152248732558, 6.954739, -1.0432707, 7.30768, 0.2042641, -0.10014677, 10.13939
1134152258371620, 7.038488, -0.12921242, 7.3435726, -0.722546, -0.09170246, 10.146654
1134152268010683, 6.8889365, -1.3495519, 7.3579297, 0.51229763, -0.17273808, 10.155078
1134152277649745, 7.0528445, 0.0741775, 7.4440713, -0.9330938, -0.14864969, 10.2112465
1134152287288704, 6.9320073, -1.4093726, 7.2849483, 0.5607925, -0.08666515, 10.138418
1134152296927766, 7.207182, -0.051445685, 7.3304124, -0.8099226, 0.031159401, 10.248127
1134152306566829, 7.0301127, -1.0839486, 7.0803623, 0.24279454, 0.12660027, 10.032646
1134152316205891, 7.149754, -0.35174492, 7.2550383, -0.48750424, 0.06870842, 10.180174
1134152325844954, 7.012167, -0.56350976, 7.082755, -0.26177675, 0.09223652, 9.9788
1134152335484016, 6.9822564, -0.8877372, 7.1222367, 0.07143849, 0.03955412, 10.01297
1134152345123079, 7.0061846, -0.059820566, 7.0636125, -0.7520826, 0.07974005, 9.920324
1134152354762141, 6.859026, -1.1952149, 7.1018977, 0.38237754, -0.0333457, 9.938028
1134152364401100, 7.04447, 0.22253251, 7.192825, -1.03992, -0.008031368, 10.016453
1134152374040162, 6.8781686, -1.3040884, 7.048059, 0.4877166, 0.011596203, 9.922045
1134152383679225, 7.143772, 0.01794617, 7.1449685, -0.8404518, 0.10343838, 10.068134
1134152393318287, 6.9595246, -1.174876, 6.95115, 0.3579146, 0.14732218, 9.898686
1134152402957350, 7.1210403, -0.39361933, 7.170093, -0.42937163, 0.0893774, 10.103565
1134152412596412, 7.0097737, -0.6795616, 7.0301127, -0.1369937, 0.11826372, 9.949297
1134152422235475, 6.9858456, -0.9738788, 7.0205417, 0.1608859, 0.111916065, 9.949879
1134152431874537, 7.042077, -0.42592242, 6.942775, -0.38774663, 0.20556116, 9.888467
1134152441513600, 6.963114, -1.5529419, 7.064809, 0.7196036, 0.07259035, 10.014242
1134152451152558, 7.200003, -0.101694964, 7.133004, -0.7434728, 0.20440531, 10.106216
1134152460791620, 6.936793, -1.6378871, 7.0097737, 0.78806174, 0.09060955, 9.965414
1134152470430683, 7.160522, -0.2416751, 7.1772714, -0.621174, 0.16089106, 10.120916
1134152480069745, 7.018149, -1.4943178, 7.076773, 0.6219474, 0.115036964, 10.058233
1134152489708808, 7.196414, -0.695115, 7.2646093, -0.20546752, 0.12751293, 10.246346
1134152499347870, 7.0468626, -1.105484, 7.1653075, 0.2199325, 0.090302944, 10.107694
1134152508986933, 7.0863442, -1.2059826, 7.312466, 0.3043422, 0.01164341, 10.249393
1134152518625995, 7.0935225, -0.62093747, 7.240681, -0.28341162, 0.0778532, 10.151094
1134152528265058, 7.0193453, -1.678565, 7.274181, 0.77197045, 0.0010151863, 10.217953
1134152537904120, 7.2095747, -0.36729828, 7.375876, -0.5718837, 0.07549858, 10.304546
1134152547543079, 7.02772, -1.881955, 7.274181, 0.95460904, 0.003047943, 10.243681
1134152557182141, 7.2418776, -0.45822555, 7.399804, -0.5027563, 0.08063412, 10.351453
1134152566821204, 6.977471, -1.7120646, 7.288538, 0.7695702, -0.045819283, 10.205131
1134152576460266, 7.048059, -0.6939186, 7.501499, -0.26047847, -0.12674046, 10.312384
1134152586099329, 6.815955, -1.1976078, 7.351948, 0.24116677, -0.18138885, 10.092155
1134152595738391, 6.780063, -1.1389836, 7.524231, 0.1761095, -0.32363653, 10.18552
1134152605377454, 6.762117, -0.62811595, 7.4177504, -0.33264217, -0.26021385, 10.048157
1134152615016516, 6.6329045, -1.6175481, 7.38784, 0.6504453, -0.3132496, 10.033486
1134152624655579, 6.818348, -0.36729828, 7.3950186, -0.6050909, -0.20259285, 10.045093
1134152634294641, 6.649654, -1.7730815, 7.2490563, 0.79800713, -0.18981504, 9.961812
1134152643933600, 6.9344, -0.32303107, 7.335198, -0.66758597, -0.069257736, 10.07695
1134152653572662, 6.7633133, -1.6917256, 7.1581287, 0.7021193, -0.054034233, 9.96731
1134152663211725, 6.948757, -0.74536425, 7.3746796, -0.2763223, -0.09049034, 10.155893
1134152672850787, 6.815955, -1.3698909, 7.2382884, 0.36486077, -0.08724785, 10.029253
1134152682489850, 6.8279195, -1.2646067, 7.3268228, 0.2494517, -0.14482355, 10.090532
1134152692128912, 6.77767, -0.89371926, 7.2729845, -0.13501999, -0.13300896, 9.979776
1134152701767975, 6.7585278, -1.7515461, 7.3435726, 0.7107073, -0.20725775, 10.1057205
1134152711407037, 6.8949184, -0.53359944, 7.368697, -0.5330664, -0.10627842, 10.09093
1134152721046100, 6.7441707, -1.9094725, 7.274181, 0.85491425, -0.14116192, 10.064434
1134152730685162, 6.983453, -0.46181476, 7.375876, -0.6256666, -0.056880474, 10.148436
1134152740324225, 6.7118673, -1.8652053, 7.1916285, 0.8051183, -0.10231924, 9.979428
1134152749963287, 6.855437, -0.7298109, 7.350751, -0.35808706, -0.13145542, 10.070635
1134152759602350, 6.6831536, -1.4261223, 7.176075, 0.36241382, -0.120749, 9.901942
1134152769241412, 6.7429743, -1.2179468, 7.3100734, 0.14013669, -0.17775345, 10.016838
1134152778880475, 6.7501526, -0.88414794, 7.159325, -0.2022146, -0.069719315, 9.877068
1134152788519537, 6.7441707, -1.5637096, 7.216753, 0.46940887, -0.10910511, 9.988909
1134152798158495, 6.899704, -0.37806597, 7.23111, -0.73465705, 0.0033216476, 9.974872
1134152807797558, 6.7238317, -1.8604196, 7.1222367, 0.76912737, -0.07692766, 9.939812
1134152817436620, 6.920043, -0.44147578, 7.281359, -0.68451524, -0.011848927, 10.031519
1134152827075683, 6.7130637, -1.8628124, 7.129415, 0.7552653, -0.086783886, 9.93911
1134152836714745, 6.9212394, -0.67836523, 7.2849483, -0.46078566, -0.014402866, 10.0609
1134152846353808, 6.8171515, -1.4249259, 7.160522, 0.30247557, -0.034159184, 9.984207
1134152855992870, 6.9942207, -1.1246266, 7.304091, -0.020167291, 0.005794525, 10.175127
1134152865631933, 7.0528445, -0.95353985, 7.1653075, -0.18656862, 0.1449132, 10.096418
1134152875270995, 7.036095, -1.6654046, 7.1653075, 0.53061247, 0.103316784, 10.165119
1134152884910058, 7.1617184, -0.6029913, 7.213164, -0.5429394, 0.17974234, 10.166437
1134152894549120, 6.9738817, -1.9010975, 7.1545396, 0.76364017, 0.05287218, 10.141534
1134152904188183, 7.1042905, -0.41874397, 7.23111, -0.71264076, 0.116429806, 10.119972
1134152913827245, 6.7573314, -1.8795621, 7.062416, 0.76355726, -0.06754732, 9.923932
1134152923466308, 6.9355965, -0.58983076, 7.263413, -0.5360025, -0.05001068, 10.045784
1134152933105370, 6.7130637, -1.3938192, 7.0875406, 0.27564722, -0.10608244, 9.856669
1134152942744433, 6.8721867, -1.0444671, 7.109076, -0.07805824, 0.0019869804, 9.942369
1134152952383495, 6.971489, -1.0839486, 6.8051877, -0.0253883, 0.28318548, 9.798283
1134152962022558, 6.9020967, -1.7575282, 6.928418, 0.6321122, 0.1458087, 9.91514
1134152971661620, 6.9906316, -0.68075806, 7.173682, -0.47688097, 0.024838924, 10.028262
1134152981300683, 6.799206, -1.9154545, 7.204789, 0.76958555, -0.1545639, 10.059374
1134152990939745, 6.916454, -0.34576288, 7.3136625, -0.80545235, -0.1319294, 10.038944
1134153000578808, 6.6855464, -1.7001005, 7.1485577, 0.558616, -0.18792248, 9.916721
1134153010217870, 6.879365, -0.3804588, 7.240681, -0.754079, -0.08699417, 9.966026
1134153019856933, 6.6676, -1.2658032, 7.0372915, 0.15220916, -0.09957981, 9.774944
1134153029495995, 6.835098, -0.77766734, 7.173682, -0.34484953, -0.077153206, 9.932783
1134153039135058, 6.8315086, -0.8566305, 7.0408807, -0.25501508, 0.011497021, 9.844397
1134153048774120, 6.8111696, -1.3639089, 7.1186476, 0.2436755, -0.05518675, 9.943087
1134153058413183, 6.8817577, -0.40079778, 7.1712894, -0.73439187, -0.05674362, 9.919884
1134153068052245, 6.795616, -1.6402799, 7.2179494, 0.50977165, -0.12050152, 10.034706
1134153077691308, 7.0492554, -0.19381863, 7.3028946, -0.96459216, -0.00487566, 10.106007
1134153087330370, 6.8985076, -1.6618153, 7.0935225, 0.5215622, 0.057440758, 10.0196705
1134153096969433, 7.1677003, -0.31944183, 7.233503, -0.8275852, 0.13039207, 10.153799
1134153106608495, 7.0097737, -1.3543376, 7.099505, 0.22694582, 0.12397337, 10.065151
1134153116247558, 7.159325, -0.782453, 7.2586274, -0.34592164, 0.118347645, 10.218716
1134153125886620, 7.1018977, -0.9403793, 7.025327, -0.15877396, 0.23281145, 10.029809
1134153135525683, 7.0289164, -1.2993027, 7.082755, 0.20165598, 0.13629818, 10.059822
1134153145164745, 7.0348988, -0.46181476, 7.0839515, -0.6317789, 0.1409235, 9.973286
1134153154803808, 6.9152575, -1.6546369, 7.066005, 0.5613438, 0.06893301, 10.008356
1134153164442870, 7.051648, -0.22372891, 7.1246295, -0.8765253, 0.117712975, 9.987692
1134153174081933, 6.8542404, -1.6558332, 6.9535427, 0.5763234, 0.095189095, 9.885996
1134153183720995, 7.1018977, -0.19980069, 7.1042905, -0.9082944, 0.18032932, 10.004515
1134153193360058, 6.897311, -1.2957134, 6.987042, 0.22161317, 0.1007452, 9.900064
1134153202999120, 7.058827, -0.6329016, 7.1677003, -0.46262586, 0.0901947, 10.068832
1134153212638183, 6.9056864, -0.8853444, 7.0875406, -0.18060893, 0.038746357, 9.93335
1134153222277245, 6.937989, -1.2299109, 7.1018977, 0.1642865, 0.054049492, 10.002771
1134153231916308, 6.9475603, -0.5814559, 7.0432734, -0.4795023, 0.117536545, 9.898012
1134153241555370, 6.8039913, -1.7419748, 7.105487, 0.67737293, -0.050017834, 9.967716
1134153251194433, 7.0061846, -0.32542387, 7.27777, -0.7721609, 0.025250912, 10.077778
1134153260833495, 6.762117, -1.8041883, 7.2287173, 0.7188789, -0.14704657, 10.034802
1134153270472558, 6.9822564, -0.4438686, 7.3950186, -0.6567149, -0.07767534, 10.158638
1134153280111725, 6.754938, -1.6235301, 7.216753, 0.54318756, -0.12236595, 10.001827
1134153289750787, 6.903293, -0.8327023, 7.3974113, -0.27547997, -0.124485016, 10.147865
1134153299389850, 6.812366, -1.180858, 7.2789664, 0.09601104, -0.1040411, 10.038231
1134153309028912, 6.843473, -1.4069797, 7.3603225, 0.31374067, -0.13249683, 10.142538
1134153318667975, 6.942775, -0.74895346, 7.30768, -0.34840298, -0.026382446, 10.101642
1134153328307037, 6.8518476, -1.7754744, 7.350751, 0.67769325, -0.1010952, 10.1815605
1134153337946100, 7.0348988, -0.4546363, 7.4656067, -0.6666875, -0.053964615, 10.246189
1134153347585162, 6.8446693, -1.9764715, 7.3340015, 0.8707105, -0.102874756, 10.186991
1134153357224225, 7.018149, -0.5084748, 7.459625, -0.61848193, -0.05235386, 10.235902
1134153366863287, 6.79442, -1.7419748, 7.288538, 0.63793665, -0.10073042, 10.094765
1134153376502350, 6.9128647, -0.87218386, 7.4273214, -0.25356048, -0.10066414, 10.180329
1134153386141412, 6.7812595, -1.3543376, 7.239485, 0.24913698, -0.065509796, 10.008171
1134153395780475, 6.7848487, -1.4715859, 7.32443, 0.34866667, -0.11798334, 10.085214
1134153405419641, 6.806384, -0.8745767, 7.2586274, -0.24060604, -0.045930862, 9.985962
1134153415058704, 6.71426, -1.847259, 7.2382884, 0.7249041, -0.111257076, 10.017416
1134153424697766, 6.8303123, -0.5096712, 7.2933235, -0.62908983, -0.049335003, 9.985355
1134153434336829, 6.6424756, -1.948954, 7.245467, 0.82993853, -0.16471481, 9.985077
1134153443975891, 6.926025, -0.4953143, 7.375876, -0.6464603, -0.025806904, 10.109408
1134153453614954, 6.6963143, -1.8197416, 7.1186476, 0.6966057, -0.042164803, 9.916662
1134153463254016, 6.8374906, -0.87936234, 7.24786, -0.25885594, -0.0070152283, 9.999449
1134153472893079, 6.678368, -1.4333007, 7.0983086, 0.31608427, -0.024270535, 9.845833
1134153482532141, 6.7322063, -1.4404793, 7.186843, 0.31240052, -0.040699005, 9.947313
1134153492171204, 6.771688, -0.9284152, 7.088737, -0.19912577, 0.06257677, 9.8450165
1134153501810370, 6.680761, -1.7994026, 7.1509504, 0.6572025, -0.06068468, 9.928288
1134153511449433, 6.835098, -0.5383851, 7.2562346, -0.6204803, 0.0028705597, 9.963751
1134153521088495, 6.6759753, -1.9621146, 7.225128, 0.80897444, -0.1016345, 9.997811
1134153530727558, 6.879365, -0.47377887, 7.375876, -0.68005186, -0.06795168, 10.074055
1134153540366620, 6.6759753, -1.7802601, 7.1617184, 0.645367, -0.041665077, 9.930254
1134153550005683, 6.8506513, -0.7393822, 7.32443, -0.39664504, -0.03698969, 10.048219
1134153559644745, 6.73101, -1.3519448, 7.21436, 0.23432815, -0.0252347, 9.956188
1134153569283808, 6.849455, -1.1413764, 7.3627152, 0.002094686, -0.045197964, 10.120539
1134153578922975, 6.8745794, -0.7513463, 7.2693954, -0.38163185, 0.025282383, 10.026075
1134153588562037, 6.798009, -1.5768701, 7.353144, 0.44996366, -0.059037685, 10.127301
1134153598201100, 6.9678993, -0.38644084, 7.405786, -0.7524839, -0.0095357895, 10.147921
1134153607840162, 6.7968125, -1.8053846, 7.3435726, 0.6922016, -0.05539751, 10.144059
1134153617479225, 7.0731835, -0.27876383, 7.4775705, -0.8623079, 0.030004501, 10.260469
1134153627118287, 6.867401, -1.6390835, 7.322037, 0.5185158, 0.003226757, 10.158306
1134153636757454, 7.025327, -0.52283174, 7.5146594, -0.5961681, -0.019439697, 10.283136
1134153646396516, 6.893722, -1.2418749, 7.298109, 0.15383875, 0.043387413, 10.11447
1134153656035579, 6.9655066, -0.94277215, 7.393822, -0.15582848, 0.029027462, 10.200519
1134153665674641, 6.8805614, -0.721436, 7.2849483, -0.36286283, 0.045921326, 10.039886
1134153675313704, 6.795616, -1.524228, 7.3603225, 0.43726134, -0.079730034, 10.123264
1134153684952766, 6.9415784, -0.39720857, 7.3950186, -0.69460106, 0.031507015, 10.126505
1134153694591829, 6.7645097, -1.7886349, 7.3304124, 0.69464874, -0.08168697, 10.109576
1134153704230995, 6.9344, -0.3182454, 7.4392858, -0.77592117, 0.0031394958, 10.145349
1134153713870058, 6.7034926, -1.7563318, 7.2287173, 0.6930384, -0.061883926, 9.989581
1134153723509120, 6.9595246, -0.54317075, 7.3100734, -0.5355538, 0.0928216, 10.093152
1134153733148183, 6.778867, -1.3483555, 7.1078796, 0.29851162, 0.079119205, 9.909476
1134153742787245, 6.808777, -1.0277174, 7.27777, -0.036361575, -0.012862682, 10.018988
1134153752426412, 6.751349, -0.88295156, 7.1270223, -0.16522184, 0.039015293, 9.855249
1134153762065475, 6.661618, -1.579263, 7.1413794, 0.53456306, -0.034762383, 9.878439
1134153771704537, 6.7441707, -0.58624154, 7.1569324, -0.46024424, 0.010630131, 9.840591
1134153781343600, 6.597012, -1.9106688, 7.1629148, 0.85666406, -0.08250952, 9.886248
1134153790982662, 6.9056864, -0.28713873, 7.34118, -0.78893805, -0.0038518906, 10.051937
1134153800621725, 6.7238317, -1.6187445, 7.2670026, 0.5591344, -0.06271601, 10.016137
1134153810260891, 6.856633, -0.43429732, 7.48116, -0.6484828, -0.10196352, 10.136017
1134153819899954, 6.7369924, -1.3471591, 7.3136625, 0.28194553, -0.080834866, 10.03023
1134153829539016, 6.908079, -0.8458628, 7.4620175, -0.2237184, -0.03796339, 10.201337
1134153839178079, 6.8985076, -0.7800602, 7.237092, -0.26464725, 0.11168337, 10.024514
1134153848817245, 6.863812, -1.3040884, 7.353144, 0.2566356, -0.0025491714, 10.139793
1134153858456308, 7.0145597, -0.36610186, 7.4356966, -0.6955885, 0.07485294, 10.204813
1134153868095370, 6.946364, -1.6749759, 7.4356966, 0.6210341, -0.015434742, 10.293745
1134153877734433, 7.2011995, -0.12801601, 7.5062847, -0.9462998, 0.17117405, 10.358244
1134153887373495, 6.9583282, -1.6127625, 7.2909307, 0.5784749, 0.09236908, 10.18989
1134153897012662, 7.1342006, -0.34097722, 7.4237323, -0.7094704, 0.15825462, 10.276016
1134153906651725, 6.908079, -1.3519448, 7.27777, 0.3216983, 0.075152874, 10.119589
1134153916290787, 6.9559355, -0.8386843, 7.48116, -0.21881622, -0.018528938, 10.247339
1134153925929850, 6.7669024, -0.93559366, 7.350751, -0.10360509, -0.06797218, 10.034165
1134153935569016, 6.734599, -1.4321043, 7.4392858, 0.38145232, -0.16636992, 10.12796
1134153945208079, 6.8422766, -0.5407779, 7.442875, -0.52936876, -0.047192574, 10.110544
1134153954847141, 6.658029, -1.7587247, 7.4476604, 0.68772435, -0.24816227, 10.117092
1134153964486204, 6.867401, -0.28713873, 7.5493555, -0.7883438, -0.090657234, 10.178739
1134153974125370, 6.5946193, -1.7647067, 7.328019, 0.69684887, -0.20681, 9.9887295
1134153983764433, 6.754938, -0.42592242, 7.564909, -0.64871347, -0.17792988, 10.128472
1134153993403495, 6.5312095, -1.5828521, 7.4033933, 0.5164569, -0.275064, 9.981482
1134154003042558, 6.6460648, -0.95473623, 7.550552, -0.13782561, -0.25057888, 10.100039
1134154012681725, 6.606583, -1.0671989, 7.361519, -0.011900067, -0.14866972, 9.947641
1134154022320787, 6.6484575, -1.3651053, 7.4033933, 0.27320343, -0.14906836, 10.038868
1134154031959850, 6.7525454, -0.5563313, 7.32443, -0.54084826, -0.0065135956, 9.962986
1134154041598912, 6.6257257, -1.7096717, 7.29452, 0.615363, -0.09972668, 9.982215
1134154051238079, 6.8446693, -0.3397808, 7.393822, -0.7627, 0.006342411, 10.052453
1134154060877141, 6.6652074, -1.9166509, 7.200003, 0.8213716, -0.012401104, 9.963121
1134154070516204, 6.963114, -0.5072784, 7.2382884, -0.58948684, 0.19940615, 10.037324
1134154080155370, 6.8315086, -1.6331015, 7.0169525, 0.55545217, 0.22776937, 9.910286
1134154089794433, 7.0875406, -0.91405827, 7.2119675, -0.19541425, 0.28770494, 10.146934
1134154099433495, 7.0540414, -1.1760724, 7.119844, 0.078696966, 0.30988026, 10.086258
1134154109072558, 7.1018977, -1.422533, 7.2466636, 0.30590302, 0.2531743, 10.238018
1134154118711725, 7.1581287, -0.68075806, 7.2502527, -0.43941534, 0.3081503, 10.197075
1134154128350787, 6.9882383, -1.7371893, 7.335198, 0.6104659, 0.088947296, 10.260499
1134154137989850, 7.0576305, -0.35533416, 7.4919276, -0.7870198, 0.079725266, 10.268381
1134154147629016, 6.7573314, -1.8843478, 7.4033933, 0.76816, -0.121729374, 10.169446
1134154157268079, 6.9044895, -0.44147578, 7.539784, -0.7049284, -0.071727276, 10.208485
1134154166907141, 6.660422, -1.6414764, 7.3627152, 0.5212919, -0.15725613, 10.048322
1134154176546308, 6.814759, -0.83030945, 7.5230346, -0.3234128, -0.12453079, 10.178719
1134154186185370, 6.6855464, -1.3710874, 7.353144, 0.2335605, -0.11912632, 10.028778
1134154195824433, 6.727421, -1.1712867, 7.3866434, 0.02959764, -0.102145195, 10.058891
1134154205463495, 6.6891356, -1.2801601, 7.3459654, 0.13139057, -0.10815525, 10.015865
1134154215102662, 6.6915283, -1.1964114, 7.34118, 0.042643607, -0.1038456, 10.004413
1134154224741725, 6.6915283, -1.274178, 7.301698, 0.12429321, -0.07912254, 9.984647
1134154234380787, 6.6963143, -1.2311072, 7.2969127, 0.07676363, -0.0739851, 9.979469
1134154244019954, 6.7501526, -1.1617154, 7.281359, 0.0016209483, -0.021181583, 9.996593
1134154253659016, 6.780063, -1.1712867, 7.220342, 0.011396587, 0.043587208, 9.973589
1134154263298079, 6.7561345, -1.2131611, 7.210771, 0.049660385, 0.0312891, 9.955345
1134154272937245, 6.748956, -1.1844472, 7.18445, 0.023188949, 0.045133114, 9.927996
1134154282576308, 6.7178497, -1.1700903, 7.204789, 0.0010489225, 0.005207062, 9.920059
1134154292215370, 6.7405815, -1.1916257, 7.1820574, 0.018431604, 0.03722906, 9.921474
1134154301854537, 6.7334027, -1.1641082, 7.155736, -0.0101515055, 0.050082684, 9.894231
1134154311493600, 6.775277, -1.1006985, 7.1617184, -0.07731187, 0.07683134, 9.919388
1134154321132662, 6.806384, -1.0779666, 7.1808605, -0.10523391, 0.08732462, 9.95163
1134154330771829, 6.908079, -1.0492527, 7.186843, -0.14156872, 0.1581831, 10.021383
1134154340410891, 6.942775, -1.0624132, 7.152147, -0.12304932, 0.20383501, 10.021345
1134154350050058, 6.9332037, -1.0971092, 7.1772714, -0.08493447, 0.17726135, 10.037308
1134154359689120, 6.910472, -1.166501, 7.1569324, -0.011113465, 0.1726718, 10.015343
1134154369328183, 6.835098, -1.2011969, 7.179664, 0.025592089, 0.10278368, 9.984879
1134154378967350, 6.818348, -1.1330016, 7.23111, -0.045406044, 0.0561862, 10.002865
1134154388606412, 6.795616, -1.1425728, 7.2873416, -0.045784056, 0.006816864, 10.02941
1134154398245475, 6.795616, -1.1389836, 7.361519, -0.066676974, -0.020797253, 10.082894
1134154407884641, 6.795616, -1.099502, 7.30768, -0.10283917, 0.029222012, 10.038927
1134154417523704, 6.8099732, -1.1617154, 7.365108, -0.047829688, 0.011369705, 10.097906
1134154427162870, 6.812366, -1.2191432, 7.4105716, 0.004445672, -0.01145649, 10.139579
1134154436801933, 6.77767, -1.2658032, 7.560123, 0.038561106, -0.1388197, 10.23102
1134154446440995, 6.7645097, -1.2873386, 7.503892, 0.063981056, -0.095160484, 10.183865
1134154456080162, 6.7094746, -1.274178, 7.408179, 0.061868966, -0.067626, 10.07538
1134154465719225, 6.710671, -1.2861422, 7.48116, 0.06748241, -0.11564922, 10.130999
1134154475358391, 6.7166533, -1.288535, 7.594819, 0.056041002, -0.19046545, 10.218396
1134154484997454, 6.7022963, -1.2490535, 7.6343007, 0.011475027, -0.22850227, 10.232845
1134154494636516, 6.735796, -1.2370893, 7.5792656, -0.0015493631, -0.1627903, 10.21372
1134154504275683, 6.725028, -1.2287145, 7.5696945, -0.01287812, -0.15327454, 10.198645
1134154513914745, 6.71426, -1.2191432, 7.507481, -0.019954085, -0.11657858, 10.144747
1134154523553912, 6.708278, -1.2155539, 7.456035, -0.01736015, -0.08644199, 10.102636
1134154533192975, 6.7262244, -1.2311072, 7.3926253, -0.0063620806, -0.033444405, 10.0701275
1134154542832037, 6.7118673, -1.3136597, 7.3639116, 0.07929951, -0.023972034, 10.049637
1134154552471204, 6.6927247, -1.3674982, 7.2993054, 0.12636745, -0.0033626556, 9.996325
1134154562110266, 6.6939216, -1.3686945, 7.2693954, 0.13027084, 0.017608166, 9.975408
1134154571749433, 6.6927247, -1.302892, 7.2562346, 0.052930176, 0.016848087, 9.956904
1134154581388495, 6.6963143, -1.2634103, 7.2299137, 0.016110837, 0.037815094, 9.935129
1134154591027558, 6.6771717, -1.2646067, 7.251449, 0.0133244395, 0.0041532516, 9.938168
1134154600666725, 6.6963143, -1.274178, 7.2442703, 0.02199775, 0.023047447, 9.946989
1134154610305787, 6.728617, -1.2789637, 7.1748786, 0.03080386, 0.09449148, 9.918622
1134154619944954, 6.708278, -1.2897314, 7.1712894, 0.043804765, 0.08287096, 9.903687
1134154629584016, 6.71426, -1.3316058, 7.153343, 0.08422285, 0.09758234, 9.899907
1134154639223183, 6.690332, -1.3507484, 7.159325, 0.100953996, 0.07633972, 9.890652
1134154648862245, 6.6795645, -1.3531412, 7.223932, 0.09884387, 0.02464056, 9.9308815
1134154658501412, 6.664011, -1.3543376, 7.2287173, 0.096619904, 0.012536526, 9.92412
1134154668140475, 6.7034926, -1.3172488, 7.2358956, 0.04888612, 0.04690504, 9.951159
1134154677779537, 6.695118, -1.2909278, 7.320841, 0.016855836, -0.012360096, 10.004269
1134154687418704, 6.7011, -1.2466606, 7.3806615, -0.030032754, -0.044400215, 10.046402
1134154697057766, 6.7381887, -1.2370893, 7.3663044, -0.037064612, -0.0032157898, 10.059555
1134154706696933, 6.7405815, -1.274178, 7.3268228, 0.0033859015, 0.025262833, 10.036964
1134154716335995, 6.768099, -1.2705889, 7.3435726, 0.0013899803, 0.03510046, 10.067193
1134154725975162, 6.759724, -1.2586247, 7.379465, -0.00834614, 0.0012397766, 10.08635
1134154735614225, 6.725028, -1.2837493, 7.411768, 0.016131043, -0.046146393, 10.089893
1134154745253391, 6.7501526, -1.2610176, 7.3782687, -0.0055419207, -0.0025668144, 10.079361
1134154754892454, 6.7704916, -1.2011969, 7.3782687, -0.065402925, 0.014655113, 10.085475
1134154764531620, 6.745367, -1.2323036, 7.4344997, -0.039238036, -0.042098045, 10.113705
1134154774170683, 6.771688, -1.2335001, 7.460821, -0.03477025, -0.038825035, 10.150785
1134154783809850, 6.8315086, -1.1330016, 7.4919276, -0.13651478, -0.011640072, 10.201147
1134154793448912, 6.799206, -1.1521441, 7.4943204, -0.11533493, -0.038570404, 10.183648
1134154803088079, 6.79442, -1.2466606, 7.432107, -0.008259654, -3.938675E-4, 10.146648
1134154812727141, 6.8243303, -1.2143575, 7.3926253, -0.036310434, 0.05129671, 10.133761
1134154822366308, 6.7908306, -1.180858, 7.379465, -0.06859487, 0.0350461, 10.097544
1134154832005370, 6.7585278, -1.1964114, 7.3902326, -0.05485624, 0.002067089, 10.085715
1134154841644537, 6.707082, -1.2370893, 7.3603225, -0.007557988, -0.01650238, 10.034409
1134154851283600, 6.710671, -1.253839, 7.344769, 0.006140828, -0.008657455, 10.027498
1134154860922766, 6.7118673, -1.2167503, 7.3232336, -0.028866112, 0.0064616203, 10.007923
1134154870561829, 6.6999035, -1.227518, 7.347162, -0.019127607, -0.021289349, 10.018756
1134154880200995, 6.7178497, -1.2634103, 7.3543406, 0.016176999, -0.014858723, 10.040496
1134154889840058, 6.71426, -1.2346965, 7.34118, -0.008341134, -0.009340286, 10.024895
1134154899479225, 6.7429743, -1.1712867, 7.3232336, -0.06964618, 0.024914265, 10.023169
1134154909118287, 6.690332, -1.2035898, 7.2765737, -0.027327538, 0.019374847, 9.95774
1134154918757454, 6.678368, -1.288535, 7.288538, 0.057143807, 0.0041279793, 9.968973
1134154928396516, 6.6352973, -1.2765709, 7.320841, 0.044980586, -0.050573826, 9.962276
1134154938035683, 6.582655, -1.3064811, 7.342376, 0.07602149, -0.10238552, 9.94648
1134154947674745, 6.611369, -1.3351951, 7.30768, 0.102829635, -0.053870678, 9.943927
1134154957313912, 6.587441, -1.3435699, 7.332805, 0.110780835, -0.08308506, 9.947384
1134154966952975, 6.6053867, -1.3375878, 7.426125, 0.0958361, -0.13312864, 10.027
1134154976592141, 6.7334027, -1.2442678, 7.4536424, -0.011506021, -0.053794384, 10.121298
1134154986231204, 6.780063, -1.1952149, 7.4536424, -0.06316435, -0.013554573, 10.146447
1134154995870370, 6.8039913, -1.1880364, 7.476374, -0.068502665, -0.00848341, 10.178267
1134155005509433, 6.815955, -1.2370893, 7.475178, -0.0137140155, 0.0017981529, 10.191454
1134155015148600, 6.826723, -1.2179468, 7.4512496, -0.022273958, 0.022108555, 10.178786
1134155024787662, 6.8135624, -1.2083755, 7.402197, -0.025318801, 0.042602062, 10.13286
1134155034426829, 6.8195443, -1.2251252, 7.348358, -0.005496204, 0.07983017, 10.099459
1134155044065891, 6.8315086, -1.2227324, 7.353144, -0.008758843, 0.08545399, 10.110685
1134155053705058, 6.8315086, -1.119841, 7.4189467, -0.120349824, 0.03203392, 10.14637
1134155063344225, 6.836294, -1.0480564, 7.442875, -0.19264907, 0.016138077, 10.158364
1134155072983287, 6.832705, -1.0420742, 7.4584284, -0.19545037, 0.0029911995, 10.1666975
1134155082622454, 6.8315086, -1.0588241, 7.3986077, -0.17329514, 0.042932034, 10.124138
1134155092261516, 6.8721867, -1.0648061, 7.3639116, -0.16298056, 0.097035885, 10.126793
1134155101900683, 6.849455, -1.099502, 7.3363943, -0.12098813, 0.098248005, 10.095658
1134155111539745, 6.859026, -1.1533405, 7.2753773, -0.060076654, 0.14508438, 10.063942
1134155121178912, 6.8051877, -1.2035898, 7.2095747, -0.0037935376, 0.14187622, 9.985842
1134155130817975, 6.7465634, -1.2251252, 7.2059855, 0.017569184, 0.09700537, 9.946535
1134155140457141, 6.71426, -1.2717853, 7.253842, 0.061968446, 0.040061474, 9.965515
1134155150096308, 6.7034926, -1.2586247, 7.2693954, 0.041936517, 0.0212636, 9.968093
1134155159735370, 6.658029, -1.2550355, 7.2789664, 0.032101274, -0.01144886, 9.944176
