timestamp_acc,device_acc_x,device_acc_y,device_acc_z,earth_acc_x,earth_acc_y,earth_acc_z
265344971118537, -0.27517462, 4.8789654, 8.708678, 0.11028743, -0.044696808, 9.985336
265344980758745, -0.25962126, 4.8729835, 8.69791, 0.123090506, -0.04025507, 9.972475
265344990398850, -0.2727818, 4.8969116, 8.656036, 0.10024333, -0.0055980682, 9.94842
265345000038954, -0.30867413, 4.9363933, 8.59143, 0.049246073, 0.050615788, 9.91317
265345009679058, -0.34456646, 4.942375, 8.553144, 0.011691451, 0.059422016, 9.884251
265345019319162, -0.41635114, 4.9495535, 8.541181, -0.06125009, 0.055109978, 9.8801
265345028959266, -0.4019942, 5.032106, 8.580662, -0.054329276, 0.10830498, 9.954737
265345038599475, -0.41874397, 5.042874, 8.555537, -0.07533014, 0.12510777, 9.938904
265345048239579, -0.5024927, 4.983053, 8.553144, -0.1461451, 0.05562353, 9.9103565
265345057879683, -0.4869394, 4.9770713, 8.599805, -0.12315667, 0.032412052, 9.947302
265345067519787, -0.44506502, 4.930411, 8.628518, -0.06951606, -0.011205196, 9.947533
265345077159891, -0.43788654, 4.87418, 8.660822, -0.0458802, -0.072072506, 9.947457
265345086799995, -0.41994038, 4.8382874, 8.678768, -0.018185496, -0.10667801, 9.944581
265345096440204, -0.3900301, 4.8382874, 8.693125, 0.012961745, -0.106698036, 9.955902
265345106080308, -0.38165522, 4.8155556, 8.658429, 0.021719098, -0.10698795, 9.914219
265345115720412, -0.39720857, 4.871787, 8.653643, -0.0026685, -0.059975624, 9.938512
265345125360516, -0.37447673, 4.928018, 8.6345005, 0.007491946, 0.002375126, 9.948875
265345135000620, -0.33140594, 4.928018, 8.590233, 0.043628454, 0.031774044, 9.908804
265345144640725, -0.29790643, 4.989035, 8.560323, 0.058710575, 0.10536003, 9.911802
265345154280933, -0.31585258, 5.0177493, 8.598608, 0.04123521, 0.107620716, 9.959938
265345163921037, -0.32183465, 4.995017, 8.575876, 0.03070426, 0.09715605, 9.929203
265345173561141, -0.3290131, 4.9639106, 8.581859, 0.030302525, 0.06623888, 9.919258
265345183201245, -0.3290131, 4.974678, 8.590233, 0.026974559, 0.07083082, 9.931869
265345192841350, -0.42831525, 4.971089, 8.586644, -0.06881487, 0.04478407, 9.930705
265345202481454, -0.4534399, 4.938786, 8.612965, -0.08094621, -0.002617836, 9.938502
265345212121662, -0.46061835, 4.922036, 8.623733, -0.08288026, -0.024010181, 9.939816
265345221761766, -0.44027936, 4.900501, 8.668, -0.049927235, -0.057920456, 9.966801
265345231401870, -0.4211368, 4.8861437, 8.662018, -0.028127193, -0.0615201, 9.95378
265345241041975, -0.37686956, 4.855037, 8.658429, 0.021988869, -0.072600365, 9.933584
265345250682079, -0.33020952, 4.8598228, 8.666803, 0.06727874, -0.0611825, 9.941437
265345260322183, -0.36729828, 4.892126, 8.687142, 0.02754426, -0.051221848, 9.976517
265345269962391, -0.36370903, 4.92084, 8.665607, 0.021055102, -0.015417099, 9.971913
265345279602495, -0.36370903, 4.9543395, 8.650054, 0.012611151, 0.020046234, 9.975001
265345289242600, -0.39481574, 4.9866424, 8.568698, -0.03533292, 0.077282906, 9.921585
265345298882704, -0.41754755, 4.9902315, 8.520842, -0.06471002, 0.09541607, 9.882723
265345308522808, -0.4354937, 4.9698925, 8.502895, -0.08071363, 0.07918882, 9.857786
265345318163016, -0.40797627, 4.955536, 8.52443, -0.046987057, 0.061890125, 9.868316
265345327803120, -0.36729828, 4.9363933, 8.541181, 7.044077E-4, 0.047745705, 9.8717985
265345337443225, -0.31585258, 4.9232326, 8.581859, 0.059203506, 0.029576302, 9.898582
265345347083329, -0.29671, 4.9064827, 8.630911, 0.08871007, -0.0023360252, 9.932086
265345356723433, -0.30149564, 4.9363933, 8.676374, 0.08478832, 4.4822693E-4, 9.986549
265345366363537, -0.32183465, 4.92084, 8.693125, 0.06929135, -0.024067879, 9.994163
265345376003745, -0.35294133, 4.9196434, 8.696713, 0.035628676, -0.03252697, 9.997898
265345385643850, -0.37806597, 4.907679, 8.673982, 0.007660508, -0.03660631, 9.973205
265345395283954, -0.41635114, 4.9052863, 8.63809, -0.034465075, -0.029481888, 9.94232
265345404924058, -0.44027936, 4.881358, 8.601001, -0.060363293, -0.036314964, 9.8991785
265345414564162, -0.45583272, 4.88734, 8.595019, -0.0777936, -0.031414986, 9.897534
265345424204266, -0.4139583, 4.9136615, 8.572288, -0.043418884, 0.010859966, 9.889264
265345433844475, -0.3804588, 4.9160542, 8.571091, -0.010752678, 0.02076149, 9.888144
265345443484579, -0.35294133, 4.922036, 8.580662, 0.016272783, 0.02735281, 9.898372
265345453124683, -0.36131623, 4.9340005, 8.603394, 0.009789467, 0.025270939, 9.924341
265345462764787, -0.30029923, 4.9519463, 8.597412, 0.06664944, 0.056778908, 9.925714
265345472404891, -0.3493521, 4.9603214, 8.635697, 0.022836685, 0.034849167, 9.964957
265345482044995, -0.36610186, 4.9567323, 8.650054, 0.010369062, 0.018919468, 9.976282
265345491685204, -0.3792624, 4.961518, 8.624929, -0.0060955286, 0.030754566, 9.957355
265345501325308, -0.4223332, 4.912465, 8.633304, -0.038558602, -0.024500847, 9.941957
265345510965412, -0.3900301, 4.9028935, 8.610572, -0.008459687, -0.015897274, 9.916256
265345520605516, -0.35413775, 4.92084, 8.597412, 0.021607041, 0.013931751, 9.912362
265345530245620, -0.34337005, 4.8909297, 8.609376, 0.03661847, -0.014039993, 9.907517
265345539885829, -0.32303107, 4.9088755, 8.606983, 0.053156257, 0.006573677, 9.913561
265345549525933, -0.34217364, 4.9256253, 8.605786, 0.030877948, 0.018712997, 9.921548
265345559166037, -0.41754755, 4.930411, 8.633304, -0.038236976, -0.0077619553, 9.950663
265345568806141, -0.40917268, 4.974678, 8.620144, -0.039647102, 0.037967205, 9.960859
265345578446245, -0.4426722, 4.9782677, 8.590233, -0.07526159, 0.046383858, 9.937977
265345588086350, -0.4642076, 4.9698925, 8.595019, -0.092675924, 0.030723095, 9.938821
265345597726454, -0.4235296, 4.9519463, 8.575876, -0.051865935, 0.033067226, 9.911762
265345607366662, -0.37088752, 4.9340005, 8.580662, 0.0026994944, 0.02729559, 9.904996
265345617006766, -0.35174492, 4.8993044, 8.6345005, 0.03372729, -0.022377491, 9.933774
265345626646870, -0.3361916, 4.900501, 8.675179, 0.052288055, -0.03620386, 9.969084
265345636286975, -0.31944183, 4.90409, 8.662018, 0.06437707, -0.02214098, 9.958818
265345645927079, -0.3493521, 4.910072, 8.644072, 0.031680703, -0.0149998665, 9.947342
265345655567183, -0.36011982, 4.910072, 8.598608, 0.017676711, 9.498596E-4, 9.908292
265345665207391, -0.35533416, 4.942375, 8.597412, 0.019822001, 0.027544975, 9.923088
265345674847495, -0.3912265, 4.9543395, 8.5938225, -0.01589024, 0.030085564, 9.927295
265345684487600, -0.40438703, 4.941179, 8.567501, -0.029081583, 0.0273242, 9.898447
265345694127704, -0.3804588, 4.935197, 8.589037, -0.0027508736, 0.016381264, 9.913233
265345703767808, -0.36131623, 4.892126, 8.592627, 0.023000717, -0.018440247, 9.894231
265345713407912, -0.26679972, 4.900501, 8.642876, 0.117917776, -0.015642166, 9.938372
265345723048120, -0.24646074, 4.9232326, 8.668, 0.13394845, -8.940697E-4, 9.970719
265345732688225, -0.37567315, 4.9316072, 8.666803, -9.791851E-4, -0.015285492, 9.978735
265345742328329, -0.4546363, 4.944768, 8.6141615, -0.08717513, 0.00564003, 9.942514
265345751968433, -0.4953143, 4.955536, 8.559127, -0.13069224, 0.027591228, 9.901691
265345761608537, -0.47377887, 4.961518, 8.49811, -0.11451042, 0.062145233, 9.850991
265345771248641, -0.49292147, 4.971089, 8.487342, -0.13627613, 0.07137871, 9.847132
265345780888850, -0.4977071, 4.938786, 8.568698, -0.120929, 8.382797E-4, 9.901882
265345790528954, -0.4223332, 4.9268217, 8.640483, -0.033173203, -0.02435875, 9.955311
265345800169058, -0.32542387, 4.8849473, 8.7266245, 0.08070707, -0.079597, 10.0054865
265345809809162, -0.26679972, 4.8658047, 8.785249, 0.14427125, -0.10779333, 10.044672
265345819449266, -0.2428715, 4.875376, 8.736196, 0.1575911, -0.071606636, 10.005969
265345829089370, -0.2739782, 4.8646083, 8.646464, 0.11735177, -0.047196865, 9.923952
265345838729475, -0.32063824, 4.8861437, 8.556734, 0.05748391, -0.0018520355, 9.858581
265345848369683, -0.38644084, 4.9531426, 8.453842, -0.032371163, 0.08983421, 9.805166
265345858009787, -0.4235296, 5.0129633, 8.400003, -0.082784414, 0.15404749, 9.789722
265345867649891, -0.43669012, 5.0069814, 8.453842, -0.08422387, 0.11713934, 9.833982
265345877289995, -0.4331009, 4.9974103, 8.500503, -0.0723778, 0.089157104, 9.869501
265345886930100, -0.40438703, 5.0045886, 8.647661, -0.027326703, 0.034216404, 9.999477
265345896570204, -0.3385844, 5.0177493, 8.715857, 0.04228413, 0.029963493, 10.0626
265345906210308, -0.3182454, 4.975875, 8.723035, 0.06897545, -0.005446911, 10.047247
265345915850516, -0.3361916, 4.9340005, 8.663215, 0.04982388, -0.01879549, 9.975262
265345925490620, -0.3493521, 4.92084, 8.560323, 0.025652885, 0.013272762, 9.880032
265345935130725, -0.39960137, 4.8909297, 8.49452, -0.026399374, 0.005448818, 9.810048
265345944770829, -0.39840496, 4.90409, 8.478967, -0.028630376, 0.023525715, 9.803078
265345954410933, -0.3481557, 4.9064827, 8.519645, 0.026065469, 0.018352509, 9.837587
265345964051037, -0.36729828, 4.907679, 8.630911, 0.022824407, -0.038064957, 9.935335
265345973691141, -0.3684947, 4.9028935, 8.720642, 0.03376293, -0.082446575, 10.010785
265345983331245, -0.36490545, 4.942375, 8.758927, 0.033512592, -0.060706615, 10.063509
265345992971454, -0.38524446, 4.9340005, 8.752945, 0.014378309, -0.06982803, 10.054935
265346002611558, -0.45104706, 4.8442693, 8.675179, -0.045934558, -0.12347603, 9.94544
265346012251662, -0.31345975, 5.4376893, 8.581859, -0.029897332, 0.45093393, 10.154349
265346021891766, -0.6017949, 4.3968115, 8.397611, -0.1451751, -0.42161942, 9.487632
265346031531870, -0.2656033, 5.4388857, 8.426325, -0.0064104795, 0.5259924, 10.018897
265346041171975, -0.51445687, 4.686343, 8.478967, -0.096455336, -0.19840264, 9.699005
265346050812079, -0.31226337, 5.029713, 8.425129, 0.027000189, 0.17279434, 9.815688
265346060452183, -0.3505485, 5.1625147, 8.717052, 0.004622221, 0.1374731, 10.136199
265346070092391, -0.3900301, 4.557131, 8.534002, 0.05178833, -0.29758215, 9.677682
265346079732495, -0.19980069, 5.5405807, 8.88455, 0.105024934, 0.41930532, 10.463573
265346089372600, -0.4761717, 4.2245283, 8.627322, 0.045027018, -0.63852906, 9.59658
265346099012704, -0.11365908, 5.7152567, 8.762517, 0.15000153, 0.63365555, 10.441971
265346108652808, -0.5814559, 4.249653, 8.493324, -0.095859885, -0.59094787, 9.496094
265346118292912, -0.29671, 5.444868, 8.4813595, -0.012338042, 0.5007248, 10.070611
265346127933016, -0.6233303, 4.599005, 8.534002, -0.18586087, -0.3168652, 9.707401
265346137573120, -0.37806597, 5.020142, 8.435896, -0.031461954, 0.14187479, 9.822829
265346147213329, -0.37088752, 5.0548377, 8.681161, 0.0016378164, 0.0548563, 10.052288
265346156853433, -0.38404804, 4.540381, 8.484949, 0.048019886, -0.29127717, 9.626514
265346166493537, -0.16630118, 5.4699926, 8.811569, 0.1389538, 0.40045404, 10.364002
265346176133641, -0.45702913, 4.237689, 8.622537, 0.04687667, -0.62195635, 9.598228
265346185773745, -0.18783657, 5.6817575, 8.846265, 0.08162737, 0.5608206, 10.500137
265346195413850, -0.634098, 4.3130627, 8.602198, -0.13607502, -0.58757687, 9.624895
265346205053954, -0.2883351, 5.538188, 8.544769, -0.02802229, 0.54624796, 10.171949
265346214694058, -0.57906306, 4.59063, 8.487342, -0.1468277, -0.30368733, 9.660766
265346224334162, -0.28594232, 5.17089, 8.364112, 0.018415213, 0.3166139, 9.83248
265346233974266, -0.3469593, 5.0943193, 8.520842, -0.004617691, 0.1577034, 9.932387
265346243614370, -0.34576288, 4.668397, 8.288737, 0.03907883, -0.09185982, 9.518754
265346253254579, -0.15792629, 5.5334024, 8.632108, 0.11604333, 0.5200224, 10.2407465
265346262894683, -0.45702913, 4.325027, 8.478967, 0.014963388, -0.49394536, 9.516481
265346272534787, -0.17587246, 5.7284174, 8.788837, 0.08159578, 0.61759233, 10.47384
265346282174891, -0.59700924, 4.3058844, 8.609376, -0.10598338, -0.5981302, 9.625458
265346291814995, -0.2644069, 5.56092, 8.673982, 0.016112447, 0.5093136, 10.294272
265346301455100, -0.5838487, 4.470989, 8.663215, -0.109522104, -0.49154282, 9.753374
265346311095204, -0.26679972, 5.099105, 8.568698, 0.080363035, 0.1557908, 9.97316
265346320735308, -0.37686956, 4.881358, 8.709874, 0.026473403, -0.11581707, 9.99087
265346330375412, -0.34097722, 4.549952, 8.438289, 0.07827973, -0.25718737, 9.589097
265346340015516, -0.21296121, 5.352744, 8.718249, 0.1059078, 0.32014465, 10.2269945
265346349655620, -0.51086766, 4.290331, 8.508878, -0.033817887, -0.5433972, 9.52746
265346359295829, -0.21296121, 5.690132, 8.755338, 0.04195714, 0.5894227, 10.427354
265346368935933, -0.6233303, 4.290331, 8.520842, -0.13973367, -0.57849073, 9.541805
265346378576037, -0.2739782, 5.629115, 8.556734, -0.03391981, 0.62954617, 10.226544
265346388216141, -0.62931234, 4.5391846, 8.55793, -0.18134344, -0.3774376, 9.69861
265346397856245, -0.36370903, 5.2486563, 8.539984, -0.06286597, 0.28312397, 10.026359
265346407496350, -0.4833502, 4.942375, 8.68475, -0.093535185, -0.06553459, 10.003628
265346417136454, -0.38285163, 4.7162533, 8.432307, 0.010261416, -0.11600876, 9.668498
265346426776558, -0.28953153, 5.3623157, 8.656036, 0.010550141, 0.34650087, 10.180621
265346436416662, -0.5312066, 4.3262234, 8.395218, -0.06368101, -0.4690361, 9.447433
265346446056766, -0.19980069, 5.6482577, 8.676374, 0.051314473, 0.6026883, 10.337133
265346455696870, -0.5383851, 4.21735, 8.499306, -0.04017377, -0.6046305, 9.484035
265346465336975, -0.1363909, 5.6171513, 8.663215, 0.11688173, 0.60173035, 10.307597
265346474977079, -0.50488555, 4.432704, 8.653643, -0.037237167, -0.4913621, 9.7235
265346484617183, -0.23688944, 5.2510495, 8.633304, 0.07969856, 0.2830944, 10.103321
265346494257287, -0.40677986, 4.8526444, 8.748159, 0.0039670467, -0.14926386, 10.011076
265346503897391, -0.2955136, 4.766503, 8.467003, 0.08474898, -0.06840539, 9.720347
265346513537600, -0.23449662, 5.3383875, 8.640483, 0.069640994, 0.34981537, 10.153034
265346523177704, -0.46301118, 4.377669, 8.384451, -0.021225572, -0.39493704, 9.461552
265346532817808, -0.20338993, 5.6745787, 8.672786, 0.043180704, 0.6201472, 10.347607
265346542457912, -0.5515456, 4.2341, 8.462217, -0.07124627, -0.573473, 9.4608135
265346552098016, -0.16749759, 5.6207404, 8.645268, 0.0961318, 0.6039548, 10.29502
265346561738120, -0.5312066, 4.3740797, 8.640483, -0.060564995, -0.53903437, 9.6839285
265346571378225, -0.20937198, 5.291727, 8.664411, 0.1070354, 0.30859566, 10.14946
265346581018329, -0.4426722, 4.76411, 8.803194, -0.020150542, -0.25523424, 10.016156
265346590658433, -0.34456646, 4.792824, 8.55793, 0.035508037, -0.09404278, 9.81417
265346600298537, -0.33379877, 5.267799, 8.694321, -0.011282444, 0.2477336, 10.168129
265346609938641, -0.49292147, 4.4147577, 8.347362, -0.08085644, -0.3514824, 9.448886
265346619578745, -0.27756742, 5.593223, 8.629715, -0.009318471, 0.565897, 10.271944
265346629218850, -0.6197411, 4.243671, 8.421539, -0.15631747, -0.55720806, 9.432934
265346638858954, -0.23090738, 5.6937213, 8.577073, -0.0033262968, 0.6774907, 10.275164
265346648499058, -0.6125626, 4.3645086, 8.523234, -0.15877569, -0.49750853, 9.581072
265346658139162, -0.2321038, 5.3587265, 8.630911, 0.05850029, 0.36915636, 10.154937
265346667779266, -0.4426722, 4.7712884, 8.775677, -0.023201585, -0.23526835, 9.995889
265346677419370, -0.29192436, 4.898108, 8.538788, 0.06924832, 0.01577282, 9.847973
265346687059475, -0.27517462, 5.215157, 8.668, 0.049777865, 0.2264905, 10.117018
265346696699579, -0.4235296, 4.368098, 8.385647, 0.021110654, -0.3968675, 9.456255
265346706339683, -0.18065812, 5.5669017, 8.723035, 0.08928037, 0.51304865, 10.336495
265346715979787, -0.5276174, 4.1982074, 8.550752, -0.03489673, -0.64370704, 9.518565
265346725619891, -0.12562318, 5.6267223, 8.755338, 0.12770641, 0.57504797, 10.391571
265346735259995, -0.51445687, 4.2687955, 8.615358, -0.026776671, -0.60842896, 9.60941
265346744900100, -0.18664017, 5.4185467, 8.603394, 0.08629751, 0.45666075, 10.158634
265346754540204, -0.47377887, 4.6971107, 8.708678, -0.052008033, -0.2707293, 9.90214
265346764180308, -0.35653058, 4.9926243, 8.493324, -0.022403717, 0.103003025, 9.857933
265346773820412, -0.3900301, 5.204389, 8.620144, -0.07541287, 0.21432495, 10.074375
265346783460516, -0.46181476, 4.503292, 8.331808, -0.065377235, -0.26268196, 9.478327
265346793100620, -0.2117648, 5.569295, 8.657232, 0.03040123, 0.5490713, 10.281398
265346802740829, -0.5288138, 4.2329035, 8.475378, -0.065829635, -0.5768502, 9.470589
265346812380829, -0.17228323, 5.6685967, 8.718249, 0.06566346, 0.6055956, 10.382653
265346822021037, -0.53240305, 4.2664027, 8.592627, -0.061795354, -0.593596, 9.58972
265346831661141, -0.20458634, 5.4125648, 8.627322, 0.05402267, 0.42903233, 10.177496
265346841301245, -0.4749753, 4.5930233, 8.702696, -0.04505515, -0.3536408, 9.84537
265346850941350, -0.276371, 4.999803, 8.599805, 0.061916232, 0.0838418, 9.95089
265346860581454, -0.31106696, 5.109873, 8.733803, 0.026412845, 0.10555172, 10.122996
265346870221558, -0.37806597, 4.4841495, 8.415557, 0.03353262, -0.2948308, 9.538557
265346879861662, -0.16749759, 5.503492, 8.685946, 0.08132827, 0.49515295, 10.271824
265346889501766, -0.4534399, 4.211368, 8.469396, 0.015640497, -0.56480145, 9.452652
265346899141870, -0.12083755, 5.6470613, 8.71466, 0.099607825, 0.6078553, 10.366763
265346908781975, -0.53599226, 4.2592244, 8.568698, -0.0677017, -0.5931206, 9.565276
265346918422079, -0.21655045, 5.4843497, 8.633304, 0.02769339, 0.5003805, 10.218013
265346928062183, -0.567099, 4.62413, 8.672786, -0.15073204, -0.3378563, 9.8379135
265346937702287, -0.37806597, 5.1182475, 8.553144, -0.07312703, 0.18241882, 9.972816
265346947342391, -0.48095736, 5.099105, 8.657232, -0.1514467, 0.097393036, 10.057207
265346956982495, -0.49052864, 4.6121655, 8.379665, -0.10780382, -0.19290376, 9.575107
265346966622600, -0.2727818, 5.4891353, 8.640483, -0.017159224, 0.4793458, 10.229021
265346976262704, -0.5455636, 4.2257247, 8.449057, -0.07584715, -0.56459904, 9.445443
265346985902808, -0.19980069, 5.6183476, 8.745767, 0.04986036, 0.5478492, 10.382271
265346995542912, -0.5180461, 4.208975, 8.572288, -0.022045135, -0.62813807, 9.543214
265347005183016, -0.12203395, 5.503492, 8.666803, 0.13614595, 0.51998425, 10.253188
265347014823120, -0.4426722, 4.51406, 8.689535, 0.006719351, -0.4119506, 9.793413
265347024463225, -0.15792629, 5.113462, 8.62134, 0.16185546, 0.20154572, 10.021633
265347034103225, -0.29312077, 5.005785, 8.744571, 0.066762924, 0.021502018, 10.080002
265347043743433, -0.30149564, 4.6265225, 8.446664, 0.08150041, -0.16389799, 9.633703
265347053383537, -0.22253251, 5.42094, 8.705089, 0.042145133, 0.40819597, 10.249208
265347063023641, -0.5240282, 4.2520456, 8.455039, -0.06136632, -0.53580904, 9.463156
265347072663745, -0.20697916, 5.662615, 8.676374, 0.014153838, 0.6314373, 10.34353
265347082303745, -0.62931234, 4.2556353, 8.4813595, -0.16376829, -0.57764125, 9.491019
265347091943850, -0.21774685, 5.568098, 8.586644, 0.010659456, 0.5926304, 10.219113
265347101583954, -0.5491528, 4.4578285, 8.618947, -0.103485346, -0.44936728, 9.708111
265347111224058, -0.25962126, 5.1613183, 8.640483, 0.049021482, 0.20486689, 10.065792
265347120864162, -0.3924229, 4.9495535, 8.804391, -0.01433146, -0.074578285, 10.107602
265347130504266, -0.33140594, 4.6492543, 8.513663, 0.06028688, -0.17824364, 9.704248
265347140144370, -0.21535404, 5.377869, 8.733803, 0.07081115, 0.36163664, 10.252385
265347149784475, -0.465404, 4.322634, 8.462217, -0.02310288, -0.4619093, 9.502474
265347159424579, -0.17587246, 5.643472, 8.69791, 0.055354238, 0.6138854, 10.351496
265347169064683, -0.55393845, 4.1922255, 8.472985, -0.07922065, -0.5985415, 9.45032
265347178704787, -0.19381863, 5.568098, 8.575876, 0.03409815, 0.60644627, 10.208721
265347188344891, -0.56590253, 4.4315076, 8.565108, -0.1292901, -0.43847275, 9.6493845
265347197984995, -0.26679972, 5.224728, 8.547162, 0.017581224, 0.30362034, 10.016508
265347207625100, -0.45822555, 4.8909297, 8.745767, -0.08222914, -0.10758734, 10.03002
265347217265204, -0.39840496, 4.7425747, 8.5220375, -0.027047634, -0.11557174, 9.760213
265347226905308, -0.35174492, 5.3503513, 8.784052, -0.047094822, 0.28756857, 10.287109
265347236545412, -0.55393845, 4.3058844, 8.4909315, -0.11110318, -0.509248, 9.52217
265347246185516, -0.20338993, 5.6123657, 8.785249, 0.061412692, 0.5365763, 10.412921
265347255825620, -0.5479564, 4.1754756, 8.562716, -0.07415843, -0.6461916, 9.520079
265347265465725, -0.13160525, 5.568098, 8.660822, 0.11643708, 0.572412, 10.280547
265347275105829, -0.45702913, 4.325027, 8.611769, -0.0020397902, -0.5209024, 9.633584
265347284745933, -0.10767702, 5.2402816, 8.590233, 0.17722952, 0.3347597, 10.055883
265347294386037, -0.33140594, 4.8095737, 8.717052, 0.04439068, -0.13764954, 9.960317
265347304026141, -0.2548356, 4.7485566, 8.472985, 0.09718108, -0.054594517, 9.715595
265347313666245, -0.18065812, 5.300102, 8.650054, 0.09943342, 0.3474002, 10.139851
265347323306350, -0.36729828, 4.398008, 8.486146, 0.044359446, -0.38662243, 9.557228
265347332946454, -0.106480606, 5.656633, 8.813962, 0.12748432, 0.58584356, 10.456352
265347342586558, -0.50009996, 4.213761, 8.65125, -0.02892387, -0.64356565, 9.614312
265347352226662, -0.16151553, 5.5896335, 8.779266, 0.085743666, 0.5300679, 10.39506
265347361866766, -0.526421, 4.3058844, 8.6141615, -0.089598656, -0.5604675, 9.628052
265347371506870, -0.21415763, 5.2701917, 8.571091, 0.052003264, 0.35518456, 10.057611
265347381146975, -0.5024927, 4.727021, 8.669196, -0.122502804, -0.21780849, 9.883812
265347390787079, -0.39960137, 4.8454657, 8.429914, -0.07688451, 0.014363766, 9.731166
265347400427183, -0.3589234, 5.2402816, 8.603394, -0.0903424, 0.27447557, 10.075925
265347410067287, -0.47856453, 4.415954, 8.331808, -0.083316565, -0.3233838, 9.435952
265347419707391, -0.23330021, 5.5836515, 8.708678, -0.018268704, 0.5521102, 10.332837
265347429347495, -0.53359944, 4.199404, 8.623733, -0.04492879, -0.65338063, 9.58434
265347438987600, -0.14237295, 5.625526, 8.809176, 0.072368026, 0.5564761, 10.438081
265347448627704, -0.51565325, 4.261617, 8.748159, -0.03146708, -0.64761806, 9.723023
265347458267808, -0.148355, 5.285745, 8.748159, 0.12725592, 0.2981882, 10.216961
265347467907912, -0.36729828, 4.619344, 8.781659, 0.042582512, -0.3350973, 9.923544
265347477548016, -0.22971097, 4.8287163, 8.526823, 0.102932215, -0.0068645477, 9.801293
265347487188120, -0.26081768, 5.1673007, 8.606983, 0.026120305, 0.23535728, 10.0395775
265347496828225, -0.3924229, 4.469793, 8.27797, -0.02649641, -0.23015451, 9.41298
265347506468329, -0.21535404, 5.6482577, 8.63809, 3.875494E-4, 0.6390953, 10.303268
265347516108433, -0.57427746, 4.3357944, 8.475378, -0.16272318, -0.4828782, 9.523724
265347525748433, -0.21535404, 5.7427745, 8.696713, -0.014163256, 0.6954503, 10.400713
265347535388537, -0.6125626, 4.3130627, 8.623733, -0.16767597, -0.5732753, 9.64312
265347545028641, -0.22013968, 5.40419, 8.609376, 0.033350706, 0.4372139, 10.157895
265347554668745, -0.47138608, 4.634897, 8.668, -0.078286886, -0.2894354, 9.836097
265347564308850, -0.29192436, 4.9160542, 8.49811, 0.032977223, 0.062987804, 9.8216915
265347573948954, -0.317049, 5.127819, 8.669196, -0.003924608, 0.15673971, 10.075982
265347583589058, -0.3505485, 4.487739, 8.4682, 0.03717625, -0.30034614, 9.5854845
265347593229162, -0.11844472, 5.517849, 8.7984085, 0.14137375, 0.46883583, 10.374627
265347602869266, -0.4426722, 4.1838503, 8.627322, 0.015057325, -0.6469207, 9.576666
265347612509370, -0.10289137, 5.6482577, 8.851051, 0.13976777, 0.55949736, 10.484365
265347622149475, -0.5383851, 4.2221355, 8.642876, -0.08124232, -0.63659644, 9.612685
265347631789579, -0.17467605, 5.428118, 8.609376, 0.06346285, 0.48375845, 10.167511
265347641429683, -0.49172506, 4.566702, 8.611769, -0.09456694, -0.32060885, 9.7543545
265347651069787, -0.29790643, 4.9986067, 8.504091, 7.572174E-4, 0.1319375, 9.867978
265347660709891, -0.37208393, 5.0548377, 8.662018, -0.05846989, 0.09327698, 10.035351
265347670349995, -0.45702913, 4.510471, 8.451449, -0.07174659, -0.29005218, 9.585977
265347679990100, -0.30867413, 5.4699926, 8.770891, -0.057118297, 0.40826225, 10.333185
265347689630204, -0.573081, 4.2221355, 8.581859, -0.11757076, -0.6214881, 9.560495
265347699270308, -0.19621146, 5.6470613, 8.793623, 0.020149946, 0.58467054, 10.436157
265347708910412, -0.5778667, 4.1874394, 8.630911, -0.10435355, -0.6660645, 9.586796
265347718550516, -0.14356937, 5.456832, 8.662018, 0.09524405, 0.49702835, 10.226049
265347728190620, -0.40438703, 4.5296135, 8.696713, 0.013811588, -0.36727405, 9.807072
265347737830725, -0.12921242, 5.052445, 8.56152, 0.1624974, 0.20211363, 9.938624
265347747470829, -0.25124636, 4.9986067, 8.703893, 0.07179201, 0.054890633, 10.03986
265347757110933, -0.30149564, 4.549952, 8.458628, 0.069713354, -0.22013879, 9.606666
265347766751037, -0.17706887, 5.4388857, 8.713464, 0.06507671, 0.44164705, 10.263431
265347776391141, -0.45822555, 4.2652063, 8.538788, -0.028371215, -0.5403099, 9.540446
265347786031245, -0.14117654, 5.692525, 8.813962, 0.070807576, 0.6129627, 10.475207
265347795671350, -0.5371887, 4.249653, 8.586644, -0.092401385, -0.58588266, 9.57741
265347805311454, -0.16869399, 5.532206, 8.629715, 0.04780364, 0.5545635, 10.236988
265347814951558, -0.5240282, 4.496114, 8.612965, -0.119666815, -0.38859153, 9.721497
265347824591662, -0.2943172, 5.113462, 8.505288, -0.018122792, 0.23245001, 9.925708
265347834231766, -0.38524446, 4.95075, 8.677571, -0.050736785, -0.0078029633, 9.997799
265347843871870, -0.3182454, 4.644469, 8.43111, 0.0359205, -0.1392293, 9.62992
265347853511975, -0.19381863, 5.42094, 8.718249, 0.05632949, 0.41177988, 10.259597
265347863152079, -0.41635114, 4.287938, 8.55793, 0.019666791, -0.52812314, 9.566538
265347872792183, -0.1052842, 5.633901, 8.792427, 0.10751271, 0.5750766, 10.426718
265347882432287, -0.5383851, 4.1575294, 8.612965, -0.06427026, -0.6849985, 9.554304
265347892072391, -0.11844472, 5.535795, 8.648857, 0.09995127, 0.56382275, 10.253483
265347901712495, -0.4881358, 4.4231324, 8.611769, -0.067289114, -0.45800376, 9.682491
265347911352600, -0.20697916, 5.1828537, 8.526823, 0.059598565, 0.29105663, 9.976135
265347920992704, -0.34576288, 4.9603214, 8.671589, -0.014934182, 0.0037693977, 9.996027
265347930632808, -0.31585258, 4.7449675, 8.452646, 0.022189021, -0.06818843, 9.698277
265347940272912, -0.2536392, 5.4221363, 8.711071, -6.161928E-4, 0.39932728, 10.256081
265347949913016, -0.48933223, 4.3525443, 8.547162, -0.067495584, -0.48166752, 9.591742
265347959553120, -0.16749759, 5.6578293, 8.797213, 0.057127833, 0.5824914, 10.444496
265347969193225, -0.57427746, 4.1814575, 8.549556, -0.1092298, -0.65654683, 9.511377
265347978833329, -0.19980069, 5.5537415, 8.589037, 0.009172201, 0.5755739, 10.213919
265347988473433, -0.59342, 4.3740797, 8.52443, -0.16600037, -0.4751196, 9.58631
265347998113537, -0.25722843, 5.239085, 8.545966, 0.00923872, 0.32646894, 10.022028
265348007753641, -0.45583272, 4.867001, 8.750552, -0.09069538, -0.1337738, 10.022052
265348017393745, -0.35174492, 4.7748775, 8.601001, 0.0076715946, -0.11771965, 9.843093
265348027033850, -0.28594232, 5.3096733, 8.822337, 0.0020586252, 0.25289965, 10.29777
265348036673954, -0.44865423, 4.273581, 8.580662, 0.0073099136, -0.5451386, 9.580988
265348046314058, -0.1471586, 5.5465627, 8.834301, 0.08771765, 0.48251104, 10.42067
265348055954162, -0.5084748, 4.1312084, 8.567501, -0.019771457, -0.6795125, 9.500811
265348065594266, -0.1363909, 5.5716877, 8.615358, 0.060517073, 0.6175084, 10.242155
265348075234370, -0.5300102, 4.321438, 8.523234, -0.09079015, -0.49381828, 9.557676
265348084874475, -0.2440679, 5.3108697, 8.553144, 0.0017938614, 0.387877, 10.063337
265348094514579, -0.46660042, 4.831109, 8.736196, -0.092307925, -0.14980197, 9.9923725
265348104154683, -0.33140594, 4.8215375, 8.580662, 0.016997337, -0.05762434, 9.847902
265348113794787, -0.23928227, 5.2833524, 8.782856, 0.052037477, 0.26366663, 10.2487755
265348123434891, -0.36251262, 4.35733, 8.547162, 0.059988976, -0.43829608, 9.590412
265348133074995, -0.07058827, 5.572884, 8.786445, 0.1718508, 0.54685926, 10.389179
265348142715100, -0.41994038, 4.1371903, 8.518449, 0.022649407, -0.622416, 9.458792
265348152355204, -0.09571291, 5.564509, 8.672786, 0.12381101, 0.58062935, 10.287744
265348161995308, -0.5024927, 4.302295, 8.547162, -0.066349745, -0.52375555, 9.567523
265348171635412, -0.2321038, 5.325227, 8.606983, 0.020663023, 0.3875842, 10.116394
265348181275516, -0.506082, 4.727021, 8.782856, -0.11228001, -0.27324772, 9.982591
265348190915620, -0.3589234, 4.894519, 8.630911, -0.017537951, -0.021195412, 9.928596
265348200555725, -0.3074777, 5.259424, 8.762517, -0.017800808, 0.23692465, 10.221613
265348210195829, -0.41994038, 4.447061, 8.41795, -0.024009585, -0.32085776, 9.524235
265348219835933, -0.19262223, 5.568098, 8.713464, 0.026901484, 0.5433812, 10.328083
265348229476037, -0.5395815, 4.145565, 8.489735, -0.07450032, -0.6345053, 9.441627
265348239116141, -0.11485548, 5.5968122, 8.670393, 0.092053294, 0.60169935, 10.302557
265348248756245, -0.45583272, 4.2341, 8.57468, -0.007047534, -0.5772021, 9.556532
265348258396454, -0.062213387, 5.3826547, 8.617751, 0.17880833, 0.46948814, 10.148402
265348268036558, -0.37208393, 4.703093, 8.72782, 0.012879133, -0.23012948, 9.918632
265348277676662, -0.29072794, 5.002196, 8.584251, 0.015983582, 0.10370302, 9.939057
265348287316766, -0.3804588, 5.2642097, 8.788837, -0.09150326, 0.21187115, 10.249248
265348296956870, -0.51086766, 4.485346, 8.504091, -0.108190775, -0.3510177, 9.621017
265348306596975, -0.28713873, 5.541777, 8.763713, -0.0542109, 0.47386122, 10.361898
265348316237079, -0.4881358, 4.1922255, 8.488539, -0.028989911, -0.5931139, 9.461274
265348325877183, -0.0741775, 5.5704913, 8.646464, 0.12688684, 0.59980345, 10.26749
265348335517287, -0.41156548, 4.182654, 8.52443, 0.053402185, -0.59803176, 9.48522
265348345157391, -0.03589234, 5.3994045, 8.597412, 0.1946609, 0.48571014, 10.138863
265348354797495, -0.40917268, 4.595416, 8.784052, 0.0021344423, -0.36473703, 9.915231
265348364437600, -0.2656033, 4.983053, 8.7015, 0.05598724, 0.037107944, 10.030601
265348374077704, -0.38883367, 5.1254263, 8.833105, -0.06755006, 0.07078314, 10.219362
265348383717808, -0.48933223, 4.5188456, 8.532805, -0.09545457, -0.32596254, 9.661925
265348393357912, -0.31465617, 5.5130634, 8.730213, -0.08506322, 0.46035957, 10.319415
265348402998016, -0.5802595, 4.2281175, 8.411968, -0.12368333, -0.5520413, 9.415669
265348412638120, -0.19262223, 5.672186, 8.563912, -0.024653554, 0.7027173, 10.249731
265348422278225, -0.57547385, 4.2723846, 8.457432, -0.12114, -0.53550696, 9.476873
265348431918329, -0.18065812, 5.48076, 8.57468, 0.025923848, 0.53005457, 10.164393
265348441558433, -0.45942193, 4.5834517, 8.71466, -0.040243864, -0.35680747, 9.850658
265348451198641, -0.21296121, 5.0368915, 8.681161, 0.09858489, 0.10486984, 10.037803
265348460838745, -0.2835495, 5.028517, 8.827123, 0.053970337, 0.019535065, 10.162735
265348470478850, -0.31465617, 4.5320063, 8.52802, 0.07956314, -0.2686243, 9.6585045
265348480118954, -0.14476576, 5.487939, 8.773284, 0.09252846, 0.46257448, 10.338589
265348489759058, -0.49172506, 4.258028, 8.53161, -0.033940077, -0.5482085, 9.532014
265348499399162, -0.17108682, 5.6650076, 8.690732, 0.024182796, 0.63528967, 10.355976
265348509039266, -0.56590253, 4.23051, 8.4813595, -0.10454106, -0.57974005, 9.476492
265348518679370, -0.15553348, 5.474778, 8.562716, 0.0632453, 0.53465223, 10.150253
265348528319475, -0.4534399, 4.517649, 8.627322, -0.030751944, -0.3662355, 9.742195
265348537959579, -0.19860429, 5.113462, 8.665607, 0.10092294, 0.17496443, 10.061755
265348547599683, -0.3493521, 4.975875, 8.841479, -0.0017924309, -0.052298546, 10.151376
265348557239787, -0.3900301, 4.5798626, 8.6141615, -0.002344966, -0.29010797, 9.759452
265348566879891, -0.27876383, 5.4017973, 8.82473, -0.0072598457, 0.33440685, 10.345099
265348576519995, -0.5383851, 4.2161536, 8.550752, -0.086921096, -0.60924697, 9.529031
265348586160204, -0.17467605, 5.621937, 8.712267, 0.045838833, 0.58987904, 10.353271
265348595800308, -0.552742, 4.2041893, 8.467003, -0.10344231, -0.5772865, 9.451292
265348605440412, -0.17467605, 5.552545, 8.506484, 0.030334115, 0.6334872, 10.139986
265348615080516, -0.5024927, 4.4985065, 8.535198, -0.09399319, -0.35993862, 9.654029
265348624720620, -0.23928227, 5.2031927, 8.555537, 0.026343107, 0.29048443, 10.012123
265348634360725, -0.36011982, 4.9674997, 8.770891, -0.010048628, -0.03479719, 10.086275
265348644000829, -0.32662028, 4.7078786, 8.567501, 0.04282379, -0.14994645, 9.780008
265348653640933, -0.18544376, 5.4233327, 8.812766, 0.07786906, 0.37531328, 10.3423815
265348663281037, -0.43788654, 4.3094735, 8.548359, 0.00753808, -0.5026407, 9.570007
265348672921141, -0.15553348, 5.6386867, 8.760123, 0.06848323, 0.5885091, 10.402295
265348682561350, -0.59700924, 4.182654, 8.530413, -0.12662745, -0.64033747, 9.496995
265348692201454, -0.19501504, 5.5453663, 8.585447, 0.024045587, 0.5715413, 10.206457
265348701841558, -0.5072784, 4.3944187, 8.598608, -0.07369721, -0.48037028, 9.657543
265348711481662, -0.2117648, 5.1529436, 8.659625, 0.08818257, 0.21101141, 10.076432
265348721121766, -0.35533416, 4.833502, 8.801998, 0.020226002, -0.15955257, 10.046805
265348730761870, -0.25962126, 4.692325, 8.584251, 0.10517812, -0.15688157, 9.784633
265348740401975, -0.19621146, 5.326423, 8.744571, 0.07596266, 0.32399368, 10.23553
265348750042079, -0.39481574, 4.35733, 8.480164, 0.019628525, -0.42504787, 9.532803
265348759682183, -0.15074782, 5.6877394, 8.758927, 0.04365182, 0.63456917, 10.425322
265348769322287, -0.5515456, 4.269992, 8.510074, -0.10146439, -0.55745625, 9.520365
265348778962495, -0.22013968, 5.6614184, 8.602198, -0.034164667, 0.6566329, 10.279377
265348788602600, -0.59342, 4.4518466, 8.53161, -0.17436266, -0.4151981, 9.631026
265348798242704, -0.25962126, 5.2953167, 8.534002, -0.011048198, 0.36618757, 10.040058
265348807882808, -0.44147578, 4.8299127, 8.665607, -0.07704198, -0.13115168, 9.92938
265348817522912, -0.36610186, 4.7916274, 8.49811, -0.021344423, -0.06613088, 9.76252
265348827163016, -0.30388847, 5.278567, 8.76132, -0.012919545, 0.2392435, 10.230296
265348836803120, -0.49292147, 4.328616, 8.554341, -0.056967854, -0.509336, 9.586134
265348846443225, -0.17108682, 5.5908303, 8.852247, 0.070575476, 0.49063683, 10.459599
265348856083433, -0.5024927, 4.168297, 8.635697, -0.013503671, -0.6911802, 9.577293
265348865723537, -0.06819545, 5.5800624, 8.73141, 0.14767003, 0.57620525, 10.34531
265348875363641, -0.4534399, 4.319045, 8.6141615, 0.0010825396, -0.5406878, 9.631781
265348885003745, -0.14596218, 5.345566, 8.59143, 0.09579575, 0.4224038, 10.110462
265348894643850, -0.37806597, 4.8155556, 8.675179, -0.009291649, -0.12317777, 9.928543
265348904283954, -0.30149564, 4.9172506, 8.451449, 0.009945154, 0.0815444, 9.782152
265348913924058, -0.36251262, 5.3276196, 8.677571, -0.09409797, 0.30753374, 10.183898
265348923564266, -0.5479564, 4.4482574, 8.41795, -0.1509, -0.35771418, 9.528819
265348933204370, -0.23808585, 5.5944195, 8.730213, -0.011182427, 0.540432, 10.357539
265348942844475, -0.52522457, 4.1635113, 8.573483, -0.05446136, -0.6654606, 9.522053
265348952484579, -0.10289137, 5.56092, 8.775677, 0.13539231, 0.5130086, 10.376194
265348962124683, -0.45224348, 4.2628136, 8.685946, 0.016786814, -0.613286, 9.666716
265348971764787, -0.104087785, 5.334798, 8.6548395, 0.15292275, 0.38349104, 10.15907
265348981404891, -0.40917268, 4.6959143, 8.76491, -0.010217309, -0.27278328, 9.948275
265348991045100, -0.27038896, 5.1062837, 8.590233, 0.023958802, 0.18192959, 9.995283
265349000685204, -0.41874397, 4.894519, 8.59143, -0.07651985, -0.03183937, 9.896335
265349010325308, -0.38404804, 4.961518, 8.55793, -0.059628606, 0.044239044, 9.899332
265349019965412, -0.40797627, 4.910072, 8.580662, -0.068888545, -0.015633106, 9.894341
265349029605516, -0.33379877, 4.948357, 8.572288, -0.005338073, 0.03857422, 9.903548
265349039245620, -0.3290131, 4.912465, 8.622537, 0.014339089, -0.013023376, 9.929165
265349048885829, -0.27996024, 4.9722853, 8.6548395, 0.053396106, 0.035289764, 9.985198
265349058525933, -0.26679972, 4.9579287, 8.6548395, 0.0675683, 0.02673006, 9.977635
265349068166037, -0.2943172, 4.9495535, 8.666803, 0.04354, 0.0068922043, 9.9848
265349077806141, -0.34576288, 4.944768, 8.659625, -0.0068308115, -0.0049796104, 9.9779415
265349087446245, -0.40438703, 4.948357, 8.663215, -0.06443834, -0.016088009, 9.98482
265349097086350, -0.4127619, 4.924429, 8.635697, -0.07228351, -0.026173592, 9.94936
265349106726558, -0.3792624, 4.9052863, 8.624929, -0.037341, -0.030908108, 9.929387
265349116366662, -0.3397808, 4.877769, 8.605786, 0.0025054216, -0.03512144, 9.897799
265349126006766, -0.33140594, 4.8789654, 8.59143, 0.008545876, -0.024102688, 9.885654
265349135646870, -0.32183465, 4.8861437, 8.590233, 0.016576648, -0.015246868, 9.88785
265349145286975, -0.3278167, 4.9435716, 8.617751, 0.0064070225, 0.020596504, 9.9404
265349154927079, -0.36729828, 4.9567323, 8.650054, -0.028425694, 0.007483959, 9.976306
265349164567287, -0.3684947, 4.9938207, 8.665607, -0.034142375, 0.031259537, 10.008229
265349174207391, -0.35533416, 4.979464, 8.657232, -0.017704368, 0.025740623, 9.993399
265349183847495, -0.3361916, 4.941179, 8.641679, 0.0059170723, 0.0045204163, 9.960263
265349193487600, -0.30149564, 4.9256253, 8.622537, 0.0398314, 0.007815361, 9.934747
265349203127704, -0.28115666, 4.912465, 8.596215, 0.056200385, 0.013694763, 9.904692
265349212767912, -0.30508488, 4.9136615, 8.590233, 0.03182769, 0.012483597, 9.900913
265349222408016, -0.32303107, 4.8993044, 8.605786, 0.015992165, -0.009500504, 9.907914
265349232048120, -0.3493521, 4.9375896, 8.647661, -0.011532903, -0.0010638237, 9.964122
265349241688225, -0.36011982, 4.9375896, 8.709874, -0.013468146, -0.0320096, 10.018492
265349251328329, -0.36729828, 4.910072, 8.68475, -0.018385053, -0.044326305, 9.983299
265349260968537, -0.35294133, 4.9340005, 8.6548395, -0.011596799, -0.0067100525, 9.968702
265349270608641, -0.37567315, 4.9435716, 8.624929, -0.039584994, 0.010569096, 9.948253
265349280248745, -0.38285163, 4.9435716, 8.599805, -0.049022317, 0.01950121, 9.926697
265349289888850, -0.37328035, 4.932804, 8.609376, -0.03540182, 0.0064520836, 9.929348
265349299528954, -0.3493521, 4.9471607, 8.60459, -0.014807701, 0.025736332, 9.931494
265349309169162, -0.29910284, 4.930411, 8.629715, 0.03894198, 0.011186123, 9.943277
265349318809266, -0.30508488, 4.92084, 8.6141615, 0.032609105, 0.00923872, 9.92524
265349328449370, -0.27756742, 4.900501, 8.624929, 0.06319475, -0.00637722, 9.923575
265349338089475, -0.2632105, 4.914858, 8.605786, 0.07158387, 0.018412113, 9.913588
265349347729579, -0.30149564, 4.9375896, 8.640483, 0.03489971, 0.013147354, 9.956266
265349357369787, -0.35174492, 4.9435716, 8.663215, -0.011918068, -0.0035600662, 9.98067
265349367009891, -0.3589234, 4.9806604, 8.673982, -0.022693753, 0.02107811, 10.008637
265349376649995, -0.34576288, 4.9435716, 8.6548395, -0.0065386295, 3.4189224E-4, 9.973198
265349386290100, -0.31944183, 4.92084, 8.612965, 0.017405987, 0.0064253807, 9.924693
265349395930308, -0.31226337, 4.8969116, 8.598608, 0.025007963, -0.00494051, 9.900136
265349405570412, -0.3469593, 4.889733, 8.605786, -0.011441946, -0.019168854, 9.903985
265349415210516, -0.3385844, 4.8993044, 8.629715, -0.0027091503, -0.019159317, 9.929221
265349424850620, -0.36729828, 4.9375896, 8.665607, -0.0323714, -0.009672165, 9.980297
265349434490725, -0.39960137, 4.9495535, 8.660822, -0.0659039, -0.0033063889, 9.983149
265349444130933, -0.37567315, 4.955536, 8.659625, -0.042591333, 0.0073304176, 9.984274
265349453771037, -0.37686956, 4.9232326, 8.664411, -0.036541104, -0.023244381, 9.972482
265349463411141, -0.32063824, 4.9268217, 8.630911, 0.012593389, 0.008843899, 9.943277
265349473051245, -0.317049, 4.918447, 8.615358, 0.015771389, 0.00946188, 9.9255085
265349482691454, -0.30149564, 4.892126, 8.573483, 0.029114723, 0.009618282, 9.875599
265349492331558, -0.31585258, 4.9172506, 8.592627, 0.011140466, 0.018387794, 9.905145
265349501971662, -0.31345975, 4.922036, 8.597412, 0.013268828, 0.020727634, 9.911589
265349511611766, -0.3290131, 4.9268217, 8.644072, 0.0012139082, 0.0017652512, 9.9549885
265349521251975, -0.28953153, 4.928018, 8.707481, 0.04694116, -0.016526699, 10.009344
265349530892079, -0.27158538, 4.9435716, 8.71466, 0.06070268, -0.0017294884, 10.022688
265349540532183, -0.29910284, 4.92084, 8.732606, 0.040340185, -0.035818577, 10.027942
265349550172287, -0.30388847, 4.9196434, 8.663215, 0.024551868, -0.006082535, 9.96724
265349559812495, -0.3182454, 4.9052863, 8.63809, 0.00962615, -0.009339333, 9.938789
265349569452600, -0.36251262, 4.914858, 8.586644, -0.041784167, 0.0125694275, 9.900293
265349579092704, -0.3505485, 4.928018, 8.590233, -0.031850576, 0.02344513, 9.909531
265349588732808, -0.3696911, 4.9340005, 8.59143, -0.052093506, 0.024028778, 9.914152
265349598373016, -0.3900301, 4.9340005, 8.650054, -0.06469226, -0.0073080063, 9.965726
265349608013120, -0.38883367, 4.9232326, 8.652447, -0.061335087, -0.017545223, 9.962439
265349617653225, -0.36251262, 4.894519, 8.666803, -0.028311372, -0.042182446, 9.959852
265349627293329, -0.31585258, 4.90409, 8.676374, 0.017976165, -0.027414322, 9.971372
265349636933537, -0.3062813, 4.898108, 8.650054, 0.024804473, -0.017656326, 9.945239
265349646573641, -0.29192436, 4.883751, 8.646464, 0.03957832, -0.024907112, 9.934557
265349656213745, -0.25722843, 4.8789654, 8.628518, 0.069313765, -0.01134634, 9.915485
265349665853850, -0.22731815, 4.9028935, 8.660822, 0.098459005, 4.6491623E-4, 9.954405
265349675494058, -0.23569304, 4.8993044, 8.670393, 0.08660376, -0.0069875717, 9.96127
265349685134162, -0.26679972, 4.932804, 8.670393, 0.04838562, 0.01335907, 9.978826
265349694774266, -0.33020952, 4.955536, 8.629715, -0.023229241, 0.035319805, 9.956736
265349704414475, -0.4235296, 4.9782677, 8.57468, -0.12600327, 0.05932665, 9.923119
265349714054579, -0.47018966, 5.009374, 8.566305, -0.17443228, 0.07439089, 9.932802
265349723694683, -0.4642076, 4.9926243, 8.559127, -0.16465318, 0.062618256, 9.918137
265349733334787, -0.35413775, 4.979464, 8.551949, -0.054355264, 0.08051872, 9.901861
265349742974995, -0.29312077, 4.935197, 8.572288, 0.01542449, 0.04668188, 9.895643
265349752615100, -0.2847459, 4.898108, 8.5938225, 0.03284669, 0.0068941116, 9.895717
265349762255204, -0.25124636, 4.8969116, 8.602198, 0.06684208, 0.00952673, 9.90132
265349771895308, -0.27876383, 4.87418, 8.659625, 0.052318692, -0.042734146, 9.940818
265349781535516, -0.29671, 4.894519, 8.72782, 0.041147828, -0.06103611, 10.010684
265349791175620, -0.3493521, 4.9088755, 8.751749, -0.008394837, -0.07086229, 10.040274
265349800815725, -0.37806597, 4.9160542, 8.745767, -0.036540627, -0.06778288, 10.039574
265349810455933, -0.3589234, 4.9531426, 8.688339, -0.02744162, -0.0065636635, 10.007442
265349820096037, -0.30987054, 4.9471607, 8.57468, 0.0058642626, 0.05333948, 9.904175
265349829736141, -0.27756742, 4.9268217, 8.518449, 0.031839132, 0.06621122, 9.844247
265349839376245, -0.2428715, 4.9172506, 8.505288, 0.065417886, 0.07206869, 9.826942
265349849016454, -0.25124636, 4.8969116, 8.555537, 0.06493437, 0.02907896, 9.860783
265349858656558, -0.27517462, 4.901697, 8.627322, 0.047228217, -0.004784584, 9.926269
265349868296662, -0.33140594, 4.935197, 8.708678, -0.0051010847, -0.022800446, 10.015316
265349877936870, -0.3912265, 4.9375896, 8.763713, -0.054569364, -0.059607983, 10.066231
265349887576975, -0.3924229, 4.9674997, 8.72782, -0.066087365, -0.0171628, 10.049889
265349897217079, -0.3912265, 4.9495535, 8.653643, -0.06726217, -1.8835068E-4, 9.97658
265349906857183, -0.33020952, 4.914858, 8.581859, -0.011543393, 0.01849413, 9.895082
265349916497391, -0.2644069, 4.910072, 8.539984, 0.046614885, 0.046470642, 9.854223
265349926137495, -0.20937198, 4.889733, 8.518449, 0.1009686, 0.05151701, 9.823668
265349935777600, -0.20219351, 4.8885365, 8.590233, 0.112570286, 0.01935482, 9.885227
265349945417808, -0.2536392, 4.9064827, 8.645268, 0.06676662, -0.0023417473, 9.943547
265349955057912, -0.33020952, 4.938786, 8.725428, -0.003798604, -0.028848171, 10.031594
265349964698016, -0.37088752, 4.979464, 8.740981, -0.04622674, -0.010585785, 10.066536
