timestamp_acc,device_acc_x,device_acc_y,device_acc_z,earth_acc_x,earth_acc_y,earth_acc_z
269501537459821, 0.15672988, 5.1182475, 8.566305, 0.027848244, -0.009643316, 9.980065
269501547099716, 0.14117654, 5.12423, 8.539984, 0.012938976, -0.030283332, 9.960317
269501556739716, 0.16510476, 5.139783, 8.512466, -0.01789093, -0.0130982995, 9.945162
269501566379716, 0.19740787, 5.1493545, 8.480164, -0.04665804, 0.013118982, 9.922986
269501576019612, 0.19740787, 5.1457653, 8.478967, -0.043167114, 0.013294101, 9.920116
269501585659612, 0.18903299, 5.1469617, 8.488539, -0.03680086, 0.005665183, 9.928789
269501595299612, 0.16510476, 5.130212, 8.520842, -3.619194E-4, -0.0123720765, 9.947408
269501604939508, 0.17108682, 5.1122656, 8.547162, 0.027774334, -0.0010612011, 9.960811
269501614579508, 0.18544376, 5.127819, 8.530413, 0.0032405853, 0.008208811, 9.954737
269501624219508, 0.19501504, 5.113462, 8.493324, -0.0047836304, 0.016254306, 9.915733
269501633859404, 0.19142582, 5.099105, 8.482556, 0.004696846, 0.014671028, 9.899043
269501643499404, 0.2009971, 5.131408, 8.482556, -0.024158478, 0.018226385, 9.9158745
269501653139404, 0.16869399, 5.151747, 8.463413, -0.04305601, -0.016970694, 9.909399
269501662779300, 0.17228323, 5.157729, 8.446664, -0.056693077, -0.014730096, 9.898211
269501672419300, 0.15314065, 5.156533, 8.487342, -0.03131628, -0.029141068, 9.932091
269501682059300, 0.19501504, 5.1457653, 8.539984, -0.002737999, 0.017980933, 9.972359
269501691699196, 0.18065812, 5.1469617, 8.585447, 0.021690845, 0.00790298, 10.011655
269501701339196, 0.15672988, 5.123033, 8.548359, 0.026983738, -0.0145692825, 9.967123
269501710979091, 0.21535404, 5.1326046, 8.4909315, -0.020189285, 0.037186265, 9.923919
269501720619091, 0.2632105, 5.1421757, 8.4909315, -0.03659153, 0.08279073, 9.929703
269501730259091, 0.28115666, 5.1326046, 8.465807, -0.04418087, 0.095214725, 9.903612
269501739898987, 0.23688944, 5.111069, 8.472985, -0.014289856, 0.055921793, 9.897842
269501749538987, 0.20338993, 5.096712, 8.5112705, 0.022523403, 0.025214672, 9.922623
269501759178987, 0.18305093, 5.083552, 8.530413, 0.046123505, 0.008460224, 9.931856
269501768818883, 0.18783657, 5.0775695, 8.581859, 0.07635641, 0.018713415, 9.97292
269501778458883, 0.1902294, 5.111069, 8.566305, 0.037054062, 0.0123153925, 9.976938
269501788098883, 0.18424734, 5.1613183, 8.544769, -0.015577793, -0.005068004, 9.984284
269501797738779, 0.15553348, 5.18405, 8.545966, -0.028188705, -0.03792876, 9.996492
269501807378779, 0.06699903, 5.2331033, 8.554341, -0.047489166, -0.13276106, 10.027299
269501817018779, 0.009571291, 5.2402816, 8.537591, -0.051383972, -0.19138968, 10.015581
269501826658675, 0.015553347, 5.239085, 8.507681, -0.064216614, -0.1863311, 9.989496
269501836298675, 0.050249275, 5.221139, 8.456235, -0.07698393, -0.14796996, 9.936947
269501845938675, 0.08255238, 5.1936216, 8.408379, -0.08242464, -0.11273104, 9.8824
269501855578571, 0.14955142, 5.1409793, 8.400003, -0.054615974, -0.036125302, 9.849255
269501865218571, 0.20578274, 5.1050873, 8.408379, -0.030906677, 0.025411904, 9.838877
269501874858466, 0.27038896, 5.0512486, 8.428718, 0.010342598, 0.10092223, 9.829611
269501884498466, 0.31585258, 5.0189457, 8.46461, 0.045348644, 0.15037537, 9.844519
269501894138466, 0.32183465, 5.0344987, 8.518449, 0.058873177, 0.1582014, 9.89875
269501903778362, 0.31106696, 5.0751767, 8.5938225, 0.061774254, 0.14186788, 9.984189
269501913418362, 0.2644069, 5.1158547, 8.627322, 0.05421257, 0.091831625, 10.033006
269501923058362, 0.28235307, 5.1816573, 8.656036, 0.007683754, 0.09790325, 10.0919075
269501932698258, 0.23090738, 5.198407, 8.671589, 0.010400295, 0.043122947, 10.112925
269501942338258, 0.17108682, 5.194818, 8.678768, 0.029718876, -0.014205635, 10.116093
269501951978258, 0.09332009, 5.1876397, 8.659625, 0.041949272, -0.09142989, 10.094518
269501961618154, 0.050249275, 5.1661043, 8.575876, 0.02665186, -0.13741565, 10.010857
269501971258154, 0.05503492, 5.1493545, 8.474181, -0.010330677, -0.1380223, 9.915215
269501980898154, 0.05503492, 5.1266227, 8.383254, -0.034585, -0.14068818, 9.825642
269501990538050, 0.124426775, 5.1493545, 8.325827, -0.09216452, -0.07999587, 9.789578
269502000178050, 0.18305093, 5.1254263, 8.355737, -0.06843376, -0.015691817, 9.803925
269502009818050, 0.22253251, 5.1385865, 8.385647, -0.0696249, 0.023175001, 9.837088
269502019457946, 0.2416751, 5.1649075, 8.455039, -0.05912304, 0.041950822, 9.910456
269502029097946, 0.22851457, 5.1732826, 8.529217, -0.024962902, 0.03287089, 9.978024
269502038737841, 0.19980069, 5.1816573, 8.55793, -0.012164593, 0.0052967668, 10.006374
269502048377841, 0.20338993, 5.206782, 8.548359, -0.038905144, 0.0054031014, 10.011237
269502058017841, 0.19501504, 5.1876397, 8.541181, -0.024410248, 5.571246E-4, 9.995039
269502067657737, 0.18544376, 5.15414, 8.535198, 0.002667427, -0.0037371516, 9.972419
269502077297737, 0.17347965, 5.1457653, 8.559127, 0.024052143, -0.0135445595, 9.988336
269502086937737, 0.17467605, 5.1086764, 8.56152, 0.056134224, -0.005736172, 9.971232
269502096577633, 0.22013968, 5.0943193, 8.566305, 0.061921597, 0.040070713, 9.968787
269502106217633, 0.24526432, 5.0644093, 8.516056, 0.05764675, 0.062752545, 9.91082
269502115857633, 0.3074777, 5.0715876, 8.4682, 0.015936375, 0.1174258, 9.874813
269502125497529, 0.38524446, 5.093123, 8.438289, -0.02827549, 0.18797737, 9.861892
269502135137529, 0.38404804, 5.1122656, 8.370093, -0.07674599, 0.17357528, 9.813522
269502144777425, 0.32303107, 5.123033, 8.30788, -0.10649538, 0.10715115, 9.764624
269502154417425, 0.2321038, 5.119444, 8.343773, -0.06639576, 0.015234232, 9.791655
269502164057425, 0.18783657, 5.1649075, 8.394022, -0.070613384, -0.032429755, 9.857239
269502173697321, 0.1363909, 5.176872, 8.423932, -0.05831051, -0.08287376, 9.887918
269502183337321, 0.11485548, 5.1996036, 8.429914, -0.06991243, -0.10770178, 9.904344
269502192977321, 0.10289137, 5.1936216, 8.467003, -0.04679489, -0.11248118, 9.932753
269502202617216, 0.12801601, 5.1852465, 8.475378, -0.041439056, -0.08229184, 9.936133
269502212257216, 0.1698904, 5.1696935, 8.516056, -0.019248962, -0.029084206, 9.963764
269502221897216, 0.16630118, 5.1732826, 8.562716, 7.119179E-4, -0.027679265, 10.005491
269502231537112, 0.14955142, 5.130212, 8.633304, 0.07483387, -0.029277444, 10.043352
269502241177112, 0.12562318, 5.109873, 8.630911, 0.094659805, -0.050420523, 10.030339
269502250817008, 0.14596218, 5.127819, 8.611769, 0.06427002, -0.03294921, 10.02363
269502260457008, 0.16749759, 5.1146584, 8.601001, 0.061356544, -0.009562373, 10.008055
269502270097008, 0.20937198, 5.119444, 8.623733, 0.061074257, 0.03339809, 10.030777
269502279736904, 0.22971097, 5.123033, 8.662018, 0.06784773, 0.05165136, 10.065859
269502289376904, 0.19381863, 5.12423, 8.681161, 0.083464146, 0.018800974, 10.0821905
269502299016904, 0.1902294, 5.143372, 8.6548395, 0.05257082, 0.0031815767, 10.069455
269502308656800, 0.17347965, 5.1254263, 8.620144, 0.053486824, -0.012966096, 10.03015
269502318296800, 0.21296121, 5.133801, 8.57468, 0.01633358, 0.018082261, 9.99629
269502327936696, 0.24885355, 5.150551, 8.496913, -0.042221546, 0.041386604, 9.939022
269502337576696, 0.28235307, 5.119444, 8.433503, -0.052606583, 0.07250124, 9.869367
269502347216696, 0.30149564, 5.10748, 8.376076, -0.067382336, 0.086480856, 9.814472
269502356856591, 0.2656033, 5.0847483, 8.325827, -0.06646776, 0.05114013, 9.758973
269502366496591, 0.2428715, 5.0679984, 8.3174515, -0.048707962, 0.029743493, 9.742707
269502376136487, 0.25962126, 5.058427, 8.342576, -0.029148579, 0.049244046, 9.75963
269502385776487, 0.25004998, 5.076373, 8.446664, 0.011640072, 0.045420587, 9.85779
269502395416487, 0.2105684, 5.1122656, 8.572288, 0.05370617, 0.010387003, 9.983022
269502405056383, 0.15074782, 5.15414, 8.652447, 0.06970596, -0.048915207, 10.072015
269502414696383, 0.07298109, 5.191229, 8.699107, 0.0778141, -0.121490836, 10.129553
269502424336279, 0.05383851, 5.2534423, 8.648857, 0.0032310486, -0.15481311, 10.118317
269502433976279, 0.061016977, 5.271388, 8.5423765, -0.059274673, -0.14934099, 10.036816
269502443616279, 0.09571291, 5.239085, 8.423932, -0.09454346, -0.115799904, 9.919548
269502453256175, 0.15553348, 5.204389, 8.311469, -0.134552, -0.05963111, 9.806564
269502462896175, 0.22731815, 5.163711, 8.319844, -0.10347319, 0.017134905, 9.794101
269502472536071, 0.28713873, 5.1409793, 8.477771, -0.014871597, 0.091863096, 9.918471
269502482176071, 0.317049, 5.1673007, 8.566305, 0.0025391579, 0.120333195, 10.008428
269502491816071, 0.26919255, 5.1050873, 8.568698, 0.06418705, 0.08054209, 9.977292
269502501455966, 0.25962126, 5.1050873, 8.507681, 0.03540659, 0.06348872, 9.9249525
269502511095966, 0.2644069, 5.0955157, 8.492127, 0.038859367, 0.06588119, 9.906794
269502520735862, 0.30029923, 5.1206403, 8.452646, -0.009382725, 0.09331787, 9.886837
269502530375862, 0.2727818, 5.1349974, 8.376076, -0.052541733, 0.057504058, 9.828284
269502540015862, 0.20338993, 5.1661043, 8.329415, -0.08368683, -0.020900548, 9.803148
269502549655758, 0.1698904, 5.224728, 8.340183, -0.11891031, -0.062288642, 9.842119
269502559295758, 0.0634098, 5.245067, 8.3784685, -0.094465256, -0.16634935, 9.883163
269502568935654, 0.021535404, 5.259424, 8.457432, -0.05828762, -0.19650185, 9.957315
269502578575654, 0.03708875, 5.558527, 8.538788, -0.26237917, -0.23759258, 10.182545
269502588215654, 0.038285162, 4.9340005, 8.543573, 0.25523758, -0.10106015, 9.862207
269502597855550, 0.02871387, 5.300102, 8.554341, -0.035838127, -0.17939049, 10.061571
269502607495550, 0.18424734, 5.2941203, 8.534002, -0.07934141, -0.021258414, 10.044109
269502617135446, 0.104087785, 4.8382874, 8.370093, 0.23338652, -0.020569205, 9.665581
269502626775446, 0.40797627, 5.7188463, 8.447861, -0.5230994, 0.10107678, 10.195791
269502636415341, 0.23449662, 4.456632, 8.288737, 0.47852826, 0.17532676, 9.4
269502646055341, 0.4941179, 5.899504, 8.548359, -0.6368146, 0.1467185, 10.377652
269502655695341, 0.27517462, 4.386044, 8.392825, 0.5875268, 0.2192781, 9.453008
269502665335237, 0.38524446, 5.6709895, 8.5938225, -0.39953375, 0.09418893, 10.295331
269502674975237, 0.26679972, 4.648058, 8.572288, 0.45315075, 0.16323966, 9.743088
269502684615133, 0.23090738, 5.2546387, 8.69791, 0.013459682, 0.022267282, 10.164522
269502694255133, 0.28953153, 5.206782, 8.679964, 0.032958508, 0.08882481, 10.125572
269502703895029, 0.08733802, 4.8251266, 8.5112705, 0.30657625, -0.052885532, 9.7792845
269502713535029, 0.25004998, 5.716453, 8.544769, -0.45082855, -0.057150543, 10.273603
269502723175029, -0.014356935, 4.53081, 8.319844, 0.47761345, -0.100538254, 9.460975
269502732814925, 0.19740787, 5.977271, 8.472985, -0.68177557, -0.16574287, 10.347268
269502742454925, -0.015553347, 4.4674, 8.252846, 0.5016115, -0.08445901, 9.3706255
269502752094821, 0.18664017, 5.8217373, 8.428718, -0.56498337, -0.15478563, 10.228763
269502761734821, 0.08733802, 4.7174497, 8.391629, 0.34221482, -0.021607578, 9.62101
269502771374716, 0.15553348, 5.4173503, 8.525627, -0.17773151, -0.08830643, 10.100435
269502781014716, 0.27756742, 5.1852465, 8.578269, 0.001584053, 0.082790256, 10.027147
269502790654612, 0.16749759, 4.8658047, 8.505288, 0.254323, 0.034100294, 9.796846
269502800294612, 0.36011982, 5.6817575, 8.662018, -0.38754177, 0.058860183, 10.358038
269502809934612, 0.059820566, 4.5224347, 8.5220375, 0.5750146, 0.020496488, 9.630684
269502819574508, 0.27876383, 5.9318075, 8.672786, -0.5723553, -0.076725006, 10.495131
269502829214508, 0.02871387, 4.45065, 8.394022, 0.570539, -0.0037806034, 9.483837
269502838854404, 0.17706887, 5.8265233, 8.487342, -0.5437794, -0.17294419, 10.280521
269502848494404, 0.07776674, 4.6408796, 8.344969, 0.39261198, 0.017182946, 9.540853
269502858134300, 0.17826529, 5.4352965, 8.477771, -0.21661997, -0.0734849, 10.069483
269502867774300, 0.3074777, 5.131408, 8.462217, -0.016852379, 0.12666595, 9.90044
269502877414196, 0.23449662, 4.9399824, 8.37129, 0.11862421, 0.08992499, 9.72187
269502887054196, 0.44985065, 5.6183476, 8.486146, -0.44019556, 0.13699818, 10.176951
269502896694091, 0.1794617, 4.517649, 8.343773, 0.46556592, 0.11826497, 9.477825
269502906334091, 0.35174492, 5.8827543, 8.567501, -0.591969, -0.0012076497, 10.38182
269502915973987, 0.076570325, 4.375276, 8.334201, 0.60187984, 0.035242677, 9.393845
269502925613987, 0.27756742, 5.8097734, 8.486146, -0.5465393, -0.059899688, 10.273408
269502935253987, 0.16510476, 4.57747, 8.38804, 0.44050264, 0.07088792, 9.5467615
269502944893883, 0.22013968, 5.5250273, 8.539984, -0.28135014, -0.048597634, 10.169768
269502954533883, 0.21535404, 5.070391, 8.525627, 0.09221554, 0.047777653, 9.921229
269502964173779, 0.08853444, 4.9806604, 8.443074, 0.15653706, -0.06483638, 9.801615
269502973813779, 0.22013968, 5.556134, 8.530413, -0.30828, -0.053467095, 10.177876
269502983453675, -0.013160525, 4.5918264, 8.380861, 0.46818542, -0.0714221, 9.544611
269502993093675, 0.25962126, 5.8947186, 8.563912, -0.58514833, -0.081575274, 10.382998
269503002733571, 0.0526421, 4.4458647, 8.389236, 0.580364, 0.028135836, 9.476824
269503012373571, 0.31345975, 5.9150577, 8.592627, -0.5923314, -0.034414887, 10.419565
269503022013466, 0.16151553, 4.615755, 8.462217, 0.4397087, 0.09312135, 9.630078
269503031653466, 0.20578274, 5.5740805, 8.585447, -0.29475403, -0.050253272, 10.233926
269503041293362, 0.17587246, 5.0045886, 8.580662, 0.17716694, 0.02740711, 9.933401
269503050933362, 0.076570325, 5.0368915, 8.572288, 0.1663127, -0.07664108, 9.941165
269503060573258, 0.24646074, 5.471189, 8.595019, -0.22272539, -1.6498566E-4, 10.18918
269503070213258, 0.09571291, 4.5523453, 8.46102, 0.5057707, 0.034238517, 9.595045
269503079853154, 0.3900301, 5.8468623, 8.658429, -0.52893496, 0.06406206, 10.441381
269503089493154, 0.16390835, 4.3812585, 8.407183, 0.6163931, 0.1335733, 9.460722
269503099133050, 0.35653058, 5.8767724, 8.484949, -0.63374615, 0.0026286244, 10.308069
269503108773050, 0.14356937, 4.546363, 8.275578, 0.42147732, 0.07133883, 9.433582
269503118412946, 0.16151553, 5.651847, 8.40479, -0.43596697, -0.14475054, 10.119238
269503128052946, 0.10289137, 5.0141597, 8.390432, 0.097706795, -0.06533289, 9.774352
269503137692841, 0.058624156, 5.1673007, 8.368897, -0.026493073, -0.14361858, 9.834711
269503147332841, 0.24047868, 5.49751, 8.433503, -0.3086443, -0.027236223, 10.0652075
269503156972737, 0.09571291, 4.618148, 8.325827, 0.40180016, 0.0027230382, 9.512854
269503166612737, 0.34456646, 5.797809, 8.605786, -0.49005747, 0.024051309, 10.370733
269503176252633, 0.12323037, 4.3872404, 8.432307, 0.6335008, 0.08826673, 9.484607
269503185892633, 0.3912265, 5.8767724, 8.569894, -0.5835309, 0.044666708, 10.382201
269503195532529, 0.18783657, 4.49731, 8.392825, 0.51478314, 0.116289675, 9.509053
269503205172529, 0.2739782, 5.669793, 8.56152, -0.39094257, -0.020546317, 10.264891
269503214812425, 0.15553348, 4.941179, 8.499306, 0.19886255, 0.005354762, 9.830465
269503224452321, 0.0849452, 5.2163534, 8.455039, -0.029262543, -0.12234765, 9.934256
269503234092321, 0.22731815, 5.416154, 8.4909315, -0.21382475, -0.018745422, 10.071556
269503243732216, 0.08733802, 4.699504, 8.390432, 0.36372423, -0.015946329, 9.610399
269503253372216, 0.35533416, 5.77747, 8.60459, -0.48231506, 0.042193174, 10.359053
269503263012112, 0.13758731, 4.341777, 8.423932, 0.66465116, 0.11039221, 9.454029
269503272652112, 0.38763726, 5.8540406, 8.599805, -0.5564866, 0.04362589, 10.395438
269503282292008, 0.22851457, 4.4374895, 8.411968, 0.5418539, 0.18552941, 9.496143
269503291932008, 0.33499518, 5.6745787, 8.507681, -0.44655704, 0.0072888136, 10.222242
269503301571904, 0.20219351, 4.8490553, 8.376076, 0.19033527, 0.056058705, 9.678508
269503311211904, 0.12083755, 5.2642097, 8.349754, -0.1428709, -0.11622709, 9.869701
269503320851800, 0.22253251, 5.3647084, 8.322237, -0.26639462, -0.040627122, 9.900333
269503330491800, 0.034695927, 4.705486, 8.228917, 0.27738047, -0.08249444, 9.47492
269503340131696, 0.26799613, 5.7284174, 8.519645, -0.48887634, -0.055015326, 10.258114
269503349771696, 0.031106694, 4.4195433, 8.49811, 0.6420853, 0.013475418, 9.557131
269503359411591, 0.25842485, 5.8911295, 8.774481, -0.4895954, -0.07030773, 10.560259
269503369051487, -0.008374879, 4.4398823, 8.606983, 0.67501235, -0.027700722, 9.661077
269503378691487, 0.11724831, 5.7726846, 8.752945, -0.3904438, -0.18598974, 10.476863
269503388331383, 0.0634098, 4.831109, 8.627322, 0.34314203, -0.033716023, 9.882076
269503397971383, 0.08973085, 5.332405, 8.58784, -0.10294151, -0.124418974, 10.107796
269503407611279, 0.21655045, 5.2905307, 8.510074, -0.13910627, -0.001132369, 10.021907
269503417251279, 0.104087785, 4.770092, 8.365308, 0.2520187, -0.006685734, 9.627016
269503426891175, 0.37088752, 5.68415, 8.549556, -0.47794104, 0.060432434, 10.262064
269503436531175, 0.15314065, 4.4004006, 8.429914, 0.58123565, 0.12680626, 9.491918
269503446171071, 0.39840496, 5.8241305, 8.623733, -0.56747484, 0.055206537, 10.398218
269503455810966, 0.19381863, 4.348955, 8.38804, 0.58411026, 0.16641772, 9.430871
269503465450966, 0.3361916, 5.6889358, 8.530413, -0.47620773, 0.018842876, 10.24782
269503475090862, 0.19381863, 4.6731825, 8.416754, 0.3316245, 0.09235215, 9.622861
269503484730862, 0.1363909, 5.35753, 8.504091, -0.16516018, -0.10869056, 10.049986
269503494370758, 0.19740787, 5.2486563, 8.483752, -0.103444576, -0.02080369, 9.977489
269503504010758, 0.061016977, 4.85743, 8.402397, 0.21343803, -0.0729509, 9.702976
269503513650654, 0.3074777, 5.6745787, 8.571091, -0.44150877, -0.0044283867, 10.274437
269503523290654, 0.1052842, 4.418347, 8.484949, 0.60295486, 0.0833202, 9.547604
269503532930550, 0.36729828, 5.8420763, 8.725428, -0.51062775, 0.037315845, 10.494556
269503542570446, 0.13399807, 4.345366, 8.496913, 0.666029, 0.123447, 9.520445
269503552210446, 0.276371, 5.7260246, 8.583055, -0.4652977, -0.045663178, 10.310866
269503561850341, 0.13758731, 4.627719, 8.46461, 0.40696573, 0.04861927, 9.639313
269503571490341, 0.1591227, 5.4029937, 8.556734, -0.18361044, -0.093596935, 10.118938
269503581130237, 0.22013968, 5.1960144, 8.474181, -0.07470369, 0.0033103824, 9.942493
269503590770237, 0.07178468, 4.928018, 8.385647, 0.14637184, -0.08739239, 9.725252
269503600410133, 0.21894327, 5.7020965, 8.5112705, -0.46601915, -0.09942961, 10.236039
269503610050029, -0.02751746, 4.5738807, 8.439486, 0.49257898, -0.08616245, 9.586241
269503619690029, 0.22971097, 5.9700923, 8.650054, -0.61654043, -0.13676357, 10.493777
269503629329925, 0.06819545, 4.447061, 8.438289, 0.5829325, 0.039657652, 9.520733
269503638969925, 0.32063824, 5.831309, 8.597412, -0.5413418, -0.02394402, 10.3792515
269503648609821, 0.2440679, 4.601398, 8.453842, 0.41744757, 0.15918052, 9.617707
269503658249821, 0.26799613, 5.3623157, 8.565108, -0.15892172, 0.017775536, 10.10751
269503667889716, 0.3074777, 4.9770713, 8.519645, 0.11850548, 0.13228822, 9.870086
269503677529612, 0.24047868, 4.837091, 8.427522, 0.20828342, 0.08353466, 9.717409
269503687169612, 0.4546363, 5.503492, 8.475378, -0.36848783, 0.14072585, 10.107994
269503696809508, 0.24526432, 4.4350967, 8.280363, 0.4686551, 0.14082879, 9.383773
269503706449508, 0.46061835, 5.885147, 8.477771, -0.67489624, 0.07149708, 10.308208
269503716089404, 0.16510476, 4.432704, 8.216953, 0.4711349, 0.04450655, 9.325797
269503725729300, 0.3062813, 5.871987, 8.348558, -0.68902874, -0.09562546, 10.187667
269503735369300, 0.11485548, 4.6229334, 8.236095, 0.3239298, -0.042254448, 9.439875
269503745009196, 0.14117654, 5.5573306, 8.437093, -0.34775305, -0.18172139, 10.096258
269503754649196, 0.16869399, 5.0344987, 8.513663, 0.10900545, -0.04226309, 9.891584
269503764289091, 0.078963146, 4.9567323, 8.550752, 0.21339989, -0.10766864, 9.880976
269503773929091, 0.22253251, 5.51426, 8.732606, -0.20442104, -0.0653733, 10.328064
269503783568987, 0.033499517, 4.5296135, 8.560323, 0.5696292, -0.06202364, 9.6679535
269503793208883, 0.36251262, 5.8133626, 8.882157, -0.41930532, 0.020042121, 10.613345
269503802848883, 0.13758731, 4.371687, 8.691928, 0.73563194, 0.069500566, 9.702278
269503812488779, 0.30388847, 5.85763, 8.853444, -0.4503622, -0.056953847, 10.610447
269503822128779, 0.12323037, 4.557131, 8.601001, 0.53171563, 0.01163888, 9.719928
269503831768675, 0.2620141, 5.6039906, 8.672786, -0.3243723, -0.06578636, 10.323808
269503841408571, 0.26679972, 5.028517, 8.512466, 0.07150316, 0.039040327, 9.890026
269503851048571, 0.2416751, 5.026124, 8.4909315, 0.06840801, 0.0076865554, 9.869726
269503860688466, 0.37806597, 5.593223, 8.298309, -0.532588, -0.008990109, 10.000264
269503870328466, -0.05623133, 4.5427737, 8.059027, 0.3282416, -0.23569542, 9.242542
269503879968362, 0.1794617, 5.692525, 8.111669, -0.6505456, -0.26081216, 9.886607
269503889608362, 0.03708875, 4.3178487, 7.88794, 0.40056324, -0.12822866, 8.982644
269503899248258, 0.3361916, 5.8169518, 8.279166, -0.7386012, -0.14020252, 10.096006
269503908888154, 0.2428715, 4.4243293, 8.271988, 0.43659854, 0.031350374, 9.373786
269503918528154, 0.36011982, 5.5573306, 8.705089, -0.34144354, -0.062229216, 10.328199
269503928168050, 0.357727, 4.9543395, 8.835498, 0.22298527, 0.035566807, 10.133532
269503937808050, 0.37806597, 5.123033, 8.927621, 0.10825157, 0.013632238, 10.299462
269503947447946, 0.56470615, 5.367101, 8.962317, -0.12602234, 0.13576573, 10.460091
269503957087841, 0.4319045, 4.526024, 8.819944, 0.5351362, 0.14527202, 9.907341
269503966727841, 0.75613195, 5.623133, 9.0341015, -0.354846, 0.26195043, 10.658885
269503976367737, 0.5132605, 4.145565, 8.845069, 0.8508947, 0.28775603, 9.740512
269503986007737, 0.68195444, 5.595616, 8.921639, -0.37427187, 0.18660182, 10.544987
269503995647633, 0.4426722, 4.1790648, 8.578269, 0.7039454, 0.21624526, 9.523914
269504005287529, 0.4869394, 5.4017973, 8.556734, -0.3414297, 0.003957808, 10.125099
269504014927529, 0.41156548, 4.7341995, 8.323434, 0.11345005, 0.06234449, 9.583571
269504024567425, 0.37088752, 5.1290154, 8.244471, -0.23422098, -0.05822134, 9.713773
269504034207425, 0.48933223, 5.3682976, 8.270791, -0.44446135, 0.013677061, 9.862368
269504043847321, 0.24526432, 4.694718, 8.276773, 0.18482804, -0.08139503, 9.51655
269504053487216, 0.40438703, 5.7391853, 8.592627, -0.5715952, -0.13025671, 10.324308
269504063127216, 0.10887343, 4.319045, 8.477771, 0.6294322, -0.11612892, 9.493627
269504072767112, 0.38883367, 5.782256, 8.708678, -0.55502415, -0.14943492, 10.444921
269504082407112, 0.276371, 4.304688, 8.538788, 0.61903405, 0.05128485, 9.546299
269504092047008, 0.51206404, 5.521438, 8.743374, -0.34021902, 0.029918373, 10.347872
269504101686904, 0.5192425, 4.6875396, 8.687142, 0.31401443, 0.20809639, 9.87761
269504111326904, 0.50009996, 5.139783, 8.656036, -0.067379475, 0.08863562, 10.078793
269504120966800, 0.5395815, 5.1924253, 8.562716, -0.16507196, 0.1123631, 10.026598
269504130606800, 0.29072794, 4.597809, 8.355737, 0.2885573, -0.01881522, 9.537247
269504140246696, 0.47856453, 5.633901, 8.487342, -0.55365944, -0.031490743, 10.1831875
269504149886696, 0.22253251, 4.2927237, 8.327023, 0.54787254, -0.0281713, 9.354963
269504159526591, 0.48454657, 5.7523456, 8.559127, -0.62764835, -0.018060982, 10.304788
269504169166487, 0.29312077, 4.2891345, 8.463413, 0.5992415, 0.043378532, 9.4737
269504178806487, 0.4127619, 5.660222, 8.732606, -0.44283342, -0.07209712, 10.405075
269504188446383, 0.29192436, 4.698307, 8.742178, 0.38069868, -0.016366959, 9.921682
269504198086383, 0.22851457, 5.2402816, 8.813962, -0.023097038, -0.17299485, 10.255156
269504207726279, 0.29312077, 5.2307105, 8.755338, -0.06458998, -0.108899355, 10.202263
269504217366175, 0.148355, 4.7784667, 8.559127, 0.2545061, -0.16554284, 9.799092
269504227006175, 0.3684947, 5.6386867, 8.629715, -0.47558212, -0.11617994, 10.303537
269504236646071, 0.20458634, 4.338187, 8.435896, 0.5510318, -0.011910081, 9.472185
269504246286071, 0.5096712, 5.791827, 8.623733, -0.62642, -0.021711588, 10.381758
269504255925966, 0.27756742, 4.261617, 8.346166, 0.5565038, 0.08412731, 9.358425
269504265565862, 0.4989035, 5.611169, 8.475378, -0.55060863, 0.0049397945, 10.1618395
269504275205862, 0.44745782, 4.558327, 8.373683, 0.29628897, 0.17192405, 9.538331
269504284845758, 0.47377887, 5.2498527, 8.475378, -0.23536873, 0.05325979, 9.977937
269504294485758, 0.5395815, 5.0739803, 8.525627, -0.08626175, 0.15316647, 9.934378
269504304125654, 0.38285163, 4.6959143, 8.514859, 0.25655127, 0.08048576, 9.72773
269504313765550, 0.5706882, 5.5130634, 8.724232, -0.36470747, 0.097040534, 10.329055
269504323405550, 0.27158538, 4.2687955, 8.635697, 0.69446635, 0.07818401, 9.61162
269504333045446, 0.43669012, 5.7451673, 8.879765, -0.45318508, -0.066146076, 10.575354
269504342685446, 0.16271193, 4.2556353, 8.675179, 0.7476928, -0.008804977, 9.63517
269504352325341, 0.37447673, 5.6937213, 8.739784, -0.4762392, -0.1335051, 10.425829
269504361965237, 0.32662028, 4.601398, 8.567501, 0.3562472, 0.06389105, 9.723716
269504371605237, 0.39601216, 5.367101, 8.585447, -0.2803378, -0.043701172, 10.128771
269504381245133, 0.44745782, 5.0859447, 8.529217, -0.087240696, 0.065832675, 9.939953
269504390885133, 0.29192436, 4.8323054, 8.421539, 0.11512852, -0.03770578, 9.713085
269504400525029, 0.42592242, 5.54417, 8.514859, -0.46527576, -0.054954886, 10.158865
269504410165029, 0.16630118, 4.392026, 8.438289, 0.52472043, -0.05664158, 9.499669
269504419804925, 0.42831525, 5.7930236, 8.683554, -0.59089375, -0.0956316, 10.430168
269504429444821, 0.21296121, 4.2795634, 8.510074, 0.63435006, 0.010910571, 9.506781
269504439084821, 0.42831525, 5.709275, 8.672786, -0.52785397, -0.06689632, 10.378506
269504448724716, 0.3361916, 4.470989, 8.502895, 0.45218396, 0.097887635, 9.601455
269504458364716, 0.41515473, 5.3216376, 8.583055, -0.23554277, -0.0022519827, 10.104728
269504468004612, 0.4833502, 4.959125, 8.535198, 0.02114439, 0.1391908, 9.882122
269504477644612, 0.38524446, 4.8155556, 8.440681, 0.118970394, 0.069208086, 9.72441
269504487284508, 0.57547385, 5.419743, 8.580662, -0.35953808, 0.13185346, 10.158045
269504496924404, 0.3182454, 4.359723, 8.428718, 0.51013684, 0.10066998, 9.480578
269504506564404, 0.47856453, 5.6674004, 8.626125, -0.5181875, -0.0069036484, 10.319397
269504516204300, 0.14476576, 4.2185464, 8.62134, 0.7565129, -0.02725774, 9.5693035
269504525844300, 0.5168497, 5.751149, 8.846265, -0.48402882, -3.450513E-4, 10.55296
269504535484196, 0.43070808, 4.462614, 8.566305, 0.4606614, 0.17205304, 9.656097
269504545124091, 0.44745782, 5.511867, 8.642876, -0.3688097, -0.07022756, 10.253744
269504554764091, 0.3493521, 4.981857, 8.492127, 0.019901276, -0.05414462, 9.851592
269504564403987, 0.29790643, 4.9579287, 8.489735, 0.05795765, -0.10427934, 9.835201
269504574043987, 0.5240282, 5.5022955, 8.484949, -0.45151806, -0.016500473, 10.116327
269504583683883, 0.27517462, 4.4817567, 8.353344, 0.39291024, -0.03722292, 9.475466
269504593323883, 0.5132605, 5.729614, 8.699107, -0.5408325, -0.064210296, 10.414883
269504602963779, 0.21535404, 4.254439, 8.615358, 0.71586275, -0.04550749, 9.58418
269504612603675, 0.40438703, 5.7762737, 8.82473, -0.4873147, -0.16545212, 10.54229
269504622243675, 0.25603202, 4.453043, 8.616554, 0.53480196, -0.050275147, 9.687705
269504631883571, 0.37328035, 5.485546, 8.670393, -0.31832075, -0.14219117, 10.260834
269504641523571, 0.40677986, 4.8789654, 8.556734, 0.1194582, 0.007957935, 9.857645
269504651163466, 0.3696911, 5.026124, 8.46102, -0.03609085, -0.06444466, 9.847945
269504660803466, 0.5455636, 5.4017973, 8.5112705, -0.3651209, 0.030077517, 10.088835
269504670443362, 0.31944183, 4.486542, 8.435896, 0.41556263, -0.002229154, 9.55106
269504680083258, 0.56111693, 5.709275, 8.773284, -0.5005965, -0.014197826, 10.470454
269504689723258, 0.27158538, 4.214957, 8.639286, 0.75238705, 0.023993254, 9.586984
269504699363154, 0.5419743, 5.71765, 8.829515, -0.46786833, -0.030029356, 10.5226345
269504709003154, 0.4331009, 4.3645086, 8.609376, 0.56436634, 0.14145184, 9.644654
269504718643050, 0.58624154, 5.508278, 8.683554, -0.3835225, 0.038293958, 10.292733
269504728283050, 0.54436713, 4.7952166, 8.565108, 0.17099428, 0.15095723, 9.828504
269504737922946, 0.4953143, 5.0512486, 8.471788, -0.07757759, 0.038710296, 9.875432
269504747562946, 0.5706882, 5.316852, 8.471788, -0.31655598, 0.05102861, 10.013143
269504757202841, 0.31465617, 4.549952, 8.312666, 0.30510807, -0.035539567, 9.476664
269504766842737, 0.5192425, 5.690132, 8.578269, -0.5600252, -0.060637772, 10.291581
269504776482737, 0.25244278, 4.2556353, 8.441878, 0.62920475, -0.008116066, 9.436287
269504786122633, 0.485743, 5.7487564, 8.615358, -0.57266283, -0.106541455, 10.352256
269504795762633, 0.33379877, 4.3322053, 8.398808, 0.53026676, 0.05129087, 9.441164
269504805402529, 0.49172506, 5.554938, 8.573483, -0.44851112, -0.04598385, 10.217655
269504815042529, 0.465404, 4.7629137, 8.538788, 0.20164156, 0.09498328, 9.785867
269504824682425, 0.38165522, 5.1026945, 8.612965, -0.020622253, -0.051899076, 10.018144
269504834322425, 0.44626144, 5.2606206, 8.712267, -0.12403488, -0.014983058, 10.186326
269504843962321, 0.20458634, 4.6408796, 8.639286, 0.40975595, -0.11578202, 9.799776
269504853602321, 0.44745782, 5.703293, 8.836694, -0.43463278, -0.08631551, 10.517535
269504863242216, 0.21296121, 4.3405805, 8.658429, 0.66158724, -0.04364723, 9.6651325
269504872882112, 0.4642076, 5.852844, 8.823533, -0.5661931, -0.10264641, 10.582765
269504882522112, 0.29910284, 4.3704906, 8.578269, 0.587744, 0.049904764, 9.614021
269504892162008, 0.46181476, 5.595616, 8.671589, -0.43157816, -0.056412816, 10.321396
269504901802008, 0.40558344, 4.658826, 8.550752, 0.30234814, 0.08457029, 9.740943
269504911441904, 0.3900301, 5.131408, 8.5112705, -0.09834337, -0.03534776, 9.945566
269504921081904, 0.53359944, 5.144569, 8.453842, -0.17428923, 0.09553671, 9.9085455
269504930721800, 0.36011982, 4.5858445, 8.356933, 0.28651762, 0.04026389, 9.534897
269504940361800, 0.60658056, 5.576473, 8.595019, -0.47339392, 0.07767254, 10.252279
269504950001696, 0.40079778, 4.287938, 8.544769, 0.617666, 0.1491974, 9.547585
269504959641696, 0.6269195, 5.779863, 8.807981, -0.551703, 0.058977425, 10.539094
269504969281591, 0.32183465, 4.2975097, 8.585447, 0.65249705, 0.06801039, 9.58393
269504978921487, 0.3792624, 5.636294, 8.696713, -0.41954803, -0.16422069, 10.360573
269504988561487, 0.25004998, 4.6767716, 8.523234, 0.3234768, -0.07628417, 9.719557
269504998201383, 0.22851457, 5.2845488, 8.467003, -0.2016697, -0.24337244, 9.978422
269505007841383, 0.3469593, 5.211568, 8.415557, -0.19252253, -0.107908666, 9.902208
269505017481279, 0.2416751, 4.8059845, 8.288737, 0.10672808, -0.12162292, 9.582948
269505027121279, 0.5096712, 5.6709895, 8.510074, -0.5641489, -0.052903593, 10.223512
269505036761175, 0.32662028, 4.401597, 8.456235, 0.50801015, 0.077646196, 9.524942
269505046401175, 0.62931234, 5.828916, 8.763713, -0.6069665, 0.039559305, 10.526395
269505056041071, 0.40797627, 4.2652063, 8.577073, 0.6499634, 0.19449681, 9.563699
269505065681071, 0.57188463, 5.572884, 8.691928, -0.4176569, 0.044065118, 10.332344
269505075320966, 0.4881358, 4.442275, 8.537591, 0.47324443, 0.21191812, 9.6225605
269505084960966, 0.49651068, 5.157729, 8.596215, -0.094032764, 0.06172961, 10.036482
269505094600862, 0.57547385, 4.9734817, 8.562716, 0.01845169, 0.17713702, 9.917412
269505104240862, 0.44745782, 4.6935215, 8.469396, 0.23523855, 0.108262, 9.689838
269505113880758, 0.6233303, 5.51426, 8.688339, -0.38757372, 0.10885209, 10.301495
269505123520758, 0.34097722, 4.4004006, 8.60459, 0.5646448, 0.079713404, 9.653685
269505133160654, 0.50129634, 5.8504515, 8.853444, -0.56088877, -0.07071519, 10.608625
269505142800654, 0.19621146, 4.368098, 8.63809, 0.63851786, -0.05177313, 9.660484
269505152440550, 0.33738798, 5.773881, 8.696713, -0.53176117, -0.22076362, 10.428464
269505162080550, 0.23688944, 4.6301117, 8.469396, 0.32894373, -0.08292127, 9.649332
269505171720446, 0.2644069, 5.42094, 8.474181, -0.3189993, -0.2226435, 10.055693
269505181360446, 0.29072794, 5.06082, 8.402397, -0.06592941, -0.116048455, 9.8121805
269505191000341, 0.2009971, 4.8502517, 8.347362, 0.10776043, -0.1599465, 9.654358
269505200640341, 0.4103691, 5.528617, 8.568698, -0.39248848, -0.07178599, 10.197912
269505210280237, 0.23449662, 4.4398823, 8.525627, 0.5373535, -0.0309546, 9.600216
269505219920237, 0.5766702, 5.7750773, 8.815159, -0.5166812, 0.049025238, 10.54143
269505229560133, 0.4019942, 4.2795634, 8.656036, 0.70063376, 0.1692979, 9.637619
269505239200133, 0.63888365, 5.7523456, 8.82832, -0.50613594, 0.10925692, 10.543661
269505248840029, 0.48454657, 4.4913282, 8.641679, 0.48987484, 0.19968924, 9.736818
269505258480029, 0.48933223, 5.3718867, 8.681161, -0.22368002, 0.03331244, 10.218024
269505268119925, 0.44865423, 4.9435716, 8.539984, 0.07232237, 0.06906885, 9.877323
269505277759925, 0.2739782, 4.87418, 8.405986, 0.10731077, -0.0946489, 9.719713
269505287399821, 0.43908295, 5.45085, 8.433503, -0.3946104, -0.04902804, 10.0434265
269505297039821, 0.2632105, 4.4841495, 8.29113, 0.37940645, -0.040736854, 9.422001
269505306679716, 0.55513483, 5.8133626, 8.555537, -0.6527915, -0.0012549162, 10.33801
269505316319716, 0.34337005, 4.3537407, 8.416754, 0.5436454, 0.07514894, 9.46644
269505325959612, 0.5587241, 5.8061843, 8.650054, -0.60980177, -0.0074876547, 10.415155
269505335599612, 0.38644084, 4.4518466, 8.560323, 0.51194835, 0.11315441, 9.642225
269505345239508, 0.4319045, 5.4317074, 8.706285, -0.23000526, -0.053264856, 10.26809
269505354879508, 0.424726, 4.8969116, 8.641679, 0.17514706, 0.054234445, 9.940079
269505364519404, 0.32662028, 4.9363933, 8.52802, 0.116770744, -0.060443163, 9.85822
269505374159404, 0.45942193, 5.4173503, 8.565108, -0.29377842, -0.045658708, 10.140583
269505383799300, 0.22492532, 4.5248275, 8.443074, 0.44201946, -0.06160897, 9.571362
269505393439300, 0.506082, 5.81097, 8.696713, -0.5583391, -0.07457864, 10.45653
269505403079196, 0.27756742, 4.3836513, 8.483752, 0.5760672, 0.026706934, 9.53598
269505412719196, 0.4761717, 5.8636117, 8.629715, -0.6250901, -0.11152583, 10.4248495
269505422359091, 0.27756742, 4.479364, 8.46102, 0.4757793, -0.0040259957, 9.565784
269505431999091, 0.36011982, 5.511867, 8.6141615, -0.31588984, -0.14371204, 10.227106
269505441639091, 0.42711884, 4.871787, 8.592627, 0.18010044, 0.05741173, 9.885051
269505451278987, 0.40558344, 5.035695, 8.571091, 0.042371273, -0.005022466, 9.949097
269505460918987, 0.58265233, 5.346762, 8.601001, -0.24603176, 0.09312737, 10.140778
269505470558883, 0.37567315, 4.493721, 8.452646, 0.43618417, 0.07001108, 9.570096
269505480198883, 0.6436693, 5.733203, 8.691928, -0.53134155, 0.06781316, 10.4185705
269505489838779, 0.3696911, 4.2963133, 8.489735, 0.62896967, 0.10993904, 9.500679
269505499478779, 0.57188463, 5.7966127, 8.65125, -0.5930486, -0.009139836, 10.412498
269505509118675, 0.3385844, 4.4147577, 8.410771, 0.49969816, 0.049612403, 9.491766
269505518758675, 0.45104706, 5.5836515, 8.526823, -0.4485631, -0.08468604, 10.192102
269505528398571, 0.39960137, 4.8263235, 8.519645, 0.19690561, 0.030945182, 9.797841
269505538038571, 0.31944183, 5.113462, 8.60459, 0.017039299, -0.10321236, 10.013869
269505547678571, 0.45822555, 5.3479586, 8.68475, -0.1713047, -0.009627283, 10.208137
269505557318466, 0.27517462, 4.761717, 8.510074, 0.26919603, -0.08479786, 9.75148
269505566958466, 0.43429732, 5.194818, 8.608179, -0.07203913, -0.009121656, 10.063311
269505576598362, 0.4103691, 5.10748, 8.556734, -0.022711754, -0.018760085, 9.973543
269505586238362, 0.4211368, 5.1062837, 8.475378, -0.063079834, -0.013502002, 9.903502
269505595878258, 0.39601216, 5.0955157, 8.445468, -0.06387472, -0.036425114, 9.871253
269505605518258, 0.42831525, 5.0679984, 8.4682, -0.035981655, 0.0031867027, 9.878117
269505615158154, 0.43908295, 5.0715876, 8.52802, -0.011883259, 0.018099308, 9.931789
269505624798154, 0.4331009, 5.0368915, 8.563912, 0.03455782, 0.022091866, 9.944687
269505634438154, 0.44027936, 5.0452666, 8.630911, 0.058170795, 0.03194976, 10.006836
269505644078050, 0.424726, 5.028517, 8.652447, 0.085549355, 0.020852208, 10.016161
269505653718050, 0.44027936, 5.046463, 8.646464, 0.06477499, 0.03099811, 10.020819
269505663357946, 0.3900301, 5.069195, 8.590233, 0.027873993, -0.024500012, 9.981964
269505672997946, 0.5204389, 5.143372, 8.414361, -0.14643526, 0.081044555, 9.874137
269505682637841, 0.53599226, 5.17089, 8.462217, -0.1464262, 0.09738785, 9.929934
269505692277841, 0.5240282, 5.144569, 8.446664, -0.12706852, 0.0907771, 9.902673
269505701917841, 0.4331009, 5.089534, 8.539984, -0.016960144, 0.016944557, 9.950963
269505711557737, 0.33140594, 5.029713, 8.55793, 0.06022215, -0.07198873, 9.931625
269505721197737, 0.30029923, 4.9435716, 8.601001, 0.1582756, -0.085231066, 9.923405
269505730837633, 0.34097722, 4.9603214, 8.647661, 0.15572643, -0.0405339, 9.973827
269505740477633, 0.3792624, 4.9722853, 8.626125, 0.12506962, -0.0050680637, 9.963025
269505750117529, 0.47377887, 5.009374, 8.609376, 0.06579018, 0.08027947, 9.971404
269505759757529, 0.465404, 5.099105, 8.572288, -0.02835083, 0.053477585, 9.984884
269505769397529, 0.3924229, 5.1649075, 8.606983, -0.053329468, -0.027837843, 10.045239
269505779037425, 0.27996024, 5.229514, 8.678768, -0.05054331, -0.14570075, 10.135258
269505788677425, 0.20458634, 5.259424, 8.683554, -0.05540943, -0.22081792, 10.151633
269505798317321, 0.24765715, 5.2737813, 8.660822, -0.08454704, -0.17952144, 10.141232
269505807957321, 0.31226337, 5.224728, 8.59143, -0.09245968, -0.110461354, 10.059186
269505817597321, 0.40079778, 5.1457653, 8.504091, -0.08254719, -0.0131264925, 9.947469
269505827237216, 0.42592242, 5.0440702, 8.41795, -0.037504196, 0.023221046, 9.822626
269505836877216, 0.41635114, 4.9519463, 8.372486, 0.018604279, 0.027162075, 9.736148
269505846517112, 0.42592242, 4.895715, 8.368897, 0.06436968, 0.04383415, 9.704734
269505856157112, 0.47976094, 4.9232326, 8.432307, 0.063455105, 0.09572637, 9.775431
269505865797112, 0.54317075, 4.981857, 8.478967, 0.022059917, 0.1479123, 9.848069
269505875437008, 0.6113662, 5.0309095, 8.58784, 0.028343678, 0.21208405, 9.969405
269505885077008, 0.63170516, 5.096712, 8.673982, 0.009095669, 0.22338998, 10.077872
269505894716904, 0.58504516, 5.127819, 8.743374, 0.017039299, 0.16752967, 10.151604
269505904356904, 0.4761717, 5.123033, 8.740981, 0.037228107, 0.06123793, 10.142576
269505913996904, 0.3696911, 5.1026945, 8.7266245, 0.062960625, -0.045285225, 10.11544
269505923636800, 0.25842485, 5.0979085, 8.69791, 0.07152319, -0.15328884, 10.083674
269505933276800, 0.24646074, 5.089534, 8.606983, 0.034163952, -0.16809532, 10.000742
269505942916696, 0.28594232, 5.0847483, 8.505288, -0.016785145, -0.12828285, 9.912598
269505952556696, 0.30508488, 5.078766, 8.40479, -0.056720734, -0.10343552, 9.824128
269505962196696, 0.3385844, 5.078766, 8.304291, -0.1143837, -0.07623482, 9.73914
269505971836591, 0.3696911, 5.081159, 8.29113, -0.12611437, -0.0413751, 9.73037
269505981476591, 0.41635114, 5.089534, 8.376076, -0.096487045, 0.009281427, 9.809484
269505991116591, 0.45583272, 5.0955157, 8.526823, -0.034557343, 0.05289775, 9.943581
269506000756487, 0.4941179, 5.0883374, 8.668, 0.03330183, 0.09763536, 10.062749
269506010396487, 0.46660042, 5.0919266, 8.712267, 0.05550289, 0.06968185, 10.101541
269506020036383, 0.4319045, 5.1050873, 8.723035, 0.054058075, 0.032821268, 10.116116
269506029676383, 0.38883367, 5.093123, 8.696713, 0.05793619, -0.009596258, 10.085658
269506039316383, 0.35653058, 5.0739803, 8.660822, 0.0618577, -0.038127095, 10.043751
269506048956279, 0.3397808, 5.0775695, 8.636893, 0.050819397, -0.053569436, 10.024351
269506058596279, 0.36729828, 5.0620165, 8.612965, 0.049108982, -0.022551835, 9.996958
269506068236279, 0.42831525, 5.06082, 8.563912, 0.017645359, 0.03771755, 9.956619
269506077876175, 0.4354937, 5.0620165, 8.529217, -1.335144E-5, 0.043976665, 9.927703
269506087516175, 0.46779683, 5.0775695, 8.46102, -0.05201149, 0.069206774, 9.878357
269506097156071, 0.46779683, 5.0679984, 8.432307, -0.058567524, 0.06922439, 9.848809
269506106796071, 0.4354937, 5.056034, 8.421539, -0.045754433, 0.035927206, 9.832197
269506116436071, 0.39720857, 5.0715876, 8.410771, -0.057419777, -0.005619347, 9.8293705
269506126075966, 0.35294133, 5.087141, 8.402397, -0.06687498, -0.055449426, 9.8283415
269506135715966, 0.33020952, 5.0955157, 8.43111, -0.055653572, -0.07686895, 9.856364
269506145355966, 0.35533416, 5.1086764, 8.489735, -0.042802334, -0.051342428, 9.914432
269506154995862, 0.39601216, 5.119444, 8.586644, -0.013082027, -0.0064920783, 10.004788
269506164635862, 0.39361933, 5.099105, 8.659625, 0.038604736, 4.6122074E-4, 10.057009
269506174275862, 0.38883367, 5.0943193, 8.71466, 0.06861687, 0.0010883808, 10.101677
269506183915758, 0.35653058, 5.1218367, 8.740981, 0.062169075, -0.03210789, 10.13707
269506193555758, 0.36370903, 5.117051, 8.709874, 0.047210693, -0.023796737, 10.108195
269506203195654, 0.33260235, 5.093123, 8.653643, 0.044753075, -0.047576934, 10.046482
269506212835654, 0.32662028, 5.078766, 8.569894, 0.017028809, -0.0539037, 9.966969
269506222475654, 0.3924229, 5.099105, 8.499306, -0.048335075, 0.0024054646, 9.91921
269506232115550, 0.38285163, 5.0979085, 8.467003, -0.060934067, -0.009261847, 9.89048
269506241755550, 0.38763726, 5.072784, 8.520842, -0.013422012, -0.0012038946, 9.92411
269506251395550, 0.39601216, 5.0775695, 8.605786, 0.022818089, 0.008633256, 9.999876
269506261035446, 0.38524446, 5.081159, 8.633304, 0.034814358, -0.0028954148, 10.024935
269506270675446, 0.4019942, 5.083552, 8.657232, 0.041386604, 0.014589429, 10.04738
269506280315446, 0.42711884, 5.0943193, 8.618947, 0.007662773, 0.03469944, 10.020952
269506289955341, 0.42951167, 5.0859447, 8.553144, -0.016391754, 0.03723085, 9.960217
269506299595341, 0.4103691, 5.0739803, 8.452646, -0.05070877, 0.015889585, 9.867021
269506309235341, 0.39361933, 5.066802, 8.35454, -0.08827257, -0.005497515, 9.778444
269506318875237, 0.38285163, 5.0715876, 8.353344, -0.08918905, -0.016941309, 9.779453
269506328515237, 0.41156548, 5.0859447, 8.409575, -0.07891035, 0.009608865, 9.836203
269506338155237, 0.4139583, 5.076373, 8.499306, -0.025935173, 0.020722985, 9.908483
269506347795133, 0.4031906, 5.0751767, 8.581859, 0.017203331, 0.014224291, 9.978365
269506357435133, 0.39840496, 5.076373, 8.670393, 0.05851078, 0.014312506, 10.054868
269506367075133, 0.41515473, 5.0823555, 8.723035, 0.07296324, 0.03242606, 10.103844
269506376715029, 0.37806597, 5.083552, 8.740981, 0.08494091, -8.416176E-4, 10.118448
269506386355029, 0.3278167, 5.089534, 8.665607, 0.053369522, -0.054157257, 10.054739
269506395995029, 0.34097722, 5.10748, 8.603394, 0.0056591034, -0.046901047, 10.010933
269506405634925, 0.3397808, 5.144569, 8.517252, -0.068694115, -0.06177032, 9.955757
269506415274925, 0.33379877, 5.117051, 8.429914, -0.08451843, -0.0630101, 9.8665085
269506424914925, 0.38165522, 5.1003013, 8.414361, -0.08797169, -0.01407969, 9.846436
269506434554925, 0.4546363, 5.0739803, 8.444271, -0.06449604, 0.06451297, 9.861508
269506444194821, 0.46301118, 5.026124, 8.518449, 0.008409977, 0.08112651, 9.901192
269506453834821, 0.45702913, 5.022535, 8.626125, 0.06736612, 0.08336604, 9.991661
269506463474716, 0.47258246, 5.048856, 8.703893, 0.07684183, 0.096045375, 10.07258
269506473114716, 0.46301118, 5.06082, 8.682357, 0.05528307, 0.078876674, 10.059837
269506482754716, 0.4103691, 5.099105, 8.630911, 0.008014679, 0.016157985, 10.033024
269506492394716, 0.31345975, 5.0943193, 8.529217, -0.017936707, -0.08286679, 9.939352
269506502034612, 0.29192436, 5.096712, 8.444271, -0.05643654, -0.105404615, 9.866769
269506511674612, 0.30388847, 5.0979085, 8.395218, -0.080945015, -0.09127092, 9.825773
269506521314612, 0.30867413, 5.0955157, 8.383254, -0.08394766, -0.08039713, 9.814529
269506530954508, 0.3361916, 5.1003013, 8.40479, -0.08105707, -0.04835117, 9.836548
