timestamp_acc,device_acc_x,device_acc_y,device_acc_z,earth_acc_x,earth_acc_y,earth_acc_z
270054172997741, 6.393622, -0.5383851, 7.9968133, 0.044638634, 0.011262536, 10.252569
270054182638053, 6.458228, -0.44985065, 8.019546, -0.012338638, -0.07277632, 10.30625
270054192278366, 6.4295144, -0.40079778, 7.982456, -0.019191742, -0.11764288, 10.256935
270054201918782, 6.45105, -0.44985065, 7.8376904, -0.112528324, -0.046096087, 10.160365
270054211559095, 6.3768725, -0.47138608, 7.8484583, -0.041337967, -0.028061628, 10.123365
270054221199407, 6.3110695, -0.47138608, 7.806584, -0.016043186, -0.02866292, 10.049551
270054230839720, 6.3074803, -0.47018966, 7.7443705, -0.05023098, -0.018459082, 9.998891
270054240480032, 6.2380886, -0.4953143, 7.7108707, -0.012077808, 0.0071065426, 9.93058
270054250120345, 6.233303, -0.53599226, 7.7144604, 0.002357006, 0.047933698, 9.932369
270054259760762, 6.2285175, -0.56470615, 7.743174, 0.030473232, 0.07126117, 9.953094
270054269401074, 6.2679987, -0.5922236, 7.780263, 0.028802395, 0.09503007, 10.008057
270054279041387, 6.2979093, -0.5814559, 7.810173, 0.023507118, 0.07939255, 10.049562
270054288681699, 6.337391, -0.48933223, 7.8029947, -0.03275919, -0.0117583275, 10.064169
270054298322012, 6.4031935, -0.4223332, 7.8173513, -0.08952141, -0.06993592, 10.113226
270054307962428, 6.407979, -0.41635114, 7.853244, -0.07035637, -0.08407724, 10.143814
270054317602741, 6.384051, -0.4833502, 7.8424764, -0.043565273, -0.019171834, 10.123829
270054327243053, 6.3314085, -0.56111693, 7.826923, 0.0046110153, 0.052252173, 10.082636
270054336883366, 6.2955165, -0.6053841, 7.87119, 0.06825352, 0.08261609, 10.096741
270054346523678, 6.3218374, -0.53359944, 7.844869, 0.016516685, 0.017991185, 10.08919
270054356164095, 6.2991056, -0.5180461, 7.820941, 0.017817974, 0.0030401945, 10.055542
270054365804407, 6.32423, -0.42951167, 7.8400836, -0.007604599, -0.08371878, 10.0816765
270054375444720, 6.34098, -0.38883367, 7.8317084, -0.034701824, -0.11944139, 10.083621
270054385085032, 6.410372, -0.38165522, 7.804191, -0.10325956, -0.10751271, 10.105529
270054394725345, 6.4175506, -0.38524446, 7.8580294, -0.074862, -0.11317575, 10.152025
270054404365762, 6.3601227, -0.41874397, 7.8484583, -0.024887085, -0.08487427, 10.110243
270054414006074, 6.3565335, -0.46660042, 7.908279, 0.031387806, -0.042063475, 10.156837
270054423646387, 6.337391, -0.5300102, 7.88794, 0.04789257, 0.020317554, 10.132143
270054433286699, 6.2955165, -0.53359944, 7.836494, 0.052013397, 0.030002475, 10.066046
270054442927012, 6.2931237, -0.52522457, 7.7826557, 0.020365715, 0.033971667, 10.0223465
270054452567324, 6.285945, -0.552742, 7.7682986, 0.024974346, 0.06366968, 10.0080185
270054462207741, 6.2727847, -0.61734825, 7.7120676, 0.019267559, 0.13529873, 9.959229
270054471848053, 6.2584276, -0.61734825, 7.643872, -0.011662483, 0.14536726, 9.897301
270054481488366, 6.2548385, -0.56350976, 7.670193, -0.0044879913, 0.08178067, 9.912905
270054491128678, 6.323034, -0.506082, 7.688139, -0.058977604, 0.032706022, 9.966936
270054500768991, 6.3684974, -0.46899325, 7.6893353, -0.10560131, -0.003071785, 9.994621
270054510409407, 6.3361945, -0.47856453, 7.8149586, -0.005291939, -0.022675276, 10.072209
270054520049720, 6.34098, -0.47856453, 7.8699937, 0.024540901, -0.031852365, 10.117916
270054529690032, 6.3421764, -0.48454657, 7.8867435, 0.026709557, -0.029179096, 10.131987
270054539330345, 6.3421764, -0.47258246, 7.9573317, 0.06745052, -0.05237353, 10.186186
270054548970657, 6.3565335, -0.44506502, 7.897511, 0.013120651, -0.0672518, 10.147394
270054558611074, 6.378069, -0.39601216, 7.8436728, -0.04645729, -0.10166204, 10.116684
270054568251387, 6.3541408, -0.3912265, 7.783852, -0.061531544, -0.09843624, 10.055
270054577891699, 6.3565335, -0.44985065, 7.765906, -0.054656506, -0.03317058, 10.04555
270054587532012, 6.3254266, -0.506082, 7.753942, -0.024542332, 0.021533728, 10.019466
270054597172324, 6.306284, -0.5192425, 7.6809607, -0.05131626, 0.046773553, 9.951441
270054606812637, 6.3158555, -0.5276174, 7.6570325, -0.07118893, 0.060635805, 9.939306
270054616453053, 6.309873, -0.53240305, 7.7120676, -0.032207966, 0.05581808, 9.978466
270054626093366, 6.296713, -0.526421, 7.753942, -0.0016155243, 0.039783716, 10.002388
270054635733678, 6.3194447, -0.5180461, 7.7682986, -0.012672424, 0.032435298, 10.027412
270054645373991, 6.344569, -0.5395815, 7.847262, 0.0141124725, 0.03983724, 10.105566
270054655014303, 6.34098, -0.5288138, 7.9226356, 0.0594697, 0.014109254, 10.161303
270054664654720, 6.3361945, -0.5096712, 7.952546, 0.07033634, -0.013820052, 10.180619
270054674295032, 6.317052, -0.50488555, 7.9776707, 0.09709978, -0.027091503, 10.187891
270054683935345, 6.2991056, -0.52522457, 7.962117, 0.10449457, -0.006417632, 10.165577
270054693575657, 6.323034, -0.5024927, 7.905886, 0.045369625, -0.014811873, 10.13578
270054703215970, 6.3122663, -0.47138608, 7.8484583, 0.012337208, -0.035660982, 10.082848
270054712856282, 6.3326054, -0.4438686, 7.792227, -0.040555, -0.048781037, 10.050556
270054722496699, 6.296713, -0.44865423, 7.780263, -0.0150876045, -0.046447754, 10.018982
270054732137012, 6.3385873, -0.44506502, 7.733603, -0.075920105, -0.036151648, 10.008862
270054741777324, 6.373283, -0.39840496, 7.6941214, -0.13333416, -0.06991017, 9.997715
270054751417637, 6.385247, -0.37447673, 7.68455, -0.15041924, -0.09006286, 9.99666
270054761057949, 6.3864436, -0.39481574, 7.682157, -0.14557791, -0.069933176, 9.996599
270054770698366, 6.361319, -0.4223332, 7.7443705, -0.0815897, -0.054222584, 10.030474
270054780338678, 6.363712, -0.46899325, 7.789834, -0.044249058, -0.015050292, 10.069563
270054789978991, 6.3074803, -0.5479564, 7.8352976, 0.041278362, 0.05014479, 10.073343
270054799619303, 6.2847486, -0.6053841, 7.8783684, 0.094525814, 0.09609032, 10.0953
270054809259616, 6.2644095, -0.6664011, 7.88794, 0.1299572, 0.15043736, 10.092918
270054818899928, 6.263213, -0.65922266, 7.897511, 0.13087034, 0.14199007, 10.099298
270054828540345, 6.285945, -0.6257231, 7.864012, 0.083815575, 0.11711073, 10.08596
270054838180657, 6.3158555, -0.567099, 7.8257265, 0.022902012, 0.07001698, 10.07215
270054847820970, 6.32423, -0.5312066, 7.836494, 0.016192436, 0.03195989, 10.084019
270054857461282, 6.3194447, -0.49052864, 7.7647095, -0.030469418, 0.0030483007, 10.023262
270054867101595, 6.344569, -0.44506502, 7.713264, -0.08744383, -0.030049562, 9.996877
270054876741907, 6.3792653, -0.42831525, 7.6977105, -0.12473726, -0.039313674, 10.005806
270054886382324, 6.3684974, -0.40677986, 7.6809607, -0.13152695, -0.059013724, 9.98497
270054896022637, 6.391229, -0.39840496, 7.7144604, -0.12873268, -0.070492744, 10.024864
270054905662949, 6.3661046, -0.39720857, 7.7551384, -0.08314085, -0.08352399, 10.040584
270054915303262, 6.3361945, -0.4211368, 7.812566, -0.020068645, -0.073815584, 10.067524
270054924943574, 6.320641, -0.42711884, 7.84128, 0.009741783, -0.07340193, 10.080335
270054934583887, 6.3050876, -0.4761717, 7.8963146, 0.063853264, -0.03425193, 10.115701
270054944224303, 6.3086767, -0.5312066, 7.921439, 0.08572769, 0.0195297, 10.140171
270054953864616, 6.276374, -0.50129634, 7.9238324, 0.10457277, -0.010938644, 10.120288
270054963504928, 6.35773, -0.5276174, 7.836494, -0.006099224, 0.03859234, 10.10486
270054973145241, 6.2775702, -0.5766702, 7.9094753, 0.109829426, 0.067126274, 10.113539
270054982785553, 6.3110695, -0.55513483, 7.8257265, 0.032408714, 0.064422846, 10.068494
270054992425866, 6.323034, -0.55393845, 7.77787, -0.0034332275, 0.0704602, 10.03882
270055002066178, 6.300302, -0.53359944, 7.765906, 0.0028934479, 0.04960823, 10.014257
270055011706595, 6.326623, -0.51086766, 7.745567, -0.030241966, 0.028856516, 10.01395
270055021346907, 6.337391, -0.5168497, 7.698907, -0.0636487, 0.040758252, 9.984843
270055030987220, 6.2919273, -0.4953143, 7.7276206, -0.0142560005, 0.0047080517, 9.977453
270055040627532, 6.2919273, -0.49052864, 7.7347994, -0.012095928, -0.004643917, 9.982782
270055050267845, 6.3182483, -0.485743, 7.716853, -0.044116497, -0.002587676, 9.985193
270055059908157, 6.2991056, -0.48215377, 7.7623167, -0.0066771507, -0.02233982, 10.008207
270055069548470, 6.3218374, -0.465404, 7.7814593, -0.017942905, -0.040987015, 10.0365
270055079188782, 6.317052, -0.45942193, 7.838887, 0.019878864, -0.05702865, 10.077734
270055088829199, 6.3385873, -0.465404, 7.832905, -0.005129814, -0.049995184, 10.086931
270055098469512, 6.3696938, -0.50009996, 7.881958, 0.0076966286, -0.021465898, 10.14632
270055108109824, 6.3589263, -0.4881358, 7.893922, 0.020603657, -0.036628127, 10.148226
270055117750137, 6.3565335, -0.49292147, 7.8592257, 0.0037355423, -0.027351618, 10.120037
270055127390449, 6.361319, -0.4941179, 7.8281193, -0.018082142, -0.019348264, 10.098973
270055137030762, 6.350551, -0.4761717, 7.8221374, -0.01554203, -0.03640747, 10.086649
270055146671074, 6.326623, -0.50368917, 7.795816, -0.007454872, -0.008133769, 10.052587
270055156311491, 6.330212, -0.53240305, 7.728817, -0.04318571, 0.03354442, 10.0043335
270055165951803, 6.330212, -0.5288138, 7.732406, -0.04083538, 0.03034687, 10.006935
270055175592116, 6.3134627, -0.51565325, 7.7204423, -0.03728962, 0.015331626, 9.986457
270055185232428, 6.3134627, -0.51445687, 7.7240314, -0.036210537, 0.011369228, 9.98918
270055194872741, 6.3218374, -0.54436713, 7.7790666, -0.00441885, 0.029587626, 10.038673
270055204513053, 6.35773, -0.54317075, 7.8281193, -0.005199909, 0.022164702, 10.099241
270055214153366, 6.3326054, -0.5395815, 7.873583, 0.04076624, 0.007938504, 10.118526
270055223793678, 6.4163537, -0.45702913, 7.877172, -0.040293694, -0.06619263, 10.169676
270055233434095, 6.206982, -0.6233303, 7.8592257, 0.14497042, 0.07506788, 10.032744
270055243074407, 6.375676, -0.7298109, 7.881958, 0.047813416, 0.1958884, 10.162012
270055252714720, 6.296713, -0.18544376, 7.7946196, -0.04411602, -0.335477, 10.016217
270055262355032, 6.2727847, -1.0336994, 7.7874413, 0.11985016, 0.4957198, 10.039945
270055271995345, 6.37089, 0.13160525, 7.826923, -0.12986565, -0.65820134, 10.0705595
270055281635657, 6.1591253, -1.2382857, 7.690532, 0.17296648, 0.6915306, 9.904762
270055291275970, 6.452246, 0.11006984, 7.800602, -0.1837306, -0.6213649, 10.103127
270055300916282, 6.1974106, -1.0600204, 7.585248, 0.05459404, 0.5380784, 9.83743
270055310556595, 6.5001025, -0.09571291, 7.771888, -0.21001387, -0.4230141, 10.12125
270055320196907, 6.265606, -0.6017949, 7.60798, -0.05270624, 0.08744156, 9.873749
270055329837324, 6.4642105, -0.55752766, 7.7156568, -0.14699173, 0.0441854, 10.079914
270055339477637, 6.3589263, -0.16510476, 7.688139, -0.14483881, -0.34493697, 9.971497
270055349117949, 6.3541408, -1.0241281, 7.776674, 0.038266182, 0.49008852, 10.082605
270055358758262, 6.3948183, 0.12921242, 7.9034934, -0.07499838, -0.65607554, 10.145912
270055368398574, 6.2033925, -1.2514462, 7.8592257, 0.24210787, 0.70087564, 10.063091
270055378038887, 6.428318, 0.08255238, 8.038688, -0.020093918, -0.62233496, 10.274382
270055387679199, 6.1651077, -1.18684, 7.8687973, 0.26341438, 0.61990106, 10.043976
270055397319512, 6.4067826, -0.19142582, 8.078169, 0.06301212, -0.36314213, 10.305555
270055406959824, 6.198607, -0.79800636, 7.8257265, 0.15326834, 0.24523973, 10.01089
270055416600137, 6.4008007, -0.63529444, 7.874779, 0.0041894913, 0.0936532, 10.167458
270055426240449, 6.236892, -0.35533416, 7.7419777, 0.008326054, -0.18239796, 9.946354
270055435880866, 6.3314085, -1.0564312, 7.6606216, -5.9223175E-4, 0.53271806, 9.980186
270055445521178, 6.367301, 0.07058827, 7.6893353, -0.1770339, -0.58977664, 9.964647
270055455161491, 6.250053, -1.180858, 7.564909, 0.016908646, 0.6658271, 9.861128
270055464801803, 6.4666033, 0.25124636, 7.6917286, -0.26551676, -0.7532025, 10.0202265
270055474442116, 6.2033925, -1.032503, 7.568498, 0.028245449, 0.51762193, 9.826574
270055484082428, 6.5108705, 0.04546363, 7.793423, -0.20256901, -0.56991076, 10.137312
270055493722741, 6.2105713, -0.6795616, 7.7144604, 0.06298065, 0.14981341, 9.925697
270055503363053, 6.407979, -0.47018966, 7.9034934, 0.0039343834, -0.06829673, 10.185469
270055513003366, 6.2787666, -0.33140594, 7.8113694, 0.025259972, -0.2067244, 10.025311
270055522643678, 6.3397837, -0.97866446, 7.911868, 0.11678505, 0.42652076, 10.176087
270055532283991, 6.410372, 0.02871387, 8.007581, -2.641678E-4, -0.5754174, 10.241286
270055541924303, 6.3194447, -1.2550355, 7.895118, 0.16043758, 0.7085499, 10.164429
270055551564616, 6.4965134, 0.13998012, 7.982456, -0.11888504, -0.67796046, 10.269865
270055561204928, 6.2033925, -1.2095718, 7.728817, 0.14523935, 0.6662072, 9.960664
270055570845241, 6.483353, -0.083748795, 7.865208, -0.15109205, -0.43306935, 10.182927
270055580485657, 6.181857, -0.86141616, 7.678568, 0.100081444, 0.33973086, 9.889002
270055590125970, 6.367301, -0.46061835, 7.765906, -0.054584026, -0.049952984, 10.052786
270055599766282, 6.222535, -0.36729828, 7.6031938, -0.05818796, -0.13610816, 9.830641
270055609406595, 6.337391, -0.89491564, 7.6510506, -0.031753063, 0.39113986, 9.967344
270055619046647, 6.3696938, 0.09212367, 7.6953177, -0.18685818, -0.5944066, 9.970514
270055628687168, 6.222535, -1.1449656, 7.658229, 0.097088814, 0.61844754, 9.914004
270055638327480, 6.352944, 0.1902294, 7.946564, -0.055252552, -0.72676706, 10.14952
270055647967793, 6.1998034, -1.1593226, 7.5637126, 0.039382935, 0.643824, 9.827273
270055657608105, 6.384051, -0.0059820567, 7.832905, -0.15312576, -0.50889736, 10.090993
270055667248418, 6.1005015, -0.9068798, 7.793423, 0.18154764, 0.36875904, 9.930108
270055676888730, 6.4462643, -0.33260235, 7.995617, -0.047929287, -0.20363724, 10.273805
270055686529043, 6.2009997, -0.35294133, 7.873583, 0.07011747, -0.183213, 10.026555
270055696169355, 6.364908, -0.8243274, 7.865208, 0.0032696724, 0.3014841, 10.147028
270055705809720, 6.326623, 0.0011964113, 7.8628154, -0.08272362, -0.5180369, 10.078433
270055715450084, 6.166304, -1.2311072, 7.7312098, 0.13047457, 0.71260494, 9.939101
270055725090397, 6.413961, 0.10289137, 7.765906, -0.222507, -0.59311527, 10.052734
270055734730709, 6.229714, -1.1952149, 7.7994056, 0.12654352, 0.6749217, 10.029809
270055744371022, 6.4438715, 0.020338992, 7.969296, -0.09701061, -0.54475546, 10.233641
270055754011334, 6.128019, -0.9846465, 7.617551, 0.06412411, 0.47977287, 9.814017
270055763651647, 6.3696938, -0.38404804, 7.8987074, -0.027640343, -0.13222563, 10.153415
270055773291959, 6.1914287, -0.48454657, 7.806584, 0.062508106, -0.037906528, 9.975268
270055782932272, 6.337391, -0.8279166, 7.850851, 0.02562952, 0.3083583, 10.1187
270055792572584, 6.3134627, -0.01794617, 7.893922, -0.0441761, -0.49978167, 10.095661
270055802212897, 6.2608204, -1.1126626, 7.8376904, 0.106086254, 0.58219916, 10.07547
270055811853209, 6.424729, 0.20578274, 7.9094753, -0.14594698, -0.7214602, 10.165504
270055821493522, 6.1675005, -1.1928221, 7.7096744, 0.1285758, 0.6792084, 9.920792
270055831133834, 6.431907, 0.11844472, 7.90469, -0.12962484, -0.6354468, 10.170889
270055840774147, 6.181857, -0.8662018, 7.7180495, 0.07802343, 0.34476042, 9.920131
270055850414459, 6.411568, -0.13160525, 7.8759756, -0.096925735, -0.37959462, 10.14904
270055860054772, 6.2117677, -0.41635114, 7.68455, -0.023305416, -0.08018124, 9.889628
270055869695084, 6.393622, -0.701097, 7.7503524, -0.09022522, 0.20962775, 10.069051
270055879335397, 6.309873, -0.09092726, 7.8053875, -0.056812763, -0.4081916, 10.028808
270055888975709, 6.270392, -1.1952149, 7.7623167, 0.07021046, 0.690312, 10.02589
270055898616022, 6.3696938, 0.0526421, 7.90469, -0.06979656, -0.5468, 10.136866
270055908256334, 6.1734824, -1.3160524, 7.7180495, 0.15520811, 0.8170847, 9.935816
270055917896647, 6.4259253, 0.07178468, 7.897511, -0.11119127, -0.57372177, 10.16498
270055927536959, 6.1603217, -0.9451649, 7.753942, 0.13100863, 0.43360686, 9.937875
270055937177272, 6.452246, -0.13878371, 7.945368, -0.078589916, -0.35840797, 10.229614
270055946817584, 6.204589, -0.4749753, 7.737192, 0.024047375, -0.024757385, 9.929022
270055956457897, 6.3338017, -0.6520442, 7.8257265, 0.0042500496, 0.15496129, 10.087625
270055966098209, 6.276374, -0.10767702, 7.865208, 0.0068712234, -0.39621335, 10.055295
270055975738522, 6.270392, -1.0624132, 7.806584, 0.10131836, 0.5556691, 10.05337
270055985378834, 6.3696938, 0.18903299, 7.897511, -0.071404934, -0.68262017, 10.124641
270055995019147, 6.2141604, -1.1964114, 7.759924, 0.14083052, 0.683658, 9.988814
270056004659459, 6.458228, 0.13040884, 7.9070826, -0.1318779, -0.6187875, 10.190554
270056014299772, 6.2117677, -1.0169497, 7.6737823, 0.069468975, 0.52760196, 9.910803
270056023940084, 6.4773707, -0.12323037, 7.8424764, -0.14549494, -0.36622465, 10.164679
270056033580345, 6.1974106, -0.5946164, 7.682157, 0.03699112, 0.10918224, 9.887554
270056043220605, 6.34098, -0.6149554, 7.702496, -0.060188293, 0.13752258, 9.994606
270056052860918, 6.259624, -0.14117654, 7.605587, -0.12071228, -0.32318383, 9.845241
270056062501230, 6.283552, -1.0001999, 7.655836, 0.015185833, 0.5212872, 9.94099
270056072141543, 6.3804617, 0.19740787, 7.806584, -0.13549376, -0.67621577, 10.060636
270056081781855, 6.2213387, -1.1617154, 7.7204423, 0.12841511, 0.67737305, 9.959143
270056091422168, 6.4498534, 0.17467605, 7.895118, -0.15191936, -0.6428654, 10.174854
270056101062480, 6.1734824, -1.0600204, 7.743174, 0.16826391, 0.5563227, 9.942558
270056110702793, 6.4606214, -0.13040884, 8.001599, -0.05800152, -0.36671722, 10.278345
270056120343105, 6.2261243, -0.6687939, 7.8424764, 0.12061453, 0.16513419, 10.033669
270056129983418, 6.439086, -0.552742, 8.014759, 0.042027473, 0.048060536, 10.295612
270056139623730, 6.3565335, -0.21894327, 7.925029, -0.006063938, -0.28061014, 10.157792
270056149264043, 6.3110695, -1.0456635, 7.926225, 0.18241167, 0.5269313, 10.170404
270056158904355, 6.3565335, 0.046660043, 7.9980097, -0.010858059, -0.5510603, 10.201572
270056168544668, 6.1830535, -1.2562319, 7.7850485, 0.21992207, 0.73586714, 9.991266
270056178184980, 6.3684974, 0.1471586, 7.850851, -0.10968351, -0.62699294, 10.0901
270056187825293, 6.131608, -1.0612168, 7.57448, 0.09587765, 0.56970406, 9.785796
270056197465605, 6.4055862, 0.020338992, 7.752745, -0.15975618, -0.48840216, 10.043552
270056207105918, 6.1842504, -0.59581286, 7.5086775, -0.05522728, 0.12892711, 9.74477
270056216746230, 6.4211397, -0.38404804, 7.635497, -0.18780422, -0.06902224, 9.981949
270056226386543, 6.2608204, -0.17347965, 7.5828547, -0.12594938, -0.28492534, 9.830087
270056236026855, 6.3361945, -0.8817552, 7.60439, -0.0728755, 0.4178915, 9.928328
270056245667168, 6.4462643, 0.19142582, 7.832905, -0.17937851, -0.665088, 10.122788
270056255307428, 6.344569, -1.105484, 7.8149586, 0.08585405, 0.6081481, 10.108017
270056264947689, 6.5347986, 0.21535404, 8.018349, -0.15461254, -0.7054252, 10.320966
270056274588001, 6.2009997, -1.1593226, 7.9357963, 0.29042482, 0.62300956, 10.114387
270056284228314, 6.4414787, -0.11724831, 8.191829, 0.078289986, -0.3997357, 10.413767
270056293868626, 6.1603217, -0.8817552, 7.958528, 0.28150845, 0.34688222, 10.092851
270056303508939, 6.34098, -0.51445687, 8.000402, 0.10337114, 0.005157113, 10.220981
270056313149251, 6.195018, -0.33020952, 7.783852, 0.053612232, -0.15765917, 9.95228
270056322789564, 6.3625154, -0.9212367, 7.7156568, -0.015162945, 0.4556166, 10.032639
270056332429876, 6.3541408, 0.0741775, 7.780263, -0.13229465, -0.5344572, 10.030451
270056342070189, 6.263213, -1.1700903, 7.6307116, 0.04375601, 0.6959123, 9.916577
270056351710501, 6.448657, 0.20219351, 7.7587276, -0.21377707, -0.6640806, 10.066641
270056361350814, 6.151947, -1.119841, 7.588837, 0.09737635, 0.640153, 9.811813
270056370991126, 6.38764, 0.047856454, 7.7587276, -0.13915348, -0.5177549, 10.03567
270056380631439, 6.131608, -0.74895346, 7.618747, 0.08649254, 0.26684815, 9.804295
270056390271751, 6.407979, -0.27038896, 7.806584, -0.07756472, -0.20103174, 10.10107
270056399912064, 6.2548385, -0.2536392, 7.704889, -0.031306267, -0.22053117, 9.92487
270056409552324, 6.413961, -0.80159557, 7.7826557, -0.026495934, 0.32418466, 10.111647
270056419192584, 6.3960147, 0.059820566, 7.9070826, -0.06887388, -0.547977, 10.155272
270056428832897, 6.309873, -1.1880364, 7.804191, 0.12188959, 0.6992459, 10.081047
270056438473209, 6.4869423, 0.15194423, 7.9597244, -0.1333251, -0.6392417, 10.248625
270056448113522, 6.202196, -1.2251252, 7.8089767, 0.22470188, 0.7215822, 10.018839
270056457753834, 6.4606214, -0.0071784677, 7.9776707, -0.07371235, -0.487037, 10.253795
270056467394147, 6.128019, -0.930808, 7.798209, 0.21967936, 0.41789412, 9.950287
270056477034459, 6.367301, -0.3481557, 7.891529, 6.456375E-4, -0.14238441, 10.144934
270056486674772, 6.1974106, -0.37567315, 7.728817, 0.039164066, -0.10489595, 9.913178
270056496315084, 6.3481584, -0.7082755, 7.792227, 0.007994652, 0.22806364, 10.073108
270056505955397, 6.3720865, 0.09451649, 7.8053875, -0.10863733, -0.5680107, 10.059924
270056515595709, 6.32423, -1.0815558, 7.745567, 0.05919981, 0.60826784, 10.039223
270056525236022, 6.465407, 0.22612174, 7.8400836, -0.17904997, -0.68491614, 10.139939
270056534876282, 6.270392, -1.1485549, 7.6546397, 0.054546833, 0.68102705, 9.937995
270056544516543, 6.4737816, 0.069391854, 7.8831544, -0.13560152, -0.547645, 10.185308
270056554156855, 6.172286, -0.9487542, 7.7479596, 0.15589666, 0.45313793, 9.939743
270056563797168, 6.3888364, -0.2955136, 7.8987074, -0.0010490417, -0.18910873, 10.161613
270056573437480, 6.206982, -0.47736812, 7.726424, 0.057933807, -0.009337187, 9.922132
270056583077793, 6.3326054, -0.7465607, 7.8053875, 0.045474052, 0.2588076, 10.07543
270056592718105, 6.323034, 0.008374879, 7.8149586, -0.031974316, -0.49093008, 10.040538
270056602358418, 6.326623, -1.0731809, 7.800602, 0.08291149, 0.58833605, 10.0833645
270056611998730, 6.463014, 0.2009971, 7.899904, -0.110150814, -0.67824894, 10.18564
270056621639043, 6.2608204, -1.1916257, 7.7300134, 0.107488155, 0.7120566, 9.992617
270056631279355, 6.512067, 0.1268196, 7.873583, -0.16275072, -0.59358644, 10.199881
270056640919668, 6.189036, -0.8961121, 7.6809607, 0.10673332, 0.41805673, 9.895361
270056650559980, 6.4271216, -0.16031912, 7.810173, -0.09557819, -0.30815732, 10.110802
270056660200241, 6.1974106, -0.44626144, 7.6366935, 0.015513897, -0.023379266, 9.845068
270056669840501, 6.378069, -0.64606214, 7.7419777, -0.03461361, 0.17437392, 10.050064
270056679480814, 6.285945, -0.06699903, 7.726424, -0.048733234, -0.4034117, 9.952392
270056689121126, 6.2847486, -1.099502, 7.752745, 0.10711098, 0.6104857, 10.02137
270056698761439, 6.4211397, 0.12562318, 7.914261, -0.0782752, -0.6040379, 10.174051
270056708401751, 6.2404814, -1.2107682, 7.7108707, 0.1480236, 0.72115576, 9.9662
270056718042064, 6.4965134, 0.12921242, 7.944171, -0.11874676, -0.6217698, 10.243562
270056727682376, 6.2261243, -1.018146, 7.8257265, 0.18925667, 0.5035279, 10.037624
270056737322689, 6.489335, -0.19142582, 7.993224, -0.033216476, -0.3019141, 10.293081
270056746963001, 6.2404814, -0.567099, 7.806584, 0.09620857, 0.064279795, 10.009724
270056756603314, 6.4594245, -0.56470615, 7.8257265, -0.05980158, 0.08743894, 10.162373
270056766243626, 6.326623, -0.046660043, 7.7503524, -0.08300829, -0.42550492, 9.995417
270056775883470, 6.273981, -0.94636136, 7.696514, 0.059010983, 0.46688366, 9.9636
270056785524199, 6.35773, 0.2620141, 7.739585, -0.13746119, -0.7247818, 9.992314
270056795164512, 6.1698933, -1.1306087, 7.5828547, 0.09828138, 0.6713316, 9.817597
270056804804824, 6.430711, 0.1698904, 7.771888, -0.16585541, -0.63071096, 10.067763
270056814445137, 6.196214, -1.0456635, 7.598408, 0.07306957, 0.5755308, 9.843053
270056824085449, 6.4570317, -0.1471586, 7.921439, -0.05040741, -0.32484514, 10.215481
270056833725657, 6.2644095, -0.66161543, 7.771888, 0.078009605, 0.17690969, 10.002272
270056843365970, 6.4642105, -0.6233303, 7.8580294, -0.032747746, 0.14216268, 10.19323
270056853006282, 6.3696938, -0.22372891, 7.856833, -0.020534515, -0.26422405, 10.113487
270056862646595, 6.375676, -1.0145568, 7.893922, 0.11336517, 0.51819384, 10.18387
270056872286907, 6.411568, 0.13519448, 7.9884386, -0.03799534, -0.63420063, 10.2243805
270056881927220, 6.235696, -1.18684, 7.853244, 0.21881962, 0.6863426, 10.07209
270056891567532, 6.431907, 0.15792629, 7.9513497, -0.08512974, -0.6459496, 10.207539
270056901207845, 6.151947, -1.1078769, 7.7240314, 0.18107033, 0.61091465, 9.916074
270056910848157, 6.4127645, -0.101694964, 7.9298143, -0.03897524, -0.38764006, 10.191372
270056920488470, 6.1567326, -0.6987042, 7.7300134, 0.12897205, 0.2059865, 9.903919
270056930128782, 6.367301, -0.51086766, 7.844869, 0.014888287, 0.028289676, 10.116543
270056939769095, 6.3074803, -0.1794617, 7.6737823, -0.093008995, -0.28551728, 9.930422
270056949409303, 6.3720865, -0.8961121, 7.6594253, -0.035689354, 0.42943597, 9.99438
270056959049616, 6.4618177, 0.28594232, 7.759924, -0.22566223, -0.7450508, 10.0721035
270056968689928, 6.3074803, -1.0372887, 7.6833534, 0.06012869, 0.5555912, 9.9790745
270056978330241, 6.471389, 0.27038896, 7.9274216, -0.13967896, -0.7363988, 10.209517
270056987970553, 6.1830535, -1.099502, 7.7587276, 0.21198606, 0.59663653, 9.961725
270056997610866, 6.4618177, -0.05742774, 7.945368, -0.06408119, -0.41555452, 10.232812
270057007251178, 6.2009997, -0.7812566, 7.7587276, 0.14907455, 0.29233706, 9.957556
270057016891491, 6.4235325, -0.5096712, 7.8460655, -0.012703896, 0.028340936, 10.152897
270057026531803, 6.367301, -0.32303107, 7.652247, -0.11352301, -0.13972622, 9.958483
270057036172116, 6.344569, -0.9451649, 7.735996, 0.044131756, 0.46365666, 10.038706
270057045812428, 6.401997, 0.07537391, 7.7754774, -0.11393595, -0.54419124, 10.056848
270057055452741, 6.289534, -1.1449656, 7.7419777, 0.12247181, 0.65080804, 10.018425
270057065093053, 6.4354963, 0.2117648, 7.899904, -0.07891035, -0.69762635, 10.1674
270057074733262, 6.2177496, -1.105484, 7.5529447, 0.054120064, 0.6319267, 9.824827
270057084373574, 6.458228, 0.03589234, 7.810173, -0.13137436, -0.4966115, 10.121508
270057094013887, 6.212964, -0.74536425, 7.7072816, 0.10347843, 0.26711994, 9.923538
270057103654199, 6.4558353, -0.36490545, 7.899904, -0.021236897, -0.11921829, 10.208075
270057113294512, 6.3314085, -0.26919255, 7.7682986, -0.020780563, -0.20863003, 10.023058
270057122934824, 6.3924255, -0.8171489, 7.832905, 0.05931282, 0.32991648, 10.137695
270057132575137, 6.4008007, 0.09212367, 7.9166536, -0.034807205, -0.57798433, 10.16449
270057142215449, 6.326623, -1.1521441, 7.8053875, 0.14557838, 0.6497071, 10.091301
270057151855762, 6.454639, 0.1902294, 7.944171, -0.0662756, -0.6844061, 10.214481
270057161496074, 6.202196, -1.2011969, 7.728817, 0.18659306, 0.7003351, 9.9558735
270057171136387, 6.463014, -0.0047856453, 7.879565, -0.07177353, -0.4811921, 10.179461
270057180776699, 6.2033925, -0.8542377, 7.6678, 0.1030488, 0.36753988, 9.892486
270057190417012, 6.4067826, -0.36131623, 7.7910304, -0.040605545, -0.114605606, 10.0927105
270057200057220, 6.263213, -0.40438703, 7.6343007, -0.02163124, -0.060581148, 9.882802
270057209697532, 6.373283, -0.8063812, 7.7204423, -8.93116E-4, 0.3385375, 10.037909
270057219337845, 6.4127645, 0.07776674, 7.77787, -0.109116554, -0.54171026, 10.06576
270057228978157, 6.3589263, -1.0576276, 7.722835, 0.04837036, 0.58019495, 10.042795
270057238618470, 6.465407, 0.30269206, 7.8604226, -0.14893532, -0.7736938, 10.151778
270057248258782, 6.2715883, -1.1114662, 7.728817, 0.14232826, 0.63351977, 9.994059
270057257899095, 6.489335, 0.124426775, 7.9274216, -0.095537186, -0.5921506, 10.2279625
270057267539407, 6.2117677, -0.8805587, 7.7300134, 0.14743471, 0.38949633, 9.946915
270057277179720, 6.454639, -0.30149564, 7.945368, 0.0028738976, -0.18473756, 10.239531
270057286820032, 6.2488565, -0.46181476, 7.7383885, 0.058930397, -0.014021397, 9.956929
270057296460345, 6.381658, -0.78364944, 7.7503524, 0.01566267, 0.3143407, 10.065216
270057306100657, 6.363712, -0.031106694, 7.77787, -0.0760293, -0.4342628, 10.039856
270057315740970, 6.3254266, -1.1042876, 7.7204423, 0.09479141, 0.627362, 10.021633
270057325381282, 6.4869423, 0.2428715, 7.8053875, -0.20314169, -0.6967414, 10.126045
270057335021595, 6.2715883, -1.1174482, 7.6534433, 0.101136684, 0.64232993, 9.936494
270057344661907, 6.4797635, 0.13758731, 7.8867435, -0.12390995, -0.5938096, 10.190144
270057354302220, 6.2201424, -0.9236295, 7.6713896, 0.11448002, 0.4452585, 9.9086895
270057363942428, 6.4366927, -0.2009971, 7.881958, -0.046300888, -0.27358484, 10.174463
270057373582741, 6.1830535, -0.46061835, 7.797013, 0.13784981, -0.034137845, 9.960703
270057383223053, 6.3481584, -0.6903293, 7.8687973, 0.08627319, 0.20482874, 10.131349
270057392863366, 6.350551, -0.010767702, 7.771888, -0.08293104, -0.45203668, 10.025997
270057402503678, 6.3338017, -1.0420742, 7.812566, 0.12815619, 0.55746794, 10.095145
270057412143991, 6.471389, 0.19262223, 7.9130645, -0.13921499, -0.6664436, 10.201424
270057421784303, 6.2991056, -1.2191432, 7.7216387, 0.12177658, 0.7317959, 10.011912
270057431424616, 6.5455666, 0.08015956, 7.893922, -0.19107628, -0.54451764, 10.238743
270057441064928, 6.253642, -1.0444671, 7.7180495, 0.12604189, 0.5649301, 9.971569
270057450705241, 6.478567, -0.20817557, 7.91785, -0.06820536, -0.26317978, 10.229057
270057460345553, 6.1998034, -0.573081, 7.7826557, 0.12638855, 0.08268237, 9.965586
270057469985866, 6.3457656, -0.62931234, 7.7850485, 0.026987553, 0.15271783, 10.062193
270057479626178, 6.265606, -0.08973085, 7.7503524, -0.03482771, -0.38241452, 9.959235
270057489266491, 6.2847486, -0.9702896, 7.7587276, 0.112846375, 0.49260128, 10.019081
270057498906803, 6.418747, 0.2656033, 7.8484583, -0.1614685, -0.72710276, 10.115059
270057508547116, 6.250053, -1.0695918, 7.6127653, 0.067439556, 0.61446977, 9.88834
270057518187428, 6.4941206, 0.25962126, 7.776674, -0.2677641, -0.68481404, 10.108264
270057527827741, 6.2321067, -0.9415757, 7.6307116, 0.07380915, 0.48643088, 9.88491
270057537468053, 6.5515485, -0.078963146, 7.8867435, -0.17278767, -0.36991107, 10.245149
270057547108366, 6.2488565, -0.57906306, 7.739585, 0.06376505, 0.11508536, 9.963302
270057556748678, 6.430711, -0.60059845, 7.8317084, -0.020382404, 0.14311182, 10.150347
270057566388887, 6.309873, -0.19621146, 7.844869, 0.01054287, -0.2694193, 10.065897
270057576029199, 6.2979093, -1.0695918, 7.9154572, 0.21487617, 0.5762999, 10.153022
270057585669512, 6.385247, 0.11006984, 8.026724, 0.0177145, -0.5844132, 10.240603
270057595309824, 6.2105713, -1.2059826, 7.8436728, 0.22859335, 0.7260396, 10.048353
270057604950137, 6.431907, 0.17826529, 8.035098, -0.018203259, -0.6488137, 10.273397
270057614590449, 6.1998034, -1.0683953, 7.7671022, 0.1697545, 0.5963192, 9.976097
270057624230762, 6.4737816, -0.09571291, 7.9310107, -0.07126999, -0.36533153, 10.231394
270057633871074, 6.2213387, -0.65682983, 7.6737823, 0.040388107, 0.19162178, 9.898741
270057643511387, 6.363712, -0.56470615, 7.7383885, -0.035203457, 0.10726267, 10.034224
270057653151699, 6.2931237, -0.18305093, 7.5816584, -0.12217045, -0.26477158, 9.850555
270057662792012, 6.3720865, -0.8913264, 7.5625157, -0.10642767, 0.45157743, 9.918383
270057672432324, 6.4067826, 0.22731815, 7.7312098, -0.1850009, -0.6716689, 10.01922
270057682072637, 6.242874, -1.1018949, 7.702496, 0.102698326, 0.63707274, 9.954884
270057691712949, 6.471389, 0.25124636, 7.856833, -0.15137625, -0.7178291, 10.155474
270057701353262, 6.174679, -1.026521, 7.7814593, 0.1934228, 0.5363537, 9.970278
270057710993574, 6.502496, 0.0071784677, 8.005188, -0.049874783, -0.48041803, 10.30205
270057720633887, 6.2416778, -0.71665037, 7.8424764, 0.13523293, 0.22891343, 10.045192
270057730274199, 6.4737816, -0.47377887, 7.982456, 0.013906002, -0.005105138, 10.288524
270057739914512, 6.3314085, -0.27038896, 7.844869, 0.0148181915, -0.20247138, 10.082689
270057749554824, 6.378069, -0.95712906, 7.850851, 0.059387207, 0.4858582, 10.148504
270057759195137, 6.4211397, 0.08853444, 7.881958, -0.087753296, -0.5586317, 10.151077
270057768835449, 6.2512493, -1.1820544, 7.793423, 0.16073513, 0.69663507, 10.035023
270057778475762, 6.4402823, 0.22971097, 7.905886, -0.10966396, -0.6999463, 10.175024
270057788116074, 6.141179, -1.1270195, 7.6737823, 0.17734861, 0.64464116, 9.870368
270057797756387, 6.3804617, -0.0059820567, 7.8400836, -0.07156515, -0.45051318, 10.097979
270057807396699, 6.1363935, -0.80877405, 7.668997, 0.13633442, 0.33098912, 9.848593
270057817037012, 6.375676, -0.43429732, 7.773084, -0.038620472, -0.023474574, 10.062637
270057826677324, 6.2440705, -0.2739782, 7.6713896, -0.02239132, -0.18960166, 9.893293
270057836317637, 6.3517475, -0.849452, 7.7120676, 0.006295204, 0.38279557, 10.019766
270057845957949, 6.391229, 0.11246266, 7.7886376, -0.12799549, -0.57926416, 10.058401
270057855598262, 6.3074803, -1.14018, 7.6737823, 0.05936289, 0.6728622, 9.975719
270057865238574, 6.4845495, 0.23330021, 7.832905, -0.18908072, -0.70290667, 10.145361
270057874878887, 6.2464633, -1.1246266, 7.696514, 0.117052555, 0.6445912, 9.954407
270057884519199, 6.5204415, 0.09332009, 7.908279, -0.16225195, -0.5725187, 10.23287
270057894159512, 6.2009997, -0.80877405, 7.780263, 0.14217567, 0.31487823, 9.975954
270057903799824, 6.4606214, -0.37686956, 7.925029, -0.029614925, -0.110114396, 10.231069
270057913440137, 6.3050876, -0.38644084, 7.7754774, 5.7172775E-4, -0.102724314, 10.017532
270057923080449, 6.4067826, -0.83988076, 7.838887, 0.019867897, 0.34592646, 10.152849
270057932720762, 6.4211397, 0.02751746, 7.911868, -0.06398153, -0.52969927, 10.175695
270057942361074, 6.3457656, -1.174876, 7.813762, 0.110118866, 0.6646526, 10.111877
270057952001387, 6.4881387, 0.16271193, 7.897511, -0.15067673, -0.6477334, 10.200531
270057961641699, 6.2105713, -1.2179468, 7.7611203, 0.18125105, 0.7069557, 9.987841
270057971282012, 6.492924, -0.0047856453, 7.9022965, -0.116969585, -0.48931128, 10.215246
270057980922324, 6.2081785, -0.930808, 7.6893353, 0.10761309, 0.42420137, 9.916766
270057990562637, 6.4570317, -0.317049, 7.8053875, -0.10663414, -0.18292391, 10.132771
270058000202949, 6.257231, -0.40917268, 7.658229, -0.03071785, -0.08534026, 9.897506
270058009843262, 6.3996043, -0.75254273, 7.7204423, -0.0541811, 0.2560768, 10.05276
270058019483574, 6.35773, 0.02751746, 7.7826557, -0.0827837, -0.53085005, 10.0350685
270058029123887, 6.2715883, -1.0803595, 7.757531, 0.096784115, 0.5744016, 10.016985
270058038764199, 6.4271216, 0.23449662, 7.9369926, -0.07958841, -0.75125027, 10.18764
270058048404512, 6.256035, -1.1521441, 7.776674, 0.13521957, 0.6299659, 10.026311
270058058044824, 6.501299, 0.1160519, 7.954939, -0.10694885, -0.63050026, 10.254387
270058067685137, 6.229714, -0.91884387, 7.8221374, 0.15210009, 0.39302003, 10.033039
270058077325449, 6.509674, -0.2883351, 7.9477606, -0.057127953, -0.21985036, 10.274935
270058086965762, 6.2775702, -0.5383851, 7.8077803, 0.06309748, 0.029886425, 10.032661
270058096606074, 6.3768725, -0.81236327, 7.830512, 0.03812933, 0.30349368, 10.126589
270058106246387, 6.314659, -0.15074782, 7.746763, -0.058503628, -0.34357738, 9.98942
270058115886699, 6.2512493, -1.1760724, 7.685746, 0.10252428, 0.6734047, 9.953289
270058125527012, 6.3924255, 0.15194423, 7.810173, -0.11491966, -0.6586406, 10.071643
270058135167324, 6.178268, -1.2083755, 7.631908, 0.12851906, 0.70112747, 9.8675785
270058144807637, 6.454639, 0.12083755, 7.7850485, -0.1792078, -0.62679094, 10.09252
270058154447949, 6.1603217, -0.96430755, 7.6163545, 0.10335541, 0.44348693, 9.832647
270058164088262, 6.458228, -0.12083755, 7.8664045, -0.09541702, -0.40524578, 10.17007
270058173728574, 6.296713, -0.46779683, 7.769495, 0.016653538, -0.0606544, 10.011419
270058183368887, 6.5048885, -0.65682983, 7.838887, -0.07518959, 0.13172114, 10.206378
270058193009199, 6.4211397, -0.12203395, 7.873583, -0.06863308, -0.4079556, 10.152246
270058202649512, 6.4151573, -0.7190432, 7.9573317, 0.07853079, 0.16368997, 10.244873
270058212289928, 6.398408, -0.552742, 7.9166536, 0.041708946, 0.010072589, 10.193954
270058221930241, 6.3589263, -0.58624154, 7.867601, 0.046164513, 0.04387188, 10.132852
270058231570553, 6.290731, -0.58265233, 7.8113694, 0.06411934, 0.04288459, 10.04611
270058241210866, 6.2679987, -0.56350976, 7.789834, 0.06571865, 0.026150703, 10.014082
270058250851178, 6.263213, -0.54436713, 7.7276206, 0.028607368, 0.018399715, 9.961885
270058260491491, 6.282356, -0.50009996, 7.6917286, -0.01606512, -0.013168454, 9.943861
270058270131803, 6.334998, -0.50368917, 7.6773715, -0.06519222, 0.0014125109, 9.966127
270058279772116, 6.3792653, -0.485743, 7.7156568, -0.07942915, -0.016952276, 10.022762
270058289412428, 6.413961, -0.48933223, 7.7036924, -0.11326647, -0.0061951876, 10.035553
270058299052741, 6.418747, -0.51086766, 7.771888, -0.07282066, 0.0040369034, 10.092482
270058308693053, 6.411568, -0.55034924, 7.8281193, -0.024898529, 0.032617092, 10.13355
270058318333366, 6.398408, -0.59342, 7.884351, 0.025929928, 0.06304133, 10.171043
270058327973678, 6.3278193, -0.62452674, 7.938189, 0.11546898, 0.07241762, 10.169936
270058337613991, 6.3182483, -0.6436693, 7.954939, 0.13439131, 0.08485484, 10.177936
270058347254303, 6.2751775, -0.6113662, 7.9908314, 0.18075323, 0.04114461, 10.176967
270058356894616, 6.2847486, -0.5599205, 7.946564, 0.13393402, -0.0021278858, 10.14601
270058366534928, 6.309873, -0.51206404, 7.8783684, 0.06264639, -0.03479445, 10.106447
270058376175241, 6.32423, -0.4977071, 7.847262, 0.031712532, -0.041166186, 10.0906105
270058385815657, 6.3397837, -0.4881358, 7.753942, -0.035714626, -0.032400966, 10.027584
270058395455970, 6.3397837, -0.47736812, 7.7072816, -0.06664562, -0.03461981, 9.990861
270058405096282, 6.3661046, -0.465404, 7.670193, -0.10788584, -0.036738038, 9.978116
270058414736595, 6.390033, -0.44027936, 7.6402826, -0.14562225, -0.050190687, 9.9687805
270058424376907, 6.411568, -0.45224348, 7.6630144, -0.14595175, -0.0389781, 10.000586
270058434017220, 6.38764, -0.4426722, 7.7383885, -0.08228159, -0.062383294, 10.0434
270058443657532, 6.3601227, -0.47138608, 7.8496547, 0.011802673, -0.05514586, 10.113717
270058453297845, 6.34098, -0.5300102, 7.8484583, 0.038413525, 0.002254963, 10.103751
270058462938157, 6.346962, -0.5623133, 7.914261, 0.078249454, 0.025621533, 10.16016
270058472578470, 6.34098, -0.56829536, 7.921439, 0.08609247, 0.032059073, 10.1622715
270058482218782, 6.3314085, -0.55393845, 7.920243, 0.08715153, 0.02177322, 10.154594
270058491859095, 6.3481584, -0.59700924, 7.899904, 0.07107782, 0.0695411, 10.15156
270058501499407, 6.3361945, -0.62452674, 7.895118, 0.08526802, 0.09811306, 10.141666
270058511139824, 6.309873, -0.59700924, 7.769495, 0.023697376, 0.089447856, 10.026336
270058520780137, 6.3182483, -0.5312066, 7.7204423, -0.024423122, 0.034521103, 9.99029
270058530420449, 6.3278193, -0.48454657, 7.702496, -0.052164078, -0.007824779, 9.980068
270058540060762, 6.3804617, -0.44506502, 7.648658, -0.13201332, -0.031410575, 9.969549
270058549701074, 6.385247, -0.40917268, 7.704889, -0.11006498, -0.07197213, 10.014332
270058559341387, 6.3744793, -0.40917268, 7.743174, -0.079856396, -0.07813454, 10.037214
270058568981699, 6.3696938, -0.43908295, 7.7814593, -0.047247887, -0.05490458, 10.065369
270058578622012, 6.314659, -0.45942193, 7.8281193, 0.02597475, -0.050680637, 10.067881
270058588262324, 6.3290157, -0.4977071, 7.8664045, 0.04674244, -0.018630862, 10.10851
270058597902637, 6.303891, -0.5419743, 7.897511, 0.09240961, 0.015709043, 10.119026
270058607543053, 6.300302, -0.5371887, 7.941778, 0.11935234, 0.0012594461, 10.15086
270058617183366, 6.283552, -0.5455636, 7.9633136, 0.14642048, 0.0022002459, 10.157439
270058626823678, 6.330212, -0.5491528, 7.884351, 0.06385565, 0.028550148, 10.125772
270058636463991, 6.3493547, -0.5371887, 7.776674, -0.02056837, 0.044314027, 10.053713
270058646104303, 6.3684974, -0.5084748, 7.708478, -0.082015514, 0.032955647, 10.01145
270058655744616, 6.361319, -0.4881358, 7.704889, -0.0830431, 0.012755156, 10.003145
270058665384928, 6.3864436, -0.49172506, 7.7156568, -0.09461117, 0.02070272, 10.027485
270058675025241, 6.3924255, -0.49172506, 7.732406, -0.08892059, 0.019041657, 10.044239
270058684665553, 6.361319, -0.5072784, 7.769495, -0.03976631, 0.023647904, 10.054185
270058694305970, 6.3517475, -0.5395815, 7.810173, -0.0015263557, 0.04697299, 10.081292
270058703946282, 6.2955165, -0.5778667, 7.914261, 0.113149166, 0.05823016, 10.128513
270058713586595, 6.282356, -0.5946164, 7.944171, 0.1442852, 0.06540549, 10.144276
270058723226907, 6.2883377, -0.5599205, 7.9130645, 0.10699701, 0.033591986, 10.122288
270058732867220, 6.3134627, -0.5084748, 7.9130645, 0.077563286, -0.01369977, 10.135518
270058742507532, 6.3326054, -0.45942193, 7.85444, 0.0151667595, -0.05083871, 10.099623
270058752147845, 6.3493547, -0.4319045, 7.8113694, -0.030526638, -0.06801677, 10.075356
270058761788157, 6.3625154, -0.45583272, 7.786245, -0.050660133, -0.037040472, 10.065339
270058771428470, 6.381658, -0.43788654, 7.719246, -0.10824537, -0.03920257, 10.02451
270058781068887, 6.3601227, -0.47258246, 7.7096744, -0.08928633, -0.0046317577, 10.005279
270058790709199, 6.3661046, -0.48454657, 7.739585, -0.06632948, 0.006762743, 10.032887
270058800349512, 6.3134627, -0.46181476, 7.752745, -0.022158146, -0.02306974, 10.008852
270058809989824, 6.320641, -0.46181476, 7.7706914, -0.014347553, -0.023790479, 10.027294
270058819630137, 6.3481584, -0.41754755, 7.756335, -0.05526209, -0.057793975, 10.031341
270058829270449, 6.34098, -0.36729828, 7.8400836, -0.011651993, -0.120949864, 10.0893545
270058838910762, 6.378069, -0.3684947, 7.8317084, -0.047100544, -0.11067927, 10.106272
270058848551074, 6.373283, -0.41754755, 7.8113694, -0.04613638, -0.05842483, 10.089848
270058858191491, 6.3457656, -0.48215377, 7.838887, 0.0056700706, -0.004062295, 10.096995
270058867831803, 6.3361945, -0.51086766, 7.8293157, 0.013945103, 0.024371147, 10.084927
270058877472116, 6.3290157, -0.54675996, 7.881958, 0.060077667, 0.04771352, 10.122982
270058887112428, 6.3050876, -0.5802595, 7.8604226, 0.0726285, 0.07939947, 10.092843
270058896752741, 6.2727847, -0.59940207, 7.87119, 0.10441017, 0.0886302, 10.081863
270058906393053, 6.2488565, -0.61016977, 7.884351, 0.1297965, 0.09422374, 10.077589
270058916033366, 6.296713, -0.57188463, 7.88794, 0.08799267, 0.061610818, 10.108594
270058925673678, 6.3134627, -0.5300102, 7.8484583, 0.04110813, 0.02906084, 10.086452
270058935314095, 6.3361945, -0.47856453, 7.753942, -0.044941425, -2.3806095E-4, 10.024868
270058944954407, 6.378069, -0.43908295, 7.672586, -0.13117409, -0.013712525, 9.986177
270058954594720, 6.38764, -0.39361933, 7.696514, -0.12952995, -0.058514, 10.008647
270058964235032, 6.3661046, -0.3900301, 7.6893353, -0.11814165, -0.063658714, 9.989358
270058973875345, 6.3397837, -0.44865423, 7.690532, -0.082995415, -0.0067561865, 9.976549
270058983515657, 6.3194447, -0.49052864, 7.739585, -0.029118061, 0.028004766, 10.003777
270058993156074, 6.3338017, -0.4881358, 7.793423, -0.010054588, 0.018209457, 10.054468
270059002796387, 6.314659, -0.485743, 7.8664045, 0.045557976, 1.7654896E-4, 10.098967
270059012436699, 6.3314085, -0.47258246, 7.8963146, 0.048366547, -0.014865994, 10.132093
270059022077012, 6.3158555, -0.485743, 7.9346, 0.07919121, -0.014820695, 10.152703
270059031717324, 6.32423, -0.5204389, 7.962117, 0.09678793, 0.015297055, 10.180985
270059041357637, 6.323034, -0.5383851, 8.008778, 0.1262989, 0.0183779, 10.21738
270059050997949, 6.3457656, -0.53359944, 7.984849, 0.09298706, 0.022150636, 10.212843
270059060638366, 6.34098, -0.53359944, 7.9740815, 0.09124899, 0.018353462, 10.201473
270059070278678, 6.3278193, -0.5204389, 7.905886, 0.057441235, 0.013547301, 10.139611
270059079918991, 6.320641, -0.5168497, 7.8053875, 0.0032520294, 0.024184227, 10.056894
270059089559303, 6.344569, -0.49172506, 7.7072816, -0.07965994, 0.017685294, 9.994543
270059099199616, 6.330212, -0.44506502, 7.658229, -0.101046085, -0.021504283, 9.945225
270059108839928, 6.3601227, -0.43429732, 7.665407, -0.11883211, -0.029915094, 9.969114
270059118480241, 6.3481584, -0.44147578, 7.6510506, -0.11721754, -0.021551847, 9.950799
270059128120657, 6.3278193, -0.43908295, 7.678568, -0.08401728, -0.028902888, 9.959248
270059137760970, 6.3625154, -0.47258246, 7.719246, -0.07744694, 0.0022133589, 10.014275
270059147401282, 6.3194447, -0.48095736, 7.7910304, 0.0010938644, -0.0071709156, 10.043247
270059157041595, 6.346962, -0.48454657, 7.853244, 0.016669273, -0.009943843, 10.108994
270059166681907, 6.3625154, -0.5347959, 7.8891363, 0.036423683, 0.03549099, 10.149063
270059176322220, 6.346962, -0.5371887, 7.881958, 0.03906536, 0.03828466, 10.133844
