timestamp_acc,device_acc_x,device_acc_y,device_acc_z,earth_acc_x,earth_acc_y,earth_acc_z
96865348061065, 7.8352976, 0.05742774, 6.2871413, 0.013796449, 0.0029473305, 10.046051
96865357699815, 7.82453, 0.062213387, 6.2751775, 0.009776354, 0.006583214, 10.030199
96865367338669, 7.8197446, 0.07298109, 6.2787666, -0.0024033785, 0.00374794, 10.0287895
96865376977419, 7.8077803, 0.07058827, 6.279963, -0.0026066303, -0.0052289963, 10.020196
96865386616273, 7.832905, 0.07058827, 6.276374, 0.0025670528, 0.012813568, 10.037536
96865396255127, 7.834101, 0.05503492, 6.29432, 0.014309287, -0.003917694, 10.049599
96865405893877, 7.82453, 0.078963146, 6.3014984, -0.011639595, -0.008930206, 10.046799
96865415532731, 7.844869, 0.08733802, 6.314659, -0.018658757, -0.0037174225, 10.070957
96865425171481, 7.8484583, 0.07776674, 6.3182483, -0.009466648, -0.0067443848, 10.075934
96865434810336, 7.856833, 0.10049855, 6.2847486, -0.023171544, 0.029463768, 10.06164
96865444449086, 7.847262, 0.069391854, 6.285945, 0.005981207, 0.014516354, 10.0547085
96865454087940, 7.834101, 0.08733802, 6.2847486, -0.013157368, 0.011775494, 10.043831
96865463726690, 7.836494, 0.07298109, 6.276374, 0.002303362, 0.015537739, 10.040347
96865473365544, 7.8281193, 0.06819545, 6.2787666, 0.004475236, 0.0076141357, 10.035286
96865483004398, 7.834101, 0.05503492, 6.2811594, 0.017243505, 0.006755829, 10.041353
96865492643148, 7.8281193, 0.05742774, 6.302695, 0.00944519, -0.011929989, 10.050199
96865502282002, 7.812566, 0.0741775, 6.2931237, -0.007543087, -0.009839535, 10.032195
96865511920752, 7.82453, 0.09092726, 6.2548385, -0.014277697, 0.031278133, 10.0176525
96865521559606, 7.7850485, 0.09092726, 6.263213, -0.02239561, 9.7084045E-4, 9.992126
96865531198356, 7.7814593, 0.09332009, 6.253642, -0.021633387, 0.006398201, 9.983353
96865540837211, 7.810173, 0.08853444, 6.236892, -0.009189725, 0.035203457, 9.995207
96865550475961, 7.8077803, 0.08733802, 6.2691956, -0.012876987, 0.012028217, 10.013569
96865560114815, 7.816155, 0.07178468, 6.296713, -0.0011091232, -0.005487442, 10.037229
96865569753669, 7.84128, 0.050249275, 6.3014984, 0.02292502, 6.4992905E-4, 10.0596485
96865579392419, 7.865208, 0.078963146, 6.334998, -0.0073440075, 6.480217E-4, 10.099499
96865589031273, 7.864012, 0.0849452, 6.350551, -0.015925765, -0.009618759, 10.108366
96865598670023, 7.844869, 0.08255238, 6.3517475, -0.016378045, -0.022096157, 10.094193
96865608308877, 7.856833, 0.059820566, 6.3314085, 0.011205077, -0.0047836304, 10.09059
96865617947627, 7.856833, 0.07537391, 6.289534, 0.0042574406, 0.030891895, 10.064431
96865627586481, 7.830512, 0.08135597, 6.285945, -0.005627036, 0.017258644, 10.041729
96865637225231, 7.8281193, 0.06699903, 6.2715883, 0.010416269, 0.02340889, 10.030758
96865646864086, 7.820941, 0.07537391, 6.2871413, -0.001954317, 0.008624554, 10.034983
96865656502940, 7.8149586, 0.0849452, 6.285945, -0.013084054, 0.007872105, 10.029639
96865666141690, 7.806584, 0.09810573, 6.257231, -0.022968292, 0.02962017, 10.005194
96865675780544, 7.832905, 0.05623133, 6.2679987, 0.019811392, 0.027387142, 10.032159
96865685419294, 7.800602, 0.08135597, 6.263213, -0.009270549, 0.017364502, 10.004173
96865695058148, 7.8077803, 0.06580263, 6.270392, 0.006093979, 0.012618542, 10.01416
96865704696898, 7.7850485, 0.033499517, 6.262017, 0.035464883, -0.0026745796, 9.990981
96865714335752, 7.804191, 0.033499517, 6.276374, 0.036054373, -0.0016741753, 10.0148945
96865723974606, 7.8017983, 0.04546363, 6.2871413, 0.021534562, -0.0067601204, 10.019868
96865733613356, 7.8293157, 0.08255238, 6.330212, -0.018184185, -0.013432503, 10.068568
96865743252211, 7.830512, 0.08135597, 6.3481584, -0.020379066, -0.023994923, 10.080756
96865752890961, 7.881958, 0.09332009, 6.3565335, -0.024487853, 0.004962921, 10.126148
96865762529815, 7.9011, 0.08733802, 6.3397837, -0.012601614, 0.027652264, 10.130497
96865772168565, 7.874779, 0.078963146, 6.3158555, -0.003518939, 0.027821064, 10.094931
96865781807419, 7.8484583, 0.07178468, 6.2775702, 0.0075542927, 0.036039352, 10.050371
96865791446169, 7.804191, 0.06580263, 6.2464633, 0.01221168, 0.031192303, 9.996344
96865801085023, 7.780263, 0.0634098, 6.224928, 0.014547229, 0.03034544, 9.964191
96865810723877, 7.759924, 0.07298109, 6.245267, -0.0019137859, 0.00325346, 9.961179
96865820362627, 7.7623167, 0.0634098, 6.256035, 0.005222082, -0.006374359, 9.969728
96865830001481, 7.7754774, 0.07178468, 6.2691956, -0.003441453, -0.0056676865, 9.988292
96865839640231, 7.8029947, 0.06819545, 6.306284, -0.0023431778, -0.016923428, 10.032961
96865849279086, 7.820941, 0.09212367, 6.3122663, -0.023767948, -0.0046629906, 10.050858
96865858917836, 7.8352976, 0.09571291, 6.334998, -0.027135134, -0.010521412, 10.076327
96865868556690, 7.861619, 0.09571291, 6.3314085, -0.022295356, 0.008307934, 10.094571
96865878195544, 7.8664045, 0.096909314, 6.32423, -0.018294334, 0.018640518, 10.093805
96865887834294, 7.8604226, 0.07298109, 6.3278193, 0.003194809, 0.0062794685, 10.091224
96865897473148, 7.8604226, 0.07776674, 6.326623, -1.8572807E-4, 0.007892132, 10.090509
96865907111898, 7.8352976, 0.058624156, 6.3194447, 0.015619993, -0.006714344, 10.066301
96865916750752, 7.816155, 0.04546363, 6.3110695, 0.026254535, -0.016819, 10.046043
96865926389502, 7.806584, 0.051445685, 6.2979093, 0.021352172, -0.011236668, 10.030378
96865936028356, 7.8053875, 0.08135597, 6.285945, -0.006421447, 0.0041213036, 10.022162
96865945667106, 7.798209, 0.06819545, 6.290731, 0.0033342838, -0.0082678795, 10.019478
96865955305961, 7.818548, 0.083748795, 6.2285175, 0.0033339262, 0.054529667, 9.9964075
96865964944815, 7.789834, 0.08973085, 6.2213387, -0.005648136, 0.044072628, 9.969585
96865974583565, 7.7910304, 0.09332009, 6.2081785, -0.0061249733, 0.054546356, 9.962296
96865984222419, 7.7850485, 0.106480606, 6.2464633, -0.027541995, 0.025858402, 9.981743
96865993861169, 7.7790666, 0.08853444, 6.2847486, -0.01900065, -0.011171818, 10.000964
96866003500023, 7.800602, 0.08853444, 6.302695, -0.01757598, -0.008224964, 10.028999
96866013138773, 7.8293157, 0.0849452, 6.3182483, -0.012265563, -0.0036506653, 10.061089
96866022777627, 7.844869, 0.06460621, 6.3254266, 0.0098541975, -0.0028057098, 10.077553
96866032416377, 7.853244, 0.07537391, 6.3194447, 0.0037357807, 0.0117836, 10.080397
96866042055231, 7.8424764, 0.06460621, 6.2931237, 0.018934011, 0.023954868, 10.055401
96866051694086, 7.834101, 0.06460621, 6.2847486, 0.020601988, 0.026538849, 10.043618
96866061332836, 7.8221374, 0.07058827, 6.289534, 0.011997223, 0.017148495, 10.037362
96866070971690, 7.804191, 0.08015956, 6.2991056, -0.002349615, 0.0014891624, 10.029485
96866080610440, 7.820941, 0.069391854, 6.3014984, 0.009956598, 0.007203579, 10.043936
96866090249294, 7.820941, 0.076570325, 6.3110695, 6.5124035E-4, 0.002969265, 10.050002
96866099888044, 7.806584, 0.09451649, 6.3194447, -0.022610664, -0.005750656, 10.0442295
96866109526898, 7.8400836, 0.11246266, 6.334998, -0.037344217, 0.007742882, 10.0801935
96866119165648, 7.816155, 0.09212367, 6.3457656, -0.023952246, -0.020554543, 10.068193
96866128804502, 7.8197446, 0.09212367, 6.3254266, -0.018640041, -0.0034332275, 10.058208
96866138443252, 7.8317084, 0.10767702, 6.303891, -0.026850462, 0.023157597, 10.054106
96866148082106, 7.8424764, 0.09212367, 6.2715883, -0.002882719, 0.048734665, 10.04208
96866157720856, 7.804191, 0.062213387, 6.2644095, 0.021009445, 0.02325964, 10.007553
96866167359711, 7.783852, 0.032303106, 6.250053, 0.049065232, 0.013079643, 9.982484
96866176998565, 7.7826557, 0.041874398, 6.242874, 0.04115832, 0.019772053, 9.977118
96866186637315, 7.810173, 0.0741775, 6.259624, 0.009251237, 0.032862186, 10.009296
96866196276169, 7.8221374, 0.07776674, 6.29432, 2.053976E-4, 0.015017033, 10.040425
96866205914919, 7.8029947, 0.059820566, 6.3218374, 0.008928776, -0.02191639, 10.042679
96866215553773, 7.832905, 0.09212367, 6.3194447, -0.017465115, 0.007955551, 10.064686
96866225192523, 7.8460655, 0.09332009, 6.3182483, -0.015915513, 0.017394543, 10.074182
96866234831377, 7.810173, 0.09332009, 6.2979093, -0.017628789, 0.010708809, 10.033483
96866244470127, 7.7790666, 0.06580263, 6.2847486, 0.00642097, -0.005218506, 10.000812
96866254108981, 7.780263, 0.062213387, 6.270392, 0.012858868, 0.005485058, 9.992698
96866263747731, 7.7994056, 0.08733802, 6.262017, -0.007075429, 0.03057623, 10.002512
96866273386586, 7.818548, 0.083748795, 6.2787666, -0.0041115284, 0.029983044, 10.027897
96866283025336, 7.812566, 0.06699903, 6.3326054, 9.75132E-5, -0.017251968, 10.0569515
96866292664190, 7.792227, 0.07776674, 6.3326054, -0.013942599, -0.025203228, 10.041211
96866302303044, 7.793423, 0.08255238, 6.337391, -0.019395351, -0.024827003, 10.045189
96866311941794, 7.8077803, 0.08853444, 6.34098, -0.022980094, -0.015996933, 10.058654
96866321580648, 7.826923, 0.09571291, 6.3182483, -0.02127242, 0.015638351, 10.059297
96866331219398, 7.8221374, 0.07776674, 6.3050876, -0.0010837317, 0.019062996, 10.047172
96866340858252, 7.836494, 0.07058827, 6.2679987, 0.01646924, 0.055390835, 10.034944
96866350497002, 7.7910304, 0.05503492, 6.2512493, 0.027020097, 0.0380311, 9.988951
96866360135856, 7.7551384, 0.06580263, 6.279963, 0.0047904253, -0.0029859543, 9.979199
96866369774606, 7.7671022, 0.0849452, 6.314659, -0.018238187, -0.017298698, 10.010464
96866379413461, 7.795816, 0.05742774, 6.303891, 0.0146301985, 0.003686905, 10.02581
96866389052211, 7.8077803, 0.08255238, 6.3290157, -0.012016892, 0.0010371208, 10.051096
96866398691065, 7.813762, -0.010767702, 6.3601227, 0.0723691, -0.043825626, 10.074672
96866408329815, 7.847262, 0.21894327, 6.3194447, -0.13381422, 0.06997347, 10.076708
96866417968669, 7.7754774, -0.29910284, 6.3481584, 0.34301877, -0.13749266, 10.035441
96866427607419, 7.9298143, 0.62931234, 6.483353, -0.5443034, 0.12322283, 10.246969
96866437246273, 7.751549, -0.5168497, 6.2668023, 0.555753, -0.16954327, 9.964378
96866446885023, 7.9704924, 0.76689965, 6.5347986, -0.675222, 0.15720129, 10.31212
96866456523877, 7.7156568, -0.5587241, 6.099305, 0.6388837, -0.084900856, 9.83004
96866466162627, 7.885547, 0.6113662, 6.3948183, -0.50773215, 0.16559315, 10.156975
96866475801481, 7.7001033, -0.2428715, 6.105287, 0.32382548, -0.0012054443, 9.824472
96866485440231, 7.7419777, 0.13519448, 6.3744793, -0.08240068, -0.06554985, 10.028929
96866495079086, 7.771888, 0.19621146, 6.1328044, -0.08710706, 0.147336, 9.900644
96866504717836, 7.7012997, -0.28953153, 6.1974106, 0.35425818, -0.078529835, 9.882818
96866514356690, 7.9022965, 0.57188463, 6.363712, -0.47096968, 0.16038322, 10.150007
96866523995440, 7.6917286, -0.58624154, 6.2285175, 0.6244186, -0.18834066, 9.893202
96866533634294, 7.948957, 0.7680961, 6.5144596, -0.69316566, 0.13258886, 10.281828
96866543273044, 7.7120676, -0.567099, 6.125626, 0.64087856, -0.09154129, 9.84387
96866552911898, 7.9346, 0.64606214, 6.519245, -0.5675897, 0.085066795, 10.273581
96866562550648, 7.776674, -0.26081768, 6.1902323, 0.34345925, -0.017308712, 9.937072
96866572189502, 7.8687973, 0.2440679, 6.48096, -0.19195116, -0.040486813, 10.19519
96866581828252, 7.84128, 0.16390835, 6.2404814, -0.068499684, 0.09934139, 10.022056
96866591467106, 7.759924, -0.2644069, 6.2847486, 0.32160103, -0.098665714, 9.983549
96866601105856, 7.891529, 0.5407779, 6.334998, -0.44060332, 0.15595198, 10.12336
96866610744711, 7.676175, -0.5802595, 6.2081785, 0.6194066, -0.1829505, 9.86837
96866620383461, 7.921439, 0.74895346, 6.4666033, -0.6732506, 0.14615011, 10.229979
96866630022315, 7.682157, -0.6305088, 6.0921264, 0.69672465, -0.10889053, 9.799479
96866639661065, 7.908279, 0.62811595, 6.4354963, -0.5452385, 0.115305424, 10.200022
96866649299919, 7.733603, -0.3385844, 6.117251, 0.4063022, -0.030941963, 9.857889
96866658938669, 7.8520474, 0.29192436, 6.4199433, -0.24058461, 0.008681774, 10.143845
96866668577523, 7.7946196, 0.14596218, 6.161518, -0.05062473, 0.12082338, 9.936022
96866678216273, 7.7503524, -0.17228323, 6.2512493, 0.2260685, -0.07540178, 9.955851
96866687855023, 7.879565, 0.567099, 6.3110695, -0.46378005, 0.19032621, 10.098882
96866697493877, 7.692925, -0.55513483, 6.222535, 0.5797918, -0.21139431, 9.890823
96866707132627, 7.9310107, 0.715454, 6.4905314, -0.64237916, 0.13411617, 10.252275
96866716771481, 7.7072816, -0.67118675, 6.1208405, 0.729501, -0.15846205, 9.83667
96866726410231, 7.941778, 0.62931234, 6.471389, -0.5441633, 0.1196084, 10.248723
96866736049086, 7.733603, -0.41156548, 6.1304116, 0.47545612, -0.054673195, 9.865643
96866745687836, 7.8556366, 0.31465617, 6.468996, -0.2629956, -0.022428513, 10.177833
96866755326690, 7.810173, 0.09930214, 6.204589, -0.013522029, 0.08486462, 9.97488
96866764965440, 7.771888, -0.13160525, 6.3134627, 0.17726111, -0.08934021, 10.011991
96866774604294, 7.893922, 0.5240282, 6.3086767, -0.4245494, 0.1781807, 10.108216
96866784243044, 7.719246, -0.52522457, 6.212964, 0.5608851, -0.16926384, 9.90557
96866793881898, 7.9166536, 0.75493556, 6.463014, -0.67150164, 0.14530516, 10.224573
96866803520648, 7.682157, -0.6257231, 6.099305, 0.6857457, -0.12823582, 9.804176
96866813159398, 7.905886, 0.68075806, 6.445068, -0.61131734, 0.1300416, 10.203664
96866822798252, 7.6833534, -0.4019942, 6.1028943, 0.45996296, -0.060651302, 9.809464
96866832437002, 7.836494, 0.357727, 6.445068, -0.3126235, -7.972717E-4, 10.147894
96866842075856, 7.7874413, 0.008374879, 6.15434, 0.08102906, 0.08551407, 9.925035
96866851714606, 7.7706914, -0.14955142, 6.29432, 0.19698381, -0.07787895, 9.998981
96866861353461, 7.9034934, 0.43908295, 6.2811594, -0.33879423, 0.18357801, 10.097649
96866870992211, 7.713264, -0.5288138, 6.2524457, 0.55733085, -0.19889116, 9.925572
96866880631065, 7.940582, 0.73100734, 6.5048885, -0.65761256, 0.12944841, 10.268962
96866890269815, 7.6893353, -0.62093747, 6.161518, 0.6620215, -0.17611885, 9.849186
96866899908565, 7.9274216, 0.73340017, 6.512067, -0.66071147, 0.12828588, 10.263329
96866909547419, 7.722835, -0.42711884, 6.125626, 0.48358583, -0.057974815, 9.854476
96866919186169, 7.8580294, 0.4103691, 6.498906, -0.36417818, -0.009667397, 10.199024
96866928825023, 7.7826557, -0.025124637, 6.192625, 0.10476518, 0.04518652, 9.945147
96866938463773, 7.771888, -0.08733802, 6.3314085, 0.13217676, -0.0821867, 10.02359
96866948102627, 7.877172, 0.4139583, 6.265606, -0.31367147, 0.17393541, 10.067291
96866957741377, 7.702496, -0.50368917, 6.212964, 0.54584277, -0.16512251, 9.892313
96866967380127, 7.905886, 0.72023964, 6.4618177, -0.64107114, 0.13209105, 10.215109
96866977018981, 7.68455, -0.634098, 6.1531434, 0.6706543, -0.17114496, 9.840553
96866986657731, 7.9501534, 0.7585248, 6.4642105, -0.67775214, 0.17436123, 10.250687
96866996296586, 7.7144604, -0.45104706, 6.1064835, 0.5127703, -0.06421375, 9.835569
96867005935336, 7.873583, 0.46660042, 6.4965134, -0.40976024, 0.017445564, 10.210167
96867015574190, 7.7814593, -0.033499517, 6.1698933, 0.123637915, 0.0508523, 9.929852
96867025212940, 7.776674, -0.02751746, 6.320641, 0.081986904, -0.06214714, 10.020844
96867034851690, 7.844869, 0.3397808, 6.218946, -0.23460245, 0.16208553, 10.012563
96867044490544, 7.6953177, -0.49172506, 6.215357, 0.5387813, -0.16747475, 9.887974
96867054129294, 7.9154572, 0.65922266, 6.4474607, -0.5840088, 0.12281847, 10.212868
96867063768148, 7.688139, -0.65922266, 6.1830535, 0.69889545, -0.17962694, 9.861617
96867073406898, 7.9597244, 0.72263247, 6.5228343, -0.64413565, 0.105725765, 10.295664
96867083045752, 7.733603, -0.4749753, 6.166304, 0.5278145, -0.09632254, 9.887854
96867092684502, 7.925029, 0.56111693, 6.570691, -0.5180648, 0.005355358, 10.296917
96867102323252, 7.7994056, -0.06460621, 6.235696, 0.1317749, 0.007192135, 9.98506
96867111962106, 7.8233337, 0.050249275, 6.344569, 0.009757161, -0.032072544, 10.072712
96867121600856, 7.8520474, 0.36490545, 6.1328044, -0.23728836, 0.23633814, 9.964283
96867131239711, 7.678568, -0.4331009, 6.0981083, 0.5006374, -0.070578575, 9.802004
96867140878461, 7.8520474, 0.64606214, 6.2979093, -0.5393746, 0.1860547, 10.070263
96867150517211, 7.62114, -0.6879365, 6.040681, 0.7514212, -0.14295626, 9.719042
96867160156065, 7.884351, 0.7322037, 6.411568, -0.64374024, 0.13317108, 10.167359
96867169794815, 7.6606216, -0.5347959, 6.076573, 0.6013447, -0.09556055, 9.773696
96867179433669, 7.85444, 0.5288138, 6.538388, -0.49377966, -0.026434422, 10.221442
96867189072419, 7.7551384, -0.13878371, 6.2177496, 0.20680523, -0.03232193, 9.938714
96867198711169, 7.834101, 0.10049855, 6.4354963, -0.05439496, -0.08102274, 10.138508
96867208350023, 7.8987074, 0.34576288, 6.2847486, -0.24891543, 0.13985205, 10.095826
96867217988773, 7.7874413, -0.35174492, 6.285945, 0.40810585, -0.12310028, 10.004966
96867227627627, 7.978867, 0.66999036, 6.474978, -0.57655334, 0.14336634, 10.280252
96867237266377, 7.716853, -0.6364908, 6.2464633, 0.6791253, -0.21943378, 9.922898
96867246905127, 7.9561353, 0.7477571, 6.4881387, -0.65679955, 0.13341093, 10.271612
96867256543981, 7.6773715, -0.58265233, 6.0933228, 0.6511723, -0.11764097, 9.796543
96867266182731, 7.885547, 0.5300102, 6.4821568, -0.46081096, 0.032496452, 10.211157
96867275821586, 7.732406, -0.19860429, 6.1627145, 0.26807952, -0.016823292, 9.886175
96867285460336, 7.798209, 0.10289137, 6.390033, -0.056830645, -0.06732464, 10.082034
96867295099086, 7.8197446, 0.24765715, 6.1675005, -0.14519966, 0.15200901, 9.960101
96867304737940, 7.7156568, -0.33499518, 6.172286, 0.39426863, -0.07933521, 9.878208
96867314376690, 7.884351, 0.6113662, 6.3110695, -0.5162232, 0.18906975, 10.102679
96867324015544, 7.6594253, -0.6197411, 6.1304116, 0.6691847, -0.16696787, 9.805975
96867333654294, 7.9154572, 0.7728817, 6.452246, -0.6905039, 0.13288403, 10.217086
96867343293044, 7.696514, -0.55393845, 6.10768, 0.60571194, -0.106490135, 9.821849
96867352931898, 7.9513497, 0.6472585, 6.541977, -0.59191066, 0.07214546, 10.299748
96867362570648, 7.7910304, -0.21655045, 6.2201424, 0.28671908, -0.0345006, 9.967639
96867372209398, 7.847262, 0.18185452, 6.472585, -0.1395073, -0.07713747, 10.172587
96867381848252, 7.8352976, 0.1902294, 6.2213387, -0.099919915, 0.10450554, 10.0056095
96867391487002, 7.739585, -0.33738798, 6.2524457, 0.38872993, -0.11696482, 9.947025
96867401125856, 7.90469, 0.567099, 6.363712, -0.47415543, 0.13655567, 10.151802
96867410764606, 7.670193, -0.62093747, 6.196214, 0.6636281, -0.20021582, 9.855455
96867420403356, 7.945368, 0.7501499, 6.478567, -0.6665251, 0.1217742, 10.256916
96867430042211, 7.692925, -0.59700924, 6.111269, 0.6622342, -0.09713316, 9.82024
96867439680961, 7.9130645, 0.63888365, 6.512067, -0.5866977, 0.05167055, 10.251091
96867449319711, 7.753942, -0.26679972, 6.172286, 0.3369789, -0.029978275, 9.908455
96867458958565, 7.84128, 0.2536392, 6.4606214, -0.20888567, -0.052114964, 10.16087
96867468597315, 7.8221374, 0.18544376, 6.204589, -0.09936178, 0.10726023, 9.984777
96867478236169, 7.737192, -0.25004998, 6.2488565, 0.30119896, -0.10030985, 9.943545
96867487874919, 7.8987074, 0.567099, 6.32423, -0.47489578, 0.17343283, 10.121831
96867497513669, 7.6737823, -0.6017949, 6.198607, 0.6431724, -0.19200897, 9.8600855
96867507152523, 7.914261, 0.7465607, 6.465407, -0.66875726, 0.11350155, 10.224199
96867516791273, 7.6809607, -0.62811595, 6.094519, 0.67918575, -0.11614752, 9.8010235
96867526430023, 7.9298143, 0.6436693, 6.495317, -0.5737292, 0.07662058, 10.254286
96867536068877, 7.757531, -0.35653058, 6.151947, 0.42749, -0.03240347, 9.897931
96867545707627, 7.853244, 0.2632105, 6.4677997, -0.21749151, -0.052474022, 10.1747265
96867555346481, 7.8149586, 0.10049855, 6.198607, -0.01543951, 0.08670235, 9.974901
96867564985231, 7.77787, -0.19740787, 6.285945, 0.2474904, -0.08219051, 9.998965
96867574623981, 7.91785, 0.552742, 6.3541408, -0.4666649, 0.16286755, 10.155229
96867584262836, 7.7096744, -0.573081, 6.227321, 0.60907185, -0.19469452, 9.90647
96867593901586, 7.9477606, 0.7680961, 6.4606214, -0.6810131, 0.16630077, 10.247198
96867603540336, 7.6893353, -0.62093747, 6.0801625, 0.6725838, -0.109677315, 9.798746
96867613179190, 7.925029, 0.6580262, 6.448657, -0.5859188, 0.14061785, 10.220626
96867622817940, 7.698907, -0.4019942, 6.088537, 0.47126174, -0.060625553, 9.812201
96867632456690, 7.8352976, 0.29671, 6.431907, -0.24747849, -0.021688461, 10.138424
96867642095544, 7.7850485, 0.058624156, 6.1675005, 0.024327159, 0.07360554, 9.931892
96867651734294, 7.7754774, -0.1794617, 6.259624, 0.23238921, -0.072601795, 9.980676
96867661373148, 7.8987074, 0.5132605, 6.317052, -0.4183041, 0.1649375, 10.117114
96867671011898, 7.688139, -0.5192425, 6.265606, 0.54256034, -0.23026037, 9.914007
96867680650648, 7.9238324, 0.73818576, 6.512067, -0.666432, 0.116294384, 10.260673
96867690289502, 7.713264, -0.6305088, 6.1507506, 0.66629004, -0.1760416, 9.861479
96867699928252, 7.960921, 0.71665037, 6.518049, -0.64032084, 0.113903046, 10.293291
96867709567002, 7.743174, -0.40438703, 6.1794643, 0.4535904, -0.09773922, 9.9040785
96867719205856, 7.884351, 0.37088752, 6.5144596, -0.32442927, -0.03079462, 10.229005
96867728844606, 7.813762, 0.03708875, 6.1998034, 0.045296907, 0.0630846, 9.974357
96867738483356, 7.771888, -0.1052842, 6.3134627, 0.15254438, -0.0919075, 10.012064
96867748122211, 7.873583, 0.44865423, 6.273981, -0.34983504, 0.16643524, 10.070121
96867757760961, 7.704889, -0.5419743, 6.2141604, 0.58492136, -0.18157816, 9.89443
96867767399711, 7.920243, 0.70588267, 6.4606214, -0.62576926, 0.11586666, 10.225614
96867777038565, 7.6666036, -0.6759724, 6.1304116, 0.72398865, -0.17689085, 9.811232
96867786677315, 7.940582, 0.70588267, 6.4869423, -0.63033015, 0.10074854, 10.257879
96867796316169, 7.7347994, -0.4438686, 6.108876, 0.5153854, -0.04792452, 9.852643
96867805954919, 7.895118, 0.44147578, 6.485746, -0.38681376, 0.009451866, 10.219736
96867815593669, 7.8173513, 0.013160525, 6.1495543, 0.07949376, 0.09250641, 9.945518
96867825232523, 7.8077803, -0.04546363, 6.265606, 0.10921788, -0.017838001, 10.010448
96867834871273, 7.8628154, 0.4223332, 6.2009997, -0.32017386, 0.18996382, 10.015787
96867844510023, 7.676175, -0.4941179, 6.155536, 0.5423802, -0.1488533, 9.835756
96867854148877, 7.874779, 0.71425754, 6.393622, -0.63990545, 0.14367723, 10.147443
96867863787627, 7.6510506, -0.6831509, 6.0957155, 0.7337314, -0.16907215, 9.777324
96867873426377, 7.911868, 0.7046863, 6.448657, -0.6263635, 0.11430216, 10.211466
96867883065231, 7.7001033, -0.485743, 6.099305, 0.5393839, -0.088709354, 9.819891
96867892703981, 7.8891363, 0.44626144, 6.5108705, -0.39830637, -0.01046133, 10.230849
96867902342836, 7.806584, -0.0634098, 6.2117677, 0.13735056, 0.018586636, 9.975651
96867911981586, 7.8424764, 0.0011964113, 6.3589263, 0.047470212, -0.051143646, 10.096311
96867921620336, 7.9070826, 0.41754755, 6.2679987, -0.31891298, 0.17554998, 10.092155
96867931259190, 7.751549, -0.45224348, 6.2715883, 0.48833287, -0.1711092, 9.967753
96867940897940, 7.9357963, 0.6759724, 6.474978, -0.6021405, 0.114785194, 10.2461405
96867950536690, 7.7108707, -0.66759753, 6.1770716, 0.69493365, -0.1978035, 9.876101
96867960175544, 7.954939, 0.721436, 6.495317, -0.6466482, 0.12111282, 10.274135
96867969814294, 7.7001033, -0.54675996, 6.1232333, 0.5910423, -0.112089634, 9.834766
96867979453044, 7.879565, 0.44985065, 6.503692, -0.40359962, -0.0038728714, 10.218855
96867989091898, 7.7647095, -0.12323037, 6.1830535, 0.18489814, 0.0045952797, 9.9248085
96867998730648, 7.8077803, 0.040677983, 6.361319, 0.003534913, -0.056016445, 10.071064
96868008369502, 7.8759756, 0.31106696, 6.2213387, -0.21668732, 0.16654539, 10.037835
96868018008252, 7.749156, -0.43070808, 6.212964, 0.477548, -0.117835045, 9.929445
96868027647002, 7.9154572, 0.6867401, 6.4055862, -0.6153942, 0.15123701, 10.18607
96868037285856, 7.648658, -0.59700924, 6.1399827, 0.6403029, -0.1579895, 9.804225
96868046924606, 7.9034934, 0.7956135, 6.4594245, -0.71835124, 0.15126085, 10.211927
96868056563356, 7.6594253, -0.53240305, 6.0981083, 0.58885205, -0.11264658, 9.786611
96868066202211, 7.8927255, 0.55752766, 6.4881387, -0.49716204, 0.051956177, 10.220179
96868075840961, 7.757531, -0.14596218, 6.2117677, 0.21316242, -0.021398544, 9.936839
96868085479711, 7.834101, 0.059820566, 6.4366927, -0.019327879, -0.08394718, 10.139049
96868095118565, 7.8664045, 0.2536392, 6.2715883, -0.16352892, 0.11761618, 10.061655
96868104757315, 7.751549, -0.4319045, 6.29432, 0.46919072, -0.15821028, 9.982303
96868114396169, 7.9369926, 0.60658056, 6.45105, -0.5326154, 0.12660456, 10.231331
96868124034919, 7.708478, -0.65682983, 6.218946, 0.68778825, -0.19514275, 9.900314
96868133673669, 7.9597244, 0.7680961, 6.4965134, -0.69877714, 0.14131689, 10.278309
96868143312523, 7.6941214, -0.53599226, 6.113662, 0.5889877, -0.08978033, 9.823884
96868152951273, 7.873583, 0.59342, 6.5168524, -0.5383491, 0.02760458, 10.223711
96868162590023, 7.7419777, -0.18664017, 6.186643, 0.24725759, -0.023552418, 9.90888
96868172228877, 7.8173513, 0.1591227, 6.424729, -0.11656451, -0.05850792, 10.119113
96868181867627, 7.8460655, 0.28713873, 6.2404814, -0.19139898, 0.13827944, 10.026517
96868191506377, 7.7611203, -0.36729828, 6.2691956, 0.41084778, -0.12958145, 9.974323
96868201145231, 7.9226356, 0.6089734, 6.3972116, -0.5168097, 0.15337324, 10.186889
96868210783981, 7.7096744, -0.6269195, 6.1854467, 0.6763052, -0.1717577, 9.879523
96868220422836, 7.9154572, 0.74895346, 6.4606214, -0.6629576, 0.14526415, 10.22225
96868230061586, 7.664211, -0.6125626, 6.076573, 0.677667, -0.11461401, 9.775875
96868239700336, 7.8699937, 0.5814559, 6.4773707, -0.527464, 0.049540997, 10.195614
96868249339190, 7.7096744, -0.25722843, 6.174679, 0.32175398, -0.056005955, 9.875486
96868258977940, 7.806584, 0.18903299, 6.4414787, -0.1496762, -0.07323933, 10.12143
96868268616794, 7.8376904, 0.22013968, 6.227321, -0.13139045, 0.11476183, 10.011341
96868278255544, 7.786245, -0.30029923, 6.276374, 0.35297108, -0.0906024, 9.998793
96868287894294, 7.9680996, 0.6269195, 6.4295144, -0.53467685, 0.16095209, 10.242584
96868297533148, 7.7180495, -0.58504516, 6.2644095, 0.6248696, -0.19636202, 9.936014
96868307171898, 7.9429746, 0.782453, 6.489335, -0.70061314, 0.13248825, 10.261878
96868316810648, 7.6666036, -0.61016977, 6.088537, 0.6635145, -0.11346197, 9.786024
96868326449502, 7.8687973, 0.634098, 6.468996, -0.57385904, 0.06927633, 10.18989
96868336088252, 7.698907, -0.30987054, 6.1507506, 0.37074244, -0.052124977, 9.851941
96868345727106, 7.834101, 0.21774685, 6.442675, -0.16988587, -0.04283142, 10.143861
96868355365856, 7.853244, 0.17108682, 6.2237315, -0.07334256, 0.119300365, 10.020874
96868365004606, 7.798209, -0.25124636, 6.3134627, 0.3032441, -0.10074806, 10.031596
96868374643461, 7.9357963, 0.567099, 6.3996043, -0.47870696, 0.14938354, 10.198133
96868384282211, 7.7036924, -0.59581286, 6.242874, 0.63446474, -0.21199226, 9.910998
96868393921065, 7.925029, 0.7645068, 6.513263, -0.6976038, 0.108949184, 10.262293
96868403559815, 7.6570325, -0.62093747, 6.1292152, 0.67827463, -0.15315104, 9.803035
96868413198565, 7.9070826, 0.6580262, 6.4941206, -0.5808231, 0.09055805, 10.236357
96868422837419, 7.732406, -0.33379877, 6.157929, 0.40764916, -0.05099964, 9.881946
96868432476169, 7.8628154, 0.2943172, 6.4845495, -0.24819064, -0.037177563, 10.192982
96868442114919, 7.82453, 0.13758731, 6.216553, -0.04821086, 0.0958004, 9.993811
96868451753773, 7.773084, -0.2321038, 6.2644095, 0.29036772, -0.0745101, 9.981367
96868461392523, 7.9011, 0.526421, 6.3158555, -0.42829335, 0.16505098, 10.11849
96868471031377, 7.6869426, -0.5515456, 6.222535, 0.5892893, -0.17358208, 9.886145
96868480670127, 7.9022965, 0.73818576, 6.4761744, -0.6626521, 0.097643375, 10.221712
96868490308877, 7.678568, -0.66161543, 6.111269, 0.7148105, -0.113547325, 9.809275
96868499947731, 7.90469, 0.6759724, 6.483353, -0.6034976, 0.07923174, 10.227631
96868509586481, 7.716853, -0.3589234, 6.151947, 0.4261651, -0.054930687, 9.866127
96868519225336, 7.861619, 0.34456646, 6.4965134, -0.30483735, -0.028922081, 10.199741
96868528864086, 7.8149586, 0.09571291, 6.2524457, -0.017658114, 0.052495003, 10.008635
96868538502836, 7.797013, -0.14476576, 6.344569, 0.19087684, -0.09774113, 10.050966
96868548141690, 7.91785, 0.49052864, 6.3290157, -0.3898468, 0.17314959, 10.1394
96868557780440, 7.7204423, -0.5706882, 6.2261243, 0.61161435, -0.19194937, 9.91386
96868567419294, 7.9154572, 0.72382885, 6.4534426, -0.63425475, 0.15597296, 10.217569
96868577058044, 7.6546397, -0.6580262, 6.0921264, 0.70282125, -0.15706348, 9.778645
96868586696794, 7.88794, 0.67836523, 6.4666033, -0.6121364, 0.11985016, 10.203316
96868596335648, 7.690532, -0.42592242, 6.1232333, 0.48914433, -0.0830183, 9.827184
96868605974398, 7.8604226, 0.38644084, 6.518049, -0.34291255, -0.03209877, 10.2128315
96868615613252, 7.820941, 0.05503492, 6.2548385, 0.017419577, 0.045110703, 10.01453
96868625252002, 7.8089767, -0.08973085, 6.373283, 0.12868679, -0.09306288, 10.078775
96868634890856, 7.908279, 0.49052864, 6.3278193, -0.39723003, 0.17594671, 10.130846
96868644529606, 7.713264, -0.48933223, 6.263213, 0.5172577, -0.17960739, 9.93287
96868654168356, 7.9298143, 0.74895346, 6.4869423, -0.67612684, 0.14780426, 10.249113
96868663807211, 7.685746, -0.6448657, 6.1363935, 0.7022704, -0.14373541, 9.829956
96868673445961, 7.925029, 0.701097, 6.465407, -0.6268908, 0.1382451, 10.2316675
96868683084815, 7.7312098, -0.46899325, 6.122037, 0.5442761, -0.05512142, 9.857567
96868692723565, 7.8628154, 0.39601216, 6.495317, -0.35068464, -0.01492691, 10.200325
96868702362419, 7.77787, -0.02871387, 6.2261243, 0.09908867, 0.019997597, 9.962454
96868712001169, 7.795816, -0.06819545, 6.352944, 0.11614668, -0.07843399, 10.055825
96868721639919, 7.8759756, 0.42711884, 6.290731, -0.3307066, 0.16242123, 10.082211
96868731278773, 7.7156568, -0.47018966, 6.259624, 0.5062798, -0.16602945, 9.9323435
96868740917523, 7.954939, 0.715454, 6.474978, -0.62623143, 0.15313625, 10.261707
96868750556377, 7.6809607, -0.6628119, 6.1435723, 0.7164099, -0.16855621, 9.830477
96868760195127, 7.9298143, 0.7046863, 6.468996, -0.61596596, 0.1415534, 10.238504
96868769833981, 7.6809607, -0.4953143, 6.1160545, 0.559688, -0.104558945, 9.814502
96868779472731, 7.850851, 0.46061835, 6.5048885, -0.40767097, -0.00470829, 10.197813
96868789111481, 7.769495, -0.05503492, 6.1998034, 0.1294446, 0.023013115, 9.939234
96868798750336, 7.7886376, 0.016749758, 6.3720865, 0.030071259, -0.07084274, 10.0628395
96868808389086, 7.8699937, 0.40917268, 6.3014984, -0.31052375, 0.15206432, 10.084323
96868818027940, 7.739585, -0.45822555, 6.276374, 0.49855626, -0.17847252, 9.961104
96868827666690, 7.9393854, 0.71306115, 6.478567, -0.623723, 0.15032148, 10.251951
96868837305544, 7.682157, -0.66161543, 6.195018, 0.7020776, -0.21587658, 9.863671
96868846944294, 7.9346, 0.70947194, 6.491728, -0.63235825, 0.1467967, 10.255843
96868856583044, 7.6797643, -0.5383851, 6.088537, 0.5995147, -0.08810711, 9.796517
96868866221898, 7.853244, 0.47258246, 6.4977098, -0.41547596, 0.007311344, 10.19531
96868875860648, 7.7383885, -0.12323037, 6.1938214, 0.19011164, -0.0069565773, 9.910855
96868885499502, 7.7790666, 0.03589234, 6.363712, 0.008888245, -0.061539173, 10.05028
96868895138252, 7.8496547, 0.34337005, 6.2691956, -0.24776351, 0.14361715, 10.047675
96868904777106, 7.728817, -0.40677986, 6.282356, 0.44665372, -0.15941906, 9.957067
96868914415856, 7.9298143, 0.6855437, 6.4869423, -0.6068729, 0.12286663, 10.249338
96868924054711, 7.692925, -0.634098, 6.216553, 0.6658323, -0.18972254, 9.886829
96868933693461, 7.9429746, 0.76570326, 6.5072813, -0.69329464, 0.14551449, 10.272295
96868943332211, 7.6797643, -0.5347959, 6.1268225, 0.59843767, -0.1067009, 9.820043
96868952971065, 7.8592257, 0.54317075, 6.524031, -0.4968655, 0.023741245, 10.216555
96868962609815, 7.7443705, -0.16630118, 6.1878395, 0.23499596, -0.003563404, 9.91146
96868972248669, 7.8017983, 0.083748795, 6.4008007, -0.03591621, -0.058547974, 10.091611
96868981887419, 7.8424764, 0.2955136, 6.2416778, -0.19676244, 0.14552546, 10.02449
96868991526273, 7.743174, -0.40677986, 6.2524457, 0.45367968, -0.12645292, 9.949547
96869001165023, 7.9154572, 0.63529444, 6.4534426, -0.5519329, 0.12747431, 10.216854
96869010803877, 7.682157, -0.6412765, 6.2309103, 0.67234945, -0.22675467, 9.886736
96869020442627, 7.928618, 0.7573284, 6.5108705, -0.6885888, 0.13803291, 10.263272
96869030081481, 7.708478, -0.5587241, 6.134001, 0.62392914, -0.1015625, 9.846785
96869039720231, 7.9011, 0.5922236, 6.532406, -0.53876966, 0.057767868, 10.254601
96869049359086, 7.751549, -0.17467605, 6.209375, 0.24757576, -0.018176079, 9.930345
96869058997836, 7.818548, 0.16151553, 6.439086, -0.11488533, -0.05075407, 10.129257
96869068636690, 7.836494, 0.25244278, 6.245267, -0.15613186, 0.13064432, 10.021791
96869078275440, 7.7443705, -0.34576288, 6.2811594, 0.39219904, -0.12726021, 9.968841
96869087914294, 7.9106717, 0.6257231, 6.4331036, -0.54437095, 0.13481951, 10.200027
96869097553044, 7.6678, -0.6257231, 6.222535, 0.6608889, -0.19439268, 9.870769
96869107191898, 7.91785, 0.7262217, 6.5001025, -0.6546924, 0.121319294, 10.248304
96869116830648, 7.6833534, -0.6161518, 6.114858, 0.67435694, -0.105650425, 9.81525
96869126469502, 7.9034934, 0.5886344, 6.5204415, -0.5181501, 0.05748272, 10.249687
96869136108252, 7.735996, -0.2620141, 6.202196, 0.32487166, -0.042630672, 9.913333
96869145747002, 7.834101, 0.18783657, 6.474978, -0.13854945, -0.059919357, 10.164201
96869155385856, 7.8460655, 0.22971097, 6.239285, -0.13025069, 0.13697624, 10.0252905
96869165024606, 7.7587276, -0.2632105, 6.289534, 0.32138443, -0.08884239, 9.985699
96869174663461, 7.880761, 0.6149554, 6.4031935, -0.53313786, 0.13436508, 10.157913
96869184302211, 7.6606216, -0.5778667, 6.2213387, 0.6239009, -0.18585253, 9.864091
96869193941065, 7.911868, 0.76570326, 6.4761744, -0.6885654, 0.14190578, 10.228907
96869203579815, 7.664211, -0.6041877, 6.0861444, 0.66746473, -0.08575249, 9.782304
96869213218669, 7.874779, 0.6233303, 6.5108705, -0.55374956, 0.04872465, 10.221699
96869222857419, 7.7276206, -0.31345975, 6.195018, 0.3754325, -0.059062004, 9.901928
96869232496273, 7.8352976, 0.20697916, 6.485746, -0.16220498, -0.058778286, 10.172012
96869242135127, 7.8197446, 0.15433706, 6.256035, -0.06424391, 0.08946848, 10.014892
96869251773877, 7.7443705, -0.23808585, 6.343373, 0.2785355, -0.13615942, 10.008708
96869261412627, 7.885547, 0.6029913, 6.445068, -0.51671875, 0.12750721, 10.188284
96869271051481, 7.692925, -0.54436713, 6.296713, 0.57982004, -0.22009897, 9.93687
96869280690336, 7.9513497, 0.7692925, 6.5288167, -0.68512577, 0.16529417, 10.292935
96869290329086, 7.6953177, -0.60658056, 6.1292152, 0.66595197, -0.12044716, 9.833369
96869299967836, 7.9166536, 0.65084773, 6.491728, -0.56266516, 0.113481045, 10.242561
96869309606690, 7.7276206, -0.33379877, 6.1363935, 0.41329098, -0.010359764, 9.864681
96869319245544, 7.8089767, 0.27517462, 6.4402823, -0.21827638, -0.014043331, 10.1235
96869328884294, 7.7682986, 0.08973085, 6.1914287, 0.005064249, 0.094070435, 9.933753
96869338523148, 7.726424, -0.19501504, 6.276374, 0.25699067, -0.06872225, 9.952778
96869348161898, 7.8699937, 0.52163535, 6.3493547, -0.42395985, 0.15231323, 10.115349
96869357800752, 7.6606216, -0.58624154, 6.289534, 0.62334955, -0.2184434, 9.907107
96869367439502, 7.9154572, 0.73818576, 6.541977, -0.6618871, 0.092208385, 10.273766
96869377078356, 7.743174, -0.32303107, 6.2787666, 0.37218451, -0.09628439, 9.966756
96869386717106, 7.8293157, 0.15553348, 6.4067826, -0.09325147, -5.788803E-4, 10.117338
96869396355961, 7.8317084, 0.08733802, 6.40439, -0.02698803, -0.016448975, 10.117237
96869405994711, 7.8376904, 0.12323037, 6.407979, -0.05854535, -0.004682541, 10.1243925
96869415633565, 7.8281193, 0.104087785, 6.3720865, -0.03414774, 0.010676384, 10.094181
96869425272315, 7.82453, 0.09212367, 6.3326054, -0.012312055, 0.03336191, 10.0664
96869434911169, 7.8077803, 0.0741775, 6.3385873, 8.097887E-4, 0.012415409, 10.057061
96869444549919, 7.7754774, 0.03708875, 6.323034, 0.03425622, -0.005311966, 10.021924
96869454188773, 7.7886376, 0.05742774, 6.3122663, 0.018600464, 0.015564442, 10.025483
96869463827627, 7.7754774, 0.061016977, 6.3290157, 0.00922358, -0.0045952797, 10.025871
96869473466377, 7.776674, 0.04426722, 6.323034, 0.026449084, -0.0036211014, 10.022907
96869483105231, 7.7814593, 0.03708875, 6.317052, 0.034843683, 0.002169609, 10.022795
96869492743981, 7.786245, 0.05742774, 6.3314085, 0.0131748915, -3.3187866E-4, 10.035709
96869502382836, 7.780263, 0.069391854, 6.352944, -0.0044053793, -0.016891003, 10.0447445
96869512021586, 7.7754774, 0.08853444, 6.3601227, -0.025175452, -0.01854086, 10.0457
96869521660440, 7.7814593, 0.09212367, 6.334998, -0.021107912, 0.0057845116, 10.034506
96869531299190, 7.7946196, 0.11246266, 6.3421764, -0.039936066, 0.01360178, 10.049386
96869540938044, 7.8017983, 0.09212367, 6.3481584, -0.017747879, 0.008345604, 10.058592
96869550576898, 7.795816, 0.07178468, 6.343373, 0.0029178858, 0.0037317276, 10.050783
96869560215648, 7.792227, 0.0634098, 6.334998, 0.012078643, 0.0055594444, 10.042652
96869569854502, 7.8149586, 0.06580263, 6.3457656, 0.012129545, 0.013273716, 10.067091
96869579493252, 7.77787, 0.041874398, 6.350551, 0.027688265, -0.018982887, 10.041185
96869589132106, 7.7742805, 0.05383851, 6.3720865, 0.010773063, -0.033258915, 10.052094
96869598770856, 7.7946196, 0.06819545, 6.361319, 0.002282977, -0.009148121, 10.061165
96869608409711, 7.786245, 0.061016977, 6.350551, 0.009365916, -0.0066666603, 10.04782
96869618048461, 7.7790666, 0.086141616, 6.3768725, -0.02151084, -0.024020672, 10.059065
96869627687315, 7.7814593, 0.09092726, 6.384051, -0.02706945, -0.025833607, 10.065489
96869637326169, 7.806584, 0.10887343, 6.35773, -0.035383105, 0.013765812, 10.06846
96869646964919, 7.798209, 0.09092726, 6.352944, -0.017766833, 0.00858736, 10.05882
96869656603773, 7.798209, 0.078963146, 6.3565335, -0.005954623, 0.0025892258, 10.061003
96869666242523, 7.7946196, 0.08015956, 6.3457656, -0.005145192, 0.008504391, 10.051426
96869675881377, 7.792227, 0.062213387, 6.3493547, 0.011429071, 1.01566315E-4, 10.051708
96869685520231, 7.7814593, 0.07178468, 6.3601227, -0.0018504858, -0.011140823, 10.05024
96869695158981, 7.780263, 0.0741775, 6.3541408, -0.0031604767, -0.005355835, 10.045549
96869704797836, 7.7742805, 0.08255238, 6.3421764, -0.0099567175, 0.0020985603, 10.033412
96869714436586, 7.7706914, 0.086141616, 6.343373, -0.013236046, 0.0026831627, 10.031413
96869724075440, 7.7790666, 0.058624156, 6.3361945, 0.016144156, 0.0061888695, 10.033164
96869733714294, 7.798209, 0.062213387, 6.3361945, 0.016511202, 0.020424843, 10.048016
96869743353044, 7.7814593, 0.07776674, 6.350551, -0.0040392876, 0.0033717155, 10.044233
96869752991898, 7.789834, 0.05623133, 6.381658, 0.011653066, -0.020974636, 10.070237
96869762630648, 7.804191, 0.06580263, 6.3792653, 0.0048333406, -0.0072951317, 10.079914
96869772269502, 7.7910304, 0.07776674, 6.367301, -0.0066057444, -0.0033273697, 10.06224
96869781908356, 7.797013, 0.076570325, 6.375676, -0.006693125, -0.0059523582, 10.072162
96869791547106, 7.8029947, 0.08853444, 6.384051, -0.019502878, -0.005507946, 10.082174
96869801185961, 7.8077803, 0.076570325, 6.3828545, -0.0076390505, -0.004786968, 10.08504
96869810824711, 7.798209, 0.08973085, 6.3924255, -0.024229765, -0.015440464, 10.083769
96869820463565, 7.8029947, 0.08255238, 6.3744793, -0.014284492, -0.0030150414, 10.076077
96869830102419, 7.792227, 0.08973085, 6.3541408, -0.019692302, 0.0057024956, 10.054927
96869839741169, 7.7850485, 0.07058827, 6.3338017, 0.0012565851, 0.010785103, 10.036378
96869849380023, 7.7814593, 0.0741775, 6.3314085, -0.0023026466, 0.011229038, 10.032108
96869859018773, 7.77787, 0.07058827, 6.3134627, 0.0031186342, 0.020298958, 10.017966
96869868657627, 7.783852, 0.08973085, 6.3158555, -0.015360355, 0.026021004, 10.024247
96869878296481, 7.77787, 0.07776674, 6.323034, -0.005657077, 0.013463974, 10.024065
96869887935231, 7.769495, 0.08973085, 6.323034, -0.018493414, 0.011231422, 10.017654
96869897574086, 7.7706914, 0.07298109, 6.323034, -0.0017162561, 0.0075063705, 10.018467
96869907212836, 7.773084, 0.07178468, 6.3421764, -0.0024716854, -0.005400181, 10.032406
96869916851690, 7.7874413, 0.047856454, 6.3457656, 0.022604227, -0.004855633, 10.045633
96869926490544, 7.8089767, 0.061016977, 6.3541408, 0.011171579, 0.0050377846, 10.06771
96869936129294, 7.7874413, 0.06580263, 6.3996043, -0.0068826675, -0.04172373, 10.079768
96869945768148, 7.8400836, 0.08015956, 6.4163537, -0.015131712, -0.018513203, 10.131258
96869955407002, 7.8520474, 0.08135597, 6.4008007, -0.011970401, 9.160042E-4, 10.130716
96869965045752, 7.8352976, 0.106480606, 6.40439, -0.0412724, -0.0060663223, 10.120163
96869974684606, 7.830512, 0.106480606, 6.37089, -0.035811305, 0.014307976, 10.095297
96869984323356, 7.816155, 0.08255238, 6.350551, -0.011295319, 0.012767315, 10.071161
96869993962211, 7.793423, 0.069391854, 6.309873, 0.0049088, 0.023953438, 10.02777
96870003601065, 7.759924, 0.062213387, 6.2787666, 0.012316585, 0.022467136, 9.982112
96870013239815, 7.7347994, 0.05742774, 6.2404814, 0.019829512, 0.034923553, 9.938432
96870022878669, 7.7204423, 0.046660043, 6.222535, 0.030974746, 0.034849644, 9.915904
96870032517523, 7.728817, 0.05623133, 6.2309103, 0.021016479, 0.03447342, 9.927758
96870042156273, 7.7443705, 0.06819545, 6.276374, 0.0032669306, 0.011998177, 9.968582
96870051795127, 7.7682986, 0.076570325, 6.3182483, -0.008923173, -0.002357006, 10.013617
96870061433877, 7.797013, 0.08973085, 6.381658, -0.028899312, -0.02625513, 10.075987
96870071072731, 7.8221374, 0.09810573, 6.428318, -0.041213036, -0.04251814, 10.12498
96870080711586, 7.8556366, 0.10887343, 6.454639, -0.05090499, -0.03968191, 10.167648
96870090350336, 7.879565, 0.111266255, 6.4414787, -0.04505086, -0.012575626, 10.177937
96870099989190, 7.8783684, 0.09571291, 6.4163537, -0.025633574, 0.0023870468, 10.161042
96870109628044, 7.8484583, 0.08135597, 6.401997, -0.012370825, -0.008876801, 10.128683
96870119266794, 7.8281193, 0.043070808, 6.364908, 0.030210137, -0.005818367, 10.089222
96870128905648, 7.7706914, 0.032303106, 6.3314085, 0.037114978, -0.020161152, 10.023453
96870138544502, 7.7611203, 0.040677983, 6.290731, 0.033928037, 0.005448818, 9.990435
96870148183252, 7.7443705, 0.034695927, 6.2751775, 0.03839612, 0.0043826103, 9.96759
96870157822106, 7.7671022, 0.046660043, 6.2811594, 0.029495716, 0.016563892, 9.989089
96870167460961, 7.7814593, 0.08853444, 6.2811594, -0.0105935335, 0.035141945, 10.000528
96870177099711, 7.8017983, 0.0849452, 6.290731, -0.007859111, 0.038520813, 10.022326
96870186738565, 7.8053875, 0.08853444, 6.3158555, -0.016962409, 0.021600246, 10.040976
96870196377419, 7.804191, 0.106480606, 6.3218374, -0.035698175, 0.020738602, 10.043937
96870206016169, 7.812566, 0.1160519, 6.3338017, -0.04482782, 0.019387722, 10.058048
96870215655023, 7.8029947, 0.12083755, 6.3326054, -0.04899931, 0.015974522, 10.049904
96870225293773, 7.8029947, 0.09212367, 6.3290157, -0.020576477, 0.01139164, 10.047443
96870234932627, 7.789834, 0.06580263, 6.317052, 0.007041812, 0.005964756, 10.029502
96870244571481, 7.8149586, 0.039481573, 6.3182483, 0.0389421, 0.0144581795, 10.049561
96870254210231, 7.806584, 0.02871387, 6.337391, 0.04404843, -0.0075569153, 10.055052
96870263849086, 7.8113694, 0.046660043, 6.344569, 0.026109219, -0.0053915977, 10.063423
96870273487940, 7.8221374, 0.039481573, 6.361319, 0.030522585, -0.01284647, 10.082296
96870283126690, 7.7994056, 0.06460621, 6.3661046, -0.0013448, -0.023589611, 10.067852
96870292765544, 7.813762, 0.059820566, 6.3481584, 0.00924933, -0.0026474, 10.067645
96870302404398, 7.793423, 0.08135597, 6.355337, -0.01866448, -0.0151081085, 10.05653
96870312043148, 7.792227, 0.0849452, 6.3385873, -0.018979311, -0.0023670197, 10.045066
96870321682002, 7.7946196, 0.096909314, 6.3314085, -0.028935552, 0.00674057, 10.042477
96870331320856, 7.7874413, 0.0741775, 6.3086767, -0.0037935972, 0.013757229, 10.022422
96870340959606, 7.798209, 0.0634098, 6.3110695, 0.008105993, 0.015011787, 10.032219
96870350598461, 7.800602, 0.08135597, 6.3014984, -0.007091999, 0.028109074, 10.028163
