timestamp_acc,device_acc_x,device_acc_y,device_acc_z,earth_acc_x,earth_acc_y,earth_acc_z
187055428283275, 0.18903299, 7.5673018, 6.431907, -0.017336845, -0.022471428, 9.933198
187055437922650, 0.23449662, 7.5409803, 6.3481584, 0.040195823, 0.010652065, 9.859959
187055447562129, 0.22013968, 7.536195, 6.257231, 0.044176817, 0.073978424, 9.7973585
187055457201504, 0.19262223, 7.5266237, 6.2033925, 0.027543545, 0.11462641, 9.754761
187055466840983, 0.18903299, 7.4919276, 6.2009997, 0.017441273, 0.09136677, 9.726688
187055476480358, 0.20219351, 7.479964, 6.222535, 0.023778796, 0.06463003, 9.731698
187055486119837, 0.19501504, 7.509874, 6.256035, 0.013219357, 0.06093359, 9.776007
187055495759316, 0.18903299, 7.542177, 6.330212, -0.0033968687, 0.028158665, 9.8484
187055505398691, 0.19740787, 7.548159, 6.418747, -0.0125027895, -0.031751156, 9.910237
187055515038171, 0.20697916, 7.5625157, 6.4761744, -0.012074709, -0.06755209, 9.958443
187055524677546, 0.19501504, 7.5756764, 6.501299, -0.025212407, -0.07082319, 9.984497
187055534317025, 0.20219351, 7.578069, 6.4869423, -0.014221787, -0.059272766, 9.977209
187055543956400, 0.18544376, 7.594819, 6.4677997, -0.023922086, -0.030334473, 9.977305
187055553595879, 0.1794617, 7.580462, 6.418747, -0.021807313, -0.002278328, 9.934559
187055563235254, 0.18903299, 7.5696945, 6.40439, -0.01125896, -0.0014705658, 9.917263
187055572874733, 0.18424734, 7.5457664, 6.3996043, -0.017983437, -0.012169361, 9.895809
187055582514108, 0.16271193, 7.539784, 6.4127645, -0.04271996, -0.021893024, 9.899296
187055592153587, 0.20458634, 7.5026956, 6.391229, -0.0036281347, -0.038774967, 9.857922
187055601793066, 0.22372891, 7.5122666, 6.3361945, 0.025902271, 0.0032291412, 9.830101
187055611432441, 0.19621146, 7.5409803, 6.3110695, 0.006334424, 0.045196533, 9.835263
187055621071921, 0.21655045, 7.5469627, 6.283552, 0.030614614, 0.061603546, 9.822518
187055630711296, 0.21535404, 7.5433736, 6.2608204, 0.03371036, 0.07618952, 9.805092
187055640350775, 0.18664017, 7.5409803, 6.276374, 0.002522111, 0.066159725, 9.812731
187055649990150, 0.1698904, 7.537391, 6.300302, -0.01745534, 0.04905939, 9.825081
187055659629629, 0.16749759, 7.517052, 6.3086767, -0.023224235, 0.03025341, 9.814892
187055669269004, 0.18903299, 7.5230346, 6.3601227, -0.011017442, -0.009047031, 9.853058
187055678908483, 0.20817557, 7.5409803, 6.381658, 0.0059138536, -0.017129898, 9.88104
187055688547962, 0.23449662, 7.548159, 6.3996043, 0.029136062, -0.030670166, 9.898629
187055698187337, 0.2416751, 7.5792656, 6.410372, 0.03764367, -0.019536972, 9.929489
187055707826816, 0.23449662, 7.580462, 6.411568, 0.030200839, -0.017485619, 9.931032
187055717466191, 0.17467605, 7.5661054, 6.4091754, -0.029521704, -0.0115504265, 9.917309
187055727105671, 0.15553348, 7.554141, 6.390033, -0.046443343, -2.0456314E-4, 9.895434
187055736745046, 0.16390835, 7.5469627, 6.3589263, -0.03301716, 0.016156197, 9.87006
187055746384525, 0.19621146, 7.54457, 6.330212, 0.0045226812, 0.028146744, 9.850372
187055756024004, 0.18305093, 7.5349984, 6.3421764, -0.011946678, 0.015529156, 9.850509
187055765663379, 0.1902294, 7.5385876, 6.3290157, -0.0020364523, 0.025754452, 9.844912
187055775302858, 0.21415763, 7.533802, 6.302695, 0.025906086, 0.03679228, 9.824764
187055784942233, 0.21774685, 7.5254273, 6.330212, 0.02259183, 0.009654999, 9.83618
187055794581712, 0.24047868, 7.520642, 6.320641, 0.04599309, 0.008309364, 9.826812
187055804221087, 0.23688944, 7.536195, 6.290731, 0.04948771, 0.04148388, 9.819342
187055813860566, 0.23688944, 7.560123, 6.296713, 0.050839543, 0.052290916, 9.841486
187055823499941, 0.19740787, 7.585248, 6.3194447, 0.011198759, 0.059868813, 9.874544
187055833139421, 0.13758731, 7.585248, 6.3720865, -0.056429505, 0.033988953, 9.907274
187055842778900, 0.16869399, 7.5756764, 6.4414787, -0.036368012, -0.029623032, 9.945339
187055852418275, 0.18664017, 7.5720873, 6.437889, -0.016927004, -0.03270006, 9.940645
187055862057754, 0.16749759, 7.548159, 6.4402823, -0.037587643, -0.0461545, 9.923531
187055871697129, 0.17587246, 7.5385876, 6.4271216, -0.02809763, -0.044319153, 9.907895
187055881336608, 0.20219351, 7.560123, 6.428318, 2.3889542E-4, -0.037163734, 9.925633
187055890975983, 0.2620141, 7.560123, 6.430711, 0.05798328, -0.05202818, 9.928347
187055900615462, 0.2727818, 7.5673018, 6.45105, 0.063652396, -0.06510782, 9.947172
187055910254837, 0.2321038, 7.6067834, 6.489335, 0.015023351, -0.059620857, 10.001236
187055919894316, 0.23688944, 7.5792656, 6.478567, 0.018154144, -0.07008076, 9.973364
187055929533796, 0.22013968, 7.587641, 6.4127645, 0.009750128, -0.015084267, 9.937
187055939173171, 0.16749759, 7.554141, 6.337391, -0.03276968, 0.028561592, 9.861732
187055948812650, 0.11365908, 7.4943204, 6.2464633, -0.07499826, 0.06697273, 9.756329
187055958452025, 0.07537391, 7.48116, 6.1507506, -0.09598768, 0.13842201, 9.683842
187055968091504, 0.06460621, 7.4344997, 6.0550375, -0.09346175, 0.17805052, 9.586395
187055977730879, 0.1363909, 7.409375, 5.901897, 0.0045729876, 0.25527477, 9.470198
187055987370358, 0.18185452, 7.426125, 5.8707905, 0.06383157, 0.27199745, 9.464065
187055997009733, 0.22971097, 7.4943204, 6.01436, 0.09241986, 0.19786167, 9.609498
187056006649212, 0.29192436, 7.5792656, 6.222535, 0.1252675, 0.08328867, 9.809577
187056016288587, 0.36370903, 7.6402826, 6.4606214, 0.15727568, -0.06779194, 10.010819
187056025928066, 0.32303107, 7.664211, 6.660422, 0.08101714, -0.18453169, 10.157022
187056035567546, 0.24765715, 7.668997, 6.835098, -0.027172565, -0.27630377, 10.272116
187056045206921, 0.14955142, 7.668997, 6.8685975, -0.12770998, -0.27105618, 10.291925
187056054846400, 0.12203395, 7.6343007, 6.8051877, -0.14541733, -0.23620605, 10.224047
187056064485775, 0.1471586, 7.609176, 6.661618, -0.09639251, -0.15214777, 10.112664
187056074125254, 0.17347965, 7.5625157, 6.422336, -0.028346658, -0.012814522, 9.923062
187056083764629, 0.18185452, 7.493124, 6.2009997, 0.014260888, 0.09984827, 9.727394
187056093404108, 0.15194423, 7.4584284, 6.0430737, 0.009448528, 0.18824434, 9.598669
187056103043483, 0.13758731, 7.4679995, 6.0323057, -0.0017944574, 0.20565796, 9.598768
187056112682962, 0.15314065, 7.4823565, 6.1124654, -0.003173709, 0.147336, 9.661759
187056122322337, 0.2009971, 7.4847493, 6.233303, 0.01893115, 0.047145844, 9.742349
187056131961816, 0.19740787, 7.5086775, 6.37089, -0.008430004, -0.033703804, 9.8491745
187056141601296, 0.19262223, 7.55773, 6.4163537, -0.013560414, -0.03209114, 9.915886
187056151240671, 0.18903299, 7.5349984, 6.407979, -0.01827085, -0.039528847, 9.89304
187056160880150, 0.20578274, 7.54457, 6.3864436, 0.00543797, -0.019935608, 9.886814
187056170519525, 0.18305093, 7.52782, 6.2883377, 0.0010304451, 0.04614067, 9.810335
187056180159004, 0.1698904, 7.5326056, 6.2321067, 0.0047569275, 0.08878946, 9.77754
187056189798379, 0.15194423, 7.533802, 6.222535, -0.011080623, 0.10032511, 9.771952
187056199437858, 0.17587246, 7.5637126, 6.3086767, 0.0043087006, 0.048646927, 9.850771
187056209077233, 0.18544376, 7.5816584, 6.4438715, -0.00315094, -0.039925575, 9.951775
187056218716712, 0.18305093, 7.5900335, 6.5431733, -0.021065831, -0.108232975, 10.02213
187056228356087, 0.2117648, 7.5924263, 6.5539412, 0.005331993, -0.117275715, 10.031456
187056237995566, 0.24047868, 7.5924263, 6.509674, 0.0418396, -0.088409424, 10.003452
187056247634941, 0.2536392, 7.576873, 6.3960147, 0.07411325, -0.017192364, 9.918495
187056257274421, 0.27038896, 7.580462, 6.3290157, 0.103634596, 0.03027296, 9.878326
187056266913796, 0.2105684, 7.521838, 6.2404814, 0.052868962, 0.07092571, 9.775387
187056276553275, 0.15314065, 7.519445, 6.2691956, -0.011448622, 0.057545185, 9.791062
187056286192650, 0.14356937, 7.554141, 6.3110695, -0.024399161, 0.0507555, 9.844393
187056295832129, 0.14596218, 7.554141, 6.367301, -0.03224504, 0.00886631, 9.880674
187056305471504, 0.14476576, 7.503892, 6.454639, -0.05748117, -0.086327076, 9.898533
187056315110983, 0.19381863, 7.6067834, 6.352944, 0.02376628, 0.042764187, 9.912529
187056324750358, 0.21535404, 7.5673018, 6.3338017, 0.0438751, 0.027288914, 9.8704
187056334389837, 0.19621146, 7.5385876, 6.326623, 0.022684813, 0.019002914, 9.843479
187056344029316, 0.20697916, 7.554141, 6.3278193, 0.033298254, 0.024565697, 9.856343
187056353668691, 0.2009971, 7.5385876, 6.3314085, 0.020514011, 0.011678219, 9.846669
187056363308171, 0.18305093, 7.542177, 6.3601227, -0.0019015074, -0.0031576157, 9.8675785
187056372947546, 0.15672988, 7.5625157, 6.398408, -0.033595562, -0.012867928, 9.907298
187056382587025, 0.15314065, 7.5661054, 6.428318, -0.04289615, -0.031576633, 9.929241
187056392226400, 0.15074782, 7.5613194, 6.4259253, -0.04396546, -0.032050133, 9.924002
187056401865879, 0.16510476, 7.548159, 6.393622, -0.025881767, -0.019436836, 9.893396
187056411505254, 0.18065812, 7.5517483, 6.3314085, 0.0012714863, 0.024914265, 9.85635
187056421144733, 0.1902294, 7.55773, 6.263213, 0.02265513, 0.07296944, 9.817202
187056430784108, 0.19740787, 7.521838, 6.2009997, 0.03760302, 0.094493866, 9.749824
187056440423587, 0.22253251, 7.521838, 6.218946, 0.056037307, 0.07015896, 9.761907
187056450062962, 0.21655045, 7.5314093, 6.282356, 0.03991556, 0.03003645, 9.80992
187056459702441, 0.19142582, 7.5864444, 6.367301, 0.0038391352, 0.008337498, 9.906221
187056469341816, 0.148355, 7.672586, 6.4845495, -0.04856348, -0.013486862, 10.046762
187056478981296, 0.25004998, 7.5433736, 6.4558353, 0.03684461, -0.097975254, 9.931357
187056488620671, 0.086141616, 7.389036, 6.385247, -0.12813747, -0.102977276, 9.764714
187056498260150, 0.2536392, 7.9776707, 6.3696938, 0.12466586, 0.23606157, 10.208296
187056507899525, 0.083748795, 6.9894347, 6.1675005, -0.14177704, -0.19312, 9.318792
187056517538900, 0.21535404, 8.246863, 6.401997, 0.11827052, 0.38409662, 10.434616
187056527178379, 0.1268196, 6.792027, 6.1124654, -0.11622918, -0.29073, 9.133012
187056536817754, 0.20697916, 8.224132, 6.48096, 0.08869624, 0.30967045, 10.467963
187056546457233, 0.24646074, 7.01097, 6.2931237, -0.011391759, -0.31518602, 9.4190445
187056556096608, 0.16390835, 7.9298143, 6.629315, -0.027794838, 0.029201984, 10.33707
187056565736087, 0.29072794, 7.4548388, 6.4534426, 0.060585856, -0.16603279, 9.862801
187056575375462, 0.111266255, 7.475178, 6.4438715, -0.10839522, -0.10144901, 9.868745
187056585014941, 0.2656033, 7.9477606, 6.3589263, 0.12772608, 0.21840811, 10.178871
187056594654316, 0.07776674, 6.9655066, 6.155536, -0.15702474, -0.20867252, 9.292297
187056604293796, 0.22253251, 8.216953, 6.367301, 0.12915492, 0.38193703, 10.389793
187056613933171, 0.104087785, 6.7669024, 6.0729837, -0.1449027, -0.2761402, 9.0876665
187056623572650, 0.16031912, 8.218149, 6.4163537, 0.050289273, 0.3606205, 10.421167
187056633212025, 0.1902294, 6.923632, 6.13759, -0.051787972, -0.25662518, 9.25064
187056642851504, 0.16031912, 7.9657063, 6.4677997, 0.0038756132, 0.16326857, 10.260797
187056652490879, 0.31345975, 7.4153576, 6.3014984, 0.1057291, -0.09598541, 9.735209
187056662130358, 0.1794617, 7.5062847, 6.3397837, -0.019819021, -0.037009716, 9.826883
187056671769733, 0.3062813, 7.9154572, 6.282356, 0.17473304, 0.22921324, 10.106096
187056681409212, 0.09571291, 7.0432734, 6.122037, -0.12513673, -0.15025377, 9.330487
187056691048587, 0.2440679, 8.228917, 6.384051, 0.13546264, 0.3621192, 10.410634
187056700687962, 0.13280165, 6.806384, 6.1304116, -0.12452805, -0.31597757, 9.154841
187056710327441, 0.19381863, 8.276773, 6.4618177, 0.07490504, 0.35205126, 10.496099
187056719966816, 0.2117648, 6.9619174, 6.1998034, -0.038594723, -0.28672504, 9.320247
187056729606296, 0.18065812, 8.036295, 6.5455666, 0.01313889, 0.14365768, 10.365245
187056739245671, 0.29910284, 7.3782687, 6.367301, 0.06689203, -0.16768265, 9.748756
187056748885150, 0.13280165, 7.5589266, 6.4163537, -0.07794368, -0.04992199, 9.915444
187056758524525, 0.29192436, 7.850851, 6.34098, 0.13521731, 0.14935493, 10.093985
187056768164004, 0.07178468, 7.0348988, 6.192625, -0.16990232, -0.19923735, 9.368831
187056777803379, 0.22372891, 8.153543, 6.373283, 0.11044788, 0.32758045, 10.345509
187056787442858, 0.101694964, 6.7740808, 6.122037, -0.16713941, -0.32083082, 9.123978
187056797082233, 0.19262223, 8.29472, 6.439086, 0.094231725, 0.36633062, 10.495628
187056806721608, 0.21296121, 6.9152575, 6.1435723, -0.04447317, -0.27702475, 9.248291
187056816361087, 0.16749759, 8.05783, 6.498906, 0.012922645, 0.18413115, 10.351732
187056826000462, 0.29072794, 7.322037, 6.3050876, 0.06662631, -0.15708113, 9.665493
187056835639941, 0.14117654, 7.635497, 6.4271216, -0.057337403, -0.016121864, 9.9812355
187056845279316, 0.30508488, 7.804191, 6.3050876, 0.1501888, 0.14142895, 10.035441
187056854918796, 0.11964113, 7.0959153, 6.168697, -0.10091889, -0.1573615, 9.401289
187056864558171, 0.2835495, 8.191829, 6.346962, 0.1704166, 0.35803556, 10.359206
187056874197546, 0.11844472, 6.838687, 6.155536, -0.14090347, -0.3149395, 9.195284
187056883837025, 0.18305093, 8.29472, 6.4977098, 0.06588364, 0.33194208, 10.532883
187056893476400, 0.16390835, 6.88774, 6.222535, -0.10747552, -0.34211922, 9.276808
187056903115879, 0.17467605, 8.103293, 6.5407805, 0.019813538, 0.1776967, 10.413631
187056912755254, 0.2739782, 7.27777, 6.3158555, 0.044785976, -0.19344616, 9.638031
187056922394733, 0.11006984, 7.6773715, 6.4414787, -0.08346927, 0.0030155182, 10.021967
187056932034108, 0.28235307, 7.735996, 6.296713, 0.120165825, 0.107916355, 9.977368
187056941673483, 0.1052842, 7.1569324, 6.172286, -0.107111335, -0.1218214, 9.450057
187056951312962, 0.2644069, 8.13799, 6.3457656, 0.14120603, 0.32528496, 10.316968
187056960952337, 0.07776674, 6.8339014, 6.161518, -0.1644119, -0.3185568, 9.194783
187056970591816, 0.19501504, 8.303095, 6.478567, 0.06928575, 0.34632635, 10.527418
187056980231191, 0.18783657, 6.8662047, 6.142376, -0.058025718, -0.31012726, 9.209196
187056989870566, 0.18185452, 8.132008, 6.4869423, 0.04125893, 0.23424244, 10.401274
187056999510046, 0.2416751, 7.1976104, 6.2548385, 0.014483333, -0.19287872, 9.536751
187057009149421, 0.10289137, 7.7156568, 6.4295144, -0.08282626, 0.033997536, 10.043533
187057018788900, 0.27996024, 7.682157, 6.3014984, 0.10987055, 0.06420469, 9.939144
187057028428275, 0.10887343, 7.183254, 6.1998034, -0.10695708, -0.13040829, 9.487892
187057038067754, 0.2739782, 8.126026, 6.3565335, 0.16996443, 0.2927637, 10.314955
187057047707129, 0.11844472, 6.8853474, 6.1734824, -0.14197123, -0.29565525, 9.242638
187057057346504, 0.22731815, 8.310273, 6.483353, 0.11684096, 0.33442545, 10.536635
187057066985983, 0.18664017, 6.8578296, 6.151947, -0.078287005, -0.31975222, 9.208841
187057076625358, 0.16869399, 8.165507, 6.4773707, 0.040512323, 0.26326847, 10.420624
187057086264837, 0.2213361, 7.1473613, 6.242874, -0.013989329, -0.21149635, 9.490118
187057095904212, 0.08853444, 7.751549, 6.4163537, -0.09153259, 0.064711094, 10.062376
187057105543587, 0.27876383, 7.618747, 6.2261243, 0.114687085, 0.076162815, 9.842189
187057115183066, 0.10767702, 7.233503, 6.157929, -0.092917204, -0.0720129, 9.499548
187057124822441, 0.2620141, 8.10449, 6.2751775, 0.16122448, 0.34489155, 10.246186
187057134461816, 0.11246266, 6.9116683, 6.1363935, -0.12686038, -0.26061487, 9.238784
187057144101296, 0.23569304, 8.333005, 6.471389, 0.13204277, 0.34908056, 10.546758
187057153740671, 0.16390835, 6.856633, 6.181857, -0.08943641, -0.3411684, 9.226661
187057163380150, 0.19740787, 8.232507, 6.5515485, 0.06505108, 0.23964548, 10.5201845
187057173019525, 0.24765715, 7.1246295, 6.2991056, 0.0021528006, -0.2805791, 9.509031
187057182658900, 0.09930214, 7.820941, 6.535995, -0.089546084, 0.014420986, 10.192545
187057192298379, 0.22731815, 7.600801, 6.355337, 0.04060316, -0.015372276, 9.910211
187057201937754, 0.07776674, 7.331609, 6.2883377, -0.1270231, -0.10138321, 9.657914
187057211577233, 0.27996024, 8.079366, 6.326623, 0.16593349, 0.28948545, 10.260087
187057221216608, 0.08733802, 6.9128647, 6.1698933, -0.15114486, -0.2773614, 9.260839
187057230855983, 0.18185452, 8.311469, 6.445068, 0.08475196, 0.3644271, 10.512493
187057240495462, 0.14237295, 6.7932234, 6.105287, -0.11070895, -0.31447792, 9.128612
187057250134837, 0.19501504, 8.1679, 6.4091754, 0.08639884, 0.2963767, 10.37954
187057259774212, 0.25722843, 7.0229344, 6.1675005, 0.022961259, -0.25283718, 9.346731
187057269413691, 0.15194423, 7.847262, 6.4127645, -0.0056910515, 0.11017752, 10.134792
187057279053066, 0.2847459, 7.5026956, 6.256035, 0.10286176, -0.0230999, 9.772329
187057288692441, 0.06819545, 7.344769, 6.2584276, -0.12970352, -0.069581985, 9.648653
187057298331921, 0.23090738, 8.017152, 6.3385873, 0.109039426, 0.25063038, 10.219149
187057307971296, 0.09810573, 6.995417, 6.239285, -0.14395535, -0.27937412, 9.368853
187057317610775, 0.25244278, 8.3377905, 6.5371914, 0.13615978, 0.298254, 10.592915
187057327250150, 0.17467605, 6.867401, 6.215357, -0.08021772, -0.35778522, 9.256776
187057336889525, 0.19142582, 8.304291, 6.478567, 0.08296454, 0.33778048, 10.528472
187057346529004, 0.2321038, 7.042077, 6.189036, 3.6108494E-4, -0.24511242, 9.374905
187057356168379, 0.12921242, 7.911868, 6.4761744, -0.03267634, 0.1149497, 10.224524
187057365807754, 0.2644069, 7.4440713, 6.2811594, 0.06894827, -0.06831694, 9.743082
187057375447233, 0.0849452, 7.3770723, 6.2847486, -0.1163851, -0.06643057, 9.69064
187057385086608, 0.26799613, 7.90469, 6.270392, 0.14048946, 0.22788382, 10.089703
187057394725983, 0.10767702, 6.930811, 6.1040907, -0.12083638, -0.22339869, 9.232722
187057404365462, 0.24885355, 8.240881, 6.3421764, 0.15468013, 0.3898301, 10.393333
187057414004837, 0.15194423, 6.79442, 6.0622163, -0.08348143, -0.2854805, 9.102155
187057423644212, 0.17467605, 8.252846, 6.4127645, 0.065146565, 0.35786104, 10.4465885
187057433283691, 0.20937198, 6.977471, 6.2009997, -0.029327154, -0.28508425, 9.332695
187057442923066, 0.09451649, 7.9836526, 6.6089764, -0.08132589, 0.0722518, 10.364092
187057452562441, 0.21894327, 7.4620175, 6.458228, 0.0033618212, -0.17167664, 9.869593
187057462201921, 0.10289137, 7.479964, 6.503692, -0.11949575, -0.16791487, 9.9103985
187057471841296, 0.30029923, 7.9429746, 6.4474607, 0.14423847, 0.123680115, 10.233019
187057481480775, 0.10767702, 7.0468626, 6.2787666, -0.13036859, -0.2717514, 9.434084
187057491120150, 0.25962126, 8.254042, 6.478567, 0.14152396, 0.30730772, 10.49066
187057500759525, 0.14596218, 6.8279195, 6.168697, -0.09949732, -0.33288813, 9.196405
187057510399004, 0.20578274, 8.288737, 6.454639, 0.08666408, 0.35499144, 10.50116
187057520038379, 0.22253251, 6.9332037, 6.135197, -5.892515E-4, -0.2654543, 9.256835
187057529677754, 0.16031912, 7.9776707, 6.4761744, 0.0038313866, 0.1549077, 10.275492
187057539317233, 0.2620141, 7.3340015, 6.273981, 0.057709455, -0.121601105, 9.654064
187057548956608, 0.09451649, 7.4907312, 6.3314085, -0.09753251, -0.031472683, 9.807966
187057558595983, 0.2739782, 7.818548, 6.2608204, 0.13382041, 0.18656921, 10.017479
187057568235462, 0.08973085, 7.0301127, 6.131608, -0.12673664, -0.16897583, 9.326443
187057577874837, 0.22851457, 8.2014, 6.35773, 0.13032663, 0.35760498, 10.372611
187057587514212, 0.07178468, 6.8135624, 6.1292152, -0.17360151, -0.30320454, 9.15833
187057597153691, 0.1471586, 8.306684, 6.4869423, 0.047986865, 0.34429836, 10.534811
187057606793066, 0.20578274, 6.9355965, 6.1998034, -0.04153335, -0.31050253, 9.299692
187057616432441, 0.15433706, 8.07458, 6.5898337, 0.0070997477, 0.12983894, 10.422649
187057626071921, 0.28235307, 7.348358, 6.384051, 0.060971618, -0.20441246, 9.735947
187057635711296, 0.1268196, 7.6343007, 6.468996, -0.062149644, -0.05020094, 10.007007
187057645350671, 0.28953153, 7.8484583, 6.413961, 0.1411395, 0.08140993, 10.13876
187057654990150, 0.06699903, 7.088737, 6.270392, -0.16257858, -0.22970915, 9.460091
187057664629525, 0.22372891, 8.202596, 6.4558353, 0.12241089, 0.28599215, 10.436171
187057674268900, 0.03708875, 6.818348, 6.1710896, -0.21845233, -0.31642914, 9.188348
187057683908379, 0.14955142, 8.281559, 6.439086, 0.06779587, 0.36802006, 10.484673
187057693547754, 0.18065812, 6.8709903, 6.0933228, -0.048390508, -0.2632408, 9.181507
187057703187129, 0.15194423, 8.088937, 6.4127645, 0.044543862, 0.26511145, 10.320139
187057712826608, 0.26081768, 7.2550383, 6.204589, 0.06217122, -0.12976313, 9.548812
187057722465983, 0.12203395, 7.6223364, 6.3625154, -0.050715923, 0.017409801, 9.929434
187057732105358, 0.2883351, 7.7503524, 6.2883377, 0.14441395, 0.10985613, 9.983053
187057741744733, 0.101694964, 7.1306114, 6.1842504, -0.10774219, -0.15520477, 9.437437
187057751384212, 0.27158538, 8.129615, 6.3421764, 0.17039609, 0.309484, 10.308386
187057761023587, 0.11724831, 6.8099732, 6.096912, -0.12376535, -0.29674864, 9.135559
187057770662962, 0.19142582, 8.305488, 6.3948183, 0.11262834, 0.402102, 10.475548
187057780302441, 0.16749759, 6.8709903, 6.087341, -0.061060786, -0.2592268, 9.177328
187057789941816, 0.11844472, 8.158329, 6.4845495, -0.0035578012, 0.26492357, 10.418808
187057799581191, 0.19142582, 7.2502527, 6.334998, -0.030937433, -0.20992565, 9.627563
187057809220671, 0.11246266, 7.6797643, 6.582655, -0.09972167, -0.10523796, 10.114433
187057818860046, 0.29910284, 7.733603, 6.458228, 0.11598861, -0.021477222, 10.079329
187057828499421, 0.08973085, 7.200003, 6.3457656, -0.14243126, -0.21798849, 9.594221
187057838138900, 0.22612174, 8.127222, 6.452246, 0.10478556, 0.25253344, 10.375915
187057847778275, 0.059820566, 6.853044, 6.1914287, -0.18797684, -0.31092358, 9.228736
187057857417650, 0.18424734, 8.30788, 6.4354963, 0.085571885, 0.3843112, 10.503115
187057867057129, 0.18544376, 6.820741, 6.0490556, -0.04002416, -0.26291943, 9.114673
187057876696504, 0.18185452, 8.132008, 6.3828545, 0.07473028, 0.31138086, 10.334454
187057886335879, 0.25124636, 7.1389866, 6.2141604, 0.035645247, -0.2003994, 9.465866
187057895975358, 0.14356937, 7.7180495, 6.4666033, -0.038003206, 4.4441223E-4, 10.069976
187057905614733, 0.29312077, 7.635497, 6.391229, 0.11016452, -0.024912834, 9.961014
187057915254108, 0.06819545, 7.219146, 6.3493547, -0.15861821, -0.20156622, 9.610891
187057924893587, 0.2739782, 8.105687, 6.4474607, 0.14770174, 0.23601294, 10.357097
187057934532962, 0.10767702, 6.930811, 6.262017, -0.14739418, -0.32103348, 9.334655
187057944172337, 0.20578274, 8.352147, 6.526424, 0.10512209, 0.34817457, 10.5954075
187057953811816, 0.14237295, 6.876972, 6.1734824, -0.097302794, -0.2992525, 9.237202
187057963451191, 0.16390835, 8.222935, 6.4941206, 0.043103933, 0.30283928, 10.474901
187057973090566, 0.2632105, 7.1066833, 6.2488565, 0.033430338, -0.24418879, 9.463703
187057982730046, 0.13878371, 7.763513, 6.4761744, -0.042205215, 0.031407356, 10.110859
187057992369421, 0.2632105, 7.554141, 6.2847486, 0.08575046, 0.009880543, 9.829799
187058002008796, 0.08733802, 7.2418776, 6.181857, -0.11021149, -0.06849623, 9.52108
187058011648171, 0.27158538, 8.002795, 6.224928, 0.17163372, 0.3297987, 10.135582
187058021287650, 0.1052842, 6.8685975, 6.0490556, -0.1195457, -0.21334267, 9.149864
187058030927025, 0.21535404, 8.268398, 6.38764, 0.131755, 0.38713503, 10.442581
187058040566400, 0.15194423, 6.800402, 6.1064835, -0.10112226, -0.30222273, 9.135434
187058050205879, 0.17228323, 8.190632, 6.4737816, 0.05861497, 0.28304195, 10.437549
187058059845254, 0.22731815, 7.064809, 6.2871413, -0.026427746, -0.28792286, 9.455567
187058069484629, 0.12203395, 7.8891363, 6.617351, -0.06831491, 0.010541439, 10.297472
187058079124108, 0.2632105, 7.5936227, 6.4881387, 0.045374393, -0.109251976, 9.990713
187058088763483, 0.083748795, 7.3627152, 6.483353, -0.1682874, -0.18930864, 9.807461
187058098402858, 0.25722843, 8.008778, 6.4965134, 0.11726761, 0.14179754, 10.313948
187058108042337, 0.07537391, 6.9391856, 6.273981, -0.20293379, -0.29182434, 9.348501
187058117681712, 0.19740787, 8.269595, 6.4666033, 0.11240649, 0.34371138, 10.493398
187058127321087, 0.15433706, 6.7740808, 6.0837517, -0.100860596, -0.2852559, 9.101235
187058136960566, 0.22731815, 8.2014, 6.3589263, 0.1562599, 0.36794758, 10.372599
187058146599941, 0.27158538, 6.995417, 6.1064835, 0.047095537, -0.20321798, 9.287369
187058156239316, 0.16390835, 7.8604226, 6.442675, 0.0063928366, 0.12272501, 10.1639595
187058165878796, 0.2883351, 7.4620175, 6.3218374, 0.09028244, -0.06897545, 9.783535
187058175518171, 0.08255238, 7.4129643, 6.3948183, -0.13065803, -0.10303974, 9.789017
187058185157546, 0.22253251, 7.987242, 6.454639, 0.07833147, 0.18269444, 10.269782
187058194797025, 0.03708875, 6.957132, 6.2931237, -0.21319574, -0.30484295, 9.373798
187058204436400, 0.19860429, 8.280363, 6.526424, 0.08386326, 0.31507063, 10.540009
187058214075775, 0.10767702, 6.8051877, 6.1734824, -0.13746858, -0.33088827, 9.181811
187058223715254, 0.20458634, 8.237292, 6.4534426, 0.08999884, 0.3473935, 10.460065
187058233354629, 0.26919255, 6.9583282, 6.1447687, 0.04780674, -0.2500391, 9.283545
187058242994004, 0.18305093, 7.9310107, 6.4881387, 0.024045587, 0.13104963, 10.247568
187058252633483, 0.31465617, 7.450053, 6.363712, 0.11413741, -0.108406544, 9.801753
187058262272858, 0.09451649, 7.4679995, 6.4498534, -0.11611825, -0.112808704, 9.866831
187058271912233, 0.2416751, 7.9298143, 6.4845495, 0.0777185, 0.122223854, 10.245426
187058281551712, 0.05383851, 7.0205417, 6.3421764, -0.19053441, -0.3046565, 9.454365
187058291191087, 0.2009971, 8.2456665, 6.5551376, 0.06592822, 0.27604008, 10.531891
187058300830462, 0.11964113, 6.7704916, 6.1770716, -0.1344533, -0.35794258, 9.157724
187058310469941, 0.18305093, 8.251649, 6.367301, 0.08328998, 0.42303276, 10.415365
187058320109316, 0.19860429, 6.9248285, 6.0107703, -7.265806E-4, -0.16030025, 9.170408
187058329748691, 0.14117654, 7.975278, 6.3361945, 0.016853213, 0.2748356, 10.183149
187058339388171, 0.26919255, 7.359126, 6.2285175, 0.081109524, -0.06463957, 9.644318
187058349027546, 0.111266255, 7.495517, 6.3972116, -0.08589673, -0.06825733, 9.854309
187058358666921, 0.29312077, 7.8867435, 6.4438715, 0.13505983, 0.107225895, 10.187265
187058368306400, 0.106480606, 7.066005, 6.3696938, -0.14534831, -0.31157112, 9.5076065
187058377945775, 0.25004998, 8.243274, 6.5958157, 0.11256707, 0.23294878, 10.557081
187058387585150, 0.13519448, 6.8171515, 6.276374, -0.12820888, -0.40681314, 9.257578
187058397224629, 0.20219351, 8.311469, 6.5001025, 0.09784448, 0.3579812, 10.546802
187058406864004, 0.2105684, 6.923632, 6.114858, -0.01384747, -0.23630619, 9.236692
187058416503379, 0.12083755, 8.047063, 6.4606214, -0.011859655, 0.23853922, 10.317578
187058426142858, 0.22372891, 7.2957163, 6.3134627, 0.013354778, -0.15184641, 9.649565
187058435782233, 0.078963146, 7.570891, 6.430711, -0.114390135, -0.032004356, 9.933002
187058445421608, 0.25244278, 7.8352976, 6.398408, 0.09408188, 0.12105322, 10.117891
187058455061087, 0.08733802, 7.066005, 6.276374, -0.14106256, -0.23816729, 9.447343
187058464700462, 0.2727818, 8.163115, 6.4534426, 0.14362168, 0.2827406, 10.404673
187058474339837, 0.12562318, 6.800402, 6.151947, -0.11018145, -0.323339, 9.164661
187058483979316, 0.18664017, 8.242078, 6.407979, 0.07461965, 0.37828827, 10.434569
187058493618691, 0.2009971, 6.8303123, 6.040681, -0.010456264, -0.23758411, 9.117392
187058503258066, 0.1698904, 8.042277, 6.3696938, 0.04861629, 0.28690195, 10.256481
187058512897546, 0.22851457, 7.283752, 6.227321, 0.03570342, -0.09740925, 9.585093
187058522536921, 0.069391854, 7.6462646, 6.428318, -0.112356424, 0.016861439, 9.989021
187058532176296, 0.29192436, 7.8173513, 6.407979, 0.1304692, 0.08988285, 10.11105
187058541815775, 0.10887343, 7.200003, 6.385247, -0.12833405, -0.23672915, 9.620333
187058551455150, 0.2321038, 8.224132, 6.634101, 0.08412421, 0.19254541, 10.566803
187058561094525, 0.096909314, 6.856633, 6.3864436, -0.19159484, -0.44401264, 9.358185
187058570734004, 0.23808585, 8.315059, 6.5922265, 0.11891341, 0.27721834, 10.609587
187058580373379, 0.2416751, 6.856633, 6.078966, 0.0128468275, -0.25188065, 9.163082
187058590012858, 0.16630118, 8.099705, 6.320641, 0.0705359, 0.3592806, 10.26885
187058599652233, 0.23808585, 7.153343, 6.0897336, 0.048271418, -0.08455515, 9.3969345
187058609291608, 0.09571291, 7.628319, 6.3110695, -0.06744754, 0.08437204, 9.900421
187058618931087, 0.24526432, 7.6606216, 6.2715883, 0.08924639, 0.09939861, 9.902538
187058628570462, 0.06819545, 7.1270223, 6.2512493, -0.1507746, -0.18021393, 9.477448
187058638209837, 0.2548356, 8.120044, 6.4869423, 0.12046826, 0.2324295, 10.3928795
187058647849316, 0.10767702, 6.875776, 6.35773, -0.15418911, -0.42640877, 9.354305
187058657488691, 0.15792629, 8.353344, 6.7381887, 0.00340724, 0.21352816, 10.731304
187058667128066, 0.09451649, 6.8662047, 6.3601227, -0.16790879, -0.4227419, 9.348688
187058676767546, 0.14476576, 8.179864, 6.5850477, 0.007260084, 0.22442341, 10.499695
187058686406921, 0.25603202, 7.2179494, 6.235696, 0.053230643, -0.15067863, 9.540583
187058696046296, 0.14596218, 7.746763, 6.34098, -0.002973795, 0.1289525, 10.011246
187058705685775, 0.31106696, 7.6390862, 6.1878395, 0.17210805, 0.13702011, 9.833279
187058715325150, 0.15194423, 7.1856465, 6.1710896, -0.043201923, -0.10129881, 9.472425
187058724964629, 0.27517462, 8.069795, 6.4163537, 0.1465342, 0.24291277, 10.309531
187058734604004, 0.05623133, 6.8446693, 6.3625154, -0.23081183, -0.42801, 9.332621
187058744243379, 0.17467605, 8.255239, 6.63769, 0.03688574, 0.22616339, 10.591785
187058753882858, 0.14356937, 6.808777, 6.186643, -0.11101687, -0.34617376, 9.193608
187058763522233, 0.13998012, 8.1942215, 6.378069, 0.04215169, 0.38542843, 10.377587
187058773161608, 0.26679972, 7.1545396, 6.0658054, 0.082316995, -0.067634106, 9.383032
187058782801087, 0.14476576, 7.8113694, 6.320641, 0.0050131083, 0.17970467, 10.047718
187058792440462, 0.27517462, 7.6067834, 6.283552, 0.11036122, 0.0469532, 9.869524
187058802079941, 0.07537391, 7.251449, 6.384051, -0.1524303, -0.20341492, 9.658194
187058811719316, 0.26799613, 8.019546, 6.5252275, 0.11394465, 0.13378763, 10.340826
187058821358691, 0.12323037, 6.8745794, 6.3397837, -0.14357209, -0.42008972, 9.341885
187058830998171, 0.27517462, 8.334201, 6.559923, 0.14911246, 0.3030877, 10.604391
187058840637546, 0.17587246, 6.859026, 6.1627145, -0.059438586, -0.30445385, 9.217376
187058850277025, 0.15194423, 8.232507, 6.4438715, 0.028731942, 0.35824156, 10.449476
187058859916400, 0.19980069, 7.085148, 6.2009997, -0.017737508, -0.1954813, 9.415577
187058869555775, 0.034695927, 7.834101, 6.526424, -0.14334261, 0.06539059, 10.195279
187058879195254, 0.2117648, 7.4847493, 6.367301, 0.0170815, -0.07419348, 9.828685
187058888834629, 0.083748795, 7.2861447, 6.2787666, -0.117105484, -0.106669426, 9.617315
187058898474004, 0.30388847, 8.029117, 6.263213, 0.19740307, 0.32338953, 10.180538
187058908113483, 0.16271193, 6.9523463, 6.108876, -0.057804585, -0.21262789, 9.253724
187058917752858, 0.23569304, 8.283952, 6.4414787, 0.13243008, 0.35852957, 10.4893265
187058927392337, 0.1471586, 6.7932234, 6.168697, -0.11123049, -0.34673262, 9.170049
187058937031712, 0.16390835, 8.246863, 6.509674, 0.04737699, 0.30277777, 10.503311
187058946671087, 0.16630118, 7.0468626, 6.2979093, -0.080536366, -0.28606558, 9.447819
187058956310566, 0.0849452, 7.8831544, 6.587441, -0.092769384, 0.04786253, 10.273013
187058965949941, 0.2727818, 7.509874, 6.3792653, 0.07631469, -0.07861853, 9.856756
187058975589421, 0.13040884, 7.399804, 6.3254266, -0.06581819, -0.07308102, 9.73527
187058985228796, 0.30388847, 7.9884386, 6.3254266, 0.19229269, 0.24867058, 10.189198
187058994868171, 0.11246266, 6.942775, 6.189036, -0.123449564, -0.25348616, 9.297283
187059004507650, 0.2440679, 8.263613, 6.515656, 0.13467681, 0.29927826, 10.5210705
187059014147025, 0.15194423, 6.802795, 6.2488565, -0.11963916, -0.39366007, 9.229303
187059023786504, 0.1902294, 8.251649, 6.5694947, 0.061783075, 0.26305246, 10.545671
187059033425879, 0.22253251, 7.0002027, 6.2608204, -0.018404245, -0.29485273, 9.389513
187059043065358, 0.16031912, 7.946564, 6.506085, 0.0034976006, 0.12736416, 10.270663
187059052704733, 0.2632105, 7.463214, 6.296713, 0.07631695, -0.04404354, 9.767788
187059062344108, 0.041874398, 7.442875, 6.330212, -0.14865237, -0.032492638, 9.769676
187059071983587, 0.23928227, 7.9094753, 6.3278193, 0.11070037, 0.21789551, 10.129099
187059081622962, 0.0849452, 6.966703, 6.2117677, -0.14715123, -0.25191355, 9.32969
187059091262441, 0.2321038, 8.2456665, 6.5108705, 0.112805486, 0.29153442, 10.504219
187059100901816, 0.12203395, 6.8051877, 6.2261243, -0.13870227, -0.37046146, 9.215944
187059110541191, 0.20697916, 8.240881, 6.485746, 0.09497213, 0.31193066, 10.483965
187059120180671, 0.24047868, 6.916454, 6.157929, 0.0070729256, -0.27811003, 9.259474
187059129820046, 0.13758731, 7.9657063, 6.437889, -6.811619E-4, 0.19186449, 10.241143
187059139459525, 0.2620141, 7.3866434, 6.236892, 0.077179074, -0.051217556, 9.670647
187059149098900, 0.06699903, 7.4979095, 6.38764, -0.12613833, -0.0440979, 9.849226
187059158738379, 0.26799613, 7.9070826, 6.3864436, 0.131001, 0.16407537, 10.165449
187059168377754, 0.08255238, 7.097112, 6.2919273, -0.15184307, -0.2273817, 9.481003
187059178017129, 0.22851457, 8.270791, 6.582655, 0.10788131, 0.25996017, 10.569311
187059187656608, 0.11844472, 6.8219376, 6.326623, -0.16797507, -0.4277115, 9.293432
187059197295983, 0.18065812, 8.288737, 6.582655, 0.06660855, 0.27860212, 10.582301
187059206935462, 0.20338993, 6.8925257, 6.148358, -0.03194189, -0.2728467, 9.234454
187059216574837, 0.14237295, 7.9680996, 6.355337, 0.023639321, 0.2570014, 10.189925
187059226214316, 0.2656033, 7.29452, 6.0861444, 0.09973526, 0.0039191246, 9.50325
187059235853691, 0.106480606, 7.536195, 6.1734824, -0.037530184, 0.1230731, 9.74171
187059245493171, 0.27996024, 7.800602, 6.2213387, 0.15597117, 0.21390247, 9.978111
187059255132546, 0.086141616, 7.0265236, 6.2416778, -0.13876778, -0.24407291, 9.394633
187059264771921, 0.2105684, 8.213364, 6.573084, 0.075333714, 0.22793674, 10.5191
187059274411400, 0.11006984, 6.849455, 6.4055862, -0.17731667, -0.47399616, 9.364965
187059284050775, 0.19980069, 8.336594, 6.710671, 0.059390426, 0.21168995, 10.701565
187059293690254, 0.18783657, 6.948757, 6.3314085, -0.076734304, -0.3694439, 9.394938
187059303329629, 0.13519448, 8.127222, 6.599405, -0.0052331686, 0.18388748, 10.468443
187059312969108, 0.2416751, 7.30768, 6.337391, 0.027128577, -0.16278172, 9.674496
187059322608483, 0.104087785, 7.611569, 6.4211397, -0.076857924, 0.0015616417, 9.958513
187059332247962, 0.2548356, 7.7647095, 6.309873, 0.11555219, 0.13954353, 10.006865
187059341887337, 0.111266255, 7.0839515, 6.178268, -0.10321963, -0.15735054, 9.398421
187059351526712, 0.3062813, 8.1344, 6.3517475, 0.20580113, 0.32275963, 10.317967
187059361166191, 0.13040884, 6.823134, 6.1387863, -0.10865879, -0.29807377, 9.17367
187059370805566, 0.19381863, 8.311469, 6.452246, 0.0990535, 0.38797998, 10.516142
187059380445046, 0.18664017, 6.884151, 6.1363935, -0.048925042, -0.2767167, 9.219692
187059390084421, 0.10767702, 8.120044, 6.502496, -0.02523756, 0.2517171, 10.400249
187059399723900, 0.21774685, 7.2382884, 6.3314085, -0.0060714483, -0.2010727, 9.616991
187059409363275, 0.06819545, 7.6797643, 6.498906, -0.12317729, -0.018214226, 10.060006
187059419002754, 0.26679972, 7.737192, 6.334998, 0.1105175, 0.09844494, 10.002281
187059428642129, 0.0849452, 7.1509504, 6.186643, -0.11564994, -0.1201272, 9.454634
187059438281608, 0.2955136, 8.146365, 6.3457656, 0.19244647, 0.33876514, 10.323154
187059447920983, 0.16749759, 7.1186476, 6.2751775, -0.048299074, -0.2282238, 9.488235
187059457560462, 0.23449662, 7.6606216, 6.398408, 0.057320595, 0.0030488968, 9.9838085
187059467199837, 0.2009971, 7.539784, 6.350551, 0.0184443, -0.026589394, 9.859878
187059476839316, 0.1698904, 7.588837, 6.3565335, -0.007035017, 0.0071172714, 9.900745
187059486478691, 0.11246266, 7.564909, 6.367301, -0.06795764, -0.003798008, 9.888296
187059496118066, 0.12083755, 7.5553374, 6.3684974, -0.060904384, -0.012456894, 9.881885
187059505757546, 0.14237295, 7.5696945, 6.3696938, -0.036390066, -0.0066103935, 9.894049
187059515396921, 0.17108682, 7.548159, 6.3661046, -0.010118961, -0.023832798, 9.875759
187059525036400, 0.19621146, 7.5732837, 6.350551, 0.019930005, 6.6280365E-5, 9.885454
187059534675775, 0.19860429, 7.5864444, 6.37089, 0.019625425, -0.0073223114, 9.908651
187059544315254, 0.2009971, 7.5828547, 6.378069, 0.020110846, -0.015491009, 9.91056
187059553954629, 0.19621146, 7.5696945, 6.35773, 0.017758012, -0.00756979, 9.887321
187059563594108, 0.18544376, 7.570891, 6.3338017, 0.0118153095, 0.013370514, 9.872665
187059573233483, 0.15553348, 7.5828547, 6.34098, -0.01728952, 0.021890163, 9.885904
187059582872962, 0.17826529, 7.576873, 6.3481584, 0.0026710033, 0.0075187683, 9.886345
187059592512337, 0.19740787, 7.5517483, 6.367301, 0.014183521, -0.02826786, 9.879747
187059602151816, 0.17347965, 7.55773, 6.3792653, -0.010470867, -0.027989864, 9.891588
187059611791191, 0.15553348, 7.564909, 6.3696938, -0.02490282, -0.012305737, 9.890615
187059621430671, 0.18065812, 7.5720873, 6.3493547, 0.0049084425, 0.0010137558, 9.883493
187059631070046, 0.2009971, 7.568498, 6.361319, 0.022408009, -0.015402794, 9.888793
187059640709525, 0.16151553, 7.576873, 6.410372, -0.024478436, -0.03716755, 9.926027
187059650348900, 0.17706887, 7.5792656, 6.4163537, -0.010436296, -0.043343067, 9.931981
187059659988379, 0.21655045, 7.5816584, 6.3888364, 0.033505797, -0.030105114, 9.916837
187059669627754, 0.19860429, 7.587641, 6.3290157, 0.027534366, 0.021605015, 9.882659
187059679267233, 0.14476576, 7.568498, 6.2871413, -0.020515561, 0.051057816, 9.840134
187059688906608, 0.12562318, 7.55773, 6.29432, -0.042058706, 0.040603638, 9.836164
187059698546087, 0.14237295, 7.556534, 6.3385873, -0.033947587, 0.0021643639, 9.863974
187059708185566, 0.18903299, 7.5326056, 6.352944, 0.0061639547, -0.034220695, 9.855688
187059717824941, 0.19501504, 7.550552, 6.337391, 0.0170753, -0.012495518, 9.859562
187059727464421, 0.16151553, 7.560123, 6.323034, -0.012270451, 0.011434078, 9.857081
187059737103796, 0.148355, 7.554141, 6.3254266, -0.026477218, 0.008752346, 9.853797
187059746743275, 0.1698904, 7.560123, 6.29432, 0.00139153, 0.030740261, 9.838792
187059756382650, 0.20937198, 7.5696945, 6.2991056, 0.040204525, 0.02493763, 9.849903
187059766022129, 0.18185452, 7.60439, 6.3493547, 0.00761652, 0.016827106, 9.908268
187059775661504, 0.18783657, 7.60798, 6.3996043, 0.004863739, -0.018445969, 9.9434
187059785300983, 0.2009971, 7.5900335, 6.422336, 0.011438131, -0.0485487, 9.944494
187059794940358, 0.17587246, 7.6067834, 6.4366927, -0.013697624, -0.04288721, 9.966097
187059804579837, 0.16390835, 7.6067834, 6.407979, -0.02074337, -0.018686771, 9.947434
187059814219212, 0.16271193, 7.578069, 6.3565335, -0.01626563, 5.1927567E-4, 9.8923645
187059823858691, 0.17706887, 7.55773, 6.3110695, 0.0030337572, 0.018619537, 9.847837
187059833498066, 0.17467605, 7.5553374, 6.2727847, 0.006177306, 0.04358387, 9.821381
187059843137546, 0.17467605, 7.542177, 6.253642, 0.0074698925, 0.048006058, 9.799011
187059852776921, 0.16031912, 7.550552, 6.256035, -0.0059672594, 0.054500103, 9.806705
187059862416400, 0.18305093, 7.550552, 6.2871413, 0.011050463, 0.024420738, 9.827095
187059872055879, 0.19980069, 7.5696945, 6.3086767, 0.025919795, 0.017169476, 9.855893
187059881695254, 0.19142582, 7.5529447, 6.32423, 0.013018012, -0.003191471, 9.852885
187059891334733, 0.17587246, 7.554141, 6.3601227, -0.008394361, -0.025259018, 9.876558
187059900974108, 0.15553348, 7.560123, 6.398408, -0.034597516, -0.042042255, 9.905368
187059910613587, 0.13758731, 7.57448, 6.4175506, -0.052574277, -0.041998863, 9.928349
187059920252962, 0.16510476, 7.6127653, 6.4031935, -0.016801357, -0.012223244, 9.948965
187059929892441, 0.16630118, 7.6163545, 6.381658, -0.010571957, 0.0065073967, 9.937902
187059939531816, 0.14955142, 7.6271224, 6.4031935, -0.029441357, 0.0010623932, 9.959688
187059949171296, 0.19262223, 7.597212, 6.3972116, 0.010335684, -0.02289486, 9.933701
187059958810775, 0.20219351, 7.5996046, 6.3888364, 0.02226317, -0.017415524, 9.930323
187059968450150, 0.20937198, 7.568498, 6.373283, 0.027699947, -0.027412415, 9.896627
187059978089629, 0.20338993, 7.5409803, 6.3517475, 0.021353602, -0.028157234, 9.861603
187059987729004, 0.19980069, 7.5433736, 6.326623, 0.021055698, -0.008182049, 9.847237
187059997368483, 0.17826529, 7.5661054, 6.32423, 0.0021340847, 0.01183176, 9.862732
187060007007858, 0.13998012, 7.570891, 6.309873, -0.033232927, 0.031870842, 9.856487
187060016647337, 0.17347965, 7.548159, 6.2883377, 5.046129E-4, 0.026808739, 9.825847
187060026286712, 0.18185452, 7.5613194, 6.285945, 0.012094736, 0.033203125, 9.834555
187060035926191, 0.15672988, 7.560123, 6.2679987, -0.009845614, 0.05105257, 9.821667
187060045565671, 0.17706887, 7.5613194, 6.2691956, 0.011621952, 0.04464817, 9.823728
187060055205046, 0.17347965, 7.554141, 6.2979093, 0.0024272203, 0.019409657, 9.836588
187060064844525, 0.20458634, 7.5828547, 6.330212, 0.030611038, 0.0061593056, 9.879887
187060074483900, 0.21535404, 7.609176, 6.40439, 0.030851483, -0.034983635, 9.947863
187060084123379, 0.18424734, 7.611569, 6.4354963, -0.0056835413, -0.04873705, 9.9691105
187060093762754, 0.17587246, 7.605587, 6.445068, -0.017936707, -0.056283474, 9.970521
187060103402233, 0.18185452, 7.585248, 6.4091754, -0.0083601475, -0.04280281, 9.932003
187060113041712, 0.17108682, 7.588837, 6.3720865, -0.011794567, -0.009842873, 9.91075
187060122681087, 0.16510476, 7.5732837, 6.302695, -0.007081032, 0.03317356, 9.854173
187060132320566, 0.18185452, 7.55773, 6.29432, 0.008506298, 0.02580452, 9.837179
187060141959941, 0.16869399, 7.542177, 6.3014984, -0.007872105, 0.0127978325, 9.829627
187060151599421, 0.16271193, 7.5493555, 6.296713, -0.012497425, 0.021585941, 9.831949
187060161238796, 0.1794617, 7.5720873, 6.3194447, 0.0022093058, 0.014820576, 9.864273
187060170878275, 0.1902294, 7.580462, 6.337391, 0.009672642, 0.003815174, 9.88241
187060180517754, 0.18065812, 7.587641, 6.343373, -0.001318574, 0.005643368, 9.891575
187060190157129, 0.15672988, 7.605587, 6.326623, -0.018294096, 0.03529215, 9.894144
187060199796608, 0.1794617, 7.5696945, 6.3194447, 4.20928E-4, 0.011295795, 9.862441
187060209435983, 0.1794617, 7.5493555, 6.2919273, 0.0030229092, 0.018940926, 9.829189
187060219075462, 0.18065812, 7.5409803, 6.2883377, 0.0047074556, 0.01484108, 9.820488
187060228714941, 0.19142582, 7.5637126, 6.290731, 0.018120885, 0.024402618, 9.839654
187060238354316, 0.17587246, 7.5661054, 6.2979093, 0.0017650127, 0.024562359, 9.845809
187060247993796, 0.17826529, 7.568498, 6.317052, 7.740259E-4, 0.011477947, 9.859968
187060257633171, 0.18185452, 7.5924263, 6.346962, 0.0017074347, 0.0034093857, 9.897572
187060267272650, 0.16869399, 7.609176, 6.343373, -0.008116007, 0.020085812, 9.907873
187060276912129, 0.17467605, 7.609176, 6.3625154, -0.0058345795, 0.0054340363, 9.920261
187060286551504, 0.18065812, 7.5996046, 6.3972116, -0.007953405, -0.026926517, 9.935299
187060296190983, 0.18783657, 7.5864444, 6.4055862, -0.003723979, -0.04137945, 9.930721
187060305830358, 0.19980069, 7.5673018, 6.3972116, 0.007641673, -0.049529076, 9.9108925
187060315469837, 0.19142582, 7.5613194, 6.361319, 0.0060755014, -0.024820805, 9.883114
187060325109316, 0.19262223, 7.5457664, 6.3182483, 0.013932109, -0.003513813, 9.843565
187060334748691, 0.17587246, 7.570891, 6.2919273, 0.0059753656, 0.034983158, 9.845631
187060344388171, 0.16151553, 7.5864444, 6.2919273, -0.0054837465, 0.04799223, 9.857295
187060354027546, 0.14117654, 7.587641, 6.320641, -0.030515552, 0.03170967, 9.876274
187060363667025, 0.13519448, 7.588837, 6.3661046, -0.044754148, 4.9591064E-5, 9.906261
187060373306504, 0.15553348, 7.576873, 6.4031935, -0.034006834, -0.038690567, 9.921261
187060382945879, 0.19621146, 7.560123, 6.3948183, 0.0057040453, -0.052435875, 9.903782
187060392585358, 0.20219351, 7.54457, 6.35773, 0.01610148, -0.036068916, 9.868162
187060402224733, 0.19142582, 7.560123, 6.3086767, 0.017096162, 0.012264252, 9.848404
187060411864212, 0.19262223, 7.587641, 6.256035, 0.032206774, 0.06760025, 9.835739
187060421503691, 0.18903299, 7.587641, 6.2512493, 0.028203368, 0.07052851, 9.832619
