timestamp_acc,device_acc_x,device_acc_y,device_acc_z,earth_acc_x,earth_acc_y,earth_acc_z
187013569280277, -0.46899325, 7.4129643, 6.4905314, -0.0063842535, 0.0061893463, 9.864021
187013578919652, -0.47976094, 7.4045897, 6.502496, -0.01783657, -0.004714489, 9.866115
187013588559027, -0.4977071, 7.405786, 6.489335, -0.03292215, 0.010334015, 9.859192
187013598198402, -0.485743, 7.4105716, 6.458228, -0.014426351, 0.031522274, 9.841749
187013607837777, -0.4761717, 7.4033933, 6.4474607, -0.0056014657, 0.030733109, 9.828823
187013617477152, -0.4761717, 7.3746796, 6.3996043, -0.003825426, 0.04790163, 9.775749
187013627116527, -0.465404, 7.379465, 6.385247, 0.010637403, 0.057676792, 9.769395
187013636755902, -0.51206404, 7.3842506, 6.437889, -0.041240573, 0.03442526, 9.809837
187013646395277, -0.5706882, 7.355537, 6.506085, -0.11356491, -0.01703453, 9.835932
187013656034652, -0.58504516, 7.331609, 6.599405, -0.14533478, -0.09393549, 9.880129
187013665674131, -0.58504516, 7.32443, 6.634101, -0.14666796, -0.11801243, 9.897747
187013675313506, -0.59940207, 7.3363943, 6.6388865, -0.15684074, -0.10954952, 9.91061
187013684952881, -0.5383851, 7.3579297, 6.6125655, -0.08857703, -0.09328747, 9.9064865
187013694592256, -0.506082, 7.4213395, 6.5491557, -0.0368948, -0.015626907, 9.910713
187013704231631, -0.44626144, 7.479964, 6.4773707, 0.044793844, 0.058258533, 9.904541
187013713871006, -0.3684947, 7.519445, 6.474978, 0.12195349, 0.060577393, 9.92898
187013723510381, -0.36131623, 7.54457, 6.492924, 0.12900388, 0.058240414, 9.959373
187013733149756, -0.35533416, 7.5254273, 6.4606214, 0.13623512, 0.06835985, 9.923443
187013742789131, -0.3684947, 7.4823565, 6.439086, 0.11717236, 0.060225964, 9.877546
187013752428506, -0.3912265, 7.457232, 6.424729, 0.09284568, 0.06045437, 9.850292
187013762067881, -0.40079778, 7.4356966, 6.4366927, 0.079451084, 0.04047966, 9.8424225
187013771707360, -0.40677986, 7.4033933, 6.448657, 0.064715266, 0.012934208, 9.826318
187013781346735, -0.44745782, 7.389036, 6.4031935, 0.029285967, 0.047970295, 9.787533
187013790986110, -0.45702913, 7.3746796, 6.3804617, 0.017875373, 0.05357647, 9.762266
187013800625485, -0.46779683, 7.3579297, 6.3804617, 0.00370121, 0.045742035, 9.750187
187013810264860, -0.44865423, 7.3974113, 6.407979, 0.023331225, 0.042998314, 9.797081
187013819904235, -0.44865423, 7.4189467, 6.458228, 0.015542805, 0.016542435, 9.846333
187013829543610, -0.4977071, 7.4416785, 6.4977098, -0.03361392, 0.013467789, 9.891674
187013839182985, -0.5419743, 7.416554, 6.5742803, -0.09305346, -0.047416687, 9.925184
187013848822360, -0.56829536, 7.3950186, 6.6388865, -0.13339949, -0.101150036, 9.952691
187013858461735, -0.5814559, 7.3698936, 6.6628146, -0.14828181, -0.12554216, 9.950315
187013868101110, -0.5886344, 7.3830543, 6.6329045, -0.14401525, -0.0897336, 9.940956
187013877740590, -0.58504516, 7.368697, 6.579066, -0.1313461, -0.057928085, 9.894617
187013887379965, -0.5383851, 7.375876, 6.580262, -0.08524996, -0.065896034, 9.898566
187013897019340, -0.4869394, 7.4010005, 6.513263, -0.017163038, -0.012814999, 9.870871
187013906658715, -0.47976094, 7.416554, 6.454639, 0.0024863482, 0.038177013, 9.843595
187013916298090, -0.4331009, 7.4177504, 6.4438715, 0.045072317, 0.029723644, 9.835201
187013925937465, -0.4127619, 7.429714, 6.4175506, 0.067563295, 0.048700333, 9.825939
187013935576840, -0.3804588, 7.4476604, 6.430711, 0.1000911, 0.042553425, 9.846554
187013945216215, -0.36011982, 7.475178, 6.3888364, 0.12599707, 0.07960796, 9.838852
187013954855590, -0.3684947, 7.500303, 6.302695, 0.13508248, 0.15934849, 9.801565
187013964494965, -0.38644084, 7.495517, 6.3828545, 0.10438967, 0.10132265, 9.851486
187013974134340, -0.38404804, 7.4679995, 6.4869423, 0.083468676, 0.0073337555, 9.899088
187013983773715, -0.40438703, 7.4273214, 6.4677997, 0.06056273, 0.0028238297, 9.856846
187013993413194, -0.42831525, 7.3902326, 6.4498534, 0.03284049, -8.2588196E-4, 9.818276
187014003052569, -0.46899325, 7.3986077, 6.4438715, -0.0026519299, 0.02082014, 9.822544
187014012691944, -0.47976094, 7.402197, 6.4235325, -0.00919342, 0.04118538, 9.812375
187014022331319, -0.4235296, 7.472785, 6.4642105, 0.04698372, 0.036821842, 9.889608
187014031970694, -0.40079778, 7.519445, 6.5407805, 0.06533611, 0.0036902428, 9.973976
187014041610069, -0.4319045, 7.503892, 6.5778694, 0.02206707, -0.026682377, 9.988098
187014051249444, -0.47976094, 7.4584284, 6.587441, -0.03522098, -0.049951553, 9.962378
187014060888819, -0.526421, 7.379465, 6.6101727, -0.10006046, -0.10393715, 9.92004
187014070528194, -0.5886344, 7.328019, 6.5898337, -0.16322726, -0.10325909, 9.870915
187014080167569, -0.6221339, 7.318448, 6.526424, -0.17713416, -0.049851418, 9.823801
187014089806944, -0.6233303, 7.350751, 6.483353, -0.16447055, 0.0023384094, 9.81982
187014099446319, -0.56111693, 7.3639116, 6.4797635, -0.09610188, -0.0038700104, 9.824467
187014109085798, -0.50488555, 7.3902326, 6.4402823, -0.029794693, 0.026812553, 9.815603
187014118725173, -0.46301118, 7.3926253, 6.4271216, 0.013187528, 0.027486801, 9.806746
187014128364548, -0.42831525, 7.3974113, 6.422336, 0.047828555, 0.024140358, 9.805544
187014138003923, -0.4223332, 7.440482, 6.4151573, 0.062233448, 0.054045677, 9.832934
187014147643298, -0.40917268, 7.452446, 6.4498534, 0.0703125, 0.031539917, 9.864129
187014157282673, -0.4031906, 7.4656067, 6.4498534, 0.0771265, 0.03707266, 9.873761
187014166922048, -0.40558344, 7.459625, 6.4331036, 0.075117946, 0.04531622, 9.858377
187014176561423, -0.4211368, 7.4512496, 6.437889, 0.055375695, 0.03986168, 9.855974
187014186200798, -0.4019942, 7.456035, 6.4438715, 0.073672295, 0.03381586, 9.862604
187014195840173, -0.40558344, 7.4548388, 6.4031935, 0.07548702, 0.064520836, 9.83515
187014205479548, -0.39481574, 7.4775705, 6.4366927, 0.0845412, 0.05124855, 9.873762
187014215118923, -0.40079778, 7.476374, 6.4977098, 0.0674538, 0.00732708, 9.913244
187014224758402, -0.4331009, 7.475178, 6.4845495, 0.03650242, 0.0241251, 9.905218
187014234397777, -0.424726, 7.4847493, 6.4797635, 0.04646015, 0.03186798, 9.908884
187014244037152, -0.46181476, 7.469196, 6.5407805, -0.0022500157, -0.014345646, 9.939002
187014253676527, -0.50368917, 7.450053, 6.567102, -0.052025437, -0.035651207, 9.943836
187014263315902, -0.5180461, 7.4069824, 6.5635123, -0.07306361, -0.055943012, 9.909743
187014272955277, -0.5180461, 7.367501, 6.576673, -0.084766984, -0.08902979, 9.8886795
187014282594652, -0.5599205, 7.361519, 6.524031, -0.112167, -0.043034077, 9.851601
187014292234027, -0.5587241, 7.3268228, 6.454639, -0.10650599, -0.013166428, 9.779844
187014301873402, -0.5407779, 7.322037, 6.424729, -0.0813421, -6.3467026E-4, 9.755779
187014311512777, -0.5192425, 7.350751, 6.4474607, -0.05845797, -0.0056533813, 9.791295
187014321152152, -0.49292147, 7.391429, 6.4666033, -0.027463078, -0.001765728, 9.833229
187014330791527, -0.44865423, 7.457232, 6.4965134, 0.023729444, 0.00554657, 9.900288
187014340430902, -0.46061835, 7.493124, 6.518049, 0.015528917, 0.015713215, 9.94201
187014350070277, -0.44147578, 7.4847493, 6.5001025, 0.034359813, 0.01769209, 9.923016
187014359709652, -0.45702913, 7.4883385, 6.445068, 0.027889848, 0.06362581, 9.890306
187014369349027, -0.4331009, 7.4644103, 6.4055862, 0.052451253, 0.071932316, 9.845233
187014378988506, -0.38524446, 7.440482, 6.3864436, 0.096995294, 0.057568073, 9.812397
187014388627881, -0.38524446, 7.4344997, 6.337391, 0.10275197, 0.088122845, 9.775704
187014398267256, -0.37088752, 7.4416785, 6.3457656, 0.113123536, 0.08064175, 9.78599
187014407906631, -0.39361933, 7.4333034, 6.3565335, 0.085894406, 0.07194853, 9.787846
187014417546006, -0.4354937, 7.4069824, 6.3792653, 0.036458313, 0.046765804, 9.784914
187014427185381, -0.4438686, 7.426125, 6.385247, 0.030601382, 0.05599451, 9.803658
187014436824756, -0.45583272, 7.4344997, 6.468996, 0.007265568, 0.0017328262, 9.865466
187014446464131, -0.47736812, 7.4189467, 6.509674, -0.023293972, -0.032491207, 9.881443
187014456103506, -0.526421, 7.3950186, 6.515656, -0.076581, -0.03860569, 9.869644
187014465742881, -0.56470615, 7.399804, 6.506085, -0.10880256, -0.01732397, 9.868791
187014475382256, -0.573081, 7.4237323, 6.501299, -0.11117703, 0.0041251183, 9.884065
187014485021631, -0.5563313, 7.450053, 6.623333, -0.10852718, -0.07183981, 9.983206
187014494661006, -0.55034924, 7.422536, 6.6556363, -0.11449504, -0.113865376, 9.983405
187014504300381, -0.53359944, 7.4010005, 6.617351, -0.09063864, -0.10097742, 9.941351
187014513939756, -0.5347959, 7.379465, 6.5838513, -0.09016931, -0.089984894, 9.903201
187014523579131, -0.50488555, 7.38784, 6.552745, -0.05076009, -0.06802654, 9.887688
187014533218506, -0.47377887, 7.4416785, 6.5001025, -0.0019029379, -0.002984047, 9.892138
187014542857881, -0.44626144, 7.489535, 6.4474607, 0.039622843, 0.05618, 9.892285
187014552497256, -0.40917268, 7.48116, 6.4127645, 0.0775367, 0.06363058, 9.861475
187014562136631, -0.40558344, 7.4392858, 6.3864436, 0.07698095, 0.055731773, 9.812496
187014571776006, -0.38883367, 7.4333034, 6.3481584, 0.09652591, 0.072753906, 9.78211
187014581415381, -0.38404804, 7.4237323, 6.300302, 0.106390715, 0.09858513, 9.743309
187014591054756, -0.38404804, 7.4333034, 6.309873, 0.10591698, 0.095360756, 9.756827
187014600694131, -0.3924229, 7.4536424, 6.3194447, 0.101091385, 0.102498055, 9.778826
187014610333610, -0.43429732, 7.066005, 6.265606, -0.0116426945, -0.08905077, 9.453402
187014619972881, -0.34217364, 8.023134, 6.503692, 0.23540556, 0.3104186, 10.326374
187014629612360, -0.45702913, 6.9355965, 6.302695, -0.06865853, -0.19528198, 9.38043
187014639251735, -0.4761717, 7.77787, 6.6352973, 0.027549624, 0.091374874, 10.234261
187014648891110, -0.48095736, 7.298109, 6.48096, -0.04911554, -0.09031057, 9.771692
187014658530485, -0.58504516, 7.3172517, 6.6053867, -0.16708577, -0.14589834, 9.872505
187014668169860, -0.4211368, 7.786245, 6.6089764, 0.086536884, 0.10357094, 10.22073
187014677809235, -0.62931234, 6.9009004, 6.5048885, -0.27919245, -0.31370783, 9.495033
187014687448610, -0.38883367, 8.118847, 6.695118, 0.18116248, 0.24295092, 10.52614
187014697087985, -0.62093747, 6.698707, 6.3804617, -0.2874775, -0.3481822, 9.260921
187014706727360, -0.44626144, 8.105687, 6.6053867, 0.13403523, 0.3128729, 10.460239
187014716366735, -0.55513483, 6.823134, 6.2919273, -0.18528652, -0.21701384, 9.29356
187014726006110, -0.47976094, 7.7826557, 6.599405, 0.04038775, 0.12539387, 10.214436
187014735645485, -0.45104706, 7.227521, 6.4343, -0.019453645, -0.104047775, 9.6865635
187014745284860, -0.50488555, 7.318448, 6.5371914, -0.069685936, -0.10806942, 9.825118
187014754924235, -0.34217364, 7.7419777, 6.4031935, 0.20399201, 0.2079978, 10.048449
187014764563610, -0.5395815, 6.9152575, 6.2261243, -0.13181227, -0.12264824, 9.319021
187014774202985, -0.2847459, 8.118847, 6.4905314, 0.31883037, 0.35740566, 10.387222
187014783842360, -0.51565325, 6.7381887, 6.3254266, -0.17470086, -0.32216644, 9.249098
187014793481735, -0.32542387, 8.190632, 6.5982084, 0.26153338, 0.33350086, 10.514234
187014803121110, -0.45583272, 6.867401, 6.2464633, -0.076940656, -0.1999278, 9.2920065
187014812760485, -0.41754755, 7.928618, 6.5431733, 0.13059354, 0.23208284, 10.284918
187014822399860, -0.4235296, 7.2670026, 6.3589263, 0.020202994, -0.03822422, 9.665546
187014832039235, -0.5168497, 7.4153576, 6.550352, -0.070043445, -0.062078953, 9.907222
187014841678610, -0.38285163, 7.7001033, 6.48096, 0.13270593, 0.1282649, 10.070102
187014851317985, -0.56590253, 6.9451675, 6.363712, -0.18533546, -0.20505571, 9.432711
187014860957360, -0.36131623, 8.067402, 6.535995, 0.22183204, 0.30855703, 10.382116
187014870596735, -0.5982057, 6.6568327, 6.352944, -0.27777052, -0.371902, 9.209545
187014880236110, -0.424726, 8.106883, 6.6652074, 0.14224803, 0.25204372, 10.499676
187014889875485, -0.57906306, 6.778867, 6.3457656, -0.22709817, -0.2919798, 9.296249
187014899514756, -0.4881358, 7.8891363, 6.6448684, 0.04330933, 0.15591717, 10.324963
187014909154131, -0.4941179, 7.1365933, 6.4055862, -0.07841778, -0.13557577, 9.601151
187014918793506, -0.5802595, 7.4476604, 6.5575304, -0.12050736, -0.030536175, 9.9393215
187014928432881, -0.44147578, 7.6402826, 6.418747, 0.078693986, 0.15514898, 9.986936
187014938072256, -0.60658056, 6.923632, 6.3110695, -0.21093011, -0.16909981, 9.38409
187014947711631, -0.3804588, 7.972885, 6.4666033, 0.20314789, 0.30468988, 10.266182
187014957351006, -0.5946164, 6.647261, 6.3397837, -0.2665044, -0.36141157, 9.194067
187014966990381, -0.37806597, 8.12124, 6.6305118, 0.20414102, 0.27358818, 10.485447
187014976629756, -0.5515456, 6.739385, 6.2081785, -0.18261164, -0.22060537, 9.175129
187014986269131, -0.40079778, 7.969296, 6.512067, 0.16665566, 0.27381277, 10.294397
187014995908506, -0.40677986, 7.183254, 6.326623, 0.027597308, -0.07229996, 9.580439
187015005547881, -0.44027936, 7.605587, 6.5288167, 0.046485066, 0.050180435, 10.032925
187015015187256, -0.28235307, 7.692925, 6.4618177, 0.22852278, 0.11118317, 10.047454
187015024826631, -0.46899325, 7.1210403, 6.418747, -0.065930486, -0.16081572, 9.596837
187015034466006, -0.28594232, 8.100901, 6.4965134, 0.3060496, 0.34261847, 10.377861
187015044105381, -0.552742, 6.771688, 6.285945, -0.201339, -0.26161385, 9.250158
187015053744756, -0.3505485, 8.177471, 6.6185474, 0.23323143, 0.31210613, 10.518902
187015063384131, -0.5288138, 6.7381887, 6.350551, -0.18780297, -0.33689308, 9.26626
187015073023506, -0.4223332, 7.9657063, 6.641279, 0.11534917, 0.18629599, 10.377352
187015082662881, -0.47138608, 7.0468626, 6.3218374, -0.06785685, -0.13822174, 9.4774685
187015092302256, -0.5395815, 7.5517483, 6.515656, -0.06320286, 0.050474167, 9.988358
187015101941631, -0.41515473, 7.5816584, 6.445068, 0.07457936, 0.09086752, 9.958864
187015111581006, -0.5814559, 7.070791, 6.413961, -0.18366235, -0.16316509, 9.561
187015121220381, -0.38644084, 7.9800634, 6.4845495, 0.1755656, 0.30288982, 10.28385
187015130859756, -0.58265233, 6.7178497, 6.398408, -0.25121444, -0.3692751, 9.284888
187015140499027, -0.37806597, 8.139186, 6.7405815, 0.18279445, 0.21105385, 10.571035
187015150138402, -0.61016977, 6.6711893, 6.3804617, -0.29409373, -0.370039, 9.239262
187015159777777, -0.46899325, 7.9477606, 6.606583, 0.07723951, 0.20901442, 10.343313
187015169417152, -0.54436713, 6.9786673, 6.3421764, -0.15774381, -0.17429781, 9.44278
187015179056527, -0.5455636, 7.6223364, 6.5886374, -0.05915451, 0.046069145, 10.089706
187015188695902, -0.43788654, 7.54457, 6.4295144, 0.056316495, 0.081982136, 9.921746
187015198335277, -0.57547385, 7.1342006, 6.3828545, -0.1586467, -0.09710169, 9.588234
187015207974652, -0.3469593, 7.9429746, 6.4414787, 0.23089254, 0.29030848, 10.225765
187015217614027, -0.52163535, 6.8039913, 6.290731, -0.16287589, -0.24911928, 9.276375
187015227253402, -0.29192436, 8.203793, 6.5515485, 0.3110038, 0.35741138, 10.492178
187015236892777, -0.4953143, 6.7166533, 6.227321, -0.14491177, -0.2773447, 9.167355
187015246532152, -0.37567315, 8.032705, 6.485746, 0.19793081, 0.32041788, 10.324173
187015256171527, -0.45942193, 6.9391856, 6.2309103, -0.063467145, -0.14653635, 9.336065
187015265810902, -0.47377887, 7.623533, 6.5431733, 0.00934279, 0.051675797, 10.057489
187015275450173, -0.39481574, 7.476374, 6.391229, 0.07931256, 0.05136347, 9.843321
187015285089548, -0.55393845, 7.2873416, 6.2979093, -0.09802508, 0.044858456, 9.64698
187015294728923, -0.29671, 8.008778, 6.424729, 0.27728522, 0.33421946, 10.262415
187015304368298, -0.51206404, 6.8805614, 6.4343, -0.16989791, -0.31615782, 9.427393
187015314007673, -0.3182454, 8.199007, 6.7465634, 0.24450743, 0.22903109, 10.617386
187015323647048, -0.53359944, 6.6963143, 6.474978, -0.23580664, -0.44678164, 9.31641
187015333286423, -0.4127619, 8.04108, 6.7609205, 0.12456298, 0.15377855, 10.5119095
187015342925798, -0.52163535, 6.875776, 6.4211397, -0.17062283, -0.2911706, 9.416239
187015352565173, -0.5706882, 7.7156568, 6.550352, -0.059446573, 0.14479923, 10.136057
187015362204548, -0.485743, 7.422536, 6.3625154, -0.0058709383, 0.07576418, 9.788044
187015371843923, -0.57906306, 7.203593, 6.48096, -0.16207314, -0.123111725, 9.705074
187015381483194, -0.37447673, 7.820941, 6.48096, 0.16647124, 0.20526695, 10.160725
187015391122569, -0.58624154, 6.7501526, 6.344569, -0.23769385, -0.3054614, 9.274265
187015400761944, -0.39481574, 8.059027, 6.602994, 0.17321658, 0.27280188, 10.42108
187015410401319, -0.60658056, 6.634101, 6.206982, -0.26330316, -0.27250528, 9.097378
187015420040694, -0.36490545, 8.082955, 6.472585, 0.2244482, 0.37043238, 10.352492
187015429680069, -0.42592242, 6.9344, 6.2751775, -0.032318115, -0.18208408, 9.360074
187015439319444, -0.4103691, 7.806584, 6.5742803, 0.10384905, 0.13324738, 10.212923
187015448958819, -0.39720857, 7.342376, 6.3924255, 0.05346942, -0.02332449, 9.743099
187015458598194, -0.54436713, 7.26102, 6.4881387, -0.12265116, -0.10699797, 9.751318
187015468237465, -0.36610186, 7.783852, 6.4594245, 0.16378403, 0.19413424, 10.118401
187015477876840, -0.5814559, 6.8374906, 6.276374, -0.20862687, -0.20459127, 9.2949915
187015487516215, -0.34456646, 8.145168, 6.530013, 0.24782705, 0.3667555, 10.435883
187015497155590, -0.4953143, 6.74776, 6.38764, -0.16603446, -0.36668968, 9.296103
187015506794965, -0.31345975, 8.1738825, 6.6795645, 0.25946522, 0.26304245, 10.554178
187015516434340, -0.47377887, 6.8602223, 6.317052, -0.11908126, -0.24525881, 9.3337
187015526073715, -0.46181476, 7.8089767, 6.6245294, 0.04591763, 0.11242819, 10.250028
187015535713090, -0.47018966, 7.257431, 6.4773707, -0.05417192, -0.11422205, 9.738159
187015545352465, -0.57906306, 7.312466, 6.562316, -0.16170967, -0.11079931, 9.84038
187015554991735, -0.424726, 7.7551384, 6.471389, 0.10129857, 0.18477201, 10.107278
187015564631110, -0.60777694, 6.875776, 6.3326054, -0.23812705, -0.20762157, 9.36204
187015574270485, -0.3900301, 8.1020975, 6.5312095, 0.19833457, 0.34980154, 10.406303
187015583909860, -0.5886344, 6.660422, 6.3397837, -0.2632088, -0.3539548, 9.2035885
187015593549235, -0.3804588, 8.1020975, 6.650851, 0.17991412, 0.25602436, 10.484497
187015603188610, -0.49172506, 6.789634, 6.3218374, -0.13421702, -0.28681946, 9.284735
187015612827985, -0.41515473, 7.853244, 6.582655, 0.10649347, 0.16936255, 10.25364
187015622467360, -0.41874397, 7.281359, 6.3589263, 0.022586465, -0.026465893, 9.67617
187015632106631, -0.5084748, 7.4380894, 6.5001025, -0.05556178, -0.009960651, 9.891
187015641746006, -0.33020952, 7.7790666, 6.4366927, 0.19714284, 0.20322943, 10.098206
187015651385381, -0.50488555, 7.0002027, 6.3541408, -0.118285775, -0.1747489, 9.465111
187015661024756, -0.2428715, 8.133204, 6.550352, 0.33344162, 0.31548834, 10.435728
187015670664131, -0.4881358, 6.7238317, 6.3625154, -0.15879774, -0.35671186, 9.261606
187015680303506, -0.28953153, 8.169097, 6.5946193, 0.29049182, 0.32646418, 10.493618
187015689942881, -0.465404, 6.8015985, 6.215357, -0.09951198, -0.20135641, 9.222719
187015699582256, -0.4031906, 7.8891363, 6.524031, 0.13166392, 0.22786093, 10.241815
187015709221527, -0.44745782, 7.160522, 6.334998, -0.030199647, -0.07663345, 9.570721
187015718860902, -0.51445687, 7.432107, 6.5407805, -0.07291448, -0.040145397, 9.913412
187015728500277, -0.39960137, 7.6749787, 6.458228, 0.10145986, 0.14200115, 10.037094
187015738139652, -0.62452674, 6.937989, 6.390033, -0.25608015, -0.2119174, 9.4471035
187015747779027, -0.41994038, 8.002795, 6.6077795, 0.1281637, 0.24263763, 10.383089
187015757418402, -0.6412765, 6.6484575, 6.439086, -0.33123976, -0.4244275, 9.26203
187015767057777, -0.44626144, 8.116454, 6.7322063, 0.111626506, 0.23333263, 10.551384
187015776697048, -0.61854464, 6.710671, 6.3924255, -0.29616404, -0.34326172, 9.277569
187015786336423, -0.48215377, 7.8927255, 6.6771717, 0.04000306, 0.1482091, 10.348365
187015795975798, -0.4869394, 7.1210403, 6.428318, -0.08233321, -0.15281248, 9.604139
187015805615173, -0.5192425, 7.500303, 6.600601, -0.064967155, -0.035031796, 10.00433
187015815254548, -0.39840496, 7.631908, 6.5252275, 0.09124243, 0.07662821, 10.04834
187015824893923, -0.5766702, 7.018149, 6.474978, -0.19500846, -0.22896576, 9.561478
187015834533298, -0.3589234, 8.032705, 6.5850477, 0.19724154, 0.2735529, 10.387603
187015844172569, -0.587438, 6.6855464, 6.38764, -0.26278794, -0.36884928, 9.254104
187015853811944, -0.3481557, 8.152347, 6.6388865, 0.22652423, 0.30844498, 10.51239
187015863451319, -0.47976094, 6.7573314, 6.1974106, -0.11390042, -0.21433306, 9.178274
187015873090694, -0.32662028, 8.001599, 6.407979, 0.25663698, 0.36607504, 10.246687
187015882730069, -0.38404804, 7.088737, 6.192625, 0.04628396, -0.027030468, 9.420372
187015892369444, -0.4211368, 7.542177, 6.430711, 0.05885482, 0.08474398, 9.919939
187015902008819, -0.34337005, 7.57448, 6.3278193, 0.15738785, 0.16154003, 9.873253
187015911648090, -0.5168497, 7.0504518, 6.385247, -0.12879932, -0.16123915, 9.523909
187015921287465, -0.29192436, 7.989635, 6.5682983, 0.24861407, 0.23170376, 10.3414955
187015930926840, -0.5383851, 6.751349, 6.4067826, -0.21391314, -0.3536725, 9.313786
187015940566215, -0.36370903, 8.213364, 6.664011, 0.20991743, 0.32934427, 10.575829
187015950205590, -0.5491528, 6.7669024, 6.3768725, -0.22363186, -0.31824636, 9.306221
187015959844965, -0.40917268, 8.043473, 6.68435, 0.12671793, 0.21260595, 10.463469
187015969484340, -0.46899325, 7.071987, 6.4343, -0.08841503, -0.1867919, 9.5702915
187015979123610, -0.50368917, 7.618747, 6.6652074, -0.046430588, -0.0034809113, 10.135179
187015988762985, -0.40797627, 7.513463, 6.5276203, 0.04768181, 0.0042939186, 9.961231
187015998402360, -0.56111693, 7.064809, 6.541977, -0.19800675, -0.23993874, 9.63987
187016008041735, -0.35294133, 7.9680996, 6.5982084, 0.18574119, 0.22343302, 10.347324
187016017681110, -0.58983076, 6.7704916, 6.452246, -0.2651729, -0.3498459, 9.360888
187016027320485, -0.36610186, 8.1738825, 6.7441707, 0.18416488, 0.25112486, 10.598738
187016036959756, -0.53599226, 6.71426, 6.381658, -0.21317744, -0.35685062, 9.269375
187016046599131, -0.40438703, 8.07458, 6.562316, 0.16033101, 0.32729626, 10.406417
187016056238506, -0.45104706, 7.0133634, 6.282356, -0.04937631, -0.11521673, 9.425655
187016065877881, -0.4546363, 7.647461, 6.5838513, 0.022381544, 0.055111885, 10.101184
187016075517256, -0.39361933, 7.446464, 6.431907, 0.06904948, 0.026710033, 9.847269
187016085156631, -0.5419743, 7.1389866, 6.3996043, -0.13028407, -0.10508442, 9.601343
187016094796006, -0.357727, 7.893922, 6.393622, 0.2059828, 0.32423973, 10.157402
187016104435277, -0.5419743, 6.727421, 6.273981, -0.20031095, -0.27059937, 9.208769
187016114074652, -0.29072794, 8.153543, 6.5838513, 0.297889, 0.31322813, 10.474972
187016123714027, -0.5024927, 6.704689, 6.276374, -0.17210972, -0.29919338, 9.19125
187016133353402, -0.3589234, 8.082955, 6.5814586, 0.21241808, 0.28955126, 10.423513
187016142992777, -0.4749753, 6.9415784, 6.2919273, -0.09442067, -0.16719818, 9.378837
187016152632152, -0.47018966, 7.6917286, 6.533602, 0.029550552, 0.11854029, 10.102316
187016162271527, -0.4438686, 7.3986077, 6.3924255, 0.01632309, 0.032341003, 9.787657
187016171910798, -0.60777694, 7.1473613, 6.45105, -0.20325398, -0.12126207, 9.644386
187016181550173, -0.4319045, 7.8029947, 6.472585, 0.10193002, 0.22753525, 10.144234
187016191189548, -0.64606214, 6.7022963, 6.3804617, -0.3095892, -0.34157896, 9.264769
187016200828923, -0.40677986, 8.066205, 6.7130637, 0.14258695, 0.21199179, 10.499003
187016210468298, -0.60658056, 6.6329045, 6.471389, -0.30379993, -0.46091366, 9.270249
187016220107673, -0.40917268, 8.094919, 6.739385, 0.13702798, 0.20718622, 10.5381565
187016229746944, -0.4941179, 6.9559355, 6.3828545, -0.11473787, -0.22081852, 9.450296
187016239386319, -0.44745782, 7.8436728, 6.6735826, 0.056453824, 0.11187267, 10.307494
187016249025694, -0.3900301, 7.479964, 6.4594245, 0.075176775, 0.028786182, 9.890383
187016258665069, -0.47976094, 7.368697, 6.502496, -0.039264143, -0.05182028, 9.839009
187016268304444, -0.28713873, 7.8927255, 6.4666033, 0.25497454, 0.26036787, 10.201067
187016277943819, -0.5024927, 6.8506513, 6.259624, -0.12246704, -0.19684029, 9.290483
187016287583194, -0.28235307, 8.1020975, 6.4642105, 0.29896855, 0.38712692, 10.357147
187016297222465, -0.47976094, 6.647261, 6.259624, -0.13730347, -0.3273635, 9.136364
187016306861840, -0.29910284, 8.098508, 6.5455666, 0.26793706, 0.3238263, 10.408798
187016316501215, -0.43070808, 6.8709903, 6.189036, -0.046746016, -0.15268183, 9.2560625
187016326140590, -0.3912265, 7.816155, 6.483353, 0.1374681, 0.21226597, 10.159491
187016335779965, -0.39960137, 7.320841, 6.3565335, 0.044265866, -0.0021548271, 9.703503
187016345419340, -0.52283174, 7.3196445, 6.5204415, -0.10394752, -0.0897665, 9.815695
187016355058715, -0.41635114, 7.773084, 6.5371914, 0.09469867, 0.15659094, 10.163443
187016364697985, -0.63529444, 6.8279195, 6.4701924, -0.3036335, -0.32482672, 9.417524
187016374337360, -0.40558344, 8.080562, 6.7058854, 0.14141262, 0.22952557, 10.505054
187016383976735, -0.6233303, 6.6329045, 6.4414787, -0.323429, -0.42773485, 9.251434
187016393616110, -0.43788654, 8.070991, 6.71426, 0.10482168, 0.22151327, 10.504945
187016403255485, -0.56111693, 6.77767, 6.393622, -0.21559769, -0.31522417, 9.326533
187016412894860, -0.4977071, 7.7994056, 6.652047, 0.0056345463, 0.11646891, 10.262289
187016422534235, -0.47976094, 7.2299137, 6.4618177, -0.05682981, -0.10067272, 9.707912
187016432173506, -0.5587241, 7.350751, 6.5754766, -0.12801379, -0.088130474, 9.877169
187016441812881, -0.37806597, 7.726424, 6.519245, 0.13207614, 0.14590454, 10.114466
187016451452256, -0.5479564, 6.9224358, 6.4331036, -0.18219966, -0.24800968, 9.460999
187016461091631, -0.29790643, 8.139186, 6.626922, 0.27153873, 0.30519438, 10.492106
187016470731006, -0.4869394, 6.739385, 6.37089, -0.15410435, -0.34225988, 9.279212
187016480370381, -0.28594232, 8.185846, 6.587441, 0.29500067, 0.35966015, 10.500851
187016490009756, -0.41635114, 6.8422766, 6.2201424, -0.04484296, -0.18688536, 9.254368
187016499649027, -0.33738798, 7.893922, 6.538388, 0.1916548, 0.21728134, 10.251556
187016509288402, -0.36011982, 7.183254, 6.3314085, 0.059802294, -0.069093704, 9.581608
187016518927777, -0.47258246, 7.4105716, 6.48096, -0.02722931, -0.0078024864, 9.85606
187016528567152, -0.35294133, 7.704889, 6.437889, 0.15485227, 0.18025875, 10.043894
187016538206527, -0.56111693, 6.9786673, 6.4259253, -0.19140661, -0.21121836, 9.4988365
187016547845902, -0.3385844, 8.115258, 6.6963143, 0.21223712, 0.23556948, 10.521985
187016557485277, -0.58504516, 6.74776, 6.5288167, -0.296575, -0.42250586, 9.3932705
187016567124652, -0.36131623, 8.2014, 6.7872415, 0.18859053, 0.2359891, 10.647481
187016576763923, -0.51565325, 6.7764735, 6.373283, -0.18679798, -0.31430483, 9.309755
187016586403298, -0.40917268, 7.9094753, 6.613762, 0.11064243, 0.18738174, 10.316089
187016596042673, -0.43070808, 7.1389866, 6.3888364, -0.029138684, -0.1207571, 9.589184
187016605682048, -0.5132605, 7.4548388, 6.550352, -0.06798887, -0.018932343, 9.93681
187016615321423, -0.4426722, 7.585248, 6.428318, 0.04890299, 0.1342988, 9.951624
187016624960798, -0.6305088, 6.896115, 6.40439, -0.26584762, -0.23426819, 9.425741
187016634600173, -0.4139583, 7.946564, 6.593423, 0.119440794, 0.23101187, 10.330772
187016644239444, -0.59342, 6.6460648, 6.4235325, -0.27232224, -0.41728783, 9.248558
187016653878819, -0.36610186, 8.149954, 6.6855464, 0.19652593, 0.28321028, 10.541986
187016663518194, -0.5180461, 6.795616, 6.3134627, -0.16099185, -0.26302052, 9.285121
187016673157569, -0.3684947, 8.036295, 6.5694947, 0.18543434, 0.29561377, 10.380478
187016682796944, -0.38644084, 7.1425757, 6.323034, 0.02835083, -0.08627415, 9.546636
187016692436319, -0.44027936, 7.5792656, 6.586244, 0.02148652, 0.0074682236, 10.050733
187016702075694, -0.34337005, 7.629515, 6.4965134, 0.1402111, 0.08146715, 10.025257
187016711715069, -0.5395815, 7.066005, 6.439086, -0.15101242, -0.18113661, 9.572136
187016721354444, -0.31226337, 7.995617, 6.5168524, 0.23824, 0.28603363, 10.313011
187016730993715, -0.54675996, 6.71426, 6.3397837, -0.21109974, -0.33704138, 9.242022
187016740633090, -0.33738798, 8.184649, 6.597012, 0.2333411, 0.34714842, 10.509422
187016750272465, -0.50129634, 6.725028, 6.2261243, -0.14668643, -0.2529421, 9.173681
187016759911840, -0.40677986, 8.001599, 6.465407, 0.14599621, 0.34432983, 10.288473
187016769551215, -0.47138608, 7.0289164, 6.257231, -0.066868424, -0.09823418, 9.421608
187016779190590, -0.5288138, 7.5266237, 6.556334, -0.07411921, 0.0075597763, 9.9954815
187016788829965, -0.45224348, 7.48116, 6.452246, 0.012255132, 0.043758392, 9.889473
187016798469340, -0.60059845, 7.02772, 6.483353, -0.22297621, -0.22821283, 9.575053
187016808108610, -0.36011982, 7.948957, 6.649654, 0.16597068, 0.16603422, 10.367178
187016817747985, -0.5587241, 6.7908306, 6.5659056, -0.24786627, -0.44548178, 9.448746
187016827387360, -0.3385844, 8.244471, 6.8099732, 0.21260476, 0.2314663, 10.694059
187016837026735, -0.5479564, 6.788438, 6.442675, -0.22888893, -0.35428905, 9.365538
187016846666110, -0.40079778, 8.123632, 6.6771717, 0.15365505, 0.2646203, 10.518794
187016856305485, -0.44865423, 7.0695944, 6.323034, -0.04920268, -0.114926815, 9.494503
187016865944860, -0.4438686, 7.6713896, 6.503692, 0.05004835, 0.120408535, 10.066194
187016875584235, -0.3278167, 7.476374, 6.3493547, 0.14969182, 0.07915783, 9.81271
187016885223610, -0.47856453, 7.1545396, 6.290731, -0.05589032, -0.039763927, 9.538609
187016894862881, -0.28235307, 7.9298143, 6.334998, 0.2948948, 0.35111284, 10.143158
187016904502256, -0.50129634, 6.751349, 6.2847486, -0.16987503, -0.28092098, 9.231592
187016914141631, -0.30987054, 8.158329, 6.6388865, 0.2641363, 0.26973057, 10.516018
187016923781006, -0.53359944, 6.7022963, 6.3481584, -0.22577047, -0.34355068, 9.237729
187016933420381, -0.42951167, 8.04108, 6.6448684, 0.1301626, 0.23781013, 10.436677
187016943059756, -0.53240305, 6.914061, 6.350551, -0.17235303, -0.20873356, 9.399145
187016952699131, -0.5587241, 7.668997, 6.606583, -0.07240689, 0.07472134, 10.13715
187016962338506, -0.485743, 7.4249287, 6.4570317, -0.029954672, 0.010733604, 9.85179
187016971977881, -0.59700924, 7.170093, 6.5144596, -0.2047025, -0.16224575, 9.702401
187016981617256, -0.39361933, 7.8580294, 6.513263, 0.14181292, 0.20663929, 10.210941
187016991256631, -0.6041877, 6.771688, 6.355337, -0.26675344, -0.2905159, 9.298148
187017000895902, -0.357727, 8.136793, 6.6975107, 0.20168018, 0.2404356, 10.5400915
187017010535277, -0.5802595, 6.6891356, 6.454639, -0.27604508, -0.42625427, 9.299769
187017020174652, -0.4139583, 8.1020975, 6.6855464, 0.1397028, 0.23919535, 10.508812
187017029814027, -0.52283174, 6.9344, 6.3158555, -0.1352703, -0.18338251, 9.391346
187017039453402, -0.49052864, 7.757531, 6.599405, 0.013204455, 0.11489391, 10.1960125
187017049092777, -0.41156548, 7.381858, 6.439086, 0.040035486, -0.021759987, 9.804131
187017058732152, -0.5168497, 7.268199, 6.4642105, -0.09280431, -0.09061909, 9.739767
187017068371527, -0.31465617, 7.897511, 6.4031935, 0.22927314, 0.30409908, 10.164917
187017078010902, -0.4869394, 6.853044, 6.209375, -0.10509342, -0.17182302, 9.258352
187017087650277, -0.24885355, 8.1679, 6.4677997, 0.32807928, 0.4068184, 10.40845
187017097289652, -0.45942193, 6.7130637, 6.233303, -0.11282754, -0.2937088, 9.1668625
187017106929027, -0.29072794, 8.116454, 6.530013, 0.27703738, 0.3343296, 10.412199
187017116568402, -0.47258246, 6.8506513, 6.229714, -0.10145992, -0.19435501, 9.269091
187017126207777, -0.48215377, 7.7647095, 6.5754766, 0.011625469, 0.12541723, 10.185492
187017135847048, -0.4749753, 7.304091, 6.485746, -0.051287115, -0.09337902, 9.779004
187017145486423, -0.59940207, 7.3172517, 6.6041903, -0.18860698, -0.14365387, 9.872213
187017155125798, -0.36490545, 7.864012, 6.5898337, 0.14720273, 0.15544176, 10.264303
187017164765173, -0.5395815, 6.9212394, 6.4965134, -0.19441289, -0.32823944, 9.500201
187017174404548, -0.31106696, 8.19781, 6.6927247, 0.24420762, 0.270689, 10.581139
187017184043923, -0.56470615, 6.7298136, 6.422336, -0.24908596, -0.3881464, 9.30822
187017193683298, -0.39720857, 8.129615, 6.6795645, 0.15034318, 0.26399946, 10.52486
187017203322673, -0.5312066, 6.818348, 6.352944, -0.18607277, -0.28821325, 9.328144
187017212962048, -0.4749753, 7.7874413, 6.6424756, 0.013292074, 0.09111166, 10.246164
187017222601423, -0.45583272, 7.2502527, 6.4414787, -0.040673852, -0.098098755, 9.708516
187017232240798, -0.53359944, 7.3435726, 6.495317, -0.105113804, -0.05921364, 9.817708
187017241880173, -0.36490545, 7.759924, 6.413961, 0.16252947, 0.2137866, 10.070568
187017251519548, -0.5491528, 6.9296145, 6.2955165, -0.17352879, -0.16080475, 9.375431
187017261158923, -0.2943172, 8.124829, 6.5108705, 0.29467666, 0.34594774, 10.405979
187017270798298, -0.5132605, 6.6939216, 6.3254266, -0.19827783, -0.3395791, 9.215661
187017280437673, -0.31226337, 8.135597, 6.6221366, 0.25718105, 0.2756176, 10.487899
187017290077048, -0.47258246, 6.8099732, 6.273981, -0.12267673, -0.24400711, 9.267542
187017299716319, -0.39601216, 7.8903327, 6.515656, 0.12971592, 0.22990274, 10.237104
187017309355694, -0.3792624, 7.2442703, 6.3182483, 0.05086857, -0.03338909, 9.619764
187017318995069, -0.465404, 7.495517, 6.4965134, -0.015618682, 0.010285854, 9.929941
187017328634444, -0.3385844, 7.800602, 6.468996, 0.16940314, 0.19205618, 10.136387
187017338273819, -0.55752766, 6.99781, 6.4091754, -0.18824047, -0.2168684, 9.501328
187017347913194, -0.35533416, 8.09133, 6.6687965, 0.18164074, 0.23357964, 10.487192
187017357552569, -0.6089734, 6.680761, 6.495317, -0.310565, -0.46091223, 9.321142
187017367191944, -0.45942193, 8.109276, 6.728617, 0.08186066, 0.23148823, 10.544451
187017376831319, -0.61734825, 6.6975107, 6.3290157, -0.28197592, -0.32528353, 9.225449
187017386470694, -0.485743, 7.844869, 6.6305118, 0.023634076, 0.13994503, 10.282093
187017396110069, -0.47976094, 7.0959153, 6.4271216, -0.08526385, -0.17493916, 9.583957
187017405749444, -0.55513483, 7.440482, 6.582655, -0.117016554, -0.05735588, 9.949038
187017415388819, -0.40677986, 7.649854, 6.474978, 0.087069035, 0.114326954, 10.029478
187017425028194, -0.5491528, 7.0133634, 6.3768725, -0.1671409, -0.17310286, 9.491861
187017434667569, -0.3074777, 8.110473, 6.5288167, 0.26093864, 0.3351617, 10.40766
187017444306944, -0.51086766, 6.818348, 6.337391, -0.16779888, -0.28552866, 9.316851
187017453946319, -0.2548356, 8.270791, 6.6305118, 0.33018017, 0.33371782, 10.593121
187017463585694, -0.40438703, 6.8662047, 6.309873, -0.04809642, -0.25808716, 9.330267
187017473225069, -0.29671, 8.045866, 6.552745, 0.25793397, 0.26111555, 10.37438
187017482864444, -0.39361933, 7.1581287, 6.2668023, 0.027119398, -0.05237961, 9.521717
187017492503819, -0.45702913, 7.548159, 6.4845495, 0.010370135, 0.047044277, 9.961458
187017502143194, -0.34576288, 7.605587, 6.411568, 0.13977832, 0.11003208, 9.951937
187017511782569, -0.51086766, 7.04447, 6.3684974, -0.12796295, -0.1676817, 9.507828
187017521421944, -0.3182454, 8.021938, 6.4797635, 0.2358036, 0.30605602, 10.309746
187017531061319, -0.5599205, 6.719046, 6.3122663, -0.22900563, -0.32211494, 9.227547
187017540700694, -0.37806597, 8.165507, 6.6556363, 0.17936587, 0.28136015, 10.535873
187017550340069, -0.58504516, 6.7322063, 6.3481584, -0.25466585, -0.3358307, 9.262093
187017559979444, -0.47377887, 7.995617, 6.5898337, 0.069624305, 0.25140333, 10.368811
187017569618819, -0.5240282, 7.038488, 6.35773, -0.13243675, -0.1627059, 9.496929
187017579258194, -0.55752766, 7.5661054, 6.661618, -0.10415417, -0.046722412, 10.095589
187017588897569, -0.5024927, 7.359126, 6.5443697, -0.0714587, -0.1026392, 9.860142
187017598536944, -0.55513483, 7.428518, 6.5575304, -0.10923344, -0.055164337, 9.9235735
187017608176319, -0.526421, 7.3866434, 6.521638, -0.084558845, -0.061408997, 9.867141
187017617815694, -0.5407779, 7.4105716, 6.5108705, -0.09140265, -0.036944866, 9.878803
187017627455069, -0.506082, 7.4249287, 6.474978, -0.049016833, -0.010462284, 9.864508
187017637094444, -0.4761717, 7.4356966, 6.4474607, -0.013372898, 0.0073075294, 9.853214
187017646733819, -0.46779683, 7.4189467, 6.4151573, -0.0033513308, 0.0169487, 9.819041
187017656373194, -0.4127619, 7.4333034, 6.37089, 0.060355425, 0.042146206, 9.7983265
187017666012569, -0.39960137, 7.4416785, 6.3134627, 0.08541775, 0.08514929, 9.766449
187017675651944, -0.38883367, 7.456035, 6.3182483, 0.096393704, 0.08832407, 9.779919
187017685291319, -0.39720857, 7.457232, 6.3397837, 0.082110524, 0.074380875, 9.79534
187017694930694, -0.41515473, 7.4584284, 6.3517475, 0.06243086, 0.0716095, 9.804908
187017704570069, -0.41874397, 7.4847493, 6.428318, 0.049465775, 0.032485962, 9.87505
187017714209444, -0.39960137, 7.487142, 6.489335, 0.05372989, -0.016624928, 9.915912
187017723848819, -0.424726, 7.4883385, 6.498906, 0.026226282, -0.01628828, 9.924234
187017733488194, -0.4426722, 7.507481, 6.492924, 0.0135855675, 0.004702091, 9.935597
187017743127569, -0.4546363, 7.466803, 6.503692, -0.009412527, -0.026119232, 9.91247
187017752766944, -0.47377887, 7.4907312, 6.5443697, -0.029639363, -0.036693096, 9.958015
187017762406319, -0.465404, 7.5050883, 6.5886374, -0.024745286, -0.059918404, 9.997445
187017772045694, -0.47377887, 7.509874, 6.5647087, -0.0283795, -0.037154198, 9.985785
187017781685069, -0.46181476, 7.4656067, 6.5001025, -0.012615919, -0.017795563, 9.909561
187017791324444, -0.465404, 7.470392, 6.4570317, -0.008659482, 0.017820835, 9.885151
187017800963819, -0.46899325, 7.446464, 6.452246, -0.014637291, 0.006011486, 9.864127
187017810603194, -0.47736812, 7.411768, 6.448657, -0.028717875, -0.01117754, 9.835976
187017820242569, -0.45702913, 7.4153576, 6.472585, -0.012339711, -0.03341484, 9.853401
187017829881944, -0.46301118, 7.4010005, 6.4618177, -0.019291043, -0.032953262, 9.835793
187017839521319, -0.47976094, 7.428518, 6.4606214, -0.030721486, -0.0119133, 9.856552
187017849160798, -0.4881358, 7.4356966, 6.4558353, -0.036749065, -0.0025753975, 9.859226
187017858800173, -0.48454657, 7.463214, 6.410372, -0.02103436, 0.04749298, 9.850103
187017868439548, -0.45583272, 7.4512496, 6.391229, 0.007939458, 0.04683113, 9.82723
187017878078923, -0.44985065, 7.4584284, 6.4175506, 0.01276207, 0.03049612, 9.849588
187017887718298, -0.44027936, 7.442875, 6.4331036, 0.017626226, 0.007962227, 9.847571
187017897357673, -0.44626144, 7.4452677, 6.437889, 0.011575043, 0.007288933, 9.852787
187017906997048, -0.46181476, 7.416554, 6.442675, -0.00914824, -0.009509563, 9.834961
187017916636423, -0.45822555, 7.429714, 6.4414787, -0.0034950972, -1.9550323E-5, 9.8439455
187017926275798, -0.47258246, 7.452446, 6.4498534, -0.014449775, 0.0113835335, 9.867247
187017935915173, -0.4211368, 7.4883385, 6.48096, 0.03644198, -7.982254E-4, 9.912319
187017945554548, -0.40797627, 7.513463, 6.4905314, 0.051041782, 0.004637718, 9.936949
187017955193923, -0.39840496, 7.5026956, 6.472585, 0.059290648, 0.008490086, 9.916648
187017964833298, -0.41994038, 7.520642, 6.506085, 0.035473704, -1.9550323E-4, 9.953103
187017974472673, -0.4438686, 7.501499, 6.526424, 0.0047979355, -0.021520615, 9.953051
187017984112048, -0.42831525, 7.4787674, 6.5312095, 0.01519233, -0.043074608, 9.938312
187017993751423, -0.4761717, 7.459625, 6.521638, -0.032368064, -0.036361694, 9.919786
187018003390798, -0.4881358, 7.4392858, 6.4845495, -0.041245997, -0.018966198, 9.880716
187018013030173, -0.49292147, 7.4392858, 6.4618177, -0.041327596, -0.0012984276, 9.86607
187018022669652, -0.4869394, 7.4237323, 6.458228, -0.037230194, -0.010728836, 9.8517065
187018032309027, -0.48215377, 7.4344997, 6.4761744, -0.03321123, -0.018964767, 9.871353
187018041948402, -0.47736812, 7.446464, 6.448657, -0.022366285, 0.006834507, 9.862165
187018051587777, -0.45702913, 7.4584284, 6.4534426, -0.0011080503, 0.0054559708, 9.873396
187018061227152, -0.44745782, 7.457232, 6.4498534, 0.00829947, 0.0039424896, 9.869704
187018070866527, -0.47018966, 7.457232, 6.4438715, -0.01303947, 0.012998104, 9.866839
187018080505902, -0.47736812, 7.4476604, 6.4055862, -0.015485644, 0.036491394, 9.834911
187018090145277, -0.43908295, 7.4440713, 6.422336, 0.020213604, 0.010666847, 9.841389
187018099784652, -0.43070808, 7.4452677, 6.410372, 0.031173348, 0.017870426, 9.83408
187018109424027, -0.44147578, 7.4333034, 6.3421764, 0.029107451, 0.063736916, 9.780961
187018119063402, -0.42831525, 7.4249287, 6.3481584, 0.03995371, 0.050205708, 9.777935
187018128702777, -0.41515473, 7.4452677, 6.3565335, 0.05492401, 0.052734375, 9.798166
187018138342152, -0.41515473, 7.457232, 6.3457656, 0.05659449, 0.06764555, 9.800184
187018147981527, -0.43669012, 7.442875, 6.378069, 0.02695787, 0.039914608, 9.811449
187018157621006, -0.45822555, 7.457232, 6.492924, -0.011240125, -0.029170513, 9.898352
187018167260381, -0.45942193, 7.4656067, 6.5479593, -0.019698858, -0.062616825, 9.940716
187018176899756, -0.46660042, 7.4679995, 6.5455666, -0.026150346, -0.057338238, 9.941287
187018186539131, -0.5096712, 7.460821, 6.5551376, -0.07036352, -0.056026936, 9.944111
187018196178506, -0.51086766, 7.470392, 6.559923, -0.070870996, -0.051790237, 9.954527
187018205817881, -0.5096712, 7.4620175, 6.5814586, -0.07536745, -0.07303572, 9.962231
187018215457256, -0.49052864, 7.469196, 6.562316, -0.051830053, -0.059702396, 9.954258
187018225096631, -0.49052864, 7.456035, 6.5539412, -0.05312276, -0.06171465, 9.938843
187018234736006, -0.5024927, 7.4512496, 6.5084777, -0.055264354, -0.026848316, 9.906064
187018244375381, -0.485743, 7.422536, 6.448657, -0.034962893, -0.004963398, 9.844486
187018254014860, -0.5024927, 7.409375, 6.4175506, -0.04665208, 0.014751434, 9.814983
187018263654235, -0.4749753, 7.4033933, 6.3864436, -0.014163792, 0.027619362, 9.788849
187018273293610, -0.4354937, 7.428518, 6.364908, 0.031617343, 0.04906845, 9.791894
187018282932985, -0.38763726, 7.472785, 6.367301, 0.08598143, 0.06367445, 9.824657
187018292572360, -0.3493521, 7.4907312, 6.375676, 0.1208058, 0.05755186, 9.841972
187018302211735, -0.36370903, 7.495517, 6.3684974, 0.10691309, 0.06815004, 9.841583
187018311851110, -0.40558344, 7.459625, 6.367301, 0.05940503, 0.056727886, 9.815613
187018321490485, -0.4235296, 7.460821, 6.4163537, 0.03405243, 0.024586678, 9.849419
187018331129860, -0.4642076, 7.4548388, 6.471389, -0.015585899, -0.008419514, 9.882746
187018340769235, -0.45822555, 7.450053, 6.4821568, -0.012260795, -0.020953178, 9.8859005
187018350408715, -0.44985065, 7.470392, 6.4965134, -0.003011465, -0.019199371, 9.910269
187018360048090, -0.4354937, 7.472785, 6.5312095, 0.0060355663, -0.04686165, 9.934114
187018369687465, -0.40558344, 7.4847493, 6.4965134, 0.039223433, -0.02219534, 9.919106
187018379326840, -0.41635114, 7.5314093, 6.5001025, 0.0371238, 0.0070672035, 9.957179
187018388966215, -0.44027936, 7.5290165, 6.521638, 0.006558895, -0.007625103, 9.970535
187018398605590, -0.4438686, 7.5349984, 6.5551376, -7.8195333E-4, -0.027890205, 9.997112
187018408244965, -0.4546363, 7.521838, 6.567102, -0.012875676, -0.04268837, 9.995478
187018417884340, -0.4833502, 7.4739814, 6.5276203, -0.04096055, -0.036024094, 9.934834
187018427523715, -0.47856453, 7.450053, 6.4366927, -0.024486959, 0.015979767, 9.857103
187018437163194, -0.4977071, 7.416554, 6.3696938, -0.037822604, 0.048197746, 9.788883
187018446802569, -0.48454657, 7.3974113, 6.3541408, -0.025368452, 0.04303074, 9.763663
187018456441944, -0.45583272, 7.396215, 6.352944, 0.0026308894, 0.0365901, 9.760653
187018466081319, -0.4354937, 7.3806615, 6.346962, 0.019521713, 0.022994518, 9.744066
187018475720694, -0.41754755, 7.4129643, 6.384051, 0.037552893, 0.011312008, 9.7918825
187018485360069, -0.4235296, 7.4476604, 6.407979, 0.032263696, 0.016105652, 9.834018
187018494999444, -0.4331009, 7.472785, 6.4366927, 0.023365438, 0.012893677, 9.872202
187018504638819, -0.4833502, 7.470392, 6.4366927, -0.025780141, 0.023767471, 9.872698
187018514278298, -0.5072784, 7.4548388, 6.4570317, -0.053412676, 0.0049819946, 9.875341
187018523917673, -0.48933223, 7.4416785, 6.5288167, -0.04722774, -0.06041479, 9.911489
187018533557048, -0.5096712, 7.4344997, 6.521638, -0.06659746, -0.05472517, 9.902317
187018543196423, -0.49292147, 7.4344997, 6.4354963, -0.03854209, 0.005885601, 9.845245
187018552835798, -0.46061835, 7.429714, 6.375676, 8.864403E-4, 0.039883137, 9.801046
187018562475173, -0.4319045, 7.4620175, 6.3972116, 0.02861762, 0.03518963, 9.838215
