timestamp_acc,device_acc_x,device_acc_y,device_acc_z,earth_acc_x,earth_acc_y,earth_acc_z
263133184114127, 5.593223, 0.19381863, 8.342576, -0.037247658, 0.005061269, 10.045839
263133193752877, 5.584848, 0.19142582, 8.327023, -0.036688805, 0.0072271824, 10.028215
263133203391523, 5.5477595, 0.18424734, 8.333005, 0.0030255318, 0.0069027543, 10.012517
263133213030273, 5.528617, 0.16630118, 8.350951, 0.03186655, 0.01897788, 10.0164995
263133222669023, 5.56092, 0.1902294, 8.348558, 5.054474E-5, 4.9841404E-4, 10.03287
263133232307669, 5.568098, 0.23090738, 8.398808, 0.014544964, -0.044617772, 10.079425
263133241946419, 5.5669017, 0.23808585, 8.410771, 0.021279335, -0.052656353, 10.088852
263133251585169, 5.595616, 0.24765715, 8.366505, -0.027801514, -0.054283857, 10.068114
263133261223815, 5.611169, 0.21894327, 8.3377905, -0.052565098, -0.019645631, 10.052301
263133270862565, 5.6183476, 0.2009971, 8.352147, -0.04764986, -0.0020310879, 10.067885
263133280501315, 5.599205, 0.19381863, 8.334201, -0.04034376, 0.004067719, 10.042208
263133290139960, 5.581259, 0.18424734, 8.313862, -0.035228252, 0.012397647, 10.015154
263133299778710, 5.5537415, 0.17706887, 8.336594, 7.381439E-4, 0.013101399, 10.018683
263133309417460, 5.5573306, 0.16749759, 8.370093, 0.018193245, 0.019348204, 10.04837
263133319056106, 5.5669017, 0.148355, 8.347362, 0.001344204, 0.040081024, 10.034404
263133328694856, 5.5429735, 0.16151553, 8.323434, 0.0038294792, 0.022776246, 10.001484
263133338333606, 5.5573306, 0.16151553, 8.336594, -6.632805E-4, 0.023938477, 10.020391
263133347972252, 5.5896335, 0.17467605, 8.380861, -0.0062203407, 0.0113351345, 10.075375
263133357611002, 5.5944195, 0.15074782, 8.444271, 0.02750206, 0.029781342, 10.130366
263133367249752, 5.5980086, 0.19860429, 8.364112, -0.02861929, -0.0101161, 10.066509
263133376888398, 5.5633125, 0.22971097, 8.342576, -0.017764091, -0.042788744, 10.029936
263133386527148, 5.552545, 0.25244278, 8.402397, 0.020015717, -0.07094824, 10.074192
263133396165898, 5.576473, 0.25244278, 8.405986, 9.188652E-4, -0.06676346, 10.090439
263133405804648, 5.5908303, 0.22851457, 8.365308, -0.028877735, -0.037593663, 10.064082
263133415443294, 5.595616, 0.22253251, 8.297112, -0.06956625, -0.025386274, 10.009846
263133425082044, 5.5477595, 0.18664017, 8.334201, -0.0026602745, -3.375411E-4, 10.013559
263133434720794, 5.5501523, 0.17587246, 8.370093, 0.020017624, 0.0070263743, 10.044558
263133444359440, 5.5513487, 0.17706887, 8.376076, 0.02346611, 0.00408566, 10.05022
263133453998190, 5.5669017, 0.17228323, 8.37129, 0.0056710243, 0.011530757, 10.054771
263133463636940, 5.582455, 0.19381863, 8.333005, -0.03181696, -0.0040096045, 10.031914
263133473275585, 5.5776696, 0.16510476, 8.336594, -0.022379875, 0.024643779, 10.031716
263133482914335, 5.5669017, 0.19501504, 8.365308, -0.0033106804, -0.008919358, 10.05021
263133492553085, 5.575277, 0.21535404, 8.372486, -0.010296822, -0.028110504, 10.061199
263133502191731, 5.5872407, 0.20937198, 8.385647, -0.012735367, -0.021145403, 10.078669
263133511830481, 5.5860443, 0.20219351, 8.384451, -0.012161732, -0.013882697, 10.076878
263133521469231, 5.5669017, 0.1902294, 8.377272, 2.4461746E-4, -0.0046479106, 10.0600815
263133531107877, 5.572884, 0.1794617, 8.338987, -0.02356577, 0.010352194, 10.031316
263133540746627, 5.5704913, 0.15553348, 8.3377905, -0.017564297, 0.03343439, 10.028555
263133550385377, 5.558527, 0.13878371, 8.3377905, -0.0039310455, 0.047424912, 10.021625
263133560024127, 5.552545, 0.15194423, 8.327023, -0.0065922737, 0.031882286, 10.0096
263133569662773, 5.569295, 0.19381863, 8.316256, -0.03345394, -0.005852759, 10.0106735
263133579301523, 5.564509, 0.20697916, 8.355737, -0.009241104, -0.023791313, 10.041129
263133588940273, 5.5537415, 0.22851457, 8.365308, 0.0018749237, -0.046821296, 10.043528
263133598578919, 5.5657053, 0.22971097, 8.3581295, -0.012440205, -0.044813156, 10.044205
263133608217669, 5.5657053, 0.22372891, 8.312666, -0.036921978, -0.0347479, 10.0062475
263133617856419, 5.582455, 0.22492532, 8.313862, -0.05014229, -0.03314811, 10.0165415
263133627495169, 5.5716877, 0.19860429, 8.359326, -0.012577534, -0.010673046, 10.047946
263133637133815, 5.5800624, 0.18424734, 8.374879, -0.010167599, 0.004287243, 10.065264
263133646772565, 5.5657053, 0.17228323, 8.396415, 0.013979435, 0.012892067, 10.075027
263133656411315, 5.5429735, 0.16390835, 8.4347, 0.05508232, 0.014740586, 10.094173
263133666049960, 5.5334024, 0.17347965, 8.4012, 0.041238785, 0.0067027807, 10.061167
263133675688710, 5.5393844, 0.17587246, 8.348558, 0.0048060417, 0.0104240775, 10.0206785
263133685327460, 5.5226345, 0.19501504, 8.370093, 0.025741577, -0.01218158, 10.029715
263133694966106, 5.581259, 0.20338993, 8.413164, -5.6743622E-5, -0.015015364, 10.098165
263133704604856, 5.5944195, 0.19381863, 8.405986, -0.013072491, -0.0028871894, 10.099283
263133714243606, 5.5740805, 0.16271193, 8.348558, -0.022589207, 0.029171705, 10.039618
263133723882356, 5.569295, 0.18664017, 8.299505, -0.050312996, 0.008915186, 9.996553
263133733521002, 5.5657053, 0.17108682, 8.335398, -0.02415371, 0.019521832, 10.024183
263133743159752, 5.578866, 0.18664017, 8.352147, -0.028607845, 0.004564166, 10.0457
263133752798502, 5.5537415, 0.16869399, 8.370093, 0.0048680305, 0.017130613, 10.046424
263133762437148, 5.556134, 0.22253251, 8.38804, 0.003791809, -0.0365566, 10.063698
263133772075898, 5.535795, 0.23569304, 8.376076, 0.00953722, -0.050126433, 10.042739
263133781714648, 5.5190454, 0.22971097, 8.34138, 0.0051312447, -0.044050097, 10.004463
263133791353398, 5.5453663, 0.19621146, 8.335398, -0.014887333, -0.0052624345, 10.0134
263133800992044, 5.5453663, 0.16630118, 8.374879, 0.010764122, 0.021930873, 10.0457325
263133810630794, 5.5800624, 0.1794617, 8.392825, -0.010497093, 0.012675166, 10.080107
263133820269544, 5.548956, 0.16031912, 8.372486, 0.006368637, 0.02790922, 10.045612
263133829908190, 5.562116, 0.14356937, 8.380861, 0.00274992, 0.044302523, 10.059553
263133839546940, 5.5860443, 0.16390835, 8.395218, -0.010717869, 0.025468707, 10.085122
263133849185690, 5.6039906, 0.18783657, 8.340183, -0.05932045, 0.0081909895, 10.049629
263133858824440, 5.569295, 0.22612174, 8.311469, -0.047287464, -0.03323859, 10.007265
263133868463085, 5.5633125, 0.2321038, 8.325827, -0.03314686, -0.04105842, 10.016033
263133878101835, 5.5860443, 0.21894327, 8.32463, -0.050338745, -0.024155676, 10.027371
263133887740585, 5.5980086, 0.23688944, 8.321041, -0.06436062, -0.038915575, 10.031345
263133897379231, 5.5657053, 0.19740787, 8.364112, -0.006459713, -0.0063305497, 10.048597
263133907017981, 5.5477595, 0.16749759, 8.376076, 0.01961279, 0.019742072, 10.048063
263133916656731, 5.528617, 0.15792629, 8.391629, 0.047796726, 0.024906933, 10.050228
263133926295481, 5.548956, 0.13519448, 8.405986, 0.041959763, 0.049812198, 10.07301
263133935934127, 5.5573306, 0.16749759, 8.362915, 0.006799221, 0.021007419, 10.042402
263133945572877, 5.5405807, 0.19980069, 8.323434, -0.006400585, -0.011747479, 10.000868
263133955211627, 5.5657053, 0.19980069, 8.325827, -0.02549839, -0.00933218, 10.016769
263133964850273, 5.581259, 0.2009971, 8.335398, -0.032993793, -0.008773267, 10.033371
263133974489023, 5.5669017, 0.19501504, 8.352147, -0.0111169815, -0.006016314, 10.039254
263133984127773, 5.556134, 0.18664017, 8.372486, 0.00840044, 1.9431114E-5, 10.050071
263133993766523, 5.558527, 0.20697916, 8.348558, -0.0100364685, -0.017817736, 10.031852
263134003405169, 5.5669017, 0.21296121, 8.325827, -0.033174515, -0.01986605, 10.017667
263134013043919, 5.5537415, 0.20697916, 8.342576, -0.014063358, -0.016634345, 10.0242195
263134022682669, 5.5477595, 0.21296121, 8.356933, -0.0025596619, -0.024513483, 10.032981
263134032321315, 5.5800624, 0.20578274, 8.392825, -0.0072422028, -0.015338898, 10.080608
263134041960065, 5.5477595, 0.17228323, 8.364112, 0.009715557, 0.014635205, 10.038197
263134051598815, 5.5704913, 0.1794617, 8.334201, -0.026705742, 0.013942659, 10.025995
263134061237565, 5.56092, 0.16749759, 8.336594, -0.014569759, 0.023607671, 10.0224695
263134070876210, 5.548956, 0.16869399, 8.350951, 0.008874893, 0.017230332, 10.02783
263134080514960, 5.5513487, 0.15074782, 8.359326, 0.014800549, 0.034537077, 10.03579
263134090153710, 5.5776696, 0.16151553, 8.389236, 0.009530067, 0.024762928, 10.075469
263134099792356, 5.593223, 0.1363909, 8.40479, 0.010198593, 0.049708486, 10.096567
263134109431106, 5.5944195, 0.19262223, 8.336594, -0.038228035, 1.1467934E-4, 10.041512
263134119069856, 5.5740805, 0.20817557, 8.331808, -0.026844501, -0.018106043, 10.026549
263134128708606, 5.5477595, 0.20817557, 8.343773, 0.003950596, -0.022150457, 10.021927
263134138347252, 5.552545, 0.21296121, 8.350951, 0.0023283958, -0.026377916, 10.0306425
263134147986002, 5.5704913, 0.21415763, 8.355737, -0.011769295, -0.024744868, 10.044592
263134157624752, 5.5800624, 0.2117648, 8.30788, -0.04541874, -0.01700145, 10.010017
263134167263398, 5.562116, 0.19262223, 8.286345, -0.039354324, 0.001812458, 9.981794
263134176902148, 5.575277, 0.16630118, 8.32463, -0.022671223, 0.026095212, 10.020461
263134186540898, 5.581259, 0.19501504, 8.377272, -0.003927231, -0.0056594014, 10.068124
263134196179648, 5.5669017, 0.18664017, 8.365308, 0.004277706, 6.517172E-4, 10.050054
263134205818294, 5.5669017, 0.18664017, 8.3377905, -0.010848522, 0.002673149, 10.027155
263134215457044, 5.5740805, 0.15433706, 8.346166, -0.0060949326, 0.034783363, 10.037501
263134225095794, 5.5537415, 0.0059820567, 8.325827, 0.023128033, 0.17957038, 10.006533
263134234734440, 5.517849, 0.19381863, 8.426325, 0.083060265, -0.01804611, 10.073727
263134244373190, 5.636294, 0.39720857, 8.344969, -0.083786964, -0.20356527, 10.075498
263134254011940, 5.454439, -0.22372891, 8.300702, 0.12501049, 0.39162564, 9.926411
263134263650585, 5.68415, 0.7896315, 8.386844, -0.14031982, -0.5884852, 10.144271
263134273289335, 5.45085, -0.5276174, 8.169097, 0.088756084, 0.6977012, 9.80967
263134282928085, 5.7200427, 0.9607183, 8.467003, -0.14494991, -0.7553506, 10.234278
263134292566835, 5.465207, -0.5180461, 8.22772, 0.10974264, 0.6977366, 9.865768
263134302205481, 5.645865, 0.70947194, 8.565108, -0.0042920113, -0.5175657, 10.269974
263134311844231, 5.5657053, -0.13519448, 8.26122, -0.0065259933, 0.31674865, 9.957045
263134321482981, 5.572884, 0.32063824, 8.433503, 0.027470112, -0.13868836, 10.112559
263134331121627, 5.6099725, 0.36610186, 8.32463, -0.0691185, -0.17244163, 10.043446
263134340760377, 5.4759746, -0.2117648, 8.313862, 0.10805321, 0.3861845, 9.949404
263134350399127, 5.7391853, 0.8207382, 8.40479, -0.1869235, -0.61755633, 10.189997
263134360037877, 5.4424753, -0.53240305, 8.232507, 0.121898174, 0.70263827, 9.857465
263134369676523, 5.7260246, 0.9272188, 8.4705925, -0.14654493, -0.73036075, 10.239294
263134379315273, 5.4664035, -0.56829536, 8.157132, 0.069904804, 0.7544956, 9.806588
263134388954023, 5.6530433, 0.7537391, 8.465807, -0.07044554, -0.56577957, 10.191656
263134398592669, 5.5310097, -0.16390835, 8.189436, -0.012310028, 0.3459807, 9.877548
263134408231419, 5.541777, 0.3469593, 8.397611, 0.033656597, -0.16163975, 10.065997
263134417870169, 5.6123657, 0.30149564, 8.26481, -0.09013891, -0.10577291, 9.993864
263134427508815, 5.45085, -0.18664017, 8.364112, 0.15760183, 0.35925108, 9.977528
263134437147565, 5.6853466, 0.7692925, 8.495717, -0.0777936, -0.57041204, 10.23527
263134446786315, 5.416154, -0.51206404, 8.288737, 0.17978239, 0.6878693, 9.889115
263134456425065, 5.7188463, 0.930808, 8.555537, -0.0889163, -0.72558415, 10.30701
263134466063710, 5.495117, -0.56350976, 8.258827, 0.10200119, 0.7371291, 9.907993
263134475702460, 5.7116675, 0.82672024, 8.4705925, -0.12824202, -0.6169532, 10.2303705
263134485341210, 5.5477595, -0.21894327, 8.147561, -0.028844833, 0.40492126, 9.851068
263134494979856, 5.5908303, 0.40677986, 8.376076, -0.013721943, -0.21454212, 10.07647
263134504618606, 5.636294, 0.30149564, 8.185846, -0.14064455, -0.0979574, 9.941702
263134514257356, 5.4891353, -0.11964113, 8.244471, 0.06612253, 0.29916126, 9.900623
263134523896002, 5.6949177, 0.7046863, 8.346166, -0.15306473, -0.49622083, 10.11521
263134533534752, 5.436493, -0.526421, 8.237292, 0.16233444, 0.69367313, 9.857892
263134543173502, 5.712864, 0.92243314, 8.507681, -0.12371445, -0.7247601, 10.262931
263134552812148, 5.4352965, -0.6089734, 8.252846, 0.1814599, 0.7719924, 9.868834
263134562450898, 5.6745787, 0.7908279, 8.597412, -0.010454178, -0.59407985, 10.31449
263134572089648, 5.534599, -0.30867413, 8.310273, 0.0924921, 0.48146862, 9.977342
263134581728398, 5.615955, 0.42711884, 8.449057, 0.006468773, -0.23607337, 10.151462
263134591367044, 5.619544, 0.2009971, 8.200203, -0.10389519, -0.005237639, 9.942443
263134601005794, 5.5094743, -0.08973085, 8.27797, 0.06749964, 0.268921, 9.940336
263134610644544, 5.7343993, 0.71306115, 8.328219, -0.18723345, -0.50393236, 10.122353
263134620283190, 5.477171, -0.4331009, 8.2049885, 0.09035063, 0.605682, 9.855649
263134629921940, 5.73081, 0.9846465, 8.467003, -0.12768745, -0.78036296, 10.240929
263134639560690, 5.4496536, -0.54436713, 8.206185, 0.14129162, 0.723001, 9.838387
263134649199335, 5.680561, 0.8961121, 8.453842, -0.09626341, -0.7043569, 10.199699
263134658838085, 5.5190454, -0.30987054, 8.170293, 0.03754759, 0.48821914, 9.852402
263134668476835, 5.611169, 0.46660042, 8.456235, 0.02408123, -0.28325632, 10.155296
263134678115481, 5.6243296, 0.12921242, 8.262417, -0.05118847, 0.06829935, 9.995501
263134687754231, 5.554938, -0.041874398, 8.3377905, 0.06861973, 0.22448453, 10.016125
263134697392981, 5.7451673, 0.6017949, 8.316256, -0.1860838, -0.39305407, 10.116328
263134707031627, 5.4927244, -0.4941179, 8.236095, 0.12443352, 0.66607624, 9.888797
263134716670377, 5.7547383, 0.91166544, 8.4909315, -0.122098446, -0.70571387, 10.272836
263134726309127, 5.45085, -0.57906306, 8.165507, 0.12410164, 0.7455541, 9.805678
263134735947773, 5.6745787, 0.9128618, 8.449057, -0.073420525, -0.71422315, 10.193391
263134745586523, 5.4867425, -0.28115666, 8.191829, 0.07559347, 0.45178178, 9.8529
263134755225273, 5.615955, 0.62093747, 8.453842, 0.0097055435, -0.43152475, 10.1590185
263134764864023, 5.639883, 0.19740787, 8.212168, -0.09476662, -0.0052523017, 9.963832
263134774502669, 5.54417, 0.041874398, 8.325827, 0.06494808, 0.14236853, 10.001723
263134784141419, 5.741578, 0.6089734, 8.347362, -0.14505482, -0.40314716, 10.140584
263134793780169, 5.5298133, -0.4438686, 8.281559, 0.110286236, 0.62845933, 9.947511
263134803418815, 5.7750773, 0.86979103, 8.422736, -0.16833591, -0.6677108, 10.226258
263134813057565, 5.4783673, -0.6795616, 8.166703, 0.13372278, 0.85937315, 9.819011
263134822696315, 5.733203, 0.8147561, 8.469396, -0.10793686, -0.60784274, 10.24124
263134832334960, 5.4891353, -0.4319045, 8.140383, 0.07372761, 0.6027509, 9.808886
263134841973710, 5.595616, 0.526421, 8.469396, 0.047109604, -0.3542987, 10.158295
263134851612460, 5.5944195, 0.034695927, 8.304291, 0.026595592, 0.14860725, 10.011853
263134861251106, 5.548956, 0.10289137, 8.384451, 0.09993553, 0.06841469, 10.054147
263134870889856, 5.741578, 0.6257231, 8.27797, -0.18319368, -0.42108837, 10.083213
263134880528606, 5.5262237, -0.29192436, 8.248059, 0.08809042, 0.46572044, 9.921199
263134890167252, 5.7870417, 0.99661064, 8.414361, -0.17277527, -0.7971617, 10.228355
263134899806002, 5.493921, -0.5300102, 8.120044, 0.06388664, 0.70540816, 9.792728
263134909444752, 5.749953, 0.9451649, 8.4012, -0.14637041, -0.73472834, 10.1967745
263134919083398, 5.5094743, -0.4426722, 8.176275, 0.07359314, 0.63006836, 9.8488245
263134928722148, 5.6075797, 0.56350976, 8.519645, 0.080954075, -0.37565854, 10.2078
263134938360898, 5.54417, -0.059820566, 8.283952, 0.064679146, 0.23794693, 9.965162
263134947999544, 5.5393844, 0.08015956, 8.400003, 0.116030216, 0.09957144, 10.061207
263134957638294, 5.6913285, 0.43908295, 8.331808, -0.08747959, -0.24218798, 10.096371
263134967277044, 5.5262237, -0.40438703, 8.321041, 0.13573027, 0.57761335, 9.979496
263134976915690, 5.8157554, 0.863809, 8.426325, -0.17541027, -0.6655036, 10.251755
263134986554440, 5.5274205, -0.54317075, 8.142776, 0.04494667, 0.7195593, 9.830179
263134996193190, 5.7750773, 0.9607183, 8.394022, -0.17026758, -0.7518455, 10.204894
263135005831835, 5.532206, -0.4031906, 8.103293, 0.010770321, 0.5811538, 9.802723
263135015470585, 5.6506505, 0.6987042, 8.422736, -0.02406025, -0.5044873, 10.154085
263135025109335, 5.5429735, -0.02871387, 8.193025, 0.014303207, 0.20851368, 9.889759
263135034747981, 5.5298133, 0.16271193, 8.392825, 0.11494923, 0.015621811, 10.051437
263135044386731, 5.666204, 0.47377887, 8.344969, -0.06718683, -0.2794192, 10.093873
263135054025481, 5.4783673, -0.33738798, 8.348558, 0.19335556, 0.5025977, 9.976713
263135063664127, 5.7547383, 0.84347, 8.462217, -0.13000059, -0.644011, 10.247241
263135073302877, 5.487939, -0.5814559, 8.222935, 0.1494751, 0.74924266, 9.873628
263135082941627, 5.782256, 0.951147, 8.4502535, -0.170331, -0.7353438, 10.255546
263135092580273, 5.5513487, -0.4941179, 8.145168, 0.04563141, 0.67306846, 9.846334
263135102219023, 5.704489, 0.6831509, 8.492127, -0.036952496, -0.48440188, 10.24149
263135111857669, 5.6123657, -0.08733802, 8.222935, -0.016671658, 0.27165368, 9.952329
263135121496419, 5.582455, 0.2440679, 8.353344, 0.040928364, -0.06599054, 10.049662
263135131135169, 5.6685967, 0.45104706, 8.251649, -0.11243868, -0.2565329, 10.017369
263135140773815, 5.493921, -0.2656033, 8.242078, 0.118923664, 0.43912137, 9.898415
263135150412565, 5.7655063, 0.8135597, 8.394022, -0.16279602, -0.6149943, 10.195972
263135160051315, 5.4664035, -0.56470615, 8.152347, 0.13242722, 0.72920305, 9.80367
263135169689960, 5.7655063, 0.90807617, 8.407183, -0.16841173, -0.69798505, 10.209351
263135179328710, 5.4987063, -0.552742, 8.176275, 0.124093056, 0.71732134, 9.841892
263135188967460, 5.660222, 0.6963114, 8.488539, -0.016017437, -0.5176111, 10.213231
263135198606106, 5.5657053, -0.12801601, 8.269595, 0.06100893, 0.30709857, 9.964017
263135208244856, 5.568098, 0.26081768, 8.452646, 0.09698391, -0.0900414, 10.1243
263135217883606, 5.643472, 0.3804588, 8.352147, -0.037888527, -0.19449517, 10.085268
263135227522252, 5.49751, -0.20937198, 8.325827, 0.1491394, 0.37292123, 9.971186
263135237161002, 5.7427745, 0.7896315, 8.433503, -0.13715601, -0.59584326, 10.215338
263135246799752, 5.4843497, -0.57188463, 8.254042, 0.16710949, 0.73063, 9.898111
263135256438398, 5.7667027, 0.9164511, 8.453842, -0.15913963, -0.7247813, 10.247514
263135266077148, 5.4867425, -0.55393845, 8.093722, 0.06633377, 0.72000456, 9.767124
263135275715898, 5.6757755, 0.7573284, 8.3784685, -0.098808765, -0.5755379, 10.131421
263135285354544, 5.548956, -0.17347965, 8.195417, 0.01867199, 0.34383574, 9.892791
263135294993294, 5.621937, 0.31345975, 8.402397, 0.00937748, -0.13960221, 10.11361
263135304632044, 5.6578293, 0.3290131, 8.310273, -0.074193, -0.14434496, 10.057514
263135314270690, 5.5046883, -0.17108682, 8.374879, 0.16043282, 0.32669437, 10.016836
263135323909440, 5.729614, 0.78364944, 8.429914, -0.12675571, -0.5972618, 10.204571
263135333548190, 5.4520464, -0.5347959, 8.252846, 0.18418074, 0.69511735, 9.879433
263135343186835, 5.749953, 0.9343972, 8.477771, -0.14954233, -0.7472304, 10.2580185
263135352825585, 5.4484572, -0.5587241, 8.163115, 0.1344471, 0.7129064, 9.803469
263135362464335, 5.6877394, 0.7968099, 8.443074, -0.090592384, -0.6175178, 10.192215
263135372102981, 5.5405807, -0.19621146, 8.189436, 0.013840675, 0.36471894, 9.882823
263135381741731, 5.601598, 0.37806597, 8.410771, 0.017341137, -0.20057997, 10.110459
263135391380481, 5.666204, 0.23928227, 8.268398, -0.09868193, -0.050233454, 10.02583
263135401019127, 5.5022955, -0.17706887, 8.305488, 0.11857891, 0.33867496, 9.95786
263135410657877, 5.73081, 0.6999006, 8.390432, -0.14971781, -0.5024666, 10.171358
263135420296627, 5.4616175, -0.5383851, 8.258827, 0.17555761, 0.6902107, 9.890407
263135429935273, 5.751149, 0.89013004, 8.486146, -0.14088011, -0.6915638, 10.265701
263135439574023, 5.4723854, -0.57906306, 8.181061, 0.13671064, 0.74434185, 9.83053
263135449212773, 5.721239, 0.8530413, 8.437093, -0.14191818, -0.6678514, 10.206793
263135458851419, 5.517849, -0.29312077, 8.222935, 0.08398533, 0.4517566, 9.896368
263135468490169, 5.599205, 0.43788654, 8.428718, 0.027766228, -0.26990342, 10.1248455
263135478128919, 5.642276, 0.24526432, 8.216953, -0.09911299, -0.06276843, 9.969955
263135487767565, 5.515456, -0.07537391, 8.336594, 0.112464905, 0.24135861, 9.992689
263135497406315, 5.7523456, 0.69272214, 8.402397, -0.12950087, -0.5010326, 10.193224
263135507045065, 5.48076, -0.4833502, 8.23131, 0.12943077, 0.6520945, 9.878505
263135516683710, 5.771488, 0.9272188, 8.4347, -0.16114807, -0.74019444, 10.234262
263135526322460, 5.51426, -0.58624154, 8.190632, 0.09031248, 0.74789774, 9.862539
263135535961210, 5.7020965, 0.8219346, 8.5220375, -0.039413452, -0.6503147, 10.26597
263135545599856, 5.5334024, -0.32662028, 8.187042, 0.05397463, 0.48902237, 9.874757
263135555238606, 5.6039906, 0.46899325, 8.392825, 0.018211842, -0.30214003, 10.098147
263135564877356, 5.6171513, 0.1698904, 8.240881, -0.043863773, 0.008355796, 9.974537
263135574516002, 5.5298133, -0.043070808, 8.335398, 0.10609865, 0.20587957, 10.000296
263135584154752, 5.7343993, 0.63170516, 8.37129, -0.13071632, -0.44588852, 10.156032
263135593793502, 5.5046883, -0.4833502, 8.312666, 0.16907454, 0.644733, 9.959486
263135603432148, 5.7810597, 0.91525465, 8.4682, -0.14897633, -0.7311653, 10.267033
263135613070898, 5.483153, -0.62093747, 8.126026, 0.10761595, 0.7888906, 9.790245
263135622709648, 5.7284174, 0.81834537, 8.433503, -0.106211185, -0.62750053, 10.208006
263135632348294, 5.54417, -0.40079778, 8.2049885, 0.077263355, 0.5690436, 9.893965
263135641987044, 5.631508, 0.49292147, 8.4813595, 0.040291786, -0.3315366, 10.187187
263135651625794, 5.602794, 0.101694964, 8.221739, -0.03042078, 0.06832099, 9.949524
263135661264440, 5.5166526, 0.032303106, 8.321041, 0.104308605, 0.12720343, 9.982343
263135670903190, 5.727221, 0.6436693, 8.34138, -0.13796854, -0.45545268, 10.1275625
263135680541940, 5.5250273, -0.40438703, 8.295917, 0.13943386, 0.5595703, 9.958872
263135690180585, 5.8037915, 0.9128618, 8.457432, -0.17751837, -0.7234749, 10.270859
263135699819335, 5.5274205, -0.6017949, 8.172686, 0.09945631, 0.7603167, 9.854916
263135709458085, 5.743971, 0.8362915, 8.471788, -0.108159065, -0.6436307, 10.248795
263135719096731, 5.505885, -0.46660042, 8.16431, 0.10383654, 0.63302034, 9.837527
263135728735481, 5.613562, 0.4941179, 8.438289, 0.025818348, -0.33054674, 10.14155
263135738374231, 5.5896335, 0.021535404, 8.210971, -0.01368475, 0.1555739, 9.931773
263135748012877, 5.5453663, 0.039481573, 8.323434, 0.08239603, 0.124346435, 10.000498
263135757651627, 5.712864, 0.59940207, 8.360522, -0.11172676, -0.41440958, 10.134605
263135767290377, 5.521438, -0.34217364, 8.355737, 0.16481256, 0.49694696, 10.007377
263135776929023, 5.808577, 0.9631111, 8.525627, -0.1454072, -0.77606684, 10.331024
263135786567773, 5.505885, -0.53240305, 8.154739, 0.082687855, 0.69408554, 9.829008
263135796206523, 5.74756, 0.930808, 8.409575, -0.14125395, -0.73406255, 10.201129
263135805845169, 5.5046883, -0.424726, 8.133204, 0.06458044, 0.59917784, 9.811617
263135815483919, 5.6590257, 0.57906306, 8.425129, -0.015635967, -0.39577302, 10.158043
263135825122669, 5.6075797, -0.051445685, 8.209774, -0.024279118, 0.2257981, 9.939639
263135834761419, 5.5716877, 0.05742774, 8.367701, 0.08298874, 0.109573066, 10.05219
263135844400065, 5.7391853, 0.49172506, 8.319844, -0.1347537, -0.30240858, 10.113863
263135854038815, 5.5190454, -0.3505485, 8.286345, 0.12511587, 0.51884246, 9.947935
263135863677565, 5.7786665, 0.89491564, 8.439486, -0.1430645, -0.69904566, 10.242542
263135873316210, 5.487939, -0.54317075, 8.19781, 0.1174407, 0.70305705, 9.854365
263135882954960, 5.7152567, 0.9559326, 8.4813595, -0.072250366, -0.76572573, 10.243041
263135892593710, 5.465207, -0.47138608, 8.200203, 0.12656355, 0.62950957, 9.844883
263135902232356, 5.649454, 0.6269195, 8.487342, 0.021567822, -0.45746714, 10.204636
263135911871106, 5.5920267, -0.078963146, 8.246863, 0.0099310875, 0.24983656, 9.961186
263135921509856, 5.5980086, 0.12323037, 8.347362, 0.041241646, 0.051721126, 10.051217
263135931148502, 5.7188463, 0.4235296, 8.251649, -0.1414752, -0.23734826, 10.044798
263135940787252, 5.5106707, -0.34456646, 8.303095, 0.13730097, 0.5054543, 9.957574
263135950426002, 5.7954164, 0.8805587, 8.483752, -0.12232876, -0.69839156, 10.287544
263135960064752, 5.4783673, -0.573081, 8.19781, 0.1287055, 0.72979033, 9.848648
263135969703398, 5.7355957, 0.9391829, 8.432307, -0.11616802, -0.7465792, 10.213326
263135979342148, 5.5070815, -0.49172506, 8.151151, 0.069242954, 0.65300035, 9.827502
263135988980898, 5.712864, 0.6855437, 8.462217, -0.052836895, -0.5101734, 10.220217
263135998619544, 5.6004014, -0.076570325, 8.230113, -0.001748085, 0.25474876, 9.951895
263136008258294, 5.5776696, 0.19740787, 8.400003, 0.07978487, -0.032194197, 10.084743
263136017897044, 5.7260246, 0.41635114, 8.312666, -0.1172986, -0.22974434, 10.099237
263136027535794, 5.517849, -0.276371, 8.322237, 0.14298534, 0.43463117, 9.978643
263136037174440, 5.74756, 0.8063812, 8.446664, -0.10594702, -0.6253838, 10.228809
263136046813190, 5.460421, -0.57188463, 8.244471, 0.17320395, 0.7243662, 9.877239
263136056451940, 5.7631135, 0.9272188, 8.488539, -0.10453701, -0.7488966, 10.27408
263136066090585, 5.503492, -0.5300102, 8.136793, 0.07408762, 0.6899201, 9.813015
263136075729335, 5.68415, 0.701097, 8.444271, -0.037012577, -0.52948725, 10.189459
263136085368085, 5.578866, -0.15074782, 8.206185, 0.010014057, 0.32607847, 9.918747
263136095006835, 5.611169, 0.22372891, 8.389236, 0.04437208, -0.051442295, 10.095045
263136104645481, 5.7080784, 0.3062813, 8.244471, -0.12774658, -0.11976722, 10.030784
263136114284231, 5.548956, -0.26919255, 8.283952, 0.0968709, 0.43390995, 9.964415
263136123922981, 5.7667027, 0.7860422, 8.419147, -0.13848352, -0.59573025, 10.216685
263136133561627, 5.473582, -0.54436713, 8.2660055, 0.19507217, 0.69933206, 9.902332
263136143200377, 5.7547383, 0.94277215, 8.499306, -0.10829449, -0.7534831, 10.279328
263136152839127, 5.4999027, -0.51086766, 8.153543, 0.11235714, 0.66343886, 9.825346
263136162477877, 5.697311, 0.79920274, 8.467003, -0.06453276, -0.61498916, 10.217918
263136172116523, 5.5872407, -0.16390835, 8.189436, 0.0056619644, 0.33105946, 9.90966
263136181755273, 5.6075797, 0.30987054, 8.383254, 0.035574913, -0.13777891, 10.089582
263136191394023, 5.6745787, 0.2847459, 8.206185, -0.114177704, -0.09975085, 9.9800005
263136201032773, 5.5537415, -0.29312077, 8.322237, 0.13478374, 0.45380485, 9.998276
263136210671419, 5.7690954, 0.68195444, 8.422736, -0.1230073, -0.4906326, 10.219304
263136220310169, 5.4999027, -0.58265233, 8.262417, 0.19189692, 0.7276706, 9.914113
263136229948919, 5.7870417, 0.9200403, 8.476574, -0.13881826, -0.72695404, 10.278175
263136239587669, 5.5405807, -0.5419743, 8.122437, 0.073619366, 0.713104, 9.820988
263136249226315, 5.7523456, 0.8243274, 8.415557, -0.13345575, -0.63118625, 10.206585
263136258865065, 5.558527, -0.22013968, 8.210971, 0.055413246, 0.38124847, 9.910464
263136268503815, 5.605187, 0.39361933, 8.41795, 0.047228813, -0.22755048, 10.118345
263136278142565, 5.6781683, 0.2847459, 8.237292, -0.095304966, -0.09900427, 10.007835
263136287781210, 5.54417, -0.1268196, 8.344969, 0.128932, 0.29028368, 10.0145645
263136297419960, 5.771488, 0.69272214, 8.465807, -0.09497833, -0.49951732, 10.256769
263136307058710, 5.4963136, -0.552742, 8.322237, 0.21253633, 0.713814, 9.96092
263136316697460, 5.77747, 0.8805587, 8.493324, -0.10305786, -0.68481064, 10.286472
263136326336106, 5.4903316, -0.6029913, 8.142776, 0.12807035, 0.7594898, 9.809124
263136335974856, 5.7056856, 0.79800636, 8.467003, -0.053925514, -0.6113419, 10.222776
263136345613606, 5.569295, -0.25722843, 8.199007, 0.053982735, 0.4298612, 9.905516
263136355252356, 5.642276, 0.4761717, 8.413164, 0.00664711, -0.30046117, 10.136718
263136364891002, 5.7009, 0.2727818, 8.209774, -0.12518692, -0.08161208, 9.997635
263136374529752, 5.548956, -0.05742774, 8.257631, 0.0728755, 0.22649837, 9.946158
263136384168502, 5.7750773, 0.6963114, 8.420342, -0.11899328, -0.5036683, 10.22109
263136393807252, 5.4843497, -0.50129634, 8.318648, 0.21819925, 0.6591995, 9.952243
263136403446002, 5.743971, 0.86859465, 8.474181, -0.08205366, -0.6900271, 10.250686
263136413084648, 5.4759746, -0.5838487, 8.189436, 0.14845514, 0.7498466, 9.839193
263136422723398, 5.7009, 0.74536425, 8.506484, -0.008780003, -0.562728, 10.251798
263136432362148, 5.588437, -0.36251262, 8.190632, 0.029173374, 0.5376823, 9.907499
263136442000898, 5.6506505, 0.44985065, 8.428718, 0.014919758, -0.2748284, 10.153804
263136451639544, 5.7056856, 0.20697916, 8.203793, -0.1244688, -0.023692906, 9.99419
263136461278294, 5.5716877, -0.014356935, 8.256434, 0.04494524, 0.1808455, 9.958811
263136470917044, 5.790631, 0.6580262, 8.29113, -0.20623922, -0.45914334, 10.121951
263136480555794, 5.528617, -0.47258246, 8.240881, 0.14422274, 0.6245552, 9.914141
263136490194544, 5.7667027, 0.8853444, 8.510074, -0.10540199, -0.7089826, 10.29302
263136499833190, 5.4843497, -0.64247286, 8.239685, 0.2007122, 0.78372234, 9.885787
263136509471940, 5.7355957, 0.83748794, 8.4909315, -0.08391619, -0.6521257, 10.25973
263136519110690, 5.562116, -0.37208393, 8.179864, 0.06277037, 0.5409118, 9.883787
263136528749440, 5.68415, 0.5240282, 8.489735, 0.0064287186, -0.35009205, 10.22434
263136538388190, 5.682954, 0.12203395, 8.23131, -0.08355236, 0.055366695, 10.002763
263136548026835, 5.5920267, -0.0059820567, 8.29472, 0.045655727, 0.1720961, 10.002074
263136557665585, 5.751149, 0.5778667, 8.315059, -0.1465807, -0.39030594, 10.118103
263136567304335, 5.4687963, -0.44865423, 8.27797, 0.19117212, 0.6025293, 9.911318
263136576943085, 5.757131, 0.9020941, 8.478967, -0.103569984, -0.72771144, 10.262112
263136586581835, 5.4723854, -0.60777694, 8.226524, 0.18410444, 0.7511723, 9.868837
263136596220481, 5.6985073, 0.8530413, 8.487342, -0.043624878, -0.6734491, 10.236219
263136605859231, 5.5130634, -0.38763726, 8.203793, 0.09875345, 0.54069436, 9.87645
263136615497981, 5.6733823, 0.5886344, 8.504091, 0.018483162, -0.41559204, 10.2313385
263136625136731, 5.6530433, 0.0526421, 8.262417, -0.039001465, 0.118524075, 10.010576
263136634775481, 5.6063833, 0.049052864, 8.328219, 0.033474445, 0.11963996, 10.038812
263136644414231, 5.8037915, 0.56470615, 8.257631, -0.22784567, -0.36774486, 10.099713
263136654052877, 5.5453663, -0.41515473, 8.1942215, 0.065062046, 0.578395, 9.885844
263136663691627, 5.81097, 0.84107715, 8.394022, -0.18561697, -0.6545759, 10.221128
263136673330377, 5.5190454, -0.613759, 8.133204, 0.07777119, 0.7846834, 9.816508
263136682969127, 5.7559347, 0.8877372, 8.446664, -0.12136173, -0.6962769, 10.235501
263136692607877, 5.517849, -0.424726, 8.216953, 0.114965916, 0.5892877, 9.888624
263136702246627, 5.621937, 0.6269195, 8.571091, 0.078621864, -0.47093302, 10.258403
263136711885273, 5.5776696, 0.021535404, 8.310273, 0.055196762, 0.13912451, 10.007452
263136721524023, 5.51426, 0.12083755, 8.427522, 0.15504646, 0.034312785, 10.070729
263136731162773, 5.710471, 0.48933223, 8.384451, -0.0865283, -0.30690613, 10.151169
263136740801523, 5.5130634, -0.3684947, 8.319844, 0.15635109, 0.52267146, 9.972553
263136750440273, 5.788238, 0.8458628, 8.389236, -0.1948266, -0.64516264, 10.2051115
263136760079023, 5.511867, -0.6305088, 8.111669, 0.07442474, 0.7914127, 9.795178
263136769717669, 5.8157554, 0.8865408, 8.429914, -0.18680525, -0.6862236, 10.255078
263136779356419, 5.572884, -0.45822555, 8.135597, 0.013290882, 0.6234871, 9.852209
263136788995169, 5.6889358, 0.6556334, 8.483752, -0.027457714, -0.4871137, 10.223986
263136798633919, 5.582455, -0.046660043, 8.2348995, 0.0082473755, 0.21162915, 9.946592
263136808272669, 5.554938, 0.15194423, 8.40479, 0.101564884, 0.009398699, 10.075242
263136817911419, 5.6877394, 0.46301118, 8.313862, -0.10399485, -0.28195468, 10.079423
263136827550169, 5.465207, -0.30149564, 8.331808, 0.1972456, 0.45090926, 9.956715
263136837188815, 5.7559347, 0.84347, 8.478967, -0.11832237, -0.6556829, 10.261148
263136846827565, 5.4819565, -0.58624154, 8.258827, 0.18532705, 0.730304, 9.901317
263136856466315, 5.7559347, 0.910469, 8.517252, -0.100868225, -0.72216415, 10.294252
263136866105065, 5.552545, -0.53599226, 8.17149, 0.070093155, 0.7069206, 9.868466
263136875743815, 5.6853466, 0.67118675, 8.413164, -0.07560396, -0.4867751, 10.164267
263136885382565, 5.621937, -0.124426775, 8.2145605, -0.024021626, 0.29412347, 9.950557
263136895021315, 5.6039906, 0.22013968, 8.383254, 0.041971207, -0.057442456, 10.085983
263136904660065, 5.7224355, 0.41994038, 8.246863, -0.15689802, -0.23337755, 10.042624
263136914298710, 5.508278, -0.2727818, 8.270791, 0.12416506, 0.43150157, 9.930757
263136923937460, 5.741578, 0.79920274, 8.444271, -0.11340189, -0.6132427, 10.223561
263136933576210, 5.4987063, -0.55513483, 8.298309, 0.17812443, 0.7117327, 9.943218
263136943214960, 5.7547383, 0.93320084, 8.535198, -0.106101036, -0.7590165, 10.307771
263136952853710, 5.477171, -0.5407779, 8.184649, 0.12765026, 0.70195484, 9.83724
263136962492460, 5.6685967, 0.6903293, 8.439486, -0.05261135, -0.52271265, 10.176369
263136972131210, 5.5920267, -0.15433706, 8.248059, 0.01304388, 0.316957, 9.961146
263136981769960, 5.629115, 0.23330021, 8.46102, 0.055493355, -0.07323918, 10.164732
263136991408710, 5.7200427, 0.36251262, 8.248059, -0.15140104, -0.18122274, 10.041164
263137001047460, 5.4891353, -0.22612174, 8.2456665, 0.10813904, 0.38387826, 9.900188
263137010686106, 5.7523456, 0.802792, 8.367701, -0.16301489, -0.6225061, 10.1655445
263137020324856, 5.4723854, -0.5383851, 8.255239, 0.16433477, 0.684752, 9.893934
263137029963606, 5.743971, 0.9343972, 8.549556, -0.07610226, -0.76363206, 10.313693
263137039602356, 5.473582, -0.5419743, 8.226524, 0.15315771, 0.70169437, 9.869838
263137049241106, 5.656633, 0.7812566, 8.517252, -0.0096616745, -0.606477, 10.2363825
263137058879856, 5.593223, -0.21535404, 8.267202, 0.040362835, 0.38579112, 9.976308
263137068518606, 5.6303115, 0.29671, 8.449057, 0.038808823, -0.13451645, 10.156545
263137078157356, 5.704489, 0.3361916, 8.2253275, -0.15350151, -0.14699212, 10.013245
263137087796106, 5.5274205, -0.17826529, 8.26481, 0.09015322, 0.3388464, 9.938224
263137097434856, 5.7990055, 0.7645068, 8.365308, -0.2108593, -0.5660942, 10.189524
263137107073606, 5.5070815, -0.5479564, 8.23131, 0.1419406, 0.6978997, 9.893202
263137116712356, 5.759524, 0.8925229, 8.4347, -0.15737152, -0.69781643, 10.227471
263137126351106, 5.495117, -0.63529444, 8.169097, 0.1427412, 0.79552484, 9.83264
263137135989752, 5.7224355, 0.69272214, 8.510074, -0.063622, -0.50884926, 10.265696
263137145628502, 5.6207404, -0.26081768, 8.172686, -0.023466587, 0.4302681, 9.913015
263137155267252, 5.6530433, 0.3290131, 8.438289, 0.006752014, -0.16542676, 10.16083
263137164906002, 5.709275, 0.30508488, 8.303095, -0.110272884, -0.124564946, 10.079812
263137174544752, 5.6004014, -0.05503492, 8.297112, 0.028372288, 0.22010273, 10.008014
263137184183502, 5.77747, 0.7848458, 8.353344, -0.20124054, -0.59322333, 10.167648
263137193822252, 5.4628143, -0.47736812, 8.232507, 0.16599178, 0.6354569, 9.869803
263137203461002, 5.6961145, 0.61016977, 8.427522, -0.050293446, -0.42750093, 10.181152
263137213099752, 5.5872407, 0.023928227, 8.35454, 0.059072018, 0.14321563, 10.049486
263137222738502, 5.56092, 0.11006984, 8.386844, 0.08986807, 0.05436626, 10.063004
263137232377252, 5.5573306, 0.08015956, 8.385647, 0.09110165, 0.080148816, 10.059558
263137242016002, 5.584848, 0.1268196, 8.3581295, 0.046427727, 0.03603363, 10.052934
263137251654752, 5.602794, 0.16031912, 8.35454, 0.026100159, 0.0044568777, 10.060549
263137261293502, 5.6578293, 0.19860429, 8.397611, -6.2799454E-4, -0.03019607, 10.127656
263137270932252, 5.6650076, 0.25004998, 8.407183, -0.007976055, -0.080735296, 10.140462
263137280571002, 5.6374903, 0.24765715, 8.346166, -0.016683578, -0.07551533, 10.074479
263137290209752, 5.666204, 0.2213361, 8.297112, -0.061133385, -0.041023314, 10.049452
263137299848502, 5.663811, 0.22372891, 8.262417, -0.078829765, -0.04098332, 10.0194025
263137309487252, 5.6303115, 0.15672988, 8.273184, -0.030886173, 0.018866003, 10.008459
263137319126002, 5.5980086, 0.13399807, 8.271988, 0.0017499924, 0.03583026, 9.989001
263137328764752, 5.6099725, 0.12801601, 8.333005, 0.02629137, 0.03608185, 10.046152
263137338403502, 5.629115, 0.16869399, 8.305488, -0.011724472, 0.0013927817, 10.0347595
263137348042252, 5.6147585, 0.14356937, 8.343773, 0.02220869, 0.021336615, 10.058018
263137357681002, 5.625526, 0.16749759, 8.386844, 0.030887604, -0.003500998, 10.100138
263137367319752, 5.639883, 0.1902294, 8.336594, -0.012653828, -0.01917392, 10.066913
263137376958502, 5.636294, 0.19262223, 8.343773, -0.008750439, -0.021856666, 10.070894
263137386597148, 5.6554365, 0.20578274, 8.348558, -0.025221825, -0.03154087, 10.085788
263137396235898, 5.6590257, 0.18305093, 8.347362, -0.025335312, -0.008371115, 10.086417
263137405874648, 5.611169, 0.13160525, 8.38804, 0.04438448, 0.029870927, 10.092515
263137415513502, 5.6267223, 0.14356937, 8.35454, 0.01083374, 0.023677945, 10.073643
263137425152252, 5.581259, 0.124426775, 8.329415, 0.034179688, 0.036366165, 10.027095
263137434791002, 5.5920267, 0.148355, 8.313862, 0.0098872185, 0.015089333, 10.0206175
263137444429752, 5.5860443, 0.16271193, 8.325827, 0.016739845, -0.0017601252, 10.027437
263137454068502, 5.6147585, 0.17826529, 8.329415, -0.008687496, -0.013102353, 10.046702
263137463707252, 5.623133, 0.2009971, 8.331808, -0.019228935, -0.034285486, 10.053732
263137473346002, 5.639883, 0.20219351, 8.292327, -0.05547571, -0.029634535, 10.030349
263137482984752, 5.623133, 0.1698904, 8.279166, -0.044638157, 0.0023823977, 10.009548
263137492623502, 5.639883, 0.18065812, 8.329415, -0.031083584, -0.008564889, 10.060766
263137502262252, 5.6578293, 0.20458634, 8.355737, -0.035426617, -0.031440377, 10.093017
263137511901002, 5.636294, 0.18065812, 8.355737, -0.013275623, -0.0094329715, 10.080601
263137521539752, 5.643472, 0.16510476, 8.344969, -0.022394657, 0.007681906, 10.075414
263137531178502, 5.629115, 0.16390835, 8.366505, 0.002559185, 0.0054982305, 10.085245
263137540817252, 5.6099725, 0.19621146, 8.3784685, 0.019411564, -0.03015244, 10.085026
263137550456002, 5.601598, 0.17347965, 8.3581295, 0.019957066, -0.00766927, 10.063095
263137560094752, 5.602794, 0.16510476, 8.321041, 6.556511E-4, 0.004417062, 10.032859
263137569733502, 5.593223, 0.14476576, 8.350951, 0.028978348, 0.020975232, 10.051975
263137579372252, 5.5716877, 0.1268196, 8.342576, 0.04569149, 0.03616035, 10.032695
263137589011002, 5.601598, 0.13519448, 8.346166, 0.02118206, 0.031168818, 10.052525
263137598649752, 5.625526, 0.16749759, 8.346166, -0.0038352013, 0.0030089617, 10.066432
263137608288502, 5.651847, 0.18783657, 8.298309, -0.055858135, -0.008600533, 10.041783
263137617927252, 5.6267223, 0.18544376, 8.283952, -0.04225254, -0.0084524155, 10.015808
263137627566002, 5.615955, 0.21655045, 8.306684, -0.02424097, -0.041985393, 10.0291815
263137637204752, 5.636294, 0.23808585, 8.342576, -0.019203186, -0.061766326, 10.070695
263137646843502, 5.6171513, 0.21296121, 8.377272, 0.02177763, -0.04245943, 10.088317
263137656482252, 5.608776, 0.17826529, 8.38804, 0.04048729, -0.00988698, 10.091959
263137666121002, 5.6243296, 0.16630118, 8.411968, 0.043162823, 0.0023264885, 10.120281
263137675759752, 5.6350975, 0.1471586, 8.374879, 0.015787601, 0.025755286, 10.09523
263137685398502, 5.625526, 0.14356937, 8.327023, -0.0037002563, 0.031773865, 10.050146
263137695037252, 5.621937, 0.16630118, 8.328219, -0.0023880005, 0.008150816, 10.049528
263137704676106, 5.6386867, 0.1591227, 8.322237, -0.018200397, 0.018099725, 10.05381
263137714314856, 5.6374903, 0.18544376, 8.276773, -0.0462718, -0.004098773, 10.015913
263137723953606, 5.6350975, 0.21535404, 8.287541, -0.042976856, -0.03477657, 10.024021
263137733592356, 5.6327047, 0.19501504, 8.32463, -0.017457962, -0.017515302, 10.053072
263137743231106, 5.6183476, 0.19621146, 8.329415, -0.003733158, -0.020164669, 10.049032
263137752869856, 5.605187, 0.15553348, 8.325827, 0.009989738, 0.02002126, 10.037987
263137762508606, 5.6075797, 0.14117654, 8.355737, 0.027025223, 0.032170355, 10.063868
263137772147356, 5.6039906, 0.1794617, 8.356933, 0.023038387, -0.0060328245, 10.063532
263137781786106, 5.6075797, 0.20578274, 8.366505, 0.021279812, -0.031187773, 10.073939
263137791424856, 5.6147585, 0.19860429, 8.343773, 0.0039596558, -0.021392643, 10.058978
263137801063606, 5.636294, 0.22851457, 8.335398, -0.02379322, -0.04574126, 10.064602
263137810702356, 5.6303115, 0.21296121, 8.359326, -0.0019750595, -0.032048404, 10.080827
263137820341106, 5.6075797, 0.17347965, 8.366505, 0.02792406, 0.003003478, 10.073364
263137829979856, 5.6207404, 0.18903299, 8.370093, 0.0176754, -0.011280477, 10.083972
263137839618710, 5.5908303, 0.1363909, 8.347362, 0.037707806, 0.03753382, 10.047468
263137849257460, 5.584848, 0.13040884, 8.282756, 0.0072808266, 0.047534287, 9.9904585
263137858896210, 5.6123657, 0.17467605, 8.303095, -0.011382103, 0.0050861835, 10.023493
263137868534960, 5.6183476, 0.18424734, 8.3174515, -0.009374142, -0.0060949326, 10.038906
263137878173710, 5.623133, 0.15194423, 8.283952, -0.026862621, 0.028863251, 10.013243
263137887812460, 5.666204, 0.19621146, 8.385647, -0.0075178146, -0.017691612, 10.122405
263137897451210, 5.6674004, 0.23808585, 8.400003, -0.007200718, -0.059928954, 10.135706
263137907089960, 5.6350975, 0.23808585, 8.315059, -0.022064686, -0.058442533, 10.047254
263137916728710, 5.6267223, 0.21296121, 8.3174515, -0.009640694, -0.03513384, 10.044104
263137926367460, 5.625526, 0.20697916, 8.365308, 0.023965359, -0.035319865, 10.082953
263137936006315, 5.6183476, 0.16390835, 8.377272, 0.044101715, 0.004364848, 10.088083
263137945645065, 5.6039906, 0.14117654, 8.298309, 0.015985966, 0.031146526, 10.014259
263137955283815, 5.6171513, 0.08973085, 8.269595, -0.0023217201, 0.08585042, 9.9969635
263137964922565, 5.6482577, 0.08853444, 8.327023, 0.0046253204, 0.08503479, 10.061944
263137974561315, 5.6709895, 0.14117654, 8.383254, 0.0072193146, 0.031939864, 10.12215
263137984200065, 5.6745787, 0.14596218, 8.342576, -0.018473625, 0.030568302, 10.090563
263137993838815, 5.68415, 0.16630118, 8.298309, -0.054792404, 0.015354931, 10.059618
263138003477565, 5.6685967, 0.20458634, 8.316256, -0.0390954, -0.026841283, 10.066414
263138013116419, 5.6350975, 0.20937198, 8.301898, -0.017350197, -0.03660649, 10.035837
263138022755169, 5.649454, 0.2117648, 8.32463, -0.016920567, -0.038631856, 10.062745
263138032393919, 5.6446686, 0.18783657, 8.293523, -0.023406029, -0.013295591, 10.033911
263138042032669, 5.601598, 0.2105684, 8.333005, 0.029555798, -0.04555285, 10.042822
263138051671419, 5.6147585, 0.18903299, 8.3581295, 0.037235737, -0.024694204, 10.07063
263138061310169, 5.636294, 0.16510476, 8.309076, -0.004681587, 0.006404519, 10.041701
263138070948919, 5.6123657, 0.15792629, 8.29472, 0.008187771, 0.010576248, 10.016276
263138080587669, 5.631508, 0.14237295, 8.343773, 0.02277708, 0.023821056, 10.067354
263138090226523, 5.642276, 0.14955142, 8.360522, 0.022012234, 0.016916573, 10.0873785
263138099865273, 5.6386867, 0.1698904, 8.327023, 0.0015897751, -8.54373E-4, 10.05798
263138109504023, 5.6350975, 0.16390835, 8.275578, -0.02411604, 0.009536922, 10.013276
263138119142773, 5.629115, 0.22372891, 8.3377905, 0.004429817, -0.055131197, 10.062439
263138128781523, 5.643472, 0.2213361, 8.325827, -0.0136966705, -0.04787296, 10.060551
263138138420273, 5.6530433, 0.18424734, 8.319844, -0.017667294, -0.0084581375, 10.060331
263138148059023, 5.6470613, 0.16271193, 8.323434, -0.006624222, 0.011288404, 10.059581
263138157697773, 5.672186, 0.15792629, 8.286345, -0.045633316, 0.021955311, 10.042886
263138167336627, 5.642276, 0.13160525, 8.262417, -0.027588367, 0.043634713, 10.005871
263138176975377, 5.6279187, 0.16630118, 8.26122, -0.022571564, 0.0073759556, 9.997416
