timestamp_acc,device_acc_x,device_acc_y,device_acc_z,earth_acc_x,earth_acc_y,earth_acc_z
263389121062890, 4.955536, 0.08135597, 8.160722, -0.103325844, 0.0067665577, 9.547284
263389130702370, 4.991428, 0.07537391, 8.193025, -0.12519264, 0.01252389, 9.59322
263389140341953, 5.1050873, 0.09571291, 8.471788, -0.07509327, -0.0045658946, 9.891239
263389149981536, 5.1924253, 0.14237295, 8.762517, 0.005168438, -0.03333026, 10.186369
263389159621120, 5.1792645, 0.16510476, 8.912068, 0.098790646, -0.044096828, 10.308507
263389169260599, 5.1254263, 0.1794617, 8.866604, 0.12519455, -0.05766678, 10.2420635
263389178900182, 5.0955157, 0.13280165, 8.742178, 0.07379866, -0.022580981, 10.1193695
263389188539765, 5.069195, 0.0526421, 8.52443, -0.03762102, 0.03632307, 9.917797
263389198179349, 5.070391, 0.02632105, 8.346166, -0.14775038, 0.04402542, 9.76444
263389207818932, 5.087141, 0.008374879, 8.334201, -0.17010832, 0.06107986, 9.7624445
263389217458411, 5.133801, 0.015553347, 8.447861, -0.14666605, 0.0561952, 9.884221
263389227097995, 5.1206403, 0.05503492, 8.554341, -0.07558584, 0.029448986, 9.969661
263389236737578, 5.1218367, 0.08733802, 8.633304, -0.016029358, 2.3543835E-5, 10.038651
263389246377161, 5.117051, 0.12203395, 8.693125, 0.022863865, -0.029189289, 10.08802
263389256016640, 5.12423, 0.11006984, 8.683554, 0.017870426, -0.0180974, 10.083319
263389265656224, 5.15414, 0.11964113, 8.706285, 0.010844231, -0.026163101, 10.118206
263389275295807, 5.1493545, 0.12203395, 8.73141, 0.025249481, -0.024716854, 10.137407
263389284935390, 5.1469617, 0.1698904, 8.7266245, 0.032209873, -0.07205206, 10.132514
263389294574974, 5.17089, 0.17228323, 8.812766, 0.038660526, -0.069113076, 10.218922
263389304214453, 5.197211, 0.24885355, 8.857033, 0.04945135, -0.14441526, 10.271157
263389313854036, 5.1924253, 0.24646074, 8.895318, 0.057427883, -0.13858098, 10.301758
263389323493620, 5.1158547, 0.22971097, 8.872586, 0.06442022, -0.11651182, 10.243525
263389333133203, 5.0823555, 0.17826529, 8.773284, 0.03742504, -0.06904781, 10.140339
263389342772682, 5.035695, 0.13399807, 8.709874, 0.013259411, -0.027333617, 10.061668
263389352412265, 4.9902315, 0.11485548, 8.656036, -0.0028214455, -0.011722565, 9.992119
263389362051849, 4.959125, 0.11006984, 8.756535, 0.04892111, -0.003335297, 10.063774
263389371691432, 4.9567323, 0.14237295, 8.873783, 0.066470146, -0.042212367, 10.165004
263389381330911, 4.9603214, 0.11485548, 8.846265, 0.020390987, -0.024229884, 10.1426525
263389390970495, 4.959125, 0.040677983, 8.7984085, -0.038695335, 0.03819889, 10.099685
263389400610078, 4.895715, 0.01794617, 8.642876, -0.06235504, 0.0562073, 9.932805
263389410249661, 4.8215375, 0.0023928226, 8.52443, -0.10818672, 0.05185157, 9.792791
263389419889140, 4.752146, -0.015553347, 8.543573, -0.059038162, 0.06861383, 9.775868
263389429528724, 4.761717, -0.021535404, 8.615358, -0.03422737, 0.077899694, 9.843351
263389439168307, 4.800002, -0.014356935, 8.781659, -0.016125679, 0.058411717, 10.007702
263389448807890, 4.8047876, -0.0071784677, 8.860622, 0.01791668, 0.055794835, 10.079348
263389458447474, 4.7676992, -0.022731815, 8.896515, 0.05079794, 0.070557, 10.093161
263389468086953, 4.715057, -0.031106694, 9.022138, 0.13886881, 0.08885312, 10.178631
263389477726536, 4.7401814, 0.0849452, 9.0436735, 0.12479925, -0.033477843, 10.210186
263389487366120, 4.7365923, 0.1591227, 9.050852, 0.116924286, -0.112499654, 10.215294
263389497005703, 4.7222357, 0.14117654, 9.026923, 0.05288458, -0.10334629, 10.187801
263389506645182, 4.6731825, 0.104087785, 8.8701935, -0.014582157, -0.073696494, 10.026174
263389516284765, 4.6145587, 0.0, 8.705089, -0.08174944, 0.02275604, 9.852184
263389525924349, 4.479364, -0.16271193, 8.7015, -0.004475355, 0.19667017, 9.786142
263389535563932, 4.3561335, -0.13998012, 8.7673025, 0.12570167, 0.18737504, 9.788266
263389545203411, 4.3154554, -0.01794617, 8.873783, 0.22474146, 0.074275404, 9.864658
263389554842995, 4.3740797, 0.040677983, 8.955139, 0.2175374, 0.016554534, 9.963993
263389564482578, 4.4638104, 0.05503492, 9.0747795, 0.19884706, -0.0012333989, 10.111415
263389574122161, 4.3669014, -0.15672988, 7.7096744, -0.3536446, 0.13032633, 8.853893
263389583761640, 4.476971, -0.37567315, 7.8927255, -0.39866352, 0.34505224, 9.066505
263389593401224, 4.546363, -0.29910284, 8.405986, -0.18124247, 0.28449917, 9.555401
263389603040807, 4.6025944, 0.0011964113, 8.724232, 0.087982416, -0.019094944, 9.863468
263389612680390, 4.7772703, 0.21535404, 9.01137, 0.17676735, -0.23867041, 10.197317
263389622319870, 4.983053, 0.19142582, 9.19801, 0.08310795, -0.23319614, 10.459904
263389631959453, 5.052445, 0.038285162, 9.068798, -0.0061678886, -0.10441828, 10.380793
263389641599036, 5.0105705, -0.13998012, 8.7984085, -0.041841984, 0.05348426, 10.125848
263389651238620, 4.9866424, -0.2321038, 8.601001, -0.1326356, 0.13291395, 9.942959
263389660878099, 5.0177493, -0.148355, 8.52443, -0.14178276, 0.03159082, 9.891645
263389670517682, 5.117051, -0.08733802, 8.49452, -0.18708134, -0.056673408, 9.915167
263389680157265, 5.2283173, -0.06580263, 8.639286, -0.10204363, -0.09803796, 10.09737
263389689796849, 5.255835, -0.033499517, 8.763713, -0.057854176, -0.12519056, 10.218052
263389699436328, 5.278567, -0.096909314, 8.800801, -0.01535368, -0.06612599, 10.262659
263389709075911, 5.3180485, -0.09810573, 8.805588, -0.0020570755, -0.071675, 10.287103
263389718715495, 5.3204412, -0.13040884, 8.650054, -0.056021214, -0.05141759, 10.155873
263389728354974, 5.3132625, -0.17706887, 8.573483, -0.0743618, -0.009734988, 10.087671
263389737994557, 5.332405, -0.25124636, 8.677571, -0.02972889, 0.06574026, 10.187871
263389747634140, 5.2235317, -0.30029923, 8.785249, 0.1392932, 0.1288167, 10.223505
263389757273724, 5.2199426, -0.19740787, 8.758927, 0.14002085, 0.02479124, 10.197322
263389766913203, 5.224728, -0.11485548, 8.663215, 0.10026407, -0.06402114, 10.116725
263389776552786, 5.198407, -0.08853444, 8.56152, 0.07588339, -0.09279689, 10.015814
263389786192370, 5.1326046, -0.13280165, 8.535198, 0.116663456, -0.046022713, 9.959675
263389795831953, 5.1014977, -0.21655045, 8.553144, 0.14837265, 0.029371858, 9.960199
263389805471432, 5.1014977, -0.25842485, 8.590233, 0.1646843, 0.07026571, 9.992602
263389815111015, 5.174479, -0.2644069, 8.663215, 0.14221525, 0.062360883, 10.093182
263389824750599, 5.1996036, -0.2835495, 8.730213, 0.15118074, 0.07042758, 10.163912
263389834390182, 5.2307105, -0.31465617, 8.7015, 0.099683285, 0.09513767, 10.156597
263389844029661, 5.2283173, -0.3469593, 8.632108, 0.05175352, 0.12266199, 10.097092
263389853669245, 5.2701917, -0.31106696, 8.616554, -0.004693508, 0.08121304, 10.104955
263389863308828, 5.3204412, -0.2656033, 8.629715, -0.054563522, 0.032613114, 10.141281
263389872948307, 5.343173, -0.23330021, 8.577073, -0.0990715, -0.0021010786, 10.107438
263389882587890, 5.38744, -0.1591227, 8.443074, -0.21970844, -0.078393385, 10.014035
263389892227474, 5.3790655, -0.11006984, 8.246863, -0.32712984, -0.12781096, 9.840422
263389901867057, 5.3336015, -0.12921242, 8.2014, -0.32345724, -0.102546155, 9.778131
263389911506536, 5.3312087, -0.12203395, 8.310273, -0.26740122, -0.10059254, 9.869939
263389921146120, 5.3910294, -0.086141616, 8.477771, -0.2251339, -0.13634674, 10.043602
263389930785703, 5.3718867, -0.02632105, 8.55793, -0.15287685, -0.19948837, 10.101131
263389940425286, 5.306084, -0.078963146, 8.647661, -0.053423405, -0.14043051, 10.144961
263389950064765, 5.227121, -0.11844472, 8.711071, 0.043734074, -0.096596226, 10.159151
263389959704349, 5.211568, -0.27876383, 8.853444, 0.111870766, 0.06323475, 10.276436
263389969343932, 5.1493545, -0.39361933, 8.883354, 0.16023397, 0.17673713, 10.2726755
263389978983411, 5.0859447, -0.35533416, 8.774481, 0.12502813, 0.11932215, 10.146662
263389988622995, 5.0751767, -0.357727, 8.642876, 0.066268444, 0.11960976, 10.02826
263389998262578, 4.9974103, -0.43669012, 8.537591, 0.03150034, 0.18014468, 9.900596
263390007902161, 4.942375, -0.48933223, 8.513663, 0.06224394, 0.23685412, 9.8533745
263390017541640, 4.9160542, -0.4331009, 8.554341, 0.07556963, 0.1561703, 9.874302
263390027181224, 4.922036, -0.35413775, 8.577073, 0.088431835, 0.07660762, 9.894664
263390036820807, 5.0129633, -0.28235307, 8.630911, 0.022157192, -0.012088396, 9.985064
263390046460286, 5.0823555, -0.26679972, 8.750552, -0.0074248314, -0.038801525, 10.12285
263390056099870, 5.1218367, -0.24885355, 8.920443, 0.04519987, -0.058222577, 10.289022
263390065739453, 5.1182475, -0.23569304, 9.05803, 0.1024394, -0.06859883, 10.405995
263390075379036, 5.0189457, -0.13758731, 8.988638, 0.11253834, -0.15168256, 10.29411
263390085018515, 4.922036, -0.16151553, 8.886943, 0.14420176, -0.12168564, 10.158478
263390094658099, 4.8155556, -0.276371, 8.79482, 0.15402079, 0.0042572245, 10.02951
263390104297682, 4.8191447, -0.27038896, 8.71466, 0.08176184, -9.861365E-4, 9.9617195
263390113937265, 4.8263235, -0.24765715, 8.671589, -0.009324551, -0.045953054, 9.927185
263390123576745, 4.800002, -0.23330021, 8.682357, 0.019807339, -0.058280125, 9.923407
263390133216328, 4.820341, -0.22612174, 8.825927, 0.037322998, -0.08475581, 10.058588
263390142855911, 4.8215375, -0.24765715, 8.903693, 0.033012867, -0.08400135, 10.12799
263390152495390, 4.733003, -0.2656033, 8.914461, 0.07122612, -0.07816385, 10.095955
263390162134974, 4.564309, -0.7106683, 8.756535, 0.07997656, 0.36429912, 9.893219
263390171774557, 4.685147, 0.2739782, 8.670393, -0.07837582, -0.627558, 9.83877
263390181414036, 4.4841495, -1.1030912, 8.344969, -0.13983417, 0.7571924, 9.506316
263390191053620, 4.7078786, 0.19142582, 8.645268, -0.17093492, -0.5335021, 9.829932
263390200693203, 4.6121655, -0.8913264, 8.713464, -0.107167244, 0.54495335, 9.883448
263390210332786, 4.776074, -0.11964113, 9.105886, -0.029799938, -0.22468093, 10.280614
263390219972265, 4.7401814, -0.25244278, 9.055637, -0.034695625, -0.09912214, 10.223825
263390229611849, 4.688736, -0.36490545, 8.958728, -0.07819605, 0.008188364, 10.117806
263390239251432, 4.7174497, 0.3385844, 8.969496, -0.04287386, -0.69621015, 10.11604
263390248890911, 4.415954, -0.79441714, 8.959925, 0.09988117, 0.44671535, 10.0101185
263390258530495, 4.54397, 0.5706882, 9.079565, 0.11480999, -0.92725, 10.126148
263390268170078, 4.358526, -0.9056834, 8.830712, 0.023549557, 0.5380059, 9.8746395
263390277809661, 4.540381, 0.43429732, 8.953942, -0.016415596, -0.8108963, 10.015934
263390287449140, 4.2484565, -0.8446664, 8.839087, 0.06661439, 0.4653563, 9.832157
263390297088724, 4.3357944, -0.101694964, 9.035298, 0.09456515, -0.2824369, 10.017853
263390306728307, 4.1587257, -0.59700924, 8.974281, 0.1512599, 0.20765111, 9.905713
263390316367786, 4.0558343, -0.6795616, 8.891729, 0.1506505, 0.29369947, 9.791093
263390326007370, 4.1240296, 0.02632105, 8.902496, 0.15274835, -0.4084299, 9.801665
263390335646953, 4.0127635, -0.90448695, 9.041281, 0.22761345, 0.5314114, 9.916196
263390345286432, 4.2795634, 0.50009996, 9.474381, 0.37984085, -0.8571997, 10.365789
263390354926015, 4.15394, -0.8781659, 9.396614, 0.32924414, 0.5535701, 10.291155
263390364565599, 4.3932223, 0.6843473, 9.404989, 0.31178784, -1.0312511, 10.34707
263390374205078, 4.1587257, -0.5300102, 9.162118, 0.27582765, 0.19780691, 10.07001
263390383844661, 4.2460637, 0.2943172, 9.263813, 0.33809614, -0.62271845, 10.170145
263390393484245, 4.202993, -0.2955136, 9.12503, 0.22758198, -0.037926063, 10.048157
263390403123828, 4.241278, -0.5240282, 9.315259, 0.25164485, 0.18542723, 10.243994
263390412763307, 4.2424746, -0.08255238, 9.340384, 0.2862165, -0.26686162, 10.251586
263390422402890, 4.0941195, -0.8997013, 9.201599, 0.24248743, 0.5443501, 10.093838
263390432042474, 4.258028, 0.5288138, 9.304491, 0.2400639, -0.8991652, 10.203817
263390441681953, 3.9493537, -0.99302137, 9.0029955, 0.19387603, 0.65845215, 9.857295
263390451321536, 4.091727, 0.39361933, 8.8905325, 0.14156199, -0.736289, 9.766093
263390460961120, 3.9433718, -0.89013004, 8.530413, -0.0019135475, 0.5558882, 9.423452
263390470600599, 4.2257247, 0.17706887, 8.76132, -0.06330967, -0.50796205, 9.715288
263390480240182, 4.334598, -0.4127619, 8.900104, -0.12611508, 0.084559545, 9.906963
263390489879765, 4.459025, -0.5276174, 8.955139, -0.19936967, 0.18677807, 10.014049
263390499519245, 4.5834517, -0.23688944, 9.032906, -0.20804429, -0.11544518, 10.129211
263390509158828, 4.4913282, -1.006182, 9.140582, -0.17186952, 0.6613474, 10.211159
263390518798411, 4.6911287, 0.3804588, 9.399008, -0.045327663, -0.73208594, 10.485932
263390528437890, 4.3944187, -1.0157533, 9.219545, 0.0073275566, 0.66969573, 10.241785
263390538077474, 4.475775, 0.506082, 9.226724, 0.09037471, -0.84395194, 10.232336
263390547717057, 4.1491547, -0.7932207, 8.88814, 0.11092329, 0.4700675, 9.829061
263390557356640, 4.261617, 0.37567315, 8.932407, 0.08405113, -0.7171328, 9.877707
263390566996120, 4.106084, -0.27996024, 8.82114, 0.12098336, -0.044987738, 9.733149
263390576635703, 4.0833516, -0.106480606, 8.889337, 0.15578341, -0.21940151, 9.779214
263390586275286, 4.139583, 0.148355, 8.937193, 0.14377737, -0.47624376, 9.837892
263390595914765, 4.0271206, -0.94636136, 9.206385, 0.23875976, 0.6320105, 10.070469
263390605554349, 4.109673, 0.23808585, 9.316455, 0.29071903, -0.5472758, 10.166534
263390615193932, 3.95055, -0.9415757, 9.059227, 0.17309618, 0.65333974, 9.904857
263390624833411, 4.3034916, 0.5491528, 9.123833, 0.0045638084, -0.8599666, 10.066101
263390634472995, 4.194618, -1.0767702, 8.968299, -0.12606287, 0.7698609, 9.928549
263390644112578, 4.3633122, -0.02632105, 9.182457, -0.089837074, -0.26528317, 10.162591
263390653752057, 4.2891345, -0.7118647, 9.148957, -0.08740044, 0.43139806, 10.119936
263390663391640, 4.4231324, -0.27876383, 9.27817, -0.11185193, -0.021399483, 10.281696
263390673031224, 4.506881, -0.033499517, 9.163314, -0.21486616, -0.27435294, 10.205783
263390682670703, 4.3872404, -0.8111669, 9.093923, -0.19791698, 0.49627793, 10.115328
263390692310286, 4.53081, 0.20937198, 9.218349, -0.1958456, -0.53192616, 10.258108
263390701949870, 4.325027, -1.2789637, 9.056833, -0.2119472, 0.9428793, 10.07144
263390711589349, 4.503292, 0.20219351, 9.078369, -0.2566507, -0.5763828, 10.116285
263390721228932, 4.2053857, -1.2430713, 8.834301, -0.22153902, 0.8841403, 9.820619
263390730868515, 4.368098, -0.031106694, 8.861818, -0.24242187, -0.33778343, 9.87118
263390740507995, 4.1778684, -0.9379865, 8.863015, -0.1608553, 0.5622096, 9.825756
263390750147578, 4.220939, -0.47018966, 9.0951185, -0.005028248, 0.095874116, 10.0374
263390759787161, 4.3334017, -0.2428715, 9.040084, -0.10515237, -0.14344993, 10.026408
263390769426640, 4.3334017, -0.7046863, 8.922835, -0.17493343, 0.31497407, 9.937914
263390779066224, 4.5188456, 0.31585258, 9.041281, -0.10478854, -0.72207314, 10.086236
263390788705807, 4.319045, -1.0636097, 9.120243, -0.04927993, 0.6726097, 10.124694
263390798345286, 4.5762734, 0.35533416, 9.35833, 0.012398243, -0.7575485, 10.395809
263390807984870, 4.3968115, -1.2777673, 8.973084, -0.16877055, 0.8556608, 10.035948
263390817624453, 4.6492543, -0.09092726, 9.022138, -0.23430586, -0.35143948, 10.141222
263390827264036, 4.4458647, -1.2179468, 9.075976, -0.15883088, 0.754462, 10.150271
263390836903515, 4.4075794, -0.701097, 9.249456, 0.0026454926, 0.23191494, 10.267277
263390846543099, 4.3357944, -0.61734825, 9.116654, 2.9420853E-4, 0.12255594, 10.113288
263390856182682, 4.2125645, -1.1796615, 8.914461, -0.063296795, 0.67249006, 9.907
263390865822161, 4.2963133, -0.39960137, 8.811569, -0.15325189, -0.14867644, 9.808983
263390875461745, 4.071388, -1.8711873, 8.65125, -0.17609167, 1.3387043, 9.648757
263390885101328, 4.3645086, -0.47018966, 8.699107, -0.28476524, -0.113952756, 9.739119
263390894740807, 4.3130627, -1.975275, 8.627322, -0.40188956, 1.3841168, 9.739488
263390904380390, 4.6372905, -0.65324056, 9.069994, -0.37168813, 0.023650378, 10.200848
263390914019974, 4.5655055, -1.7156538, 9.007781, -0.42711616, 1.0885813, 10.176443
263390923659453, 4.7449675, -1.1916257, 9.052048, -0.5332837, 0.52956825, 10.262037
263390933299036, 4.6803613, -1.3124632, 8.9013, -0.5433624, 0.66477317, 10.105659
263390942938620, 4.5391846, -1.5696917, 8.79123, -0.49944806, 0.92370147, 9.962488
263390952578099, 4.5882373, -0.5084748, 8.790034, -0.45611477, -0.1448485, 9.916964
263390962217682, 4.269992, -1.6354942, 8.749356, -0.27176785, 1.0047123, 9.817107
263390971857265, 4.35733, -0.0071784677, 8.860622, -0.1688087, -0.6374612, 9.852013
263390981496745, 4.0235314, -1.2693924, 8.699107, -0.060837507, 0.64880633, 9.646241
263390991136328, 4.191029, 0.2835495, 8.879765, 0.0076146126, -0.9198861, 9.780036
263391000775911, 3.993621, -0.8362915, 8.751749, 0.01961255, 0.21120718, 9.653834
263391010415390, 4.085745, -0.09451649, 8.969496, 0.07400155, -0.54121846, 9.841531
263391020054974, 4.0594234, -0.3696911, 9.247063, 0.16869426, -0.27163115, 10.10057
263391029694557, 4.0642095, -0.62811595, 9.3308115, 0.15640092, -0.011300802, 10.195676
263391039334036, 4.260421, 0.23569304, 9.342776, 0.0068531036, -0.8731842, 10.233851
263391048973620, 4.1168513, -0.9236295, 9.309277, 0.043452978, 0.3124797, 10.215904
263391058613203, 4.298706, 0.5180461, 9.480363, -0.022762537, -1.1183976, 10.362105
263391068252682, 4.066602, -0.93679005, 9.211171, 0.021924257, 0.39152935, 10.104788
263391077892265, 4.3070807, 0.552742, 9.318848, -0.10889268, -1.1111526, 10.220121
263391087531849, 4.1180477, -0.6376872, 9.169296, -0.044597387, 0.09824461, 10.071211
263391097171328, 4.23051, 0.16151553, 9.339187, -0.056408405, -0.7199199, 10.2285
263391106810911, 4.1204405, -0.25124636, 9.220742, -0.02375102, -0.29751384, 10.098226
263391116450495, 4.022335, -0.4989035, 9.156136, 0.03093338, -0.052524567, 10.01295
263391126089974, 4.0761733, 0.050249275, 9.052048, -0.044648647, -0.6082183, 9.908853
263391135729557, 3.8775692, -1.1234303, 8.88814, 0.039406776, 0.56368303, 9.745634
263391145369140, 4.037888, 0.19381863, 9.158528, 0.053594112, -0.7812897, 9.980353
263391155008620, 3.8356948, -1.3196417, 9.152547, 0.18515563, 0.73251355, 9.9826
263391164648203, 4.0977087, 0.031106694, 9.461221, 0.12740469, -0.6411202, 10.2897835
263391174287786, 3.7974095, -1.247857, 9.2793665, 0.2729633, 0.6441178, 10.07942
263391183927265, 3.871587, -0.26679972, 9.359526, 0.2789073, -0.33410075, 10.122829
263391193566849, 3.731607, -0.695115, 9.382257, 0.3896191, 0.114807606, 10.112856
263391203206432, 3.6933217, -0.72502524, 9.432507, 0.44248652, 0.14732403, 10.144998
263391212846015, 3.7890346, -0.1363909, 9.383454, 0.3857746, -0.4442007, 10.103389
263391222485495, 3.7136607, -1.1497513, 9.272188, 0.3297794, 0.57402384, 10.032369
263391232125078, 3.9134614, 0.13519448, 9.381062, 0.28301334, -0.7294908, 10.13536
263391241764661, 3.6957145, -1.3579268, 9.163314, 0.28888035, 0.77817154, 9.938791
263391251404140, 3.940979, 0.101694964, 9.292527, 0.19755411, -0.71999776, 10.066545
263391261043724, 3.7914274, -1.288535, 9.0747795, 0.17629623, 0.6815532, 9.894003
263391270683307, 4.019942, -0.2883351, 9.1681, 0.0528903, -0.336732, 10.009043
263391280322786, 4.01396, -0.9164511, 9.014959, -0.021906137, 0.29122362, 9.90636
263391289962370, 4.063013, -0.90329057, 8.974281, -0.08355737, 0.2781098, 9.888247
263391299601953, 4.1312084, -0.39960137, 8.96471, -0.13790345, -0.22356513, 9.875403
263391309241432, 4.168297, -1.2263216, 8.909675, -0.20414686, 0.6037346, 9.892154
263391318881015, 4.517649, -0.014356935, 9.069994, -0.41226387, -0.6118137, 10.105933
263391328520599, 4.3704906, -1.4715859, 8.897711, -0.3799441, 0.84972095, 9.978458
263391338160078, 4.621737, 0.0047856453, 8.99821, -0.5233085, -0.6237479, 10.082924
263391347799661, 4.45065, -1.3555341, 8.775677, -0.44686413, 0.7638809, 9.893183
263391357439245, 4.6612186, -0.24526432, 8.908479, -0.5671768, -0.3428159, 10.035383
263391367078828, 4.604987, -0.8662018, 8.922835, -0.50337124, 0.2778867, 10.06194
263391376718307, 4.7246284, -0.60658056, 8.957532, -0.589906, 0.025316238, 10.12812
263391386357890, 4.8083773, -0.26799613, 8.85823, -0.7192614, -0.28881842, 10.052851
263391395997474, 4.6779685, -1.1688938, 8.780462, -0.6249573, 0.6112139, 9.979082
263391405636953, 4.7653065, -0.022731815, 8.903693, -0.70062804, -0.5271754, 10.060598
263391415276536, 4.4434714, -1.4009976, 8.733803, -0.43909144, 0.8602045, 9.851589
263391424916120, 4.5284166, 0.09212367, 8.79123, -0.55961084, -0.6306151, 9.853423
263391434555599, 4.1575294, -1.2921243, 8.6548395, -0.22113776, 0.7546116, 9.656218
263391444195182, 4.249653, -0.041874398, 9.013762, -0.1923263, -0.5104529, 9.950462
263391453834765, 4.0965123, -0.68195444, 9.115458, 0.004239559, 0.12218392, 10.016143
263391463474349, 4.078566, -0.36370903, 9.270991, 0.081386805, -0.19122502, 10.132872
263391473113828, 4.06062, -0.13758731, 9.255438, 0.0838263, -0.41651377, 10.099019
263391482753411, 3.9278183, -0.89371926, 9.218349, 0.20378709, 0.34747505, 10.051976
263391492392995, 4.089334, 0.111266255, 9.373882, 0.08367729, -0.64798725, 10.206753
263391502032474, 3.8847475, -1.4177474, 9.316455, 0.23917723, 0.89187276, 10.151107
263391511672057, 4.1084766, 0.013160525, 9.525827, 0.102383375, -0.5497312, 10.35898
263391521311640, 3.822534, -1.4859428, 9.454042, 0.34705186, 0.9530443, 10.255241
263391530951120, 3.946961, -0.17587246, 9.657433, 0.2829888, -0.362861, 10.424189
263391540590703, 3.76391, -0.92243314, 9.433703, 0.3758247, 0.4038802, 10.183728
263391550230286, 3.790231, -0.5312066, 9.3511505, 0.3154056, 0.013498545, 10.099128
263391559869870, 3.7304106, -0.465404, 9.178867, 0.31089067, -0.03585285, 9.913941
263391569509349, 3.6849468, -1.0743774, 9.09153, 0.34012246, 0.57556725, 9.845917
263391579148932, 3.912265, -0.019142581, 9.190832, 0.1766007, -0.48309147, 9.975621
263391588788515, 3.8261235, -1.3004991, 9.098708, 0.24013186, 0.79849994, 9.920773
263391598427995, 4.1635113, 0.2548356, 9.322437, 0.030051708, -0.77089596, 10.18393
263391608067578, 4.025924, -1.1485549, 9.081959, 0.07483101, 0.6425821, 9.979515
263391617707161, 4.2963133, 0.18664017, 9.1872425, -0.16390038, -0.6834366, 10.119516
263391627346745, 4.2053857, -0.72502524, 8.835498, -0.19577456, 0.24258256, 9.807129
263391636986224, 4.3992043, -0.18185452, 8.815159, -0.39974165, -0.27746087, 9.84156
263391646625807, 4.4745784, -0.13280165, 8.813962, -0.45832324, -0.32223308, 9.869728
263391656265390, 4.4949174, -0.5599205, 8.898908, -0.4198904, 0.1229341, 9.975818
263391665904974, 4.7138605, 0.48095736, 9.153743, -0.50554967, -0.92019516, 10.253803
263391675544453, 4.5451665, -0.7537391, 9.134601, -0.33628917, 0.3141195, 10.220364
263391685184036, 4.7509494, 0.6867401, 9.21476, -0.5089767, -1.1217127, 10.31686
263391694823620, 4.470989, -0.96430755, 9.08794, -0.2690909, 0.532693, 10.156481
263391704463099, 4.575077, 0.30029923, 9.232706, -0.32877684, -0.7373395, 10.276798
263391714102682, 4.2963133, -0.71425754, 9.049655, -0.114198685, 0.2763609, 10.038691
263391723742265, 4.3058844, -0.13280165, 9.11785, -0.109782934, -0.30775118, 10.079022
263391733381849, 4.168297, -0.35294133, 9.066405, 0.025054455, -0.1032604, 9.984371
263391743021328, 4.034299, -0.849452, 9.060423, 0.16332006, 0.38955337, 9.945349
263391752660911, 4.119244, -0.0047856453, 9.174082, 0.10522246, -0.47068837, 10.0448675
263391762300495, 3.92064, -1.2574283, 9.129815, 0.31332803, 0.7651803, 9.981102
263391771940078, 4.092923, 0.07776674, 9.337991, 0.1718669, -0.5985905, 10.17685
263391781579557, 3.8368912, -1.4847465, 9.0951185, 0.33081913, 0.97748244, 9.928871
263391791219140, 4.022335, -0.101694964, 9.224331, 0.18282557, -0.4116513, 10.053603
263391800858724, 3.8823547, -1.1772687, 9.079565, 0.2371366, 0.67572135, 9.918886
263391810498307, 4.0235314, -0.36251262, 9.153743, 0.0915072, -0.13536209, 10.004227
263391820137786, 4.0414777, -0.5371887, 9.037691, 0.035449028, 0.046271265, 9.914564
263391829777370, 4.034299, -0.8315059, 9.05803, 0.042252064, 0.35758662, 9.944105
263391839416953, 4.1838503, -0.059820566, 9.138189, -0.10089779, -0.4131086, 10.041607
263391849056536, 4.0845485, -1.1138589, 9.09153, 0.03078127, 0.6458265, 10.008101
263391858696015, 4.375276, 0.4438686, 9.254242, -0.22682023, -0.88760096, 10.2049885
263391868335599, 4.229314, -0.95712906, 9.022138, -0.11420536, 0.5167217, 9.996105
263391877975182, 4.5224347, 0.43669012, 9.152547, -0.31803536, -0.8724874, 10.175943
263391887614765, 4.3238306, -0.85902333, 8.965906, -0.17685318, 0.43897855, 9.979827
263391897254349, 4.4446683, -0.07776674, 9.035298, -0.27318454, -0.34486243, 10.060031
263391906893828, 4.365705, -0.43429732, 8.919247, -0.23335648, 0.016509563, 9.937114
263391916533411, 4.351348, -0.613759, 8.851051, -0.24029827, 0.20293882, 9.876897
263391926172995, 4.456632, 0.07058827, 8.903693, -0.32382035, -0.48176646, 9.940088
263391935812578, 4.260421, -1.0205388, 8.975478, -0.09712052, 0.5998502, 9.969086
263391945452057, 4.4374895, 0.33260235, 9.227921, -0.17499924, -0.75388736, 10.215551
263391955091640, 4.156333, -1.1485549, 9.108279, 0.07372546, 0.74260503, 10.049783
263391964731224, 4.3944187, 0.42711884, 9.229117, -0.20595264, -0.8326516, 10.194814
263391974370807, 4.1635113, -0.8362915, 9.127422, 0.027991533, 0.42676997, 10.05789
263391984010390, 4.243671, -0.0526421, 9.209974, -0.09229255, -0.35023686, 10.134297
263391993649870, 4.101298, -0.56829536, 9.113065, 0.021090746, 0.17009902, 10.008104
263392003289453, 4.0390844, -0.613759, 9.163314, 0.09529734, 0.2048279, 10.030265
263392012929036, 4.1180477, -0.061016977, 9.306884, 0.052886486, -0.3531486, 10.171165
263392022568620, 3.9816568, -1.119841, 9.470792, 0.30748296, 0.677463, 10.307765
263392032208203, 4.1371903, 0.19142582, 9.664611, 0.21324086, -0.656212, 10.49198
263392041847682, 3.8201413, -1.2526426, 9.387043, 0.43051982, 0.8031063, 10.17098
263392051487265, 4.0271206, 0.27158538, 9.263813, 0.1559484, -0.7143826, 10.078444
263392061126849, 3.8057845, -1.1018949, 9.098708, 0.33011508, 0.6438999, 9.897529
263392070766432, 3.9696927, -0.08973085, 9.379865, 0.2992754, -0.40015933, 10.17343
263392080406015, 3.8668015, -0.6305088, 9.410972, 0.40783978, 0.140661, 10.184792
263392090045495, 3.9074793, -0.56590253, 9.298509, 0.32498407, 0.07615152, 10.096508
263392099685078, 3.9840498, -0.18783657, 9.068798, 0.14465022, -0.29812703, 9.901578
263392109324661, 3.863212, -1.1641082, 8.9348, 0.1863544, 0.6776904, 9.778355
263392118964245, 4.125226, 0.05623133, 9.041281, -0.03165865, -0.5448121, 9.923082
263392128603828, 3.9768713, -1.4584254, 8.919247, 0.06368637, 0.9666033, 9.826348
263392138243411, 4.3070807, 0.14356937, 9.073584, -0.2026918, -0.62800455, 10.023273
263392147882890, 4.126423, -1.1078769, 8.955139, -0.053239346, 0.6197916, 9.90264
263392157522474, 4.358526, 0.09571291, 9.110672, -0.23532057, -0.5713139, 10.081097
263392167162057, 4.26401, -0.50488555, 9.041281, -0.15379834, 0.02597624, 10.007853
263392176801640, 4.3238306, -0.28115666, 9.145369, -0.1655786, -0.18242195, 10.1168995
263392186441224, 4.347759, 0.059820566, 9.148957, -0.19883275, -0.51569843, 10.114571
263392196080807, 4.2077785, -0.7860422, 9.093923, -0.062959194, 0.33070415, 10.045367
263392205720286, 4.4135613, 0.40677986, 9.203992, -0.2596841, -0.85825825, 10.17617
263392215359870, 4.17069, -1.0576276, 9.086744, -0.05450797, 0.62279105, 10.034507
263392224999453, 4.3501515, 0.45702913, 9.272188, -0.1826911, -0.8987632, 10.211023
263392234639036, 4.0677986, -0.991825, 9.120243, 0.010774136, 0.55501723, 10.020048
263392244278620, 4.17069, 0.11724831, 9.218349, -0.093710184, -0.56865793, 10.10219
263392253918203, 3.9804604, -0.73459655, 9.105886, 0.061054707, 0.28606844, 9.96069
263392263557682, 3.9924245, -0.5312066, 9.189635, 0.046340466, 0.07881355, 10.033078
263392273197265, 3.9948175, -0.27158538, 9.171689, 0.03049779, -0.17896721, 10.0059595
263392282836849, 3.891926, -1.0360922, 9.136993, 0.12465572, 0.5835889, 9.967404
263392292476432, 4.1072803, 0.124426775, 9.343972, -0.013864517, -0.59084976, 10.1904745
263392302116015, 3.9158542, -1.2442678, 9.288938, 0.18398261, 0.7870108, 10.124883
263392311755599, 4.113262, 0.24646074, 9.359526, 0.0072841644, -0.7194929, 10.201112
263392321395182, 3.8787656, -1.2466606, 9.126225, 0.15331268, 0.7826506, 9.962477
263392331034765, 4.101298, 0.0023928226, 9.249456, -0.02417326, -0.46222943, 10.107367
263392340674245, 3.9242291, -0.82911307, 9.257831, 0.15500331, 0.34824616, 10.08212
263392350313828, 4.001996, -0.42951167, 9.395418, 0.12789965, -0.054333955, 10.2203245
263392359953411, 3.9780676, -0.34456646, 9.18485, 0.054668188, -0.13995057, 10.014122
263392369592995, 3.891926, -0.9415757, 9.041281, 0.07876897, 0.46190667, 9.877189
263392379232578, 4.0881376, 0.07776674, 9.190832, -0.070218325, -0.5626773, 10.043345
263392388872161, 3.9038901, -1.2981063, 9.139386, 0.11242604, 0.8049181, 9.989658
263392398511745, 4.1790648, 0.19980069, 9.269794, -0.114474535, -0.6871935, 10.146341
263392408151328, 3.9158542, -1.288535, 9.029316, 0.04142332, 0.80225337, 9.893305
263392417790911, 4.112066, 0.05503492, 9.159725, -0.084792614, -0.544089, 10.02544
263392427430390, 3.9541395, -0.9164511, 9.19801, 0.088716984, 0.4394747, 10.043779
263392437069974, 4.0941195, -0.35413775, 9.400204, 0.035613537, -0.1328266, 10.258273
263392446709557, 4.1180477, -0.28235307, 9.35474, -0.0064709187, -0.2017345, 10.2229395
263392456349140, 4.045067, -0.79800636, 9.288938, 0.0280509, 0.31828925, 10.157837
263392465988724, 4.1551366, 0.019142581, 9.292527, -0.06961107, -0.50272226, 10.166563
263392475628307, 3.8703907, -1.3040884, 9.148957, 0.11246538, 0.84164083, 9.983136
263392485267890, 4.095316, 0.2835495, 9.213564, -0.05488825, -0.75269413, 10.058441
263392494907474, 3.8416767, -1.1880364, 9.068798, 0.11497164, 0.72694254, 9.892995
263392504547057, 4.0642095, 0.15194423, 9.270991, 0.016860008, -0.62643147, 10.104428
263392514186640, 3.9397824, -0.87936234, 9.171689, 0.09062219, 0.40623018, 10.012084
263392523826224, 4.063013, -0.2644069, 9.221938, 0.02261138, -0.22327296, 10.078281
263392533465703, 4.0594234, -0.38524446, 9.107083, -0.027149677, -0.09807384, 9.977772
263392543105286, 4.054638, -0.7896315, 9.089137, -0.025144339, 0.3091735, 9.978968
263392552744870, 4.243671, 0.09451649, 9.150154, -0.15892553, -0.5823367, 10.068695
263392562384453, 4.106084, -1.134198, 9.11785, -0.052761078, 0.6502528, 10.042706
263392572024036, 4.3609195, 0.317049, 9.21476, -0.24202275, -0.80349445, 10.164928
263392581663620, 4.085745, -1.1844472, 8.999406, -0.077400446, 0.72871727, 9.927161
263392591303203, 4.2999024, 0.16271193, 9.217153, -0.19930267, -0.63547754, 10.1502695
263392600942786, 4.0677986, -0.9415757, 9.138189, 0.0036120415, 0.47165665, 10.035815
263392610582370, 4.132405, -0.14356937, 9.169296, -0.060139894, -0.31702685, 10.053321
263392620221953, 4.061816, -0.3589234, 9.102298, -0.016679525, -0.09889141, 9.9734125
263392629861536, 4.019942, -0.72023964, 9.208778, 0.07608795, 0.26484692, 10.069974
263392639501120, 4.141976, -0.009571291, 9.372686, 0.02690506, -0.4501495, 10.2371855
263392649140703, 3.9637108, -1.1521441, 9.24826, 0.16275954, 0.7017548, 10.10197
263392658780286, 4.186243, 0.36011982, 9.280562, -0.056869507, -0.8112943, 10.154887
263392668419870, 3.9302113, -1.1688938, 9.05803, 0.111607075, 0.71729034, 9.916342
263392678059453, 4.1575294, 0.21774685, 9.195618, -0.04009962, -0.66338634, 10.072248
263392687699036, 3.9744785, -0.9882358, 9.0544405, 0.09323001, 0.5373002, 9.922632
263392697338620, 4.1694937, -0.13758731, 9.190832, -0.027759314, -0.3093248, 10.088535
263392706978099, 4.133601, -0.46899325, 9.145369, -0.0105855465, 0.01879561, 10.047085
263392716617682, 4.168297, -0.6580262, 9.147761, -0.043704033, 0.20876455, 10.071929
263392726257265, 4.2448673, 0.0011964113, 9.114262, -0.1631329, -0.44709885, 10.0430155
263392735896849, 4.071388, -1.0564312, 9.006584, -0.014005899, 0.61189127, 9.921501
263392745536432, 4.3058844, 0.31585258, 9.148957, -0.22620201, -0.7569971, 10.085615
263392755176015, 4.068995, -1.1569297, 9.017352, -0.0086352825, 0.7343289, 9.933204
263392764815599, 4.341777, 0.3290131, 9.219545, -0.22756696, -0.76823187, 10.164512
263392774455182, 4.121637, -0.90807617, 9.183653, -0.010966539, 0.48014957, 10.095608
263392784094765, 4.2245283, -0.0047856453, 9.274581, -0.08199811, -0.42663416, 10.18213
263392793734349, 4.1001015, -0.4749753, 9.126225, -0.030687809, 0.04773611, 10.016048
263392803373932, 4.0797625, -0.5491528, 9.136993, -0.008879185, 0.11908916, 10.020801
263392813013515, 4.1228333, -0.016749758, 9.225528, -0.015935183, -0.41718572, 10.096243
263392822653099, 3.9661036, -1.1018949, 9.250652, 0.14707732, 0.66851133, 10.101988
263392832292682, 4.150351, 0.22013968, 9.364311, 0.009620905, -0.658461, 10.224017
263392841932265, 3.8727834, -1.262214, 9.159725, 0.19465971, 0.82748663, 9.988472
263392851571849, 4.082155, 0.20697916, 9.266206, 0.01257062, -0.6622746, 10.105971
263392861211432, 3.8464625, -1.1150553, 9.101101, 0.17991233, 0.67467964, 9.918725
263392870851015, 4.011567, -0.051445685, 9.297313, 0.0919652, -0.39732006, 10.117759
263392880490599, 3.9349968, -0.58983076, 9.275777, 0.14692545, 0.13130069, 10.0912485
263392890130182, 3.9984066, -0.57906306, 9.238688, 0.058998823, 0.12277913, 10.082528
263392899769870, 4.061816, -0.11964113, 9.221938, -0.014262438, -0.33556134, 10.071941
263392909409453, 3.9314077, -1.0839486, 9.215957, 0.11146283, 0.62560713, 10.057881
263392919049036, 4.1168513, 0.20697916, 9.300901, -0.064506054, -0.66044796, 10.151734
263392928688620, 3.8584266, -1.2155539, 9.138189, 0.115436316, 0.7598526, 9.963978
263392938328203, 4.1001015, 0.34576288, 9.239884, -0.104836464, -0.79156804, 10.083068
263392947967786, 3.9086757, -1.0444671, 9.080762, 0.025137186, 0.5940617, 9.923474
263392957607370, 4.1084766, 0.029910283, 9.334401, -0.057810783, -0.47758472, 10.18725
263392967246953, 4.0151563, -0.6269195, 9.375079, 0.048974276, 0.17010173, 10.216422
263392976886536, 4.042674, -0.44745782, 9.38824, 0.038597107, -0.0056278408, 10.231372
263392986526120, 4.071388, -0.08135597, 9.170493, -0.07683253, -0.36188272, 10.02716
263392996165703, 3.9517467, -0.9451649, 9.062816, 1.487732E-4, 0.5052204, 9.919126
263393005805286, 4.109673, 0.16630118, 9.245867, -0.07493806, -0.61212504, 10.100634
263393015444870, 3.8895333, -1.3016955, 9.203992, 0.11119437, 0.84724224, 10.040227
263393025084453, 4.1587257, 0.25842485, 9.334401, -0.09245324, -0.71386683, 10.196796
263393034724036, 3.9098723, -1.1210374, 9.110672, 0.0777688, 0.6671098, 9.954752
263393044363620, 4.0941195, 0.050249275, 9.182457, -0.10556793, -0.5033597, 10.040784
263393054003203, 3.918247, -0.7393822, 9.086744, 0.04204464, 0.27678353, 9.9191675
263393063642786, 4.024728, -0.4223332, 9.073584, -0.073633194, -0.028210282, 9.934813
263393073282370, 4.1240296, -0.23928227, 9.072387, -0.16802502, -0.2134628, 9.964903
263393082922057, 4.0414777, -1.0277174, 9.209974, 0.006613493, 0.5679866, 10.094092
263393092561640, 4.2053857, 0.21296121, 9.378669, -0.11041546, -0.6792563, 10.257508
263393102201224, 3.9864426, -1.1306087, 9.239884, 0.08778906, 0.66584915, 10.104177
263393111840807, 4.2006, 0.38165522, 9.346365, -0.09686446, -0.8455814, 10.218653
263393121480390, 3.9349968, -1.1030912, 9.189635, 0.12564015, 0.6435412, 10.035959
263393131119974, 4.112066, 0.13758731, 9.280562, -0.022277594, -0.58697355, 10.134684
263393140759557, 3.9361932, -0.8207382, 9.122637, 0.08882809, 0.36550406, 9.96234
263393150399140, 4.040281, -0.31106696, 9.1465645, 0.0012392998, -0.14104304, 10.003018
263393160038724, 4.022335, -0.6089734, 9.114262, 0.0063569546, 0.14666435, 9.979893
263393169678307, 4.072584, -0.5395815, 9.160921, -0.013269901, 0.06993714, 10.039646
263393179317995, 4.0905304, -0.5455636, 9.163314, -0.022686005, 0.074169934, 10.049398
263393188957578, 4.0881376, -0.49651068, 9.182457, -0.0131287575, 0.024315983, 10.063604
263393198597161, 4.045067, -0.50009996, 9.206385, 0.040542364, 0.026379496, 10.06816
263393208236745, 4.0295134, -0.39601216, 9.188439, 0.045783997, -0.075588435, 10.040588
263393217876328, 4.042674, -0.3900301, 9.132208, 0.00833106, -0.076687306, 9.9943285
263393227515911, 4.0677986, -0.4331009, 9.209974, 0.018274546, -0.033399522, 10.077536
263393237155495, 4.0594234, -0.45104706, 9.327223, 0.07877183, -0.01795274, 10.181992
263393246795078, 4.0905304, -0.44027936, 9.316455, 0.050818443, -0.02206409, 10.184279
263393256434661, 4.082155, -0.46301118, 9.177671, 0.0077774525, 0.016474724, 10.055231
263393266074349, 4.071388, -0.48454657, 9.080762, -0.01858306, 0.043318212, 9.963383
263393275713932, 4.1024942, -0.4642076, 9.065208, -0.051714182, 0.021266937, 9.960962
263393285353515, 4.125226, -0.4761717, 9.18485, -0.018923283, 0.021972, 10.079923
263393294993099, 4.1204405, -0.51565325, 9.302098, 0.03507161, 0.05410868, 10.186698
263393304632682, 4.1108694, -0.4534399, 9.255438, 0.029177189, -0.00931102, 10.137407
263393314272265, 4.1180477, -0.44147578, 9.158528, -0.0150027275, -0.0133879185, 10.051439
263393323911953, 4.074977, -0.48933223, 9.086744, -0.0019207001, 0.037537992, 9.970577
263393333551536, 4.078566, -0.4761717, 9.111869, 0.008990765, 0.02424103, 9.994345
263393343191120, 4.139583, -0.41515473, 9.162118, -0.029675007, -0.037862957, 10.062334
263393352830703, 4.173083, -0.3900301, 9.217153, -0.038711548, -0.06577706, 10.12506
263393362470286, 4.168297, -0.39840496, 9.157332, -0.060344458, -0.05259353, 10.068951
263393372109870, 4.121637, -0.4235296, 9.046066, -0.06707764, -0.019421697, 9.949557
263393381749453, 4.1084766, -0.4127619, 8.975478, -0.09437966, -0.021738172, 9.879261
263393391389140, 4.1347976, -0.41515473, 9.044869, -0.08994031, -0.023772687, 9.953386
263393401028724, 4.1874394, -0.44626144, 9.236296, -0.05214858, 0.002702415, 10.150874
263393410668307, 4.1898327, -0.43669012, 9.322437, -0.0145049095, -0.0075961053, 10.230003
263393420307890, 4.145565, -0.3481557, 9.213564, -0.020340681, -0.09083012, 10.108809
263393429947474, 4.098905, -0.3493521, 9.178867, 0.013786316, -0.08257094, 10.058213
263393439587057, 4.0594234, -0.39960137, 9.189635, 0.06886721, -0.02284947, 10.053992
263393449226745, 4.058227, -0.4319045, 9.263813, 0.1006825, 0.006361097, 10.122442
263393458866328, 4.048656, -0.4438686, 9.242277, 0.10940695, 0.018544883, 10.099307
263393468505911, 4.068995, -0.43070808, 9.18485, 0.067136526, 0.007296324, 10.054808
263393478145495, 4.082155, -0.42592242, 9.160921, 0.046061993, 0.0027280748, 10.038214
263393487785078, 4.0773697, -0.42831525, 9.147761, 0.04556036, 0.0051064193, 10.0243635
263393497424765, 4.061816, -0.4881358, 9.141779, 0.06053233, 0.06572816, 10.015026
263393507064349, 4.0594234, -0.5192425, 9.221938, 0.09967661, 0.09469825, 10.0883
263393516703932, 4.0390844, -0.40917268, 9.247063, 0.12562776, -0.012060165, 10.098211
263393526343515, 4.0558343, -0.38883367, 9.123833, 0.06500459, -0.0087560415, 9.992049
263393535983099, 4.156333, -0.45104706, 9.163314, -0.0010344982, 0.06431562, 10.071779
263393545622786, 4.188636, -0.4426722, 9.215957, -0.002622366, 0.060779244, 10.132661
263393555262370, 4.2652063, -0.36011982, 9.122637, -0.114414215, -0.014756829, 10.076252
263393564901953, 4.269992, -0.3062813, 9.0951185, -0.123944044, -0.0617117, 10.051302
263393574541536, 4.274778, -0.29312077, 9.120243, -0.088116884, -0.07167956, 10.07599
263393584181224, 4.278367, -0.30388847, 9.152547, -0.06114626, -0.06296143, 10.107333
263393593820807, 4.308277, -0.27038896, 9.127422, -0.08814478, -0.095882416, 10.095904
263393603460390, 4.314259, -0.25124636, 9.06162, -0.12172222, -0.11149898, 10.038011
263393613099974, 4.304688, -0.3062813, 9.042477, -0.10967183, -0.057706982, 10.01874
263393622739661, 4.2999024, -0.34337005, 9.012567, -0.109766245, -0.021905065, 9.991041
263393632379245, 4.3178487, -0.33260235, 9.022138, -0.12041044, -0.035031825, 10.006883
263393642018828, 4.3034916, -0.40558344, 9.071191, -0.08360505, 0.032076716, 10.048037
263393651658411, 4.261617, -0.41754755, 8.986245, -0.083776, 0.04760921, 9.953845
263393661297995, 4.243671, -0.4223332, 8.979067, -0.07315183, 0.053858995, 9.939944
263393670937682, 4.2077785, -0.40438703, 9.019745, -0.025107384, 0.031463444, 9.961081
263393680577265, 4.2364926, -0.35413775, 9.133404, -0.0023126602, -0.02298671, 10.074314
263393690216849, 4.2329035, -0.36370903, 9.225528, 0.04625821, -0.017127246, 10.156658
263393699856536, 4.2006, -0.37328035, 9.183653, 0.06297374, -0.0044384003, 10.105437
263393709496120, 4.213761, -0.37328035, 9.11785, 0.024294138, -1.9043684E-4, 10.051354
263393719135703, 4.206582, -0.36729828, 9.129815, 0.03539443, -0.010689735, 10.058946
263393728775286, 4.2257247, -0.41635114, 9.233903, 0.06480932, 0.03024143, 10.163166
263393738414870, 4.2017965, -0.4139583, 9.249456, 0.092894554, 0.02600801, 10.167086
263393748054557, 4.17069, -0.4103691, 9.237492, 0.11392689, 0.01879549, 10.143025
263393757694140, 4.152744, -0.37806597, 9.165708, 0.087299585, -0.01305747, 10.069292
263393767333724, 4.104887, -0.38644084, 9.08794, 0.09878039, -0.0018337965, 9.978995
263393776973411, 4.1108694, -0.4211368, 9.08794, 0.08974457, 0.03210157, 9.982893
263393786612995, 4.125226, -0.4546363, 9.080762, 0.07088184, 0.066363454, 9.983736
263393796252578, 4.180261, -0.44745782, 9.093923, 0.022682905, 0.06016475, 10.018487
263393805892161, 4.2341, -0.36610186, 9.132208, -0.012391329, -0.02337706, 10.072644
263393815531849, 4.2855453, -0.36490545, 9.114262, -0.062636614, -0.020949304, 10.077919
263393825171432, 4.2795634, -0.36610186, 9.059227, -0.07506037, -0.015832603, 10.025588
263393834811015, 4.2927237, -0.3361916, 9.097511, -0.06746936, -0.04754129, 10.064713
263393844450703, 4.2975097, -0.39720857, 9.237492, -0.0076897144, 0.0058041513, 10.195957
263393854090286, 4.267599, -0.36610186, 9.205189, 0.0034360886, -0.025150388, 10.152895
263393863729870, 4.260421, -0.3278167, 9.109476, -0.03404069, -0.059090436, 10.061639
263393873369453, 4.2329035, -0.33499518, 9.101101, -0.012399197, -0.051918358, 10.042752
263393883009140, 4.206582, -0.39840496, 9.083155, 0.005058527, 0.012099206, 10.017864
263393892648724, 4.21735, -0.424726, 9.101101, 0.003015995, 0.036794573, 10.039677
263393902288307, 4.219743, -0.41754755, 9.078369, -0.008938789, 0.030804992, 10.019797
263393911927995, 4.21735, -0.4127619, 9.06162, -0.016675234, 0.02390185, 10.003426
263393921567578, 4.2185464, -0.42831525, 9.066405, -0.017688036, 0.03807211, 10.008872
263393931207161, 4.206582, -0.39481574, 9.032906, -0.022146463, 0.0062250197, 9.972166
263393940846849, 4.2077785, -0.39840496, 9.06162, -0.01271224, 0.0076853633, 9.998843
263393950486432, 4.223332, -0.39960137, 9.152547, 0.015745401, 0.006684065, 10.087866
263393960126015, 4.2927237, -0.37686956, 9.201599, -0.02760601, -0.017169118, 10.160604
263393969765599, 4.273581, -0.3361916, 9.163314, -0.024007559, -0.05333391, 10.116296
263393979405286, 4.2460637, -0.33499518, 9.09153, -0.021932125, -0.046181798, 10.039651
263393989044870, 4.2317066, -0.3385844, 9.064013, -0.020131588, -0.041558117, 10.008805
263393998684453, 4.2628136, -0.3361916, 9.11785, -0.020207882, -0.04924375, 10.0706005
263394008324140, 4.2556353, -0.36251262, 9.141779, -0.0021312237, -0.027996153, 10.090252
263394017963724, 4.2317066, -0.40677986, 9.153743, 0.02594781, 0.015331626, 10.092716
263394027603307, 4.21735, -0.4103691, 9.110672, 0.017853498, 0.017334312, 10.047793
263394037242995, 4.193422, -0.45583272, 9.109476, 0.033210278, 0.060011387, 10.038446
263394046882578, 4.162315, -0.46779683, 9.022138, 0.025339842, 0.07601833, 9.94667
263394056522161, 4.1491547, -0.49651068, 9.0029955, 0.029311895, 0.10660088, 9.924904
263394066161849, 4.174279, -0.43669012, 9.072387, 0.032797575, 0.044867396, 9.996019
263394075801432, 4.2041893, -0.42592242, 9.148957, 0.03936839, 0.031176984, 10.077575
263394085441015, 4.2364926, -0.39840496, 9.169296, 0.02114439, 0.0054357946, 10.108516
263394095080703, 4.2364926, -0.3469593, 9.170493, 0.0274508, -0.041377127, 10.107609
263394104720286, 4.214957, -0.35413775, 9.138189, 0.039490223, -0.03091538, 10.069522
263394114359870, 4.2388854, -0.35294133, 9.12144, 0.010962963, -0.029836357, 10.06441
