timestamp_acc,device_acc_x,device_acc_y,device_acc_z,earth_acc_x,earth_acc_y,earth_acc_z
181151554908253, 6.7465634, -0.6029913, 7.4273214, -0.034283996, 0.008533001, 10.052044
181151564547524, 6.780063, -0.6029913, 7.4069824, -0.024314284, 0.04600382, 10.0595
181151574186899, 6.734599, -0.6412765, 7.4129643, 0.0050581694, -0.007338524, 10.035837
181151583826170, 6.7178497, -0.6687939, 7.4069824, 0.031189919, -0.022254467, 10.021912
181151593465441, 6.73101, -0.6472585, 7.448857, 0.003521204, -0.03405714, 10.060306
181151603104712, 6.7465634, -0.66400826, 7.4105716, 0.030456543, -9.6178055E-4, 10.043539
181151612743983, 6.7202425, -0.6448657, 7.4344997, 0.00445354, -0.029031754, 10.042332
181151622383253, 6.7202425, -0.65084773, 7.429714, 0.012169361, -0.026195526, 10.039178
181151632022628, 6.708278, -0.6520442, 7.4536424, 0.008167505, -0.048657894, 10.048906
181151641661899, 6.74776, -0.6723832, 7.426125, 0.040077806, -0.004333496, 10.056345
181151651301170, 6.7118673, -0.6879365, 7.4416785, 0.047114015, -0.043982983, 10.044743
181151660940441, 6.7465634, -0.67118675, 7.476374, 0.026781917, -0.036198616, 10.092609
181151670579712, 6.7609205, -0.6855437, 7.48116, 0.03708422, -0.029127598, 10.106709
181151680218983, 6.775277, -0.66999036, 7.4715886, 0.024305224, -0.008149147, 10.108276
181151689858358, 6.7537417, -0.64965135, 7.4440713, 0.00740695, -0.0012021065, 10.072201
181151699497628, 6.7525454, -0.62811595, 7.4344997, -0.01247406, 0.007293701, 10.06295
181151709136899, 6.751349, -0.6113662, 7.448857, -0.030591369, -0.006567955, 10.071693
181151718776170, 6.7094746, -0.64606214, 7.368697, 0.01598537, 0.0029530525, 9.986584
181151728415441, 6.6891356, -0.6257231, 7.3603225, -0.004040003, -0.003976345, 9.96546
181151738054816, 6.734599, -0.60658056, 7.3698936, -0.017152548, 0.025158882, 10.001858
181151747694087, 6.728617, -0.6269195, 7.3770723, 2.3961067E-4, 0.011146545, 10.004419
181151757333358, 6.769295, -0.6269195, 7.409375, 2.6643276E-4, 0.01614809, 10.0555935
181151766972628, 6.815955, -0.6113662, 7.420143, -0.009062409, 0.047560215, 10.093919
181151776611899, 6.8279195, -0.6041877, 7.405786, -0.010774732, 0.06726408, 10.090914
181151786251274, 6.7932234, -0.6125626, 7.353144, 0.0042364597, 0.07199097, 10.029289
181151795890545, 6.7764735, -0.6197411, 7.38784, 7.697344E-4, 0.035880566, 10.044083
181151805529816, 6.7764735, -0.6149554, 7.4380894, -0.015397072, 0.0018277168, 10.080858
181151815169087, 6.7561345, -0.6448657, 7.4153576, 0.016845822, -0.013765812, 10.052276
181151824808358, 6.7573314, -0.6376872, 7.420143, 0.0091712475, -0.013981819, 10.056163
181151834447733, 6.7764735, -0.6125626, 7.456035, -0.020220995, -0.019189358, 10.093935
181151844087003, 6.768099, -0.62452674, 7.4273214, -0.004972458, -0.006669998, 10.067881
181151853726274, 6.74776, -0.60777694, 7.402197, -0.020014405, 0.002149105, 10.034629
181151863365545, 6.762117, -0.6029913, 7.4344997, -0.03070271, -0.004685402, 10.067802
181151873004816, 6.727421, -0.62931234, 7.426125, -0.0085555315, -0.030884266, 10.039947
181151882644191, 6.7238317, -0.6436693, 7.37109, 0.01574707, -4.4727325E-4, 9.997847
181151892283462, 6.7633133, -0.64606214, 7.422536, 0.011474967, -0.0043354034, 10.06249
181151901922733, 6.7740808, -0.66400826, 7.4105716, 0.029551744, 0.005440712, 10.062044
181151911562003, 6.7669024, -0.6556334, 7.372287, 0.029092908, 0.026858807, 10.028453
181151921201378, 6.765706, -0.6329016, 7.3830543, 0.0031998158, 0.023970127, 10.034154
181151930840649, 6.7848487, -0.654437, 7.3782687, 0.02717781, 0.032397747, 10.044876
181151940479920, 6.7728844, -0.67477596, 7.381858, 0.044719934, 0.012744904, 10.040765
181151950119191, 6.769295, -0.64965135, 7.396215, 0.017410874, 0.0056643486, 10.047342
181151959758462, 6.745367, -0.63529444, 7.3950186, 4.8542023E-4, -0.007466316, 10.029448
181151969397837, 6.748956, -0.6041877, 7.396215, -0.028028369, 0.003022194, 10.030785
181151979037108, 6.73101, -0.57547385, 7.4177504, -0.06212449, -0.015768528, 10.032775
181151988676378, 6.751349, -0.6149554, 7.381858, -0.012060046, 0.010083675, 10.022497
181151998315649, 6.786045, -0.6221339, 7.436893, -0.0128291845, -0.003683567, 10.086857
181152007955024, 6.838687, -0.6233303, 7.4847493, -0.014278173, 0.003501892, 10.157631
181152017594295, 6.8279195, -0.64606214, 7.4476604, 0.013683319, 0.011722565, 10.124485
181152027233566, 6.8015985, -0.6436693, 7.399804, 0.017977595, 0.021842003, 10.071363
181152036872837, 6.7704916, -0.6652047, 7.3495545, 0.044690013, 0.024971008, 10.014757
181152046512212, 6.73101, -0.64247286, 7.342376, 0.016977191, 0.006006241, 9.981454
181152056151483, 6.715457, -0.6305088, 7.3459654, -0.0043946505, -0.003918171, 9.972868
181152065790753, 6.719046, -0.6305088, 7.385447, -0.012137055, -0.026736736, 10.004354
181152075430024, 6.73101, -0.6436693, 7.3806615, 8.8071823E-4, -0.017115593, 10.009729
181152085069295, 6.7573314, -0.6628119, 7.393822, 0.019515395, -0.010148525, 10.038376
181152094708670, 6.782456, -0.69152576, 7.3842506, 0.053495288, 0.007519722, 10.050083
181152104347941, 6.778867, -0.6831509, 7.365108, 0.050564766, 0.01620388, 10.033032
181152113987212, 6.786045, -0.6305088, 7.4189467, -0.010810971, -0.0038781166, 10.074156
181152123626483, 6.808777, -0.613759, 7.446464, -0.029636383, -8.4733963E-4, 10.108665
181152133265858, 6.7908306, -0.6113662, 7.429714, -0.029283643, -0.0050706863, 10.084093
181152142905128, 6.7764735, -0.60777694, 7.409375, -0.030036688, -0.0010471344, 10.059221
181152152544399, 6.79442, -0.62931234, 7.4177504, -0.008266091, 6.5898895E-4, 10.078844
181152162183670, 6.7968125, -0.634098, 7.4141607, -0.0024834871, 0.0024700165, 10.07812
181152171823045, 6.782456, -0.613759, 7.4141607, -0.024008036, -0.004199505, 10.067156
181152181462316, 6.77767, -0.64606214, 7.335198, 0.024053812, 0.033856392, 10.007877
181152191101587, 6.77767, -0.61854464, 7.3639116, -0.008999944, 0.022568703, 10.027264
181152200740858, 6.788438, -0.62093747, 7.350751, -0.004089594, 0.03749752, 10.024998
181152210380233, 6.799206, -0.62093747, 7.3627152, -0.006473303, 0.03804159, 10.041058
181152220019503, 6.786045, -0.6257231, 7.3579297, -0.0049630404, 0.03149128, 10.028961
181152229658774, 6.778867, -0.6556334, 7.3770723, 0.016626, 0.007074833, 10.040108
181152239298045, 6.769295, -0.66759753, 7.3495545, 0.03207159, 0.01349926, 10.014178
181152248937420, 6.7405815, -0.6652047, 7.34118, 0.027571797, -0.004980564, 9.988497
181152258576691, 6.7441707, -0.6628119, 7.318448, 0.031317353, 0.012439251, 9.974051
181152268215962, 6.7633133, -0.6436693, 7.3375907, 0.011554956, 0.018806934, 9.999824
181152277855233, 6.789634, -0.64008003, 7.3806615, 0.0029150248, 0.012039661, 10.049023
181152287494608, 6.8099732, -0.63529444, 7.402197, -0.0029073954, 0.014823437, 10.078276
181152297133878, 6.806384, -0.6125626, 7.3866434, -0.021960855, 0.027955055, 10.062969
181152306773149, 6.7848487, -0.59940207, 7.4069824, -0.04067874, 0.002441883, 10.062563
181152316412420, 6.7812595, -0.6149554, 7.4177504, -0.026246905, -0.011461735, 10.069056
181152326051691, 6.79442, -0.60777694, 7.3770723, -0.020018935, 0.024680614, 10.047573
181152335691066, 6.782456, -0.6161518, 7.3770723, -0.012508273, 0.013273716, 10.04003
181152345330337, 6.808777, -0.62093747, 7.4129643, -0.012287378, 0.0070085526, 10.084485
181152354969608, 6.8135624, -0.64606214, 7.4273214, 0.0062294006, -0.0046515465, 10.099856
181152364608983, 6.7908306, -0.6795616, 7.450053, 0.029499412, -0.04470396, 10.103347
181152374248253, 6.775277, -0.695115, 7.4141607, 0.049041033, -0.034492016, 10.067461
181152383887524, 6.735796, -0.6520442, 7.399804, 0.004047036, -0.042736053, 10.02753
181152393526795, 6.728617, -0.67118675, 7.3435726, 0.03410673, -0.01717329, 9.9825535
181152403166066, 6.7334027, -0.66759753, 7.320841, 0.0368253, 0.0016083717, 9.96884
181152412805441, 6.7262244, -0.6436693, 7.322037, 0.011345625, 0.0020599365, 9.96336
181152422444712, 6.769295, -0.64008003, 7.372287, 0.0011775494, 0.0018439293, 10.029141
181152432083983, 6.800402, -0.6520442, 7.4189467, 0.0044710636, -0.0077142715, 10.085202
181152441723253, 6.8111696, -0.6664011, 7.408179, 0.022286654, 0.003379345, 10.085471
181152451362628, 6.823134, -0.6879365, 7.3770723, 0.05213487, 0.027718544, 10.072046
181152461001899, 6.808777, -0.62931234, 7.3842506, -0.0067088604, 0.023536682, 10.063898
181152470641170, 6.8219376, -0.59342, 7.379465, -0.036775112, 0.04187584, 10.066996
181152480280441, 6.788438, -0.56111693, 7.34118, -0.06287432, 0.046661854, 10.014215
181152489919816, 6.7704916, -0.5515456, 7.3292155, -0.07228947, 0.043443203, 9.992701
181152499559087, 6.7740808, -0.54675996, 7.368697, -0.08204806, 0.017712593, 10.023859
181152509198358, 6.7968125, -0.5946164, 7.375876, -0.034234762, 0.017409801, 10.0475025
181152518837628, 6.814759, -0.65324056, 7.3579297, 0.029028654, 0.02952671, 10.050129
181152528477003, 6.8422766, -0.6436693, 7.368697, 0.019844532, 0.047209263, 10.076018
181152538116274, 6.8506513, -0.65922266, 7.389036, 0.028710127, 0.037929535, 10.097604
181152547755545, 6.7932234, -0.6628119, 7.379465, 0.022564888, 0.001914978, 10.052024
181152557394816, 6.7812595, -0.65682983, 7.372287, 0.013651848, -8.764267E-4, 10.038294
181152567034191, 6.7369924, -0.66400826, 7.37109, 0.012556791, -0.034407616, 10.007977
181152576673462, 6.719046, -0.6687939, 7.359126, 0.016615272, -0.04143572, 9.987373
181152586312733, 6.751349, -0.47976094, 7.3866434, -0.16682804, 0.015568733, 10.01725
181152595952003, 6.735796, -0.9619147, 7.2897344, 0.31380045, -0.0736413, 9.966572
181152605591378, 6.8422766, -0.17467605, 7.4416785, -0.45069718, 0.14312744, 10.099616
181152615230649, 6.698707, -1.3519448, 7.27777, 0.6869805, -0.2037592, 9.957556
181152624869920, 6.899704, 0.12921242, 7.450053, -0.7473314, 0.26511097, 10.124086
181152634509191, 6.672386, -1.3974084, 7.3842506, 0.6989192, -0.30639648, 10.020892
181152644148566, 6.9152575, 0.04426722, 7.402197, -0.62864196, 0.29994154, 10.105945
181152653787837, 6.698707, -1.1246266, 7.3950186, 0.44367766, -0.22159672, 10.028851
181152663427108, 6.8781686, -0.33499518, 7.3543406, -0.26682663, 0.17282486, 10.070088
181152673066378, 6.7764735, -0.5886344, 7.450053, -0.062229037, -0.046685696, 10.08783
181152682705753, 6.788438, -0.8542377, 7.251449, 0.24323988, 0.009178638, 9.966788
181152692345024, 6.873383, -0.11485548, 7.372287, -0.47748065, 0.20928001, 10.066549
181152701984295, 6.719046, -1.3244274, 7.26102, 0.66714036, -0.19431305, 9.956871
181152711623566, 6.916454, 0.16510476, 7.4739814, -0.77120817, 0.28864384, 10.151203
181152721262941, 6.690332, -1.4380864, 7.361519, 0.738819, -0.2920556, 10.019452
181152730902212, 6.9320073, 0.059820566, 7.385447, -0.6438036, 0.30204344, 10.104229
181152740541483, 6.6927247, -1.1964114, 7.4141607, 0.4913516, -0.25260687, 10.044327
181152750180753, 6.8542404, -0.3481557, 7.3292155, -0.25401497, 0.1640706, 10.036324
181152759820128, 6.686743, -0.73340017, 7.3926253, 0.059617043, -0.11223793, 9.994257
181152769459399, 6.739385, -0.8889336, 7.1880393, 0.27424002, -7.510185E-4, 9.8895
181152779098670, 6.769295, -0.21535404, 7.3663044, -0.4016987, 0.12310839, 9.997784
181152788737941, 6.6592255, -1.3471591, 7.2287173, 0.680179, -0.22500658, 9.894504
181152798377316, 6.879365, 0.09810573, 7.4859457, -0.70417225, 0.2301693, 10.140308
181152808016587, 6.6711893, -1.4464613, 7.4141607, 0.72368646, -0.35613823, 10.045707
181152817655858, 6.9798636, 0.101694964, 7.4715886, -0.6967739, 0.32547665, 10.196178
181152827295128, 6.7441707, -1.1952149, 7.4392858, 0.49373758, -0.23286247, 10.097393
181152836934503, 6.910472, -0.2644069, 7.3974113, -0.3391409, 0.19329357, 10.118985
181152846573774, 6.7405815, -0.71425754, 7.48116, 0.034107924, -0.12295675, 10.094408
181152856213045, 6.7561345, -0.76689965, 7.245467, 0.15350938, 0.01453352, 9.935116
181152865852316, 6.798009, -0.20458634, 7.389036, -0.41008222, 0.118451595, 10.033466
181152875491587, 6.707082, -1.2562319, 7.2502527, 0.60559654, -0.17098284, 9.936461
181152885130962, 6.906883, 0.13878371, 7.466803, -0.75031686, 0.25600004, 10.141446
181152894770233, 6.6855464, -1.4297116, 7.3639116, 0.74440324, -0.29395247, 10.016349
181152904409503, 6.937989, 0.08135597, 7.3579297, -0.6673964, 0.33521795, 10.085815
181152914048774, 6.687939, -1.3064811, 7.3268228, 0.63282454, -0.2273202, 9.983267
181152923688149, 6.896115, -0.22731815, 7.304091, -0.36953557, 0.24324751, 10.0380335
181152933327420, 6.7058854, -0.78843504, 7.422536, 0.10333192, -0.13283396, 10.032761
181152942966691, 6.789634, -0.74416786, 7.2155566, 0.13105357, 0.0691576, 9.934547
181152952605962, 6.815955, -0.2632105, 7.3459654, -0.35678566, 0.13721275, 10.017166
181152962245337, 6.7166533, -1.2000005, 7.23111, 0.5596818, -0.1246562, 9.925402
181152971884608, 6.899704, 0.07537391, 7.4787674, -0.69782984, 0.20638752, 10.149582
181152981523878, 6.647261, -1.4488541, 7.372287, 0.7416519, -0.34439516, 9.998362
181152991163149, 6.943971, 0.15074782, 7.4045897, -0.7463569, 0.30163145, 10.120344
181153000802420, 6.6795645, -1.2765709, 7.3902326, 0.5985923, -0.27170658, 10.021458
181153010441795, 6.9116683, -0.1698904, 7.37109, -0.42046, 0.21294737, 10.09509
181153020081066, 6.735796, -0.8542377, 7.501499, 0.17403626, -0.18885612, 10.114701
181153029720337, 6.818348, -0.69272214, 7.292127, 0.08357382, 0.048835278, 10.006771
181153039359608, 6.832705, -0.30149564, 7.375876, -0.312863, 0.1165452, 10.053301
181153048998983, 6.7501526, -1.1533405, 7.268199, 0.51057625, -0.13061476, 9.972147
181153058638253, 6.914061, 0.07776674, 7.4512496, -0.678782, 0.24919987, 10.139455
181153068277524, 6.6592255, -1.430908, 7.312466, 0.737025, -0.31896257, 9.960923
181153077916795, 6.9152575, 0.13399807, 7.3639116, -0.70279074, 0.34114408, 10.072519
181153087556170, 6.6460648, -1.3387842, 7.283752, 0.6646594, -0.28444386, 9.924358
181153097195441, 6.896115, -0.111266255, 7.2562346, -0.437657, 0.306386, 9.996815
181153106834712, 6.7202425, -0.8757731, 7.4392858, 0.18742633, -0.17519617, 10.060109
181153116473983, 6.8410797, -0.6053841, 7.331609, -0.009912968, 0.072937965, 10.045593
181153126113253, 6.8171515, -0.33379877, 7.4273214, -0.2991432, 0.079247, 10.0823765
181153135752628, 6.7238317, -1.1353943, 7.288538, 0.47647738, -0.15566683, 9.968478
181153145391899, 6.8985076, 0.059820566, 7.499106, -0.6745529, 0.21235085, 10.16511
181153155031170, 6.6711893, -1.4524434, 7.3986077, 0.7589562, -0.3602667, 10.032345
181153164670441, 6.875776, 0.106480606, 7.466803, -0.71116984, 0.22220469, 10.12352
181153174309816, 6.6855464, -1.396212, 7.3543406, 0.7098743, -0.30119705, 10.00688
181153183949087, 6.8865438, -0.06460621, 7.3567333, -0.5122651, 0.25456762, 10.060963
181153193588358, 6.647261, -0.94755775, 7.4512496, 0.2641307, -0.25354958, 10.023525
181153203227628, 6.79442, -0.5599205, 7.2909307, -0.0417279, 0.07739687, 9.981363
181153212866899, 6.806384, -0.37447673, 7.448857, -0.2567184, 0.04434967, 10.093794
181153222506274, 6.775277, -1.079163, 7.280163, 0.4466114, -0.10089731, 9.993003
181153232145545, 6.893722, 0.0, 7.428518, -0.58519876, 0.24805164, 10.11446
181153241784816, 6.6676, -1.4440684, 7.2849483, 0.75864756, -0.29615736, 9.947335
181153251424087, 6.908079, 0.16390835, 7.411768, -0.7287737, 0.32671213, 10.101726
181153261063358, 6.6592255, -1.3615161, 7.2825556, 0.69896317, -0.257226, 9.933777
181153270702733, 6.899704, -0.020338992, 7.2562346, -0.51886046, 0.34777927, 9.993454
181153280342003, 6.704689, -0.94396853, 7.338787, 0.28247762, -0.13811731, 9.9801235
181153289981274, 6.8650084, -0.42831525, 7.2418776, -0.14287293, 0.20291138, 9.984737
181153299620545, 6.77767, -0.42592242, 7.3830543, -0.19444275, 0.053099155, 10.029312
181153309259920, 6.7728844, -0.9834501, 7.2646093, 0.36494792, -0.038936615, 9.973915
181153318899191, 6.903293, 0.013160525, 7.472785, -0.6104256, 0.21425581, 10.152813
181153328538462, 6.666404, -1.3483555, 7.375876, 0.6676364, -0.27899694, 10.006945
181153338177733, 6.927222, 0.13519448, 7.5517483, -0.7351322, 0.22662783, 10.219677
181153347817003, 6.658029, -1.4057833, 7.422536, 0.70604324, -0.33679914, 10.039307
181153357456378, 6.88774, -0.040677983, 7.3543406, -0.54112864, 0.26031637, 10.0582485
181153367095649, 6.674779, -1.0815558, 7.4512496, 0.3951336, -0.2500806, 10.051113
181153376734920, 6.815955, -0.46660042, 7.3782687, -0.14105761, 0.06971073, 10.054305
181153386374191, 6.7369924, -0.5706882, 7.476374, -0.085472345, -0.07402325, 10.079491
181153396013462, 6.7405815, -1.0133604, 7.304091, 0.38054407, -0.08910322, 9.982952
181153405652837, 6.838687, -0.09930214, 7.466803, -0.5122099, 0.15388203, 10.1116085
181153415292108, 6.6364937, -1.402194, 7.3375907, 0.71292007, -0.3005166, 9.962475
181153424931378, 6.863812, 0.13399807, 7.476374, -0.73625314, 0.2312603, 10.120796
181153434570649, 6.586244, -1.4656038, 7.3136625, 0.776525, -0.338315, 9.914577
181153444210024, 6.855437, -0.02871387, 7.342376, -0.5659952, 0.26422548, 10.025875
181153453849295, 6.6676, -1.1521441, 7.4069824, 0.45648646, -0.24177456, 10.019026
181153463488566, 6.8542404, -0.41515473, 7.3842506, -0.19783497, 0.11816597, 10.081022
181153473127837, 6.771688, -0.5814559, 7.475178, -0.08151102, -0.04605007, 10.102642
181153482767108, 6.778867, -0.910469, 7.274181, 0.2875018, -0.008483887, 9.98063
181153492406483, 6.8662047, -0.039481573, 7.4584284, -0.56985414, 0.18370438, 10.120079
181153502045753, 6.695118, -1.2801601, 7.348358, 0.61986506, -0.2325468, 10.001174
181153511685024, 6.9224358, 0.20338993, 7.5062847, -0.7960334, 0.25876188, 10.178662
181153521324295, 6.6759753, -1.396212, 7.3459654, 0.71658194, -0.27710915, 9.994547
181153530963670, 6.9332037, 0.09930214, 7.379465, -0.6656734, 0.30938768, 10.09935
181153540602941, 6.715457, -1.1126626, 7.4105716, 0.43241966, -0.21150398, 10.050881
181153550242212, 6.8721867, -0.32183465, 7.3399835, -0.27616608, 0.1779418, 10.054748
181153559881483, 6.74776, -0.66759753, 7.4213395, 0.013418913, -0.07077837, 10.052315
181153569520753, 6.7525454, -0.9092726, 7.2179494, 0.2938509, -0.015492916, 9.921485
181153579160128, 6.829116, -0.1902294, 7.391429, -0.42143452, 0.14482975, 10.055229
181153588799399, 6.6735826, -1.3579268, 7.2622166, 0.6996734, -0.2296691, 9.928655
181153598438670, 6.8650084, 0.0741775, 7.4189467, -0.6811924, 0.23341608, 10.082466
181153608077941, 6.6053867, -1.4644074, 7.3100734, 0.7646731, -0.3733611, 9.924145
181153617717212, 6.899704, 0.09810573, 7.373483, -0.6880355, 0.290915, 10.071036
181153627356587, 6.6628146, -1.2143575, 7.3902326, 0.5252224, -0.26065397, 10.006972
181153636995858, 6.873383, -0.26081768, 7.402197, -0.35265768, 0.14725351, 10.09742
181153646635128, 6.7704916, -0.6843473, 7.5457664, 0.011315823, -0.14081001, 10.160046
181153656274399, 6.8279195, -0.7860422, 7.3543406, 0.160833, -0.0060806274, 10.06473
181153665913670, 6.879365, -0.20219351, 7.4883385, -0.41917932, 0.10876274, 10.161409
181153675553045, 6.7334027, -1.2849457, 7.3196445, 0.63150406, -0.19314384, 10.006541
181153685192316, 6.9056864, 0.14117654, 7.475178, -0.74935377, 0.21835518, 10.147783
181153694831587, 6.650851, -1.4093726, 7.3304124, 0.7423161, -0.29884815, 9.965677
181153704470858, 6.9044895, 0.101694964, 7.3268228, -0.66833675, 0.33195925, 10.040308
181153714110233, 6.661618, -1.2346965, 7.312466, 0.5647279, -0.22950125, 9.9499855
181153723749503, 6.8709903, -0.19980069, 7.3052874, -0.37593687, 0.22242594, 10.02132
181153733388774, 6.745367, -0.74416786, 7.4129643, 0.08581078, -0.09699583, 10.049331
181153743028045, 6.8075805, -0.7477571, 7.268199, 0.13382375, 0.038896084, 9.985468
181153752667316, 6.8410797, -0.24526432, 7.4010005, -0.37629437, 0.11878157, 10.0737095
181153762306691, 6.7178497, -1.2729816, 7.2382884, 0.62491035, -0.15838957, 9.936157
181153771945962, 6.8889365, 0.05383851, 7.4105716, -0.6471559, 0.23137951, 10.094781
181153781585233, 6.6592255, -1.4799608, 7.312466, 0.80541706, -0.31616735, 9.962884
181153791224503, 6.9092755, 0.10767702, 7.3926253, -0.6897758, 0.2644868, 10.092317
181153800863774, 6.6771717, -1.2765709, 7.385447, 0.58438563, -0.28456926, 10.016817
181153810503149, 6.882954, -0.19142582, 7.3603225, -0.4085878, 0.19014597, 10.068911
181153820142420, 6.7381887, -0.82672024, 7.460821, 0.15627491, -0.16458797, 10.084593
181153829781691, 6.815955, -0.6723832, 7.432107, 0.02763331, -0.04637003, 10.1065645
181153839420962, 6.808777, -0.33260235, 7.5266237, -0.3219942, -0.010357857, 10.149696
181153849060337, 6.754938, -1.2167503, 7.3579297, 0.5612054, -0.18732786, 10.044836
181153858699608, 6.943971, 0.019142581, 7.587641, -0.64775944, 0.13866091, 10.26414
181153868338878, 6.68435, -1.5074782, 7.517052, 0.7729603, -0.42829514, 10.133026
181153877978149, 6.946364, 0.033499517, 7.537391, -0.66049385, 0.2098751, 10.226683
181153887617420, 6.710671, -1.3112668, 7.513463, 0.5967145, -0.34238768, 10.135649
181153897256795, 6.875776, -0.1902294, 7.298109, -0.39603794, 0.23295212, 10.018173
181153906896066, 6.6364937, -0.87936234, 7.4237323, 0.18327236, -0.21835852, 9.99234
181153916535337, 6.8243303, -0.60777694, 7.2646093, -0.012974739, 0.095814705, 9.985294
181153926174608, 6.814759, -0.27756742, 7.353144, -0.35240614, 0.12959576, 10.022263
181153935813983, 6.741778, -1.125823, 7.1569324, 0.48903215, -0.062973976, 9.884212
181153945453253, 6.937989, 0.0849452, 7.3375907, -0.6642885, 0.33829784, 10.071119
181153955092524, 6.6963143, -1.4273187, 7.1916285, 0.75159943, -0.20396566, 9.8990345
181153964731795, 7.0085773, 0.19860429, 7.2705917, -0.771994, 0.44506454, 10.061165
181153974371066, 6.7561345, -1.2921243, 7.263413, 0.6087549, -0.16614676, 9.983683
181153984010441, 6.969096, -0.013160525, 7.1784678, -0.5392264, 0.41166925, 9.981915
181153993649712, 6.728617, -0.8781659, 7.2646093, 0.21670866, -0.07483673, 9.938183
181154003288983, 6.884151, -0.5204389, 7.1820574, -0.07582867, 0.19374752, 9.959972
181154012928253, 6.8817577, -0.3278167, 7.365108, -0.30992496, 0.13347816, 10.079535
181154022567628, 6.789634, -1.006182, 7.1712894, 0.36781657, -0.0063991547, 9.91986
181154032206899, 6.928418, 0.062213387, 7.405786, -0.68193436, 0.24190092, 10.115778
181154041846170, 6.71426, -1.402194, 7.300502, 0.7157537, -0.2665763, 9.988064
181154051485441, 6.9882383, 0.12562318, 7.4392858, -0.7339642, 0.30530834, 10.176558
181154061124816, 6.73101, -1.4009976, 7.3052874, 0.7067033, -0.2495861, 10.003738
181154070764087, 6.928418, -0.08733802, 7.359126, -0.51656127, 0.22749138, 10.092014
181154080403358, 6.727421, -1.032503, 7.4548388, 0.31596673, -0.24560165, 10.086561
181154090042628, 6.8506513, -0.5587241, 7.314859, -0.08185959, 0.07557058, 10.03685
181154099681899, 6.735796, -0.49651068, 7.466803, -0.19766974, -0.087827206, 10.065974
181154109321274, 6.710671, -1.1413764, 7.2897344, 0.45200694, -0.18112183, 9.961876
181154118960545, 6.8745794, -0.101694964, 7.4943204, -0.57009065, 0.116136074, 10.153646
181154128599816, 6.611369, -1.5074782, 7.3136625, 0.77396965, -0.3595662, 9.937004
181154138239087, 6.835098, 0.025124637, 7.4141607, -0.6652969, 0.18356371, 10.06045
181154147878462, 6.6149583, -1.5349957, 7.314859, 0.7893845, -0.38165426, 9.942448
181154157517733, 6.8614187, -0.13998012, 7.3340015, -0.4817592, 0.20940638, 10.03047
181154167157003, 6.719046, -1.119841, 7.4644103, 0.38912463, -0.26661253, 10.094282
181154176796274, 6.863812, -0.5192425, 7.381858, -0.13544214, 0.07080364, 10.092077
181154186435649, 6.7740808, -0.552742, 7.5146594, -0.1576432, -0.08645153, 10.130718
181154196074920, 6.802795, -1.0073783, 7.332805, 0.32709968, -0.10098839, 10.047173
181154205714191, 6.920043, -0.05742774, 7.4979095, -0.58472323, 0.18311214, 10.184965
181154215353566, 6.7322063, -1.3842479, 7.3232336, 0.6895137, -0.2652521, 10.016123
181154224992837, 6.9583282, 0.17467605, 7.4440713, -0.7932421, 0.2992158, 10.155996
181154234632108, 6.698707, -1.4117653, 7.3028946, 0.7052095, -0.27370977, 9.98127
181154244271378, 6.9475603, 0.0011964113, 7.2861447, -0.5897236, 0.3472023, 10.044312
181154253910649, 6.715457, -1.1126626, 7.359126, 0.41626072, -0.2059164, 10.013813
181154263550024, 6.88774, -0.4019942, 7.318448, -0.22398245, 0.14739561, 10.05437
181154273189295, 6.8051877, -0.5694918, 7.4344997, -0.11395919, -0.0368042, 10.094173
181154282828566, 6.79442, -0.991825, 7.1952176, 0.34594715, -0.01931858, 9.939766
181154292467941, 6.8662047, -0.16510476, 7.351948, -0.47258222, 0.17194033, 10.048396
181154302107212, 6.6999035, -1.4153546, 7.245467, 0.72014284, -0.23779726, 9.940502
181154311746483, 6.9212394, 0.1160519, 7.409375, -0.7330501, 0.26154232, 10.1099
181154321385753, 6.678368, -1.4608182, 7.314859, 0.73791456, -0.31765938, 9.979795
181154331025128, 6.937989, 0.02871387, 7.350751, -0.6452913, 0.27889252, 10.0834465
181154340664399, 6.7166533, -1.1377872, 7.4189467, 0.42929637, -0.25975657, 10.059671
181154350303670, 6.903293, -0.35653058, 7.3746796, -0.2774564, 0.121080875, 10.103308
181154359942941, 6.792027, -0.64008003, 7.4679995, -0.049396515, -0.09086752, 10.114428
181154369582316, 6.7932234, -0.9272188, 7.281359, 0.2759992, -0.05207157, 9.997347
181154379221587, 6.855437, -0.17228323, 7.4045897, -0.46649766, 0.13327599, 10.080639
181154388860858, 6.707082, -1.3567305, 7.2933235, 0.6665399, -0.2446189, 9.975676
181154398500233, 6.9332037, 0.086141616, 7.4775705, -0.714361, 0.19799328, 10.1706085
181154408139503, 6.6711893, -1.5194423, 7.304091, 0.8230628, -0.32590628, 9.96893
181154417778774, 6.91765, 0.05383851, 7.3567333, -0.6637416, 0.27167225, 10.072933
181154427418045, 6.6927247, -1.2047862, 7.399804, 0.502931, -0.28785515, 10.033213
181154437057420, 6.897311, -0.31465617, 7.385447, -0.31096125, 0.11969948, 10.104738
181154446696691, 6.7812595, -0.7082755, 7.463214, 0.030173302, -0.12814951, 10.107887
181154456335962, 6.818348, -0.84107715, 7.281359, 0.20764399, -0.022417545, 10.008591
181154465975337, 6.88774, -0.18424734, 7.4189467, -0.4411657, 0.12605047, 10.114601
181154475614608, 6.7501526, -1.3196417, 7.2957163, 0.65598667, -0.23337173, 10.002436
181154485253878, 6.9858456, 0.15433706, 7.496713, -0.7669287, 0.24766016, 10.216509
181154494893149, 6.7501526, -1.3974084, 7.3579297, 0.7170409, -0.30056095, 10.052461
181154504532524, 6.9822564, 0.13758731, 7.3746796, -0.7221886, 0.30810642, 10.126216
181154514171795, 6.7501526, -1.1617154, 7.3268228, 0.4970528, -0.22173452, 10.015
181154523811066, 6.926025, -0.18903299, 7.251449, -0.38875806, 0.2442131, 10.018896
181154533450441, 6.7932234, -0.67836523, 7.3459654, 0.032892466, -0.052666187, 10.028331
181154543089712, 6.8506513, -0.7692925, 7.1880393, 0.16973972, 0.057276726, 9.957865
181154552728983, 6.884151, -0.23330021, 7.342376, -0.3725276, 0.14568853, 10.059646
181154562368253, 6.771688, -1.2705889, 7.1880393, 0.6307118, -0.15198517, 9.935652
181154572007628, 6.984649, 0.12203395, 7.4249287, -0.7147347, 0.2695055, 10.165939
181154581646899, 6.7202425, -1.4548361, 7.298109, 0.7563158, -0.31276083, 9.993536
181154591286170, 6.9678993, 0.12203395, 7.2933235, -0.6870681, 0.33356762, 10.058617
181154600925545, 6.710671, -1.2777673, 7.2789664, 0.5947006, -0.25013494, 9.961571
181154610564816, 6.9152575, -0.1902294, 7.300502, -0.39271235, 0.20500708, 10.047789
181154620204087, 6.7501526, -0.81954175, 7.3806615, 0.15888035, -0.1577034, 10.032959
181154629843462, 6.8398833, -0.70947194, 7.259824, 0.0984385, 0.016783714, 9.999121
181154639482733, 6.8985076, -0.25124636, 7.396215, -0.3624972, 0.10361624, 10.110113
181154649122003, 6.7908306, -1.2155539, 7.2586274, 0.57093275, -0.1684146, 9.996315
181154658761378, 6.9523463, 0.12203395, 7.495517, -0.7253556, 0.19369555, 10.196526
181154668400649, 6.7166533, -1.4344971, 7.396215, 0.7411393, -0.37434483, 10.059114
181154678039920, 6.9906316, 0.11844472, 7.436893, -0.6933993, 0.2710004, 10.1801815
181154687679295, 6.715457, -1.3172488, 7.359126, 0.63227606, -0.2981367, 10.024998
181154697318566, 6.9391856, -0.18305093, 7.3627152, -0.4095707, 0.1884737, 10.109012
181154706957837, 6.771688, -0.83988076, 7.469196, 0.16119814, -0.19345427, 10.113686
181154716597212, 6.8315086, -0.66400826, 7.2897344, 0.054044366, 0.009376526, 10.012374
181154726236483, 6.826723, -0.3278167, 7.38784, -0.29509676, 0.038723946, 10.059981
181154735875753, 6.735796, -1.1712867, 7.2263246, 0.54169846, -0.15702009, 9.931995
181154745515128, 6.9344, 0.05503492, 7.436893, -0.6593667, 0.19958353, 10.145035
181154755154399, 6.7178497, -1.4596218, 7.34118, 0.78076327, -0.31442022, 10.0222
181154764793670, 6.9894347, 0.15553348, 7.399804, -0.73418057, 0.26865053, 10.149988
181154774433045, 6.7178497, -1.3411771, 7.3064837, 0.6809267, -0.2698784, 9.988817
181154784072316, 6.946364, -0.09212367, 7.2897344, -0.47254312, 0.25634527, 10.055431
181154793711587, 6.775277, -0.90329057, 7.37109, 0.2441566, -0.14758396, 10.048476
181154803350962, 6.8542404, -0.55393845, 7.318448, -0.05656624, 0.03834009, 10.042036
181154812990233, 6.8817577, -0.33020952, 7.393822, -0.2821145, 0.081774235, 10.101978
181154822629503, 6.815955, -1.0971092, 7.213164, 0.4789207, -0.094993114, 9.972574
181154832268878, 6.966703, 0.07776674, 7.4380894, -0.65828514, 0.2379942, 10.167409
181154841908149, 6.7525454, -1.4069797, 7.335198, 0.7404976, -0.29709053, 10.03718
181154851547420, 7.0097737, 0.19621146, 7.4213395, -0.764848, 0.3013506, 10.177225
181154861186795, 6.710671, -1.3351951, 7.3256264, 0.6509652, -0.29518127, 9.998487
181154870826066, 6.940382, -0.050249275, 7.3292155, -0.5254128, 0.2391429, 10.077478
181154880465337, 6.7369924, -0.951147, 7.399804, 0.2739352, -0.21225882, 10.04633
181154890104712, 6.869794, -0.54317075, 7.2646093, -0.05792582, 0.090687275, 10.012596
181154899743983, 6.8398833, -0.42951167, 7.37109, -0.20263743, 0.03138542, 10.062773
181154909383358, 6.778867, -1.1126626, 7.1808605, 0.48494196, -0.090708256, 9.925343
181154919022628, 6.9009004, -0.022731815, 7.3663044, -0.57527936, 0.19207764, 10.075592
181154928661899, 6.7118673, -1.4297116, 7.251449, 0.76716053, -0.28379726, 9.95026
181154938301274, 6.948757, 0.1052842, 7.308877, -0.6659683, 0.3066945, 10.058748
181154947940545, 6.708278, -1.4093726, 7.2562346, 0.7394992, -0.30141354, 9.950003
181154957579816, 7.0085773, 0.034695927, 7.271788, -0.580683, 0.34622526, 10.076864
181154967219191, 6.7908306, -0.9846465, 7.393822, 0.30149603, -0.19789076, 10.080847
181154976858462, 6.9188466, -0.42592242, 7.332805, -0.17453992, 0.106315136, 10.0886135
181154986497837, 6.8506513, -0.4426722, 7.466803, -0.20970297, -0.0270195, 10.1408
181154996137108, 6.8422766, -1.0013963, 7.2753773, 0.37067795, -0.09260321, 10.030188
181155005776378, 6.9559355, -0.03708875, 7.457232, -0.56090164, 0.18217564, 10.180812
181155015415753, 6.74776, -1.4117653, 7.312466, 0.74028933, -0.31417418, 10.017524
181155025055024, 6.995417, 0.16869399, 7.4656067, -0.7585937, 0.27507067, 10.200417
181155034694399, 6.7226353, -1.3950156, 7.342376, 0.6986213, -0.34115744, 10.02227
181155044333670, 6.936793, 0.009571291, 7.3112698, -0.57255256, 0.26237488, 10.058688
181155053972941, 6.7166533, -1.079163, 7.3950186, 0.38812292, -0.27307653, 10.036888
181155063612316, 6.8925257, -0.4139583, 7.353144, -0.19192576, 0.079199314, 10.084835
181155073251587, 6.8410797, -0.55513483, 7.4584284, -0.10222995, -0.06478262, 10.135189
181155082890962, 6.8422766, -0.997807, 7.2693954, 0.36673486, -0.07924175, 10.025752
181155092530233, 6.9355965, -0.124426775, 7.4249287, -0.49553275, 0.1425128, 10.147989
181155102169503, 6.73101, -1.3998013, 7.2765737, 0.7290013, -0.2909174, 9.979898
181155111808878, 6.9655066, 0.14476576, 7.3782687, -0.72249913, 0.27920008, 10.118208
181155121448149, 6.7022963, -1.4380864, 7.2466636, 0.7608541, -0.28993988, 9.9418335
181155131087524, 6.9678993, 0.061016977, 7.280163, -0.6374142, 0.29724884, 10.052933
181155140726795, 6.7238317, -1.125823, 7.2993054, 0.45514405, -0.22120237, 9.975026
181155150366170, 6.910472, -0.33020952, 7.298109, -0.27270317, 0.13197422, 10.051581
181155160005441, 6.8339014, -0.58624154, 7.396215, -0.057592988, -0.059704304, 10.086773
181155169644712, 6.8506513, -0.9020941, 7.183254, 0.29685807, 0.0027923584, 9.962741
181155179284087, 6.9475603, -0.069391854, 7.393822, -0.5347947, 0.18201065, 10.130295
181155188923358, 6.7908306, -1.2849457, 7.2849483, 0.62798154, -0.20504522, 10.020008
181155198562733, 7.0229344, 0.19262223, 7.500303, -0.7943152, 0.2207365, 10.24371
181155208202003, 6.7561345, -1.396212, 7.350751, 0.7099135, -0.3086424, 10.051323
181155217841274, 6.99781, 0.10049855, 7.3172517, -0.6722646, 0.30501986, 10.098349
181155227480649, 6.7740808, -1.1688938, 7.332805, 0.507512, -0.21023178, 10.036073
181155237119920, 6.926025, -0.317049, 7.3136625, -0.28026056, 0.13379002, 10.072912
181155246759295, 6.8039913, -0.65324056, 7.3974113, 0.0052855015, -0.10556841, 10.071323
181155256398566, 6.818348, -0.8458628, 7.210771, 0.23492467, -0.02266407, 9.957151
181155266037941, 6.8925257, -0.15314065, 7.361519, -0.45760632, 0.12620497, 10.07457
181155275677212, 6.7381887, -1.3172488, 7.2418776, 0.6555102, -0.24669456, 9.954524
181155285316587, 6.969096, 0.11844472, 7.4512496, -0.7270694, 0.21404648, 10.174921
181155294955858, 6.721439, -1.4500505, 7.2993054, 0.7735034, -0.33593845, 9.992453
181155304595233, 6.9738817, 0.086141616, 7.300502, -0.6484562, 0.32235956, 10.07052
181155314234503, 6.7525454, -1.2382857, 7.312466, 0.57915545, -0.25118732, 10.010187
181155323873774, 6.9523463, -0.2440679, 7.2969127, -0.33415997, 0.18511772, 10.074408
181155333513149, 6.8243303, -0.6771688, 7.426125, 0.017117858, -0.111607075, 10.107653
181155343152420, 6.8853474, -0.7585248, 7.2550383, 0.15546572, 0.007892609, 10.029692
181155352791795, 6.9332037, -0.16510476, 7.3974113, -0.43425596, 0.13774633, 10.129694
181155362431066, 6.798009, -1.2370893, 7.2358956, 0.6025759, -0.19473314, 9.985012
181155372070441, 6.9906316, 0.1471586, 7.446464, -0.7369971, 0.24559784, 10.185133
181155381709712, 6.7609205, -1.4273187, 7.2765737, 0.7545372, -0.30420685, 10.001698
181155391349087, 7.0085773, 0.1363909, 7.3160553, -0.6923083, 0.33430004, 10.103088
181155400988358, 6.7728844, -1.2179468, 7.3292155, 0.5494834, -0.2796526, 10.034572
181155410627733, 6.9499536, -0.18783657, 7.271788, -0.37110758, 0.21863651, 10.051395
181155420267003, 6.8051877, -0.7920243, 7.359126, 0.1400882, -0.12802792, 10.052792
181155429906378, 6.856633, -0.7046863, 7.225128, 0.107934, 0.01853466, 9.985014
181155439545649, 6.908079, -0.2213361, 7.365108, -0.3802718, 0.11175299, 10.092485
181155449185024, 6.7836523, -1.2358929, 7.1629148, 0.6085923, -0.16148806, 9.922512
181155458824295, 6.977471, 0.11246266, 7.429714, -0.6996224, 0.21072817, 10.166834
181155468463670, 6.7561345, -1.3974084, 7.3112698, 0.729905, -0.31690502, 10.020958
181155478102941, 7.02772, 0.16749759, 7.372287, -0.73149943, 0.29300404, 10.156109
181155487742316, 6.7728844, -1.2801601, 7.312466, 0.61322474, -0.257236, 10.0269985
181155497381587, 6.9583282, -0.1160519, 7.292127, -0.45389605, 0.2063818, 10.067686
181155507020962, 6.79442, -0.8111669, 7.385447, 0.15635121, -0.15976381, 10.065634
181155516660233, 6.8518476, -0.654437, 7.253842, 0.055966377, 0.0038347244, 9.9995575
181155526299608, 6.897311, -0.28115666, 7.3974113, -0.32892656, 0.044452667, 10.112541
181155535938878, 6.8051877, -1.1940185, 7.179664, 0.58008647, -0.13870382, 9.94626
181155545578253, 6.9822564, 0.08733802, 7.409375, -0.66394126, 0.20532846, 10.157528
181155555217524, 6.778867, -1.416551, 7.332805, 0.7558093, -0.3215704, 10.052613
181155564856899, 7.0133634, 0.18424734, 7.429714, -0.76618624, 0.26096487, 10.186596
181155574496170, 6.8135624, -1.012164, 7.3304124, 0.36471927, -0.16781378, 10.051014
181155584135545, 6.869794, -0.5132605, 7.312466, -0.0916214, 0.023516655, 10.045931
181155593774816, 6.8542404, -0.64845496, 7.29452, 0.040041685, -0.012090683, 10.030422
181155603414191, 6.8685975, -0.5706882, 7.320841, -0.039024234, 4.7683716E-4, 10.054676
181155613053462, 6.879365, -0.59342, 7.29452, -0.010015368, 0.021481037, 10.044265
181155622692837, 6.875776, -0.6089734, 7.322037, -0.0024317503, -9.498596E-4, 10.062772
181155632332108, 6.890133, -0.5982057, 7.348358, -0.016412497, -0.0052051544, 10.091079
181155641971483, 6.863812, -0.62452674, 7.3340015, 0.008103967, -0.020376205, 10.064247
181155651610753, 6.8805614, -0.634098, 7.3100734, 0.024723768, 0.0050444603, 10.058864
181155661250128, 6.875776, -0.60777694, 7.332805, -0.006635666, -0.008927345, 10.07053
181155670889503, 6.8685975, -0.6053841, 7.2849483, -5.1271915E-4, 0.012023926, 10.030674
181155680528774, 6.8542404, -0.59940207, 7.338787, -0.02068448, -0.03342867, 10.059629
181155690168149, 6.867401, -0.6113662, 7.3232336, -0.0038166046, -0.016953945, 10.058053
181155699807420, 6.8518476, -0.634098, 7.3112698, 0.01855874, -0.026203156, 10.040096
181155709446795, 6.862615, -0.63529444, 7.314859, 0.020116806, -0.021967888, 10.050142
181155719086066, 6.8853474, -0.62093747, 7.3435726, 0.002542019, -0.021516323, 10.085691
181155728725441, 6.8925257, -0.62931234, 7.3196445, 0.014955163, -0.0030059814, 10.073723
181155738364712, 6.8650084, -0.61854464, 7.300502, 0.004773855, -0.007490158, 10.040327
181155748004087, 6.890133, -0.59581286, 7.3160553, -0.019819498, 0.0074357986, 10.0674305
181155757643462, 6.8853474, -0.6161518, 7.301698, 0.0022838116, 0.008290768, 10.054968
181155767282733, 6.8817577, -0.6448657, 7.268199, 0.03614497, 0.021081924, 10.029925
181155776922108, 6.8422766, -0.60777694, 7.239485, 1.5676022E-4, 0.020441532, 9.979773
181155786561378, 6.893722, -0.6664011, 7.3782687, 0.03314638, -0.051962376, 10.119415
181155796200753, 6.9044895, -0.5694918, 7.375876, -0.058681846, -0.02396059, 10.1190815
181155805840024, 6.859026, -0.6125626, 7.2490563, 0.008550644, 0.015543461, 9.998501
181155815479399, 6.927222, -0.6089734, 7.2753773, 0.010868669, 0.04659748, 10.064098
181155825118774, 6.971489, -0.5694918, 7.3663044, -0.040251493, 0.026723862, 10.158056
181155834758045, 6.9320073, -0.55513483, 7.3052874, -0.045103192, 0.039839745, 10.085857
181155844397420, 6.8985076, -0.5802595, 7.2753773, -0.018904328, 0.027401924, 10.042715
181155854036691, 6.8949184, -0.61854464, 7.2418776, 0.024718165, 0.036557198, 10.0182495
181155863676066, 6.8781686, -0.59581286, 7.2849483, -0.013413429, 0.002190113, 10.036656
181155873315337, 6.8889365, -0.60658056, 7.2693954, -5.5992603E-4, 0.018742085, 10.033401
181155882954712, 6.8817577, -0.61734825, 7.288538, 0.002209425, -2.861023E-5, 10.043032
181155892594087, 6.896115, -0.62093747, 7.3160553, 0.0017719269, -0.00863409, 10.073061
181155902233358, 6.906883, -0.6376872, 7.314859, 0.017908216, -0.0027179718, 10.0806
181155911872733, 6.856633, -0.6448657, 7.2873416, 0.023538113, -0.023353577, 10.026641
181155921512003, 6.8506513, -0.6448657, 7.2646093, 0.026995063, -0.01358366, 10.006044
181155931151378, 6.859026, -0.63529444, 7.3172517, 0.0075873137, -0.03974104, 10.0493965
181155940790753, 6.876972, -0.6735796, 7.3268228, 0.04368472, -0.043362617, 10.070997
181155950430024, 6.867401, -0.6472585, 7.328019, 0.016213417, -0.042644978, 10.063694
181155960069399, 6.8805614, -0.6269195, 7.331609, -0.003075838, -0.027860165, 10.074068
181155969708774, 6.88774, -0.6436693, 7.348358, 0.011078596, -0.035586834, 10.092188
181155979348045, 6.8949184, -0.62931234, 7.3459654, 1.0275841E-4, -0.026079178, 10.094477
181155988987420, 6.9009004, -0.6113662, 7.3268228, -0.0122509, -0.004758835, 10.08357
181155998626691, 6.8913293, -0.6233303, 7.308877, 0.0038712025, -0.0055360794, 10.06472
181156008266066, 6.899704, -0.6161518, 7.3136625, 5.7554245E-4, -0.009861946, 10.073486
181156017905441, 6.9128647, -0.60777694, 7.281359, 0.0022468567, 0.018945217, 10.058575
181156027544712, 6.920043, -0.5766702, 7.283752, -0.026633143, 0.031251907, 10.063343
181156037184087, 6.920043, -0.57906306, 7.2849483, -0.02609396, 0.02811718, 10.064359
181156046823462, 6.923632, -0.5515456, 7.274181, -0.051017523, 0.047911167, 10.057322
181156056462733, 6.9128647, -0.56829536, 7.271788, -0.036104918, 0.03712511, 10.049223
181156066102108, 6.906883, -0.6029913, 7.27777, -0.008843303, 0.022903442, 10.051566
181156075741378, 6.9009004, -0.5982057, 7.2873416, -0.01689303, 0.01388979, 10.0541115
181156085380753, 6.926025, -0.62452674, 7.280163, 0.01311481, 0.029779911, 10.067749
181156095020128, 6.8925257, -0.64606214, 7.271788, 0.029916763, 0.0054984093, 10.040034
181156104659399, 6.8781686, -0.6556334, 7.2658057, 0.038092732, -0.0041360855, 10.026441
181156114298774, 6.859026, -0.64247286, 7.2418776, 0.026667237, 0.0033669472, 9.995153
181156123938149, 6.882954, -0.62811595, 7.2933235, 0.0047308207, -0.008997917, 10.047989
181156133577420, 6.879365, -0.6161518, 7.308877, -0.0129874945, -0.013662815, 10.056073
181156143216795, 6.8709903, -0.6029913, 7.2993054, -0.024383187, -0.006959915, 10.042576
181156152856170, 6.8853474, -0.62093747, 7.34118, -0.01304853, -0.026576996, 10.083928
181156162495441, 6.879365, -0.654437, 7.314859, 0.026382565, -0.021999836, 10.062799
181156172134816, 6.88774, -0.64606214, 7.342376, 0.013201952, -0.031440735, 10.087996
181156181774191, 6.9020967, -0.6628119, 7.312466, 0.04028845, -0.007300377, 10.07714
181156191413462, 6.8781686, -0.6472585, 7.288538, 0.028511405, -0.0048537254, 10.042416
181156201052837, 6.8949184, -0.5982057, 7.3160553, -0.022332191, 0.002460003, 10.070845
181156210692108, 6.8781686, -0.6197411, 7.3136625, -0.004578352, -0.014623165, 10.058962
181156220331483, 6.876972, -0.6161518, 7.3304124, -0.012758374, -0.026280403, 10.070078
181156229970858, 6.9009004, -0.61854464, 7.322037, -0.007471919, -0.0034947395, 10.080535
181156239610233, 6.8781686, -0.63529444, 7.3028946, 0.008329868, -0.010242462, 10.052109
181156249249503, 6.8685975, -0.6053841, 7.2897344, -0.018974423, -5.6028366E-4, 10.034142
181156258888878, 6.884151, -0.6221339, 7.2825556, -1.7154217E-4, 0.012217045, 10.040619
181156268528253, 6.882954, -0.6125626, 7.3064837, -0.015277982, -8.211136E-4, 10.056578
181156278167524, 6.8925257, -0.61016977, 7.3136625, -0.018143773, 0.002655983, 10.068195
181156287806899, 6.914061, -0.6017949, 7.300502, -0.019786358, 0.02940178, 10.072858
181156297446274, 6.928418, -0.61854464, 7.3399835, -0.01051569, 0.0067420006, 10.112408
181156307085545, 6.914061, -0.6053841, 7.3160553, -0.019908309, 0.01396513, 10.084383
181156316724920, 6.8745794, -0.61016977, 7.280163, -0.01350987, 0.007048607, 10.031584
181156326364295, 6.867401, -0.62931234, 7.240681, 0.012663245, 0.02259016, 9.999201
181156336003566, 6.8506513, -0.6329016, 7.2155566, 0.018143296, 0.027370453, 9.969711
181156345642941, 6.897311, -0.58504516, 7.312466, -0.04556644, 0.013281822, 10.069017
181156355282316, 6.8985076, -0.63170516, 7.320841, -0.006440997, 0.0021195412, 10.078846
181156364921587, 6.8913293, -0.6221339, 7.300502, -0.01238811, 0.012551308, 10.058553
181156374560962, 6.8889365, -0.65682983, 7.2993054, 0.020984769, 0.004356861, 10.058244
181156384200337, 6.8817577, -0.65682983, 7.3196445, 0.017519236, -0.01545763, 10.068102
181156393839608, 6.875776, -0.66999036, 7.301698, 0.034369826, -0.0129880905, 10.051798
181156403478983, 6.8542404, -0.6580262, 7.3112698, 0.017921686, -0.031829834, 10.043253
181156413118358, 6.863812, -0.6197411, 7.32443, -0.019900441, -0.025894165, 10.056948
181156422757733, 6.879365, -0.64845496, 7.344769, 0.007861614, -0.034840584, 10.084171
181156432397003, 6.884151, -0.64965135, 7.3304124, 0.012946844, -0.021339893, 10.077097
181156442036378, 6.890133, -0.62811595, 7.3363943, -0.008577704, -0.014419556, 10.084188
181156451675753, 6.8805614, -0.6329016, 7.348358, -0.008048177, -0.030230522, 10.08663
181156461315024, 6.8985076, -0.62093747, 7.338787, -0.015728712, -0.006779194, 10.0912075
181156470954399, 6.8709903, -0.6376872, 7.2873416, 0.0063767433, 0.004840374, 10.0360565
181156480593774, 6.8949184, -0.6257231, 7.3136625, -0.011793494, 0.008931637, 10.070793
181156490233045, 6.906883, -0.63888365, 7.300502, 0.003581643, 0.02073288, 10.070258
181156499872420, 6.893722, -0.65324056, 7.2658057, 0.022274494, 0.027614117, 10.03697
181156509511795, 6.897311, -0.62452674, 7.233503, 0.0022246838, 0.058791637, 10.014141
181156519151170, 6.879365, -0.6161518, 7.251449, -0.014123559, 0.034317017, 10.014361
181156528790441, 6.876972, -0.6269195, 7.24786, -0.0039309263, 0.029744148, 10.010812
181156538429816, 6.8721867, -0.6233303, 7.2442703, -0.0070956945, 0.02865839, 10.0047035