timestamp_acc,device_acc_x,device_acc_y,device_acc_z,earth_acc_x,earth_acc_y,earth_acc_z
180743413569976, -0.6759724, 4.354937, 8.914461, 0.0012791157, -0.013711691, 9.944337
180743423209195, -0.6664011, 4.358526, 8.9108715, 0.011848271, -0.012579441, 9.942041
180743432848414, -0.6628119, 4.3633122, 8.898908, 0.016626954, -0.0054564476, 9.93318
180743442487684, -0.6771688, 4.3992043, 8.896515, 0.012983859, 0.028926373, 9.947791
180743452126955, -0.6843473, 4.3968115, 8.88455, 0.0055092573, 0.033254147, 9.936518
180743461766226, -0.68195444, 4.4039903, 8.874979, 0.011292338, 0.042434692, 9.930938
180743471405497, -0.68075806, 4.3944187, 8.860622, 0.01011765, 0.035831213, 9.913809
180743481044768, -0.7118647, 4.375276, 8.855837, -0.025092423, 0.03354287, 9.903227
180743490684039, -0.701097, 4.382455, 8.853444, -0.011764348, 0.033941984, 9.903517
180743500323309, -0.6855437, 4.392026, 8.868998, 0.006413758, 0.025600433, 9.920601
180743509962580, -0.6723832, 4.3872404, 8.891729, 0.014751613, 0.0070865154, 9.937937
180743519601799, -0.6891329, 4.389633, 8.912068, -0.001678288, 0.0044543743, 9.958349
180743529241018, -0.69152576, 4.386044, 8.946764, -0.008355439, -0.012878895, 9.987988
180743538880289, -0.67118675, 4.375276, 8.962317, 0.007297635, -0.038067102, 9.995758
180743548519559, -0.6735796, 4.3836513, 8.904889, 0.013157725, -0.0051767826, 9.948214
180743558158830, -0.6987042, 4.3992043, 8.857033, -4.982352E-4, 0.035342216, 9.913979
180743567798101, -0.6855437, 4.3932223, 8.843872, 0.011438251, 0.029618979, 9.898659
180743577437372, -0.70229346, 4.408776, 8.877372, -9.724498E-4, 0.029286623, 9.936668
180743587076643, -0.72741807, 4.3836513, 8.903693, -0.034810483, 0.0050139427, 9.950882
180743596715914, -0.70229346, 4.402794, 8.921639, -0.004630208, 8.957386E-4, 9.973637
180743606355132, -0.6987042, 4.395615, 8.914461, -0.0029725432, -0.0030987263, 9.963796
180743615994351, -0.6795616, 4.3992043, 8.921639, 0.016259313, -0.011664152, 9.970459
180743625633622, -0.6759724, 4.4111686, 8.9013, 0.02569294, 0.004438162, 9.957299
180743635272893, -0.69152576, 4.412365, 8.886943, 0.011572897, 0.014215231, 9.946086
180743644912164, -0.72263247, 4.4111686, 8.885747, -0.019128859, 0.022892237, 9.94667
180743654551434, -0.7082755, 4.406383, 8.880961, -0.0065904856, 0.016276598, 9.939268
180743664190705, -0.7046863, 4.3944187, 8.87139, -0.007762015, 0.006257534, 9.925168
180743673829976, -0.6999006, 4.392026, 8.861818, -0.003155291, 0.0048732758, 9.915218
180743683469247, -0.6939186, 4.395615, 8.88455, 0.0015439987, -0.004164934, 9.936708
180743693108518, -0.6891329, 4.4111686, 8.907282, 0.008589625, -0.0056180954, 9.963579
180743702747737, -0.695115, 4.409972, 8.908479, 6.47068E-4, -0.0057389736, 9.964539
180743712386955, -0.74177504, 4.406383, 8.920443, -0.045401454, 0.001987934, 9.976909
180743722026226, -0.6855437, 4.4279184, 8.938389, 0.009837508, -0.0072000027, 9.998555
180743731665497, -0.72263247, 4.4231324, 8.924032, -0.028231204, 0.0072875023, 9.986181
180743741304768, -0.762114, 4.3944187, 8.863015, -0.07291031, 0.023134232, 9.921639
180743750944039, -0.7369894, 4.4147577, 8.847462, -0.045529842, 0.037357092, 9.915006
180743760583309, -0.62093747, 4.4685965, 8.806784, 0.08083236, 0.057977676, 9.894618
180743770222580, -0.6759724, 4.3872404, 8.790034, -0.003240645, 0.017121315, 9.847297
180743779958466, -0.6305088, 4.3944187, 8.779266, 0.02681011, 0.012886047, 9.83784
180743789790549, -0.5766702, 4.465007, 8.87139, 0.091962814, 0.010050535, 9.947957
180743799622476, -0.5766702, 4.4350967, 8.885747, 0.06934643, -0.01669693, 9.947565
180743809454455, -0.60658056, 4.4339004, 8.988638, 0.018650413, -0.047551394, 10.040936
180743819286434, -0.613759, 4.4350967, 8.94796, -0.0068422556, -0.017950535, 10.005618
180743829118362, -0.69152576, 4.4207397, 8.864211, -0.07388824, 0.036186695, 9.929181
180743838950289, -0.5347959, 4.4075794, 8.944371, 0.028959513, -0.05817175, 9.985506
180743848782268, -0.5096712, 4.412365, 8.970692, 0.051309586, -0.07484889, 10.0096855
180743858614247, -0.54436713, 4.4195433, 9.044869, 0.0030207634, -0.08153558, 10.081256
180743868446226, -0.57427746, 4.4135613, 8.970692, -0.03569925, -0.03986311, 10.013978
180743878278153, -0.57547385, 4.4518466, 8.807981, -0.004501581, 0.062610626, 9.88568
180743888110080, -0.5910272, 4.4315076, 8.781659, -0.028662443, 0.062057257, 9.853955
180743897942059, -0.47856453, 4.4662037, 8.849854, 0.06695843, 0.017209053, 9.924271
180743907774039, -0.4534399, 4.456632, 8.76491, 0.096790254, 0.037350655, 9.842767
180743917606018, -0.5192425, 4.4243293, 8.749356, 0.018246949, 0.038553715, 9.818031
180743927437945, -0.5072784, 4.4350967, 8.785249, 0.02725631, 0.027790785, 9.854263
180743937269872, -0.49172506, 4.462614, 8.825927, 0.046259522, 0.02818942, 9.902058
180743947101851, -0.54317075, 4.476971, 8.872586, -0.0030469298, 0.036396742, 9.952876
180743956933830, -0.5371887, 4.4662037, 8.867801, -8.699298E-4, 0.02696228, 9.943477
180743966765757, -0.55752766, 4.4614177, 8.847462, -0.01700437, 0.036193132, 9.924268
180743976597684, -0.5838487, 4.447061, 8.849854, -0.046688557, 0.03208518, 9.921389
180743986429664, -0.55034924, 4.4542394, 8.891729, -0.015803933, 0.007523775, 9.960206
180743996261643, -0.5407779, 4.436293, 8.904889, -0.012104809, -0.016961336, 9.963423
180744006093570, -0.506082, 4.4279184, 8.932407, 0.016025186, -0.048183918, 9.982379
180744015925497, -0.51086766, 4.4315076, 8.937193, 0.013437152, -0.046522617, 9.98851
180744025662007, -0.54675996, 4.4231324, 8.915657, -0.017677665, -0.03177595, 9.96748
180744035302164, -0.55393845, 4.4339004, 8.885747, -0.013442636, -0.009534121, 9.945983
180744044941434, -0.5946164, 4.4482574, 8.855837, -0.038739562, 0.027486324, 9.927948
180744054580705, -0.58265233, 4.459025, 8.839087, -0.017486691, 0.035693645, 9.91717
180744064219976, -0.573081, 4.462614, 8.857033, -0.009583831, 0.027237415, 9.93426
180744073859247, -0.5479564, 4.470989, 8.842676, 0.018368363, 0.03017044, 9.923793
180744083498518, -0.54317075, 4.4446683, 8.859426, 0.0117332935, -0.0010130405, 9.926702
180744093137737, -0.56470615, 4.4350967, 8.8701935, -0.012964606, -0.005334854, 9.933234
180744102776955, -0.56590253, 4.436293, 8.863015, -0.007542014, -0.0028195381, 9.927432
180744112416226, -0.56590253, 4.4554358, 8.883354, -0.003178835, 0.0040533543, 9.95415
180744122055497, -0.5491528, 4.4602213, 8.87139, 0.0238806, 0.0014379025, 9.944653
180744131694768, -0.55513483, 4.462614, 8.867801, 0.019636989, 0.0073125362, 9.9428625
180744141334039, -0.57188463, 4.447061, 8.827123, 0.007611394, 0.015455484, 9.900567
180744150973309, -0.5778667, 4.4458647, 8.815159, 0.0066022873, 0.01901102, 9.889704
180744160612580, -0.5623133, 4.4518466, 8.849854, 0.021583796, 0.0013325214, 9.92243
180744170251799, -0.55513483, 4.4542394, 8.91805, 0.02311325, -0.029848099, 9.983919
180744179891018, -0.5946164, 4.4602213, 8.95155, -0.011428356, -0.02531457, 10.018813
180744189530289, -0.61734825, 4.470989, 8.940782, -0.02749765, -0.0033640862, 10.015371
180744199169559, -0.6376872, 4.4578285, 8.851051, -0.03813505, 0.030690908, 9.930638
180744208808830, -0.62811595, 4.4374895, 8.790034, -0.025645196, 0.032663822, 9.866552
180744218448101, -0.573081, 4.4578285, 8.772088, 0.03510785, 0.036565304, 9.85635
180744228087372, -0.56829536, 4.4315076, 8.819944, 0.024806976, -0.007630348, 9.886959
180744237726591, -0.59581286, 4.4398823, 8.846265, -0.0023878217, -0.0019938946, 9.915842
180744247365809, -0.6029913, 4.4398823, 8.879765, -0.014009953, -0.0127666, 9.9461565
180744257005080, -0.61016977, 4.459025, 8.9108715, -0.01753056, -0.0071935654, 9.98291
180744266644351, -0.5886344, 4.465007, 8.868998, 0.009862423, 0.008564949, 9.946947
180744276283622, -0.5922236, 4.4662037, 8.822337, 0.012271464, 0.031134129, 9.90607
180744285922893, -0.59700924, 4.453043, 8.845069, -2.616644E-4, 0.011776924, 9.92074
180744295562164, -0.5766702, 4.449454, 8.882157, 0.012992978, -0.0138943195, 9.951006
180744305201382, -0.5515456, 4.4315076, 8.9013, 0.028081596, -0.04555726, 9.9585495
180744314840601, -0.587438, 4.4339004, 8.882157, -0.0026701689, -0.022389889, 9.944686
180744324479872, -0.5814559, 4.4721856, 8.877372, 0.01639831, 0.009045839, 9.957206
180744334119143, -0.6113662, 4.4662037, 8.867801, -0.0125050545, 0.018511295, 9.947771
180744343758414, -0.61016977, 4.456632, 8.865408, -0.014509261, 0.0100438595, 9.941279
180744353397684, -0.5766702, 4.4685965, 8.857033, 0.021752119, 0.011973143, 9.937169
180744363036955, -0.60059845, 4.4554358, 8.859426, -0.007232249, 0.008455992, 9.934834
180744372676174, -0.5910272, 4.4542394, 8.849854, 0.001471281, 0.0078053474, 9.925192
180744382315393, -0.5982057, 4.459025, 8.836694, -0.0021871924, 0.0200603, 9.916023
180744391954664, -0.58624154, 4.449454, 8.807981, 0.008593023, 0.01884079, 9.885415
180744401593934, -0.58624154, 4.462614, 8.787642, 0.016070008, 0.03752303, 9.873175
180744411233205, -0.59342, 4.4614177, 8.816355, 0.0062168837, 0.025547981, 9.898676
180744420872476, -0.5886344, 4.4614177, 8.861818, 0.0053685308, 0.003994465, 9.93894
180744430511695, -0.5706882, 4.4745784, 8.883354, 0.024836779, -0.00162673, 9.962976
180744440150914, -0.573081, 4.459025, 8.842676, 0.022547543, 0.00304389, 9.919867
180744449790184, -0.59940207, 4.3262234, 8.819944, -0.04480028, -0.08766365, 9.841607
180744459429455, -0.51565325, 4.9543395, 8.902496, 0.24027127, 0.36435533, 10.191925
180744469068726, -0.6687939, 3.8153558, 8.754142, -0.27920377, -0.46015668, 9.557694
180744478707997, -0.5204389, 5.0620165, 8.955139, 0.27157938, 0.43468642, 10.28721
180744488347216, -0.63529444, 4.0103707, 8.787642, -0.19398105, -0.31872725, 9.673164
180744497986434, -0.6197411, 4.709075, 8.944371, 0.055185914, 0.17756295, 10.125546
180744507625705, -0.552742, 4.486542, 8.833105, 0.0540967, 0.023612022, 9.922443
180744517264976, -0.6723832, 4.1838503, 8.82114, -0.16751647, -0.1741414, 9.783193
180744526904247, -0.45702913, 4.9064827, 8.842676, 0.29757953, 0.32388878, 10.113451
180744536543518, -0.71665037, 3.790231, 8.770891, -0.34933597, -0.4587686, 9.56428
180744546182737, -0.49052864, 5.1720862, 8.976674, 0.35274386, 0.49568248, 10.353821
180744555821955, -0.68195444, 3.7184465, 8.784052, -0.34278172, -0.5264535, 9.54237
180744565461226, -0.4989035, 5.119444, 8.968299, 0.31481647, 0.47032285, 10.323163
180744575100497, -0.62931234, 3.9684963, 8.793623, -0.20083642, -0.35664582, 9.659466
180744584739768, -0.60059845, 4.752146, 8.977871, 0.083269715, 0.19461703, 10.173542
180744594379039, -0.57188463, 4.4147577, 8.847462, 0.008318663, -0.029594898, 9.90423
180744604018257, -0.6556334, 4.211368, 8.82114, -0.14223719, -0.15646744, 9.794553
180744613657476, -0.5132605, 4.90409, 8.811569, 0.23530948, 0.3639984, 10.088083
180744623296747, -0.701097, 3.8213377, 8.730213, -0.31498748, -0.4238875, 9.541063
180744632936018, -0.49172506, 5.1924253, 8.921639, 0.33305067, 0.55707836, 10.313947
180744642575289, -0.7298109, 3.7040894, 8.706285, -0.37332255, -0.50490403, 9.468791
180744652214507, -0.552742, 5.160122, 8.915657, 0.29390216, 0.5409589, 10.297685
180744661853726, -0.6448657, 3.9493537, 8.7469635, -0.21445268, -0.34817696, 9.610172
180744671492997, -0.5383851, 4.8155556, 8.977871, 0.17331088, 0.2260449, 10.198061
180744681132268, -0.5419743, 4.3812585, 8.85464, 0.027824402, -0.07471919, 9.893808
180744690771539, -0.634098, 4.278367, 8.842676, -0.09625256, -0.12017393, 9.842546
180744700410757, -0.4749753, 4.846662, 8.885747, 0.2594149, 0.25827432, 10.126116
180744710049976, -0.6963114, 3.8273199, 8.809176, -0.3090896, -0.45730472, 9.61406
180744719689247, -0.49052864, 5.180461, 9.0341015, 0.36367476, 0.47054958, 10.408607
180744729328518, -0.7369894, 3.711268, 8.813962, -0.3965848, -0.5221665, 9.569362
180744738967789, -0.5419743, 5.1732826, 8.955139, 0.3040036, 0.5347414, 10.337929
180744748607007, -0.67118675, 3.8931224, 8.734999, -0.25029457, -0.38143516, 9.575958
180744758246226, -0.58624154, 4.8622155, 8.9013, 0.15028322, 0.31953335, 10.153486
180744767885497, -0.57547385, 4.321438, 8.779266, -0.014995575, -0.082295656, 9.80176
180744777524768, -0.63170516, 4.3058844, 8.810373, -0.07490432, -0.088044405, 9.825936
180744787164039, -0.49172506, 4.8083773, 8.843872, 0.22763681, 0.26254368, 10.072517
180744796803257, -0.68075806, 3.891926, 8.796016, -0.2578724, -0.40539193, 9.630657
180744806442476, -0.47258246, 5.157729, 9.036494, 0.33344287, 0.46116924, 10.399994
180744816081747, -0.715454, 3.694518, 8.815159, -0.35596567, -0.5747287, 9.560927
180744825721018, -0.5276174, 5.1816573, 8.968299, 0.31548822, 0.53027177, 10.352662
180744835360237, -0.6652047, 3.851248, 8.723035, -0.25286567, -0.4181342, 9.546053
180744844999455, -0.57547385, 4.8849473, 8.94796, 0.16428924, 0.3025334, 10.2049675
180744854638726, -0.58504516, 4.2723846, 8.800801, -0.043005824, -0.13094807, 9.799524
180744864277997, -0.6125626, 4.389633, 8.817552, -0.02835226, -0.03064704, 9.868717
180744873917268, -0.48933223, 4.782056, 8.774481, 0.22235829, 0.2718253, 9.998785
180744883556487, -0.67118675, 3.918247, 8.711071, -0.2344408, -0.3572998, 9.565735
180744893195705, -0.49052864, 5.1086764, 8.924032, 0.32436442, 0.47345114, 10.27853
180744902834976, -0.7513463, 3.690929, 8.758927, -0.3880853, -0.541306, 9.511186
180744912474247, -0.52522457, 5.194818, 9.01137, 0.3269323, 0.5132239, 10.396946
180744922113466, -0.7046863, 3.7950168, 8.784052, -0.31976134, -0.47501183, 9.577599
180744931752684, -0.5802595, 4.922036, 9.030513, 0.17547202, 0.30203438, 10.295208
180744941391955, -0.6257231, 4.2388854, 8.878569, -0.09662902, -0.17978191, 9.856319
180744951031226, -0.63529444, 4.4542394, 8.915657, -0.031332016, -0.01663804, 9.986568
180744960670445, -0.53359944, 4.718646, 8.848659, 0.16901982, 0.19207954, 10.039106
180744970309664, -0.72263247, 3.9421754, 8.749356, -0.27967882, -0.33078122, 9.6138735
180744979948934, -0.4546363, 5.1206403, 8.91805, 0.36468363, 0.46561432, 10.276648
180744989588205, -0.73340017, 3.7052858, 8.755338, -0.36331284, -0.52431583, 9.513992
180744999227424, -0.4869394, 5.1756754, 8.9013, 0.34540582, 0.5319798, 10.288612
180745008866643, -0.6735796, 3.7794633, 8.648857, -0.25599176, -0.44601655, 9.448616
180745018505914, -0.56111693, 4.9579287, 8.885747, 0.21336454, 0.37907863, 10.181512
180745028145184, -0.6472585, 4.156333, 8.784052, -0.1315186, -0.20154667, 9.73631
180745037784403, -0.6520442, 4.5044885, 8.925228, -0.029107928, 0.03153324, 10.018655
180745047423622, -0.55752766, 4.6899323, 8.865408, 0.12652409, 0.18073654, 10.042564
180745057062893, -0.6963114, 3.9984066, 8.839087, -0.2455914, -0.3233676, 9.717854
180745066702164, -0.50129634, 5.058427, 9.016156, 0.2948203, 0.3919897, 10.338737
180745076341382, -0.71306115, 3.7005002, 8.829515, -0.37315297, -0.54635906, 9.577303
180745085980601, -0.4977071, 5.2223353, 8.99821, 0.3706175, 0.52484393, 10.395935
180745095619872, -0.66999036, 3.7411783, 8.677571, -0.30515534, -0.4559729, 9.457512
180745105259143, -0.5407779, 4.985446, 8.9108715, 0.24441981, 0.3939035, 10.214492
180745114898362, -0.6269195, 4.1144586, 8.76491, -0.1385054, -0.21578813, 9.699469
180745124537580, -0.6233303, 4.5535417, 8.896515, 0.016088128, 0.08610034, 10.01317
180745134176851, -0.5240282, 4.60738, 8.845069, 0.1324228, 0.115204096, 9.985339
180745143816070, -0.70229346, 4.022335, 8.788837, -0.24371678, -0.2695012, 9.684216
180745153455289, -0.50488555, 5.0548377, 8.958728, 0.30148172, 0.41936636, 10.285831
180745163094559, -0.7190432, 3.7280176, 8.839087, -0.3819062, -0.52056503, 9.598321
180745172733830, -0.4989035, 5.2019963, 9.0341015, 0.34409904, 0.5083475, 10.418629
180745182373049, -0.66999036, 3.7280176, 8.744571, -0.33430558, -0.49220753, 9.511073
180745192012268, -0.54436713, 5.0129633, 8.971889, 0.25201392, 0.39188194, 10.281239
180745201651539, -0.634098, 4.0737805, 8.770891, -0.16150886, -0.23472548, 9.687369
180745211290809, -0.6113662, 4.6037908, 8.879765, 0.04663396, 0.13317132, 10.01993
180745220930028, -0.5419743, 4.5822554, 8.762517, 0.11533594, 0.13681698, 9.901538
180745230569247, -0.66400826, 4.0977087, 8.743374, -0.17629945, -0.20041895, 9.675094
180745240208518, -0.47018966, 5.003392, 8.906086, 0.31933117, 0.3866675, 10.213809
180745249847737, -0.6999006, 3.7268212, 8.837891, -0.34914225, -0.53325796, 9.59589
180745259486955, -0.5072784, 5.197211, 9.055637, 0.33027363, 0.4959333, 10.436374
180745269126226, -0.71306115, 3.7100716, 8.799605, -0.36009407, -0.52352786, 9.555228
180745278765445, -0.5347959, 5.0656056, 9.000603, 0.26140177, 0.424963, 10.329969
180745288404664, -0.634098, 4.0163527, 8.784052, -0.17619598, -0.3053186, 9.67308
180745298043934, -0.61016977, 4.6600223, 8.928818, 0.06016308, 0.15544558, 10.088812
180745307683205, -0.57188463, 4.526024, 8.804391, 0.06282437, 0.08581805, 9.915541
180745317322424, -0.695115, 4.133601, 8.769695, -0.18232882, -0.18668008, 9.716444
180745326961643, -0.5072784, 4.9770713, 8.891729, 0.26947886, 0.3951676, 10.191301
180745336600914, -0.71425754, 3.7674992, 8.79123, -0.31420314, -0.49530697, 9.573186
180745346240132, -0.50129634, 5.2019963, 9.0029955, 0.32871193, 0.5388105, 10.390749
180745355879351, -0.70229346, 3.6729827, 8.719446, -0.34493452, -0.5455923, 9.465523
180745365518622, -0.51445687, 5.078766, 8.938389, 0.2856685, 0.46737003, 10.278779
180745375157893, -0.6472585, 3.9840498, 8.803194, -0.1881758, -0.34712362, 9.676358
180745384797112, -0.613759, 4.7162533, 8.997013, 0.062300503, 0.16599154, 10.175194
180745394436330, -0.573081, 4.4614177, 8.863015, 0.03426075, 0.0038564205, 9.939041
180745404075601, -0.66759753, 4.1814575, 8.815159, -0.14325184, -0.17919874, 9.776741
180745413714820, -0.49651068, 4.9172506, 8.849854, 0.26262677, 0.3545289, 10.126754
180745423354039, -0.71665037, 3.7710886, 8.758927, -0.32743514, -0.46923876, 9.545999
180745432993309, -0.47856453, 5.1720862, 8.979067, 0.33906734, 0.5062418, 10.355284
180745442632528, -0.6855437, 3.6693935, 8.713464, -0.31640786, -0.55921626, 9.457591
180745452271747, -0.56350976, 5.117051, 8.928818, 0.26579225, 0.51467824, 10.290287
180745461911018, -0.68195444, 3.926622, 8.749356, -0.22593963, -0.35341454, 9.60514
180745471550237, -0.613759, 4.7784667, 8.999406, 0.09047204, 0.2226789, 10.204997
180745481189455, -0.59581286, 4.4195433, 8.865408, 0.004540503, -0.023844957, 9.9238205
180745490828726, -0.6628119, 4.269992, 8.880961, -0.11104441, -0.13511372, 9.874868
180745500467997, -0.50368917, 4.8849473, 8.913264, 0.24466825, 0.30278683, 10.169128
180745510107216, -0.701097, 3.7974095, 8.830712, -0.30347025, -0.4865024, 9.621047
180745519746434, -0.48933223, 5.163711, 9.068798, 0.33317375, 0.45683312, 10.432007
180745529385705, -0.6855437, 3.6921253, 8.766106, -0.32954395, -0.5536494, 9.514791
180745539024924, -0.5072784, 5.1421757, 8.912068, 0.30841708, 0.5224056, 10.283785
180745548664143, -0.67477596, 3.888337, 8.647661, -0.23281866, -0.3365152, 9.496794
180745558303414, -0.59700924, 4.8119664, 8.873783, 0.13653088, 0.28452706, 10.107219
180745567942632, -0.58624154, 4.35733, 8.775677, -0.0012171268, -0.043308973, 9.815328
180745577581851, -0.6472585, 4.2999024, 8.848659, -0.08891654, -0.10186124, 9.858427
180745587221122, -0.526421, 4.8358946, 8.909675, 0.20623446, 0.2706492, 10.145418
180745596860341, -0.71425754, 3.8775692, 8.866604, -0.3060099, -0.43256235, 9.689252
180745606499559, -0.50009996, 5.160122, 9.068798, 0.3333696, 0.4571836, 10.430719
180745616138830, -0.7286145, 3.67059, 8.810373, -0.39395255, -0.557621, 9.54781
180745625778049, -0.53599226, 5.188836, 8.959925, 0.3398043, 0.53166866, 10.348595
180745635417268, -0.69152576, 3.8763726, 8.703893, -0.25729132, -0.36681175, 9.542614
180745645056539, -0.5910272, 4.875376, 8.928818, 0.15728033, 0.30931377, 10.1844015
180745654695757, -0.613759, 4.2915273, 8.774481, -0.05284661, -0.09245372, 9.786424
180745664334976, -0.6628119, 4.351348, 8.809176, -0.080349565, -0.036459684, 9.847201
180745673974247, -0.5096712, 4.79402, 8.799605, 0.2194199, 0.27556777, 10.02753
180745683613466, -0.66999036, 3.8644085, 8.751749, -0.2570914, -0.41138434, 9.578117
180745693252684, -0.4534399, 5.1290154, 8.971889, 0.3747933, 0.4569149, 10.327536
180745702891955, -0.71306115, 3.6849468, 8.780462, -0.35380298, -0.5514989, 9.526516
180745712531174, -0.5407779, 5.176872, 9.0341015, 0.29869092, 0.4935491, 10.410314
180745722170393, -0.71425754, 3.8237305, 8.804391, -0.3114453, -0.4518144, 9.609749
180745731809664, -0.58983076, 4.9028935, 9.047262, 0.15801466, 0.28260708, 10.302153
180745741448882, -0.61016977, 4.2424746, 8.882157, -0.07412183, -0.1776917, 9.860352
180745751088101, -0.70229346, 4.4135613, 8.938389, -0.1047582, -0.029761553, 9.992782
180745760727372, -0.5240282, 4.733003, 8.877372, 0.17878747, 0.20017886, 10.070335
180745770366591, -0.6628119, 3.9254255, 8.804391, -0.21832597, -0.38674307, 9.652374
180745780005809, -0.465404, 5.111069, 8.938389, 0.35771835, 0.45647, 10.290681
180745789645080, -0.721436, 3.6789649, 8.732606, -0.35990864, -0.54247785, 9.481025
180745799284299, -0.4977071, 5.1828537, 8.926425, 0.34753364, 0.53190804, 10.314408
180745808923518, -0.6903293, 3.7962132, 8.688339, -0.27463317, -0.44457793, 9.492206
180745818562789, -0.5886344, 4.9567323, 8.955139, 0.17591864, 0.3679886, 10.244211
180745828202007, -0.64606214, 4.199404, 8.834301, -0.11442864, -0.17908049, 9.800617
180745837841226, -0.6652047, 4.486542, 8.928818, -0.0440768, 0.018218517, 10.014642
180745847480497, -0.55513483, 4.6971107, 8.851051, 0.14192438, 0.18632913, 10.03281
180745857119716, -0.6975078, 3.9768713, 8.782856, -0.23589766, -0.3293624, 9.657973
180745866758934, -0.49052864, 5.0859447, 8.962317, 0.32624745, 0.4361589, 10.302132
180745876398205, -0.70588267, 3.7052858, 8.780462, -0.32818764, -0.54779863, 9.534997
180745886037424, -0.5192425, 5.2139606, 8.993423, 0.34184527, 0.52610683, 10.389563
180745895676643, -0.6843473, 3.7627137, 8.734999, -0.28382313, -0.49790525, 9.518302
180745905315914, -0.5563313, 4.9782677, 8.976674, 0.20267302, 0.36746478, 10.271183
180745914955132, -0.63888365, 4.1467614, 8.803194, -0.11470002, -0.22554135, 9.748642
180745924594351, -0.66759753, 4.5523453, 8.916854, -0.0243693, 0.073055744, 10.033639
180745934233622, -0.58983076, 4.6600223, 8.849854, 0.09259063, 0.17040396, 10.017286
180745943872841, -0.7046863, 4.034299, 8.830712, -0.21756446, -0.30777454, 9.72685
180745953512059, -0.4833502, 5.0644093, 9.019745, 0.31311375, 0.39561248, 10.343265
180745963151330, -0.721436, 3.7136607, 8.846265, -0.34370106, -0.56620073, 9.598409
180745972790549, -0.48454657, 5.2259245, 9.014959, 0.37211877, 0.52940774, 10.411331
180745982429768, -0.6987042, 3.7244284, 8.677571, -0.3317166, -0.48334908, 9.450721
180745992069039, -0.5288138, 5.023731, 8.877372, 0.2908919, 0.42610145, 10.200936
180746001708257, -0.6149554, 4.098905, 8.733803, -0.111868024, -0.23126888, 9.6639805
180746011347476, -0.6221339, 4.5858445, 8.891729, 0.03403467, 0.099458694, 10.023413
180746020986747, -0.56829536, 4.6025944, 8.804391, 0.0995602, 0.13233995, 9.949707
180746030625966, -0.69152576, 4.082155, 8.770891, -0.19024128, -0.24047232, 9.694158
180746040265184, -0.52283174, 5.0141597, 8.95155, 0.2667517, 0.39582205, 10.262434
180746049904455, -0.7465607, 3.7160535, 8.851051, -0.3764975, -0.5606389, 9.604762
180746059543674, -0.50368917, 5.194818, 9.080762, 0.35281157, 0.47342443, 10.457127
180746069182893, -0.7178468, 3.7184465, 8.7780695, -0.3390901, -0.52454495, 9.539734
180746078822164, -0.573081, 5.0596237, 9.001799, 0.2452439, 0.42714477, 10.330439
180746088461382, -0.65324056, 4.0307097, 8.805588, -0.18421155, -0.30463362, 9.699742
180746098100601, -0.61854464, 4.631308, 8.96471, 0.053726673, 0.106464386, 10.108583
180746107739872, -0.5802595, 4.5451665, 8.834301, 0.07014632, 0.07720637, 9.951344
180746117379091, -0.72023964, 4.115655, 8.775677, -0.21411437, -0.19169426, 9.715311
180746127018309, -0.51445687, 4.989035, 8.85823, 0.2929703, 0.40458775, 10.1672945
180746136657580, -0.7118647, 3.7483566, 8.744571, -0.31283563, -0.4942081, 9.522729
180746146296799, -0.4869394, 5.204389, 8.977871, 0.3620658, 0.52220726, 10.369242
180746155936018, -0.6939186, 3.6681972, 8.734999, -0.33257407, -0.5650673, 9.476681
180746165575289, -0.5395815, 5.063213, 9.001799, 0.27072042, 0.42310834, 10.329926
180746175214559, -0.64008003, 4.0007997, 8.7984085, -0.16531086, -0.33870888, 9.679156
180746184853778, -0.63888365, 4.694718, 8.986245, 0.058390737, 0.15687203, 10.157418
180746194492997, -0.60658056, 4.486542, 8.864211, 0.02731353, 0.027992725, 9.953378
180746204132268, -0.6939186, 4.1647077, 8.877372, -0.17102551, -0.21183467, 9.82649
180746213771487, -0.50129634, 4.9495535, 8.988638, 0.2810608, 0.31212187, 10.26492
180746223410705, -0.71306115, 3.7555351, 8.912068, -0.36070228, -0.5451577, 9.675234
180746233049976, -0.5132605, 5.1673007, 9.153743, 0.32630813, 0.42888546, 10.510235
180746242689195, -0.73459655, 3.702893, 8.865408, -0.36622322, -0.57777214, 9.611378
180746252328414, -0.5455636, 5.103891, 9.09153, 0.2744813, 0.42009425, 10.428396
180746261967684, -0.7369894, 3.8691943, 8.896515, -0.3205077, -0.44815826, 9.713815
180746271606903, -0.5778667, 4.709075, 9.06162, 0.10778278, 0.121834755, 10.22721
180746281246122, -0.59342, 4.4243293, 9.190832, -0.016529858, -0.17009974, 10.216115
180746290885393, -0.62811595, 4.3728833, 9.029316, -0.05140716, -0.13270903, 10.051117
180746300524612, -0.5072784, 4.989035, 8.834301, 0.28013682, 0.42808437, 10.145491
180746310163830, -0.73459655, 3.9050865, 8.580662, -0.25722647, -0.31337738, 9.447368
180746319803101, -0.59940207, 5.2366924, 8.713464, 0.29047602, 0.69286704, 10.155897
180746329442320, -0.8662018, 3.7160535, 8.467003, -0.43838167, -0.3638537, 9.26957
180746339081539, -0.6520442, 5.143372, 8.76491, 0.196931, 0.6044297, 10.163609
180746348720809, -0.73100734, 3.952943, 8.618947, -0.23891902, -0.3079419, 9.502342
180746358360028, -0.6412765, 4.880162, 8.756535, 0.13752049, 0.3686211, 10.037397
180746367999247, -0.58265233, 4.429115, 8.6345005, 0.06395674, 0.032090664, 9.72142
180746377638518, -0.63529444, 4.302295, 8.630911, -0.027299821, -0.060325384, 9.66445
180746387277737, -0.47018966, 4.8155556, 8.732606, 0.29018384, 0.2618482, 9.975786
180746396916955, -0.6556334, 3.7890346, 8.775677, -0.24166644, -0.53619075, 9.563118
180746406556226, -0.4223332, 5.1385865, 9.116654, 0.41195184, 0.3557558, 10.459474
180746416195445, -0.68075806, 3.6646078, 8.943174, -0.33923954, -0.6901977, 9.658243
180746425834664, -0.5192425, 5.1792645, 9.144172, 0.34640616, 0.40898895, 10.508236
180746435473934, -0.73579293, 3.9050865, 8.859426, -0.27853632, -0.4293909, 9.696316
180746445113205, -0.7262217, 4.8658047, 9.047262, 0.048799515, 0.26016665, 10.294966
180746454752424, -0.7680961, 4.3501515, 8.877372, -0.14798695, -0.0727613, 9.91435
180746464391643, -0.80757767, 4.3944187, 8.919247, -0.1715954, -0.04750943, 9.974185
180746474030914, -0.57427746, 4.8586264, 8.953942, 0.19857693, 0.24496317, 10.198515
180746483670132, -0.7118647, 3.8967116, 8.85464, -0.23846412, -0.47161984, 9.685892
180746493309351, -0.47258246, 5.148158, 9.02453, 0.37817544, 0.41305494, 10.385346
180746502948622, -0.7046863, 3.7064822, 8.79482, -0.28853685, -0.61342597, 9.545884
180746512587841, -0.5419743, 5.2139606, 8.85464, 0.35081154, 0.56562424, 10.268437
180746522227059, -0.73579293, 3.8943188, 8.4909315, -0.22939551, -0.30255127, 9.362631
180746531866330, -0.654437, 4.961518, 8.750552, 0.16433811, 0.42738056, 10.070126
180746541505601, -0.6939186, 4.371687, 8.645268, -0.051296473, -0.0053827763, 9.712423
180746551144820, -0.7585248, 4.4721856, 8.723035, -0.08569461, 0.06435704, 9.831362
180746560784039, -0.63529444, 4.833502, 8.763713, 0.15435946, 0.30021048, 10.022728
180746570423309, -0.81236327, 3.9804604, 8.740981, -0.29883885, -0.3365724, 9.628404
180746580062528, -0.59342, 5.1924253, 8.979067, 0.2987461, 0.48664474, 10.373572
180746589701747, -0.80518484, 3.735196, 8.766106, -0.36772525, -0.5598881, 9.539179
180746599341018, -0.56590253, 5.2331033, 8.959925, 0.33495438, 0.51180077, 10.373609
180746608980237, -0.7298109, 3.8536408, 8.706285, -0.23333085, -0.45765018, 9.535129
180746618619455, -0.6329016, 4.9663033, 9.004191, 0.18729448, 0.3053651, 10.296206
180746628258726, -0.66400826, 4.2424746, 8.916854, -0.061168253, -0.24965167, 9.8936205
180746637897997, -0.72502524, 4.4745784, 9.0233345, -0.05533105, -0.08439779, 10.09742
180746647537216, -0.6125626, 4.7988057, 9.007781, 0.15485674, 0.15704346, 10.222293
180746657176434, -0.8063812, 4.024728, 8.908479, -0.2697782, -0.38212395, 9.797495
180746666815705, -0.5491528, 5.13739, 9.035298, 0.33359885, 0.39107418, 10.3955145
180746676454924, -0.74895346, 3.7005002, 8.786445, -0.3064037, -0.6122911, 9.538736
180746686094143, -0.567099, 5.204389, 8.921639, 0.35528696, 0.49341464, 10.326338
180746695733414, -0.782453, 3.8261235, 8.657232, -0.2999075, -0.43091297, 9.4828
180746705372684, -0.6891329, 5.0129633, 8.779266, 0.18634057, 0.44236183, 10.12175
180746715011903, -0.7190432, 4.2628136, 8.597412, -0.07926786, -0.07673955, 9.622469
180746724651122, -0.7429714, 4.578666, 8.749356, -0.011865616, 0.114980936, 9.9022255
180746734290393, -0.64606214, 4.709075, 8.756535, 0.12093979, 0.18908334, 9.960888
180746743929612, -0.7800602, 4.0390844, 8.769695, -0.22803283, -0.3269894, 9.678394
180746753568830, -0.6017949, 5.130212, 9.042477, 0.29126757, 0.39303398, 10.402323
180746763208101, -0.79920274, 3.7758741, 8.894122, -0.35813564, -0.58415484, 9.671188
180746772847372, -0.5814559, 5.2534423, 9.068798, 0.33529, 0.4774475, 10.4804325
180746782486591, -0.762114, 3.7710886, 8.742178, -0.2965846, -0.5280516, 9.532093
180746792125809, -0.64845496, 5.0596237, 8.953942, 0.22556388, 0.38929653, 10.295189
180746801765080, -0.7393822, 4.159922, 8.772088, -0.1420306, -0.23145008, 9.732801
180746811404351, -0.7513463, 4.610969, 8.863015, -0.015251577, 0.0977571, 10.018423
180746821043570, -0.66400826, 4.666004, 8.76132, 0.10062206, 0.16097689, 9.946717
180746830682789, -0.8111669, 4.1036906, 8.724232, -0.22067237, -0.2430675, 9.669681
180746840322059, -0.587438, 5.0919266, 8.874979, 0.2976796, 0.43613577, 10.235195
180746849961278, -0.8135597, 3.7686956, 8.762517, -0.34311885, -0.5251999, 9.552649
180746859600497, -0.5838487, 5.258228, 8.999406, 0.3479507, 0.5129733, 10.420891
180746869239768, -0.7752745, 3.760321, 8.739784, -0.3011796, -0.53372407, 9.526245
180746878879039, -0.59581286, 5.0751767, 8.983852, 0.27974033, 0.3748517, 10.324884
180746888518309, -0.70348984, 4.091727, 8.79482, -0.1441291, -0.30480456, 9.719686
180746898157528, -0.72382885, 4.636094, 8.98146, 0.013401687, 0.06358123, 10.133099
180746907796747, -0.695115, 4.5966125, 8.873783, 0.04169929, 0.07452679, 10.017424
180746917436018, -0.8135597, 4.1288157, 8.804391, -0.22236252, -0.2403562, 9.7529
180746927075237, -0.6041877, 5.042874, 8.938389, 0.2688445, 0.38308, 10.269925
180746936714455, -0.84107715, 3.7962132, 8.804391, -0.35358256, -0.5038099, 9.605055
180746946353726, -0.62811595, 5.267799, 9.014959, 0.3070982, 0.5450783, 10.441376
180746955992997, -0.79441714, 3.7459638, 8.682357, -0.3141572, -0.5158856, 9.470051
180746965632216, -0.60777694, 5.0883374, 8.913264, 0.28196704, 0.44425225, 10.267912
180746975271434, -0.72382885, 4.0534415, 8.754142, -0.1509512, -0.30626607, 9.668131
180746984910705, -0.70588267, 4.7042894, 8.98146, 0.057342768, 0.11800814, 10.162579
180746994549976, -0.6556334, 4.5451665, 8.857033, 0.06614268, 0.026995182, 9.97649
180747004189195, -0.7908279, 4.229314, 8.831908, -0.16743898, -0.17304635, 9.8212595
180747013828414, -0.6149554, 4.9734817, 8.913264, 0.25043404, 0.34064317, 10.216713
180747023467684, -0.7932207, 3.7998023, 8.799605, -0.3282119, -0.50012064, 9.599111
180747033106955, -0.58265233, 5.204389, 9.008977, 0.34952527, 0.4808669, 10.403529
180747042746174, -0.78364944, 3.7292142, 8.693125, -0.3121093, -0.52452946, 9.4720125
180747052385393, -0.64606214, 5.156533, 8.9312105, 0.27855796, 0.5004945, 10.317251
180747062024664, -0.7585248, 4.011567, 8.745767, -0.19611353, -0.32399607, 9.644327
180747071663934, -0.73100734, 4.752146, 8.96471, 0.055616856, 0.17190123, 10.171068
180747081303205, -0.69272214, 4.486542, 8.82114, 0.018531322, 0.0057816505, 9.92074
180747090942424, -0.7704889, 4.2460637, 8.8187475, -0.13563663, -0.1646123, 9.815679
180747100581643, -0.587438, 4.961518, 8.874979, 0.2763071, 0.33484173, 10.175389
180747110220914, -0.7968099, 3.8321054, 8.803194, -0.30799305, -0.48859143, 9.616787
180747119860184, -0.58504516, 5.209175, 9.030513, 0.3537138, 0.4606166, 10.425482
180747129499403, -0.8255238, 3.7016966, 8.762517, -0.36405092, -0.56309986, 9.524503
180747139138622, -0.59342, 5.168497, 8.944371, 0.3404292, 0.4695394, 10.331066
180747148777893, -0.7393822, 3.95055, 8.703893, -0.19773686, -0.3691392, 9.577888
180747158417164, -0.72023964, 4.807181, 8.925228, 0.10191327, 0.23440099, 10.159828
180747168056434, -0.701097, 4.4458647, 8.779266, 0.004383445, -0.0071418285, 9.865735
180747177695653, -0.83030945, 4.2915273, 8.793623, -0.16914862, -0.09586072, 9.81818
180747187334872, -0.6628119, 4.914858, 8.845069, 0.20527661, 0.33396363, 10.132954
180747196974143, -0.8362915, 3.8703907, 8.800801, -0.31861258, -0.4413867, 9.635199
180747206613414, -0.60777694, 5.198407, 9.048459, 0.33923042, 0.45798302, 10.437557
180747216252632, -0.7896315, 3.7100716, 8.801998, -0.3433159, -0.58914185, 9.56025
180747225891851, -0.6113662, 5.1553364, 9.014959, 0.32176822, 0.4289341, 10.389093
180747235531122, -0.76689965, 3.9170506, 8.779266, -0.23878592, -0.4195223, 9.631923
180747245170393, -0.7178468, 4.85743, 8.977871, 0.12656748, 0.249722, 10.229061
180747254809664, -0.74536425, 4.3740797, 8.8187475, -0.05776596, -0.06388998, 9.871731
180747264448882, -0.802792, 4.3441696, 8.82473, -0.122440875, -0.07570839, 9.867697
180747274088101, -0.6412765, 4.8729835, 8.847462, 0.21283025, 0.28878617, 10.114649
180747283727372, -0.7860422, 3.891926, 8.779266, -0.26716357, -0.43511033, 9.621839
180747293366643, -0.5288138, 5.163711, 8.991031, 0.40804613, 0.41306496, 10.365572
180747303005914, -0.74536425, 3.7088752, 8.743374, -0.28209472, -0.57999015, 9.504838
180747312645132, -0.5910272, 5.1924253, 8.943174, 0.3585965, 0.48334956, 10.340637
180747322284351, -0.7752745, 3.8775692, 8.695518, -0.26832992, -0.4058869, 9.540013
180747331923622, -0.7680961, 4.9088755, 8.9348, 0.10956836, 0.32451725, 10.217649
180747341562893, -0.77766734, 4.3441696, 8.797213, -0.10101348, -0.0661428, 9.841389
180747351202164, -0.8350951, 4.4147577, 8.849854, -0.13324678, -0.014717102, 9.924186
180747360841382, -0.6963114, 4.814359, 8.837891, 0.14280325, 0.2625482, 10.083745
180747370480601, -0.8362915, 3.9314077, 8.751749, -0.29818338, -0.36538434, 9.619045
180747380119872, -0.59581286, 5.151747, 8.988638, 0.32662898, 0.44005346, 10.36295
180747389759143, -0.79441714, 3.7160535, 8.787642, -0.34654778, -0.57665205, 9.550403
180747399398414, -0.58983076, 5.2127643, 9.006584, 0.35662723, 0.4896145, 10.405407
180747409037684, -0.76689965, 3.8739798, 8.768498, -0.23859644, -0.46035385, 9.60279
180747418676903, -0.6831509, 4.965107, 9.040084, 0.17082232, 0.30737543, 10.330461
180747428316122, -0.7118647, 4.229314, 8.883354, -0.07725173, -0.2270732, 9.861556
180747437955393, -0.6759724, 4.6552362, 8.880961, 0.08845943, 0.1122489, 10.048841
180747447594664, -0.70588267, 4.4255257, 8.807981, -0.008331299, -0.03804922, 9.882436
180747457233934, -0.7322037, 4.503292, 8.805588, -0.0071293116, 0.036569595, 9.917296
180747466873153, -0.75254273, 4.456632, 8.754142, -0.037995458, 0.026659727, 9.85194
180747476512372, -0.72263247, 4.5152564, 8.734999, 0.0122948885, 0.07126188, 9.859245
180747486151643, -0.721436, 4.4889355, 8.732606, 0.004213333, 0.04932165, 9.845151
180747495790914, -0.7465607, 4.5188456, 8.772088, -0.01280278, 0.064600706, 9.89558
180747505430184, -0.7405786, 4.516453, 8.790034, -0.008267522, 0.05189848, 9.910032
180747515069455, -0.7393822, 4.4841495, 8.827123, -0.021108031, 0.008481026, 9.928335
180747524708674, -0.7106683, 4.49731, 8.843872, 0.010587394, 0.0012001991, 9.947101
180747534347893, -0.71425754, 4.4805603, 8.877372, 0.0013096333, -0.026130676, 9.969585
180747543987164, -0.73100734, 4.473382, 8.909675, -0.017206848, -0.04058647, 9.996293
180747553626434, -0.7106683, 4.4745784, 8.938389, 0.0024394393, -0.056802988, 10.020903
180747563265705, -0.7118647, 4.475775, 8.957532, 3.0636787E-5, -0.063985825, 10.038555
180747572904976, -0.6987042, 4.490132, 8.937193, 0.01782912, -0.044066906, 10.025997
180747582544247, -0.6999006, 4.482953, 8.937193, 0.014336407, -0.04962039, 10.022847
180747592183466, -0.7465607, 4.4721856, 8.894122, -0.030097485, -0.023390055, 9.983073
180747601822684, -0.7322037, 4.482953, 8.849854, -0.010138392, -3.2114983E-4, 9.947504
180747611461955, -0.73100734, 4.493721, 8.825927, -0.003536284, 0.019069433, 9.930988
180747621101226, -0.74416786, 4.486542, 8.799605, -0.015732706, 0.02760601, 9.905297
180747630740497, -0.7262217, 4.4985065, 8.785249, 0.007813871, 0.03499651, 9.89663
180747640379768, -0.72382885, 4.4949174, 8.803194, 0.007271409, 0.023177385, 9.910795
180747650018987, -0.7322037, 4.496114, 8.852247, -0.0045028925, 0.0041868687, 9.955571
180747659658205, -0.74895346, 4.4913282, 8.891729, -0.02546674, -0.011571646, 9.989747
180747669297476, -0.7429714, 4.487739, 8.907282, -0.022174299, -0.023264647, 10.001523
180747678936747, -0.72741807, 4.508078, 8.898908, -5.1790476E-4, -0.007442951, 10.00212
180747688576018, -0.7298109, 4.490132, 8.877372, -0.0076950192, -0.011898518, 9.975042
180747698215289, -0.715454, 4.486542, 8.827123, 0.009370625, 0.00263381, 9.927687
180747707854559, -0.70588267, 4.482953, 8.8187475, 0.017092288, -1.0728836E-5, 9.917921
180747717493830, -0.7118647, 4.496114, 8.801998, 0.015766919, 0.020407915, 9.909405
180747727133049, -0.74536425, 4.5044885, 8.8187475, -0.013880253, 0.031559706, 9.930513
180747736772268, -0.7465607, 4.5020957, 8.815159, -0.016388059, 0.031051159, 9.926329
180747746411539, -0.7537391, 4.4985065, 8.865408, -0.029494166, 0.008532286, 9.969915
180747756050809, -0.71425754, 4.5044885, 8.880961, 0.0075365305, -0.0067720413, 9.983585
180747765690080, -0.6795616, 4.499703, 8.882157, 0.038459003, -0.022937298, 9.979974
180747775329351, -0.6867401, 4.476971, 8.859426, 0.025349021, -0.028434992, 9.950017
180747784968622, -0.7262217, 4.4638104, 8.810373, -0.012444854, -0.003506422, 9.903309
180747794607893, -0.7393822, 4.4674, 8.825927, -0.025678933, -0.002383709, 9.919712
180747804247112, -0.71306115, 4.476971, 8.846265, 5.8078766E-4, -0.011347771, 9.94022
180747813886330, -0.72502524, 4.510471, 8.8701935, -0.0017513633, 0.011720419, 9.977486
180747823525601, -0.7513463, 4.517649, 8.9108715, -0.027768493, 0.007887363, 10.018806
180747833164872, -0.72263247, 4.508078, 8.895318, -0.0024760962, -0.0023207664, 9.998583
180747842804143, -0.70947194, 4.4949174, 8.867801, 0.00827539, -0.0058202744, 9.9672165
180747852443414, -0.6999006, 4.4721856, 8.855837, 0.010685563, -0.023166418, 9.945628
180747862082684, -0.70348984, 4.4614177, 8.841479, 0.0046210885, -0.024908543, 9.928256
180747871721955, -0.7082755, 4.476971, 8.846265, 0.0031417608, -0.011942387, 9.939878
180747881361174, -0.72023964, 4.496114, 8.855837, -0.0038449764, 0.0044386387, 9.957891
180747891000393, -0.73340017, 4.499703, 8.87139, -0.01716131, 0.005692959, 9.97429
180747900639664, -0.7262217, 4.499703, 8.845069, -0.007809818, 0.014877319, 9.950361
180747910278934, -0.71306115, 4.51406, 8.841479, 0.009335041, 0.023348093, 9.952703
180747919918205, -0.7286145, 4.5020957, 8.831908, -0.008351207, 0.02306199, 9.939907
180747929557476, -0.73100734, 4.505685, 8.857033, -0.011462927, 0.013476849, 9.96405
180747939196747, -0.7190432, 4.487739, 8.840283, -0.0043132305, 0.0010685921, 9.940191
180747948836018, -0.7178468, 4.476971, 8.855837, -0.00842607, -0.015571833, 9.949076
180747958475289, -0.6939186, 4.490132, 8.843872, 0.019560933, -0.007875681, 9.942657
180747968114559, -0.6987042, 4.487739, 8.835498, 0.013869345, -0.0039098263, 9.934477
180747977753778, -0.70588267, 4.5020957, 8.837891, 0.011833847, 0.009447098, 9.9436035
180747987392997, -0.74177504, 4.485346, 8.843872, -0.027717113, 0.0059080124, 9.943936
180747997032268, -0.73100734, 4.5092745, 8.82832, -0.006815493, 0.028591633, 9.940134
180748006671539, -0.73340017, 4.503292, 8.847462, -0.011974335, 0.015400171, 9.954634
180748016310809, -0.7298109, 4.5128636, 8.845069, -0.0050557256, 0.022995949, 9.956569
180748025950080, -0.70947194, 4.5044885, 8.85464, 0.011589706, 0.0029649734, 9.959832
180748035589351, -0.7298109, 4.5020957, 8.85823, -0.008607149, 0.006606102, 9.963413
180748045228622, -0.6879365, 4.496114, 8.855837, 0.029792726, -0.013070345, 9.955555
180748054867893, -0.695115, 4.4817567, 8.866604, 0.017022371, -0.0274086, 9.959164
180748064507164, -0.73459655, 4.4817567, 8.866604, -0.019889057, -0.013315916, 9.962021
180748074146434, -0.7405786, 4.490132, 8.873783, -0.021671355, -0.007604122, 9.972626
180748083785705, -0.7501499, 4.499703, 8.874979, -0.026393354, 0.002407074, 9.978708
180748093424924, -0.7369894, 4.485346, 8.861818, -0.01659131, -0.00881362, 9.959567
180748103064143, -0.72741807, 4.4949174, 8.837891, -0.0019991398, 0.0063405037, 9.941917
180748112703414, -0.7082755, 4.490132, 8.842676, 0.014555156, -0.00812912, 9.942615
180748122342684, -0.70348984, 4.4913282, 8.849854, 0.018690228, -0.012444735, 9.949188
180748131981955, -0.7190432, 4.4889355, 8.840283, 0.0040542483, -0.00534153, 9.940732
180748141621226, -0.75254273, 4.516453, 8.848659, -0.018961966, 0.025014639, 9.963055
180748151260497, -0.7573284, 4.506881, 8.833105, -0.024960935, 0.025412083, 9.94525
180748160899768, -0.73818576, 4.516453, 8.834301, -0.0037109852, 0.025669813, 9.9492445
180748170539039, -0.7393822, 4.4985065, 8.830712, -0.011285901, 0.0130980015, 9.938028
180748180178309, -0.73818576, 4.490132, 8.846265, -0.014365971, -0.0012149811, 9.947984
180748189817580, -0.70348984, 4.496114, 8.846265, 0.019221246, -0.0072727203, 9.948163
180748199456851, -0.6975078, 4.5008993, 8.863015, 0.024595201, -0.013043165, 9.964781
180748209096122, -0.715454, 4.499703, 8.830712, 0.010705352, 0.006638527, 9.936827
180748218735341, -0.715454, 4.490132, 8.833105, 0.006843269, -0.0026910305, 9.934629
180748228374559, -0.6963114, 4.496114, 8.855837, 0.024731517, -0.014297962, 9.95615
180748238013830, -0.7046863, 4.5008993, 8.868998, 0.017139852, -0.013477802, 9.970624
180748247653101, -0.71306115, 4.4925246, 8.864211, 0.006530583, -0.014842272, 9.963194
180748257292372, -0.7405786, 4.5128636, 8.85464, -0.011814833, 0.016474485, 9.965874
180748266931643, -0.7393822, 4.5008993, 8.817552, -0.0115376115, 0.022577524, 9.927405
180748276570914, -0.71665037, 4.493721, 8.819944, 0.0069719553, 0.007724285, 9.924639
180748286210184, -0.68075806, 4.5008993, 8.825927, 0.041511893, -0.0011043549, 9.930598
180748295849455, -0.695115, 4.485346, 8.819944, 0.022958875, -0.0059161186, 9.919292
180748305488726, -0.6891329, 4.482953, 8.823533, 0.027761698, -0.011336088, 9.920968
180748315127997, -0.7298109, 4.485346, 8.861818, -0.013204038, -0.012288809, 9.95904
180748324767268, -0.72502524, 4.4985065, 8.883354, -0.0058933496, -0.012455702, 9.983787
180748334406539, -0.7082755, 4.5020957, 8.88455, 0.011731029, -0.015741348, 9.985257
180748344045809, -0.7286145, 4.5020957, 8.860622, -0.0037797093, 0.0012292862, 9.96546
180748353685080, -0.75493556, 4.4925246, 8.837891, -0.028993666, 0.011578321, 9.942839
180748363324351, -0.74895346, 4.510471, 8.833105, -0.0166291, 0.026731253, 9.946258
180748372963622, -0.762114, 4.5008993, 8.835498, -0.031380057, 0.021837711, 9.945023
180748382602841, -0.7956135, 4.5116673, 8.840283, -0.058119655, 0.038853407, 9.956601
180748392242112, -0.7537391, 4.516453, 8.841479, -0.017522633, 0.027358294, 9.956765
180748401881382, -0.6999006, 4.508078, 8.848659, 0.029130578, -0.0017740726, 9.955429