timestamp_acc,device_acc_x,device_acc_y,device_acc_z,earth_acc_x,earth_acc_y,earth_acc_z
1126428630101414, -0.5383851, 3.851248, 9.669396, 0.121058345, 0.118602514, 10.420676
1126428639740893, -0.6257231, 3.81057, 9.342776, 0.18971682, 0.011899233, 10.107587
1126428649380268, -0.6364908, 3.7878382, 9.213564, 0.19360489, -0.019657612, 9.980216
1126428659019747, -0.6089734, 3.7686956, 9.213564, 0.18118405, 0.022392511, 9.9714775
1126428668659122, -0.57906306, 3.769892, 9.26142, 0.15955746, 0.05474305, 10.014633
1126428678298601, -0.5479564, 3.7758741, 9.32124, 0.13206697, 0.08442187, 10.070673
1126428687937976, -0.49292147, 3.8141594, 9.379865, 0.056406617, 0.0964756, 10.137069
1126428697577455, -0.45583272, 3.8656049, 9.364311, -0.0064207315, 0.064739704, 10.140848
1126428707216830, -0.44745782, 3.8835511, 9.274581, -0.03179562, 0.020759344, 10.064721
1126428716856309, -0.42592242, 3.888337, 9.148957, -0.07250929, -0.01493454, 9.9498
1126428726495684, -0.41156548, 3.8823547, 9.008977, -0.09937787, -0.048614502, 9.817918
1126428736135164, -0.39720857, 3.867998, 8.883354, -0.11891329, -0.06614065, 9.6961155
1126428745774539, -0.39481574, 3.8656049, 8.803194, -0.12656546, -0.08038354, 9.621462
1126428755414018, -0.42951167, 3.891926, 8.781659, -0.09776592, -0.112938166, 9.613886
1126428765053393, -0.41635114, 3.9421754, 8.7780695, -0.13084543, -0.14995456, 9.629591
1126428774692872, -0.38763726, 3.952943, 8.779266, -0.15688312, -0.13820076, 9.633683
1126428784332247, -0.3469593, 3.9984066, 8.834301, -0.20147848, -0.13805532, 9.700148
1126428793971726, -0.3062813, 4.011567, 8.91805, -0.23513472, -0.095338106, 9.7802725
1126428803611101, -0.29790643, 3.9948175, 8.961121, -0.22520971, -0.062430143, 9.812969
1126428813250580, -0.2883351, 3.9816568, 9.013762, -0.20824385, -0.03493762, 9.855966
1126428822889955, -0.31465617, 3.958925, 9.127422, -0.16076553, 0.0149822235, 9.9526825
1126428832529434, -0.37328035, 3.9397824, 9.18126, -0.08315098, 0.02478838, 9.997463
1126428842168809, -0.40079778, 3.9014974, 9.242277, -0.0344851, 0.06612706, 10.039744
1126428851808184, -0.47138608, 3.8787656, 9.280562, 0.041158438, 0.06919479, 10.069231
1126428861447664, -0.5766702, 3.8201413, 9.274581, 0.15378404, 0.07073569, 10.045657
1126428871087039, -0.6305088, 3.802195, 9.270991, 0.20171082, 0.061097383, 10.037982
1126428880726518, -0.62811595, 3.8069808, 9.287741, 0.19060218, 0.068469286, 10.0552845
1126428890365893, -0.61854464, 3.824927, 9.24826, 0.1706959, 0.03893733, 10.025583
1126428900005372, -0.6017949, 3.8201413, 9.251849, 0.1499623, 0.05663109, 10.0262985
1126428909644747, -0.573081, 3.851248, 9.32124, 0.11283338, 0.073703766, 10.100887
1126428919284226, -0.526421, 3.851248, 9.370294, 0.07425392, 0.11646056, 10.143596
1126428928923601, -0.5288138, 3.9302113, 9.225528, 0.024273276, 0.0016038418, 10.041712
1126428938563080, -0.65922266, 4.001996, 9.0544405, 0.09220433, -0.17671204, 9.91936
1126428948202455, -0.6843473, 3.970889, 8.98146, 0.12146765, -0.18070006, 9.841519
1126428957841934, -0.69152576, 3.9014974, 9.001799, 0.16055155, -0.113307476, 9.833293
1126428967481309, -0.6161518, 3.8201413, 9.116654, 0.16174471, 0.042172194, 9.902454
1126428977120789, -0.56829536, 3.7866418, 9.195618, 0.1449002, 0.118184805, 9.959219
1126428986760164, -0.52163535, 3.7854455, 9.250652, 0.12772012, 0.16454792, 10.006641
1126428996399539, -0.5276174, 3.8009987, 9.226724, 0.12478042, 0.13887978, 9.991173
1126429006039018, -0.5072784, 3.8488553, 9.152547, 0.07917106, 0.0838933, 9.94117
1126429015678393, -0.4881358, 3.9038901, 9.064013, 0.022872329, 0.017193079, 9.8810005
1126429025317872, -0.44506502, 3.9852462, 9.01137, -0.062273026, -0.046348333, 9.863014
1126429034957247, -0.39960137, 4.048656, 8.970692, -0.1378771, -0.09245944, 9.848707
1126429044596726, -0.34097722, 4.1084766, 8.952746, -0.2184639, -0.12304592, 9.853153
1126429054236101, -0.3062813, 4.130012, 8.949157, -0.25998807, -0.122642994, 9.856753
1126429063875580, -0.33738798, 4.0905304, 8.953942, -0.21222174, -0.09961033, 9.84705
1126429073514955, -0.3804588, 4.0295134, 8.970692, -0.14660013, -0.060805798, 9.840216
1126429083154434, -0.4319045, 3.9852462, 8.969496, -0.07919133, -0.043391943, 9.824074
1126429092793809, -0.45104706, 3.9314077, 8.94796, -0.040246844, -0.012121439, 9.783846
1126429102433184, -0.4426722, 3.906283, 8.9348, -0.03471601, 0.010495663, 9.761372
1126429112072664, -0.44027936, 3.932604, 8.91805, -0.04809034, -0.016732693, 9.756447
1126429121712039, -0.4331009, 3.958925, 8.953942, -0.060939193, -0.0207932, 9.79947
1126429131351518, -0.38524446, 3.9984066, 8.989835, -0.11244714, -0.02172494, 9.845795
1126429140990893, -0.37686956, 4.034299, 9.06162, -0.1252842, -0.019747019, 9.9254465
1126429150630372, -0.41156548, 4.034299, 9.139386, -0.07976055, -0.012933016, 9.998341
1126429160269747, -0.45702913, 4.0271206, 9.203992, -0.026820302, -0.0044789314, 10.056803
1126429169909226, -0.4953143, 4.042674, 9.260223, 0.0089457035, -0.016841412, 10.11632
1126429179548601, -0.4881358, 4.0295134, 9.27817, 0.010747671, 9.4890594E-4, 10.127171
1126429189187976, -0.4642076, 4.005585, 9.304491, 0.00306499, 0.03927064, 10.140622
1126429198827455, -0.41994038, 4.0067816, 9.329616, -0.031517148, 0.06507945, 10.162046
1126429208466830, -0.40558344, 3.9948175, 9.352347, -0.03545201, 0.08999872, 10.177431
1126429218106309, -0.38644084, 3.9577286, 9.349955, -0.03341174, 0.12782073, 10.159584
1126429227745684, -0.41515473, 3.918247, 9.315259, 0.004074812, 0.13374901, 10.113416
1126429237385164, -0.49052864, 3.9026937, 9.203992, 0.062282324, 0.07206583, 10.008798
1126429247024539, -0.5623133, 3.8691943, 9.105886, 0.12640965, 0.02954936, 9.908944
1126429256664018, -0.61854464, 3.8656049, 9.020942, 0.16042638, -0.01375103, 9.832445
1126429266303393, -0.6412765, 3.8763726, 8.945567, 0.16466427, -0.061161995, 9.768818
1126429275942768, -0.6113662, 3.9050865, 8.95155, 0.12406933, -0.06399512, 9.784387
1126429285582247, -0.5694918, 3.9613178, 8.973084, 0.064664245, -0.075044155, 9.824601
1126429295221622, -0.53240305, 3.999603, 9.046066, 0.02565074, -0.06102991, 9.904908
1126429304861101, -0.48215377, 4.0163527, 9.097511, -0.01586628, -0.029206991, 9.956264
1126429314500476, -0.43429732, 4.0151563, 9.12144, -0.053979516, 0.002827406, 9.975362
1126429324139851, -0.41994038, 4.005585, 9.157332, -0.05611217, 0.031414032, 10.003682
1126429333779330, -0.45702913, 3.9517467, 9.144172, -0.0014250278, 0.055043697, 9.971862
1126429343418705, -0.5072784, 3.9158542, 9.062816, 0.042999268, 0.031288385, 9.885495
1126429353058184, -0.60777694, 3.9302113, 9.000603, 0.11027515, -0.04843235, 9.839324
1126429362697559, -0.67477596, 3.9242291, 8.924032, 0.15529203, -0.10095191, 9.770309
1126429372337039, -0.66759753, 3.9302113, 8.872586, 0.13535881, -0.11837602, 9.725364
1126429381976414, -0.6412765, 3.9397824, 8.879765, 0.10946751, -0.11024761, 9.734434
1126429391615789, -0.57427746, 3.940979, 8.928818, 0.058641195, -0.06004572, 9.776391
1126429401255268, -0.46779683, 3.9278183, 9.007781, -0.013435721, 0.028087616, 9.837975
1126429410894643, -0.41754755, 3.9625144, 9.105886, -0.059621334, 0.05990696, 9.939109
1126429420534122, -0.44626144, 3.9984066, 9.145369, -0.034002423, 0.025329828, 9.991115
1126429430173497, -0.46779683, 4.0271206, 9.126225, -0.02776599, -0.016203403, 9.986166
1126429439812976, -0.4953143, 4.0295134, 9.093923, -0.00809288, -0.042714596, 9.958909
1126429449452351, -0.53240305, 4.0163527, 9.071191, 0.026969671, -0.057441473, 9.934638
1126429459091726, -0.5312066, 3.9900317, 9.085547, 0.036205053, -0.03039527, 9.937177
1126429468731205, -0.51206404, 3.9972103, 9.136993, 0.018990755, -0.009842634, 9.9861965
1126429478370580, -0.4869394, 3.9828532, 9.175279, 0.0037184954, 0.024770498, 10.0142565
1126429488010059, -0.48215377, 3.95055, 9.250652, 0.021339893, 0.07870746, 10.070116
1126429497649434, -0.47976094, 3.9230328, 9.29492, 0.037708282, 0.115371466, 10.099565
1126429507288809, -0.46301118, 3.9397824, 9.280562, 0.01332438, 0.101644516, 10.092304
1126429516928289, -0.45942193, 3.9900317, 9.205189, -0.019345164, 0.034347534, 10.043177
1126429526567664, -0.46301118, 4.080959, 9.098708, -0.06576264, -0.07858181, 9.982215
1126429536207143, -0.44985065, 4.1790648, 9.005388, -0.13220727, -0.18762183, 9.935355
1126429545846518, -0.42831525, 4.2329035, 8.988638, -0.16429937, -0.21929169, 9.940899
1126429555485893, -0.4139583, 4.1790648, 9.0436735, -0.14005208, -0.14455009, 9.969128
1126429565125372, -0.37806597, 4.071388, 9.105886, -0.11807561, -0.018062115, 9.981085
1126429574764747, -0.38285163, 3.958925, 9.18126, -0.051624298, 0.101536274, 10.00511
1126429584404226, -0.40917268, 3.8775692, 9.235099, 0.01583898, 0.1758039, 10.022916
1126429594043601, -0.45224348, 3.8500516, 9.257831, 0.06497407, 0.1826675, 10.034802
1126429603682976, -0.44147578, 3.8333018, 9.23151, 0.05386114, 0.18984056, 10.003548
1126429613322455, -0.4438686, 3.8404803, 9.133404, 0.03888786, 0.14586878, 9.916784
1126429622961830, -0.4211368, 3.8895333, 9.008977, -0.023750067, 0.069066286, 9.821515
1126429632601205, -0.44865423, 3.9421754, 8.852247, -0.04671848, -0.04313302, 9.700529
1126429642240684, -0.4953143, 3.9744785, 8.782856, -0.030389547, -0.10903096, 9.652336
1126429651880059, -0.51086766, 3.9816568, 8.800801, -0.01591599, -0.11195445, 9.672429
1126429661519539, -0.58265233, 4.017549, 8.919247, 0.05267191, -0.12628889, 9.798694
1126429671158914, -0.61734825, 4.0211387, 9.05803, 0.10044801, -0.091385365, 9.928752
1126429680798289, -0.62811595, 4.005585, 9.156136, 0.13022685, -0.046488285, 10.012741
1126429690437768, -0.613759, 3.8560338, 9.209974, 0.18289995, 0.09790063, 10.001314
1126429700077143, -0.5479564, 4.3872404, 9.314062, -0.07764089, -0.2679758, 10.306409
1126429709716622, -0.5623133, 3.3320055, 9.029316, 0.31378084, 0.48836946, 9.623412
1126429719355997, -0.54675996, 4.4111686, 9.2590275, -0.09913623, -0.30781507, 10.265592
1126429728995372, -0.47976094, 3.6047873, 8.927621, 0.10643947, 0.2531097, 9.635959
1126429738634851, -0.56111693, 4.071388, 9.157332, 0.028784752, -0.07651687, 10.036987
1126429748274226, -0.3912265, 4.0965123, 8.987442, -0.15542161, -0.09802699, 9.883058
1126429757913705, -0.57188463, 3.609573, 9.067601, 0.2054221, 0.27311993, 9.770396
1126429767553080, -0.3684947, 4.5224347, 9.11785, -0.31467313, -0.3944292, 10.171962
1126429777192455, -0.55752766, 3.286542, 8.944371, 0.3060491, 0.49005985, 9.527863
1126429786831934, -0.43908295, 4.671986, 9.160921, -0.31672144, -0.51881313, 10.274884
1126429796471309, -0.5563313, 3.2673993, 8.903693, 0.31542724, 0.49060154, 9.482667
1126429806110684, -0.54436713, 4.526024, 9.232706, -0.16241562, -0.42488003, 10.28675
1126429815750164, -0.5168497, 3.5976088, 8.950353, 0.15396142, 0.24902678, 9.6557255
1126429825389539, -0.6257231, 4.098905, 9.221938, 0.08152616, -0.10816264, 10.110309
1126429835028914, -0.44865423, 4.058227, 9.042477, -0.08501983, -0.06796336, 9.9209385
1126429844668393, -0.6257231, 3.65384, 9.103494, 0.25970227, 0.2109766, 9.82363
1126429854307768, -0.3684947, 4.557131, 9.177671, -0.3329457, -0.39466023, 10.240424
1126429863947247, -0.485743, 3.4013975, 9.132208, 0.23602593, 0.48822308, 9.7421055
1126429873586622, -0.2644069, 4.7748775, 9.427721, -0.4736148, -0.42925072, 10.551906
1126429883225997, -0.3385844, 3.3439696, 9.139386, 0.13334727, 0.604851, 9.718102
1126429892865476, -0.28713873, 4.5798626, 9.415757, -0.38094974, -0.2873292, 10.463575
1126429902504851, -0.2955136, 3.4851463, 9.040084, 0.027271152, 0.45884705, 9.68222
1126429912144226, -0.47018966, 4.063013, 9.238688, -0.019413948, -0.006250143, 10.103569
1126429921783705, -0.38644084, 3.9349968, 8.867801, -0.094944, -0.010289192, 9.7088785
1126429931423080, -0.6364908, 3.6789649, 8.811569, 0.22680557, 0.07367611, 9.566963
1126429941062559, -0.44027936, 4.59063, 8.745767, -0.34628713, -0.6042793, 9.862611
1126429950701934, -0.5778667, 3.5497525, 8.682357, 0.21508193, 0.16416073, 9.393871
1126429960341309, -0.2632105, 4.9866424, 9.08794, -0.62205005, -0.7058201, 10.326733
1126429969980789, -0.20937198, 3.4695928, 8.99462, -0.022064805, 0.5122855, 9.629236
1126429979620164, -0.09571291, 4.6636114, 9.470792, -0.566066, -0.2297306, 10.539503
1126429989259539, -0.1268196, 3.4456646, 9.189635, -0.03867936, 0.634001, 9.794623
1126429998899018, -0.38165522, 4.0534415, 9.430114, -0.050125837, 0.11019635, 10.270756
1126430008538393, -0.45224348, 3.76391, 9.046066, 0.08288193, 0.16588879, 9.806552
1126430018177768, -0.82672024, 3.5306098, 8.953942, 0.49580884, 0.14582157, 9.646484
1126430027817247, -0.6879365, 4.2652063, 8.796016, -0.004306793, -0.43619037, 9.790038
1126430037456622, -0.8889336, 3.225525, 8.702696, 0.61121315, 0.28401446, 9.299294
1126430047095997, -0.65324056, 4.5882373, 9.013762, -0.15494692, -0.6016531, 10.116352
1126430056735476, -0.72502524, 3.1609187, 8.916854, 0.5036529, 0.5022228, 9.461578
1126430066374851, -0.5491528, 4.5690947, 9.333204, -0.17149341, -0.42146993, 10.396146
1126430076014226, -0.5096712, 3.3870404, 9.114262, 0.22932553, 0.47588325, 9.72227
1126430085653705, -0.63529444, 4.17069, 9.403793, 0.075633764, -0.109387636, 10.305916
1126430095293080, -0.6017949, 3.8380876, 9.056833, 0.12984526, 0.040276766, 9.853975
1126430104932559, -0.8889336, 3.7423747, 9.060423, 0.42317027, 0.005629301, 9.834009
1126430114571934, -0.74895346, 4.345366, 8.882157, 0.023365974, -0.5057528, 9.903511
1126430124211309, -0.9343972, 3.298506, 8.79123, 0.60489136, 0.23473811, 9.4137125
1126430133850789, -0.7082755, 4.638487, 9.052048, -0.12060034, -0.6564083, 10.174052
1126430143490164, -0.7537391, 3.2614172, 8.928818, 0.47228825, 0.3991289, 9.515587
1126430153129539, -0.5479564, 4.709075, 9.394221, -0.26187098, -0.52949286, 10.506098
1126430162769018, -0.44626144, 3.4719856, 9.165708, 0.13742983, 0.43799996, 9.800677
1126430172408393, -0.41156548, 4.3525443, 9.534202, -0.20299649, -0.12708879, 10.486071
1126430182047768, -0.24885355, 3.8847475, 9.286545, -0.1888274, 0.22204685, 10.065195
1126430191687247, -0.39361933, 3.790231, 9.367901, -1.2660027E-4, 0.26515627, 10.109799
1126430201326622, -0.16510476, 4.2963133, 9.199206, -0.4323144, -0.12732553, 10.144351
1126430210965997, -0.33738798, 3.3463624, 9.022138, 0.08918667, 0.5193322, 9.614223
1126430220605476, -0.10887343, 4.619344, 9.12503, -0.62392783, -0.38211107, 10.202013
1126430230244851, -0.27158538, 3.1848469, 8.816355, 0.085188985, 0.60669684, 9.357872
1126430239884226, -0.18305093, 4.6779685, 9.037691, -0.58489776, -0.49696064, 10.14927
1126430249523705, -0.27158538, 3.4839497, 8.636893, -0.058722258, 0.29306245, 9.312264
1126430259163080, -0.40677986, 4.546363, 8.953942, -0.3310417, -0.5262563, 10.031025
1126430268802455, -0.37088752, 4.045067, 8.754142, -0.17848456, -0.169698, 9.647512
1126430278441934, -0.55034924, 4.0941195, 9.065208, 0.005038142, -0.16901398, 9.9606285
1126430288081309, -0.31465617, 4.470989, 9.178867, -0.3377776, -0.34302044, 10.203363
1126430297720684, -0.44865423, 3.5413775, 9.361918, 0.17467451, 0.436347, 10.00836
1126430307360164, -0.19381863, 4.6839504, 9.692128, -0.4437821, -0.2942133, 10.753178
1126430316999539, -0.34217364, 3.2183464, 9.552148, 0.2375198, 0.80295396, 10.050733
1126430326638914, -0.25603202, 4.6552362, 9.821341, -0.35209107, -0.25764704, 10.863018
1126430336278393, -0.3505485, 3.2925239, 9.366704, 0.19376719, 0.6627929, 9.910696
1126430345917768, -0.46660042, 4.301099, 9.57488, -0.06853652, -0.1542716, 10.50557
1126430355557143, -0.46660042, 3.6191442, 9.15135, 0.13442248, 0.26408052, 9.847605
1126430365196622, -0.73818576, 3.8033917, 9.200403, 0.3118555, 0.022144556, 9.977995
1126430374835997, -0.6412765, 4.113262, 9.052048, 0.088582814, -0.25530648, 9.959753
1126430384475372, -0.8877372, 3.3463624, 9.093923, 0.608372, 0.29576826, 9.707114
1126430394114851, -0.63888365, 4.5320063, 9.238688, -0.07592785, -0.52196693, 10.296719
1126430403754226, -0.72023964, 3.199204, 9.145369, 0.5168227, 0.50380206, 9.688677
1126430413393601, -0.5084748, 4.7018967, 9.468399, -0.25126076, -0.51500964, 10.568283
1126430423033080, -0.45702913, 3.3870404, 9.1465645, 0.22033107, 0.47280383, 9.750305
1126430432672455, -0.4139583, 4.5798626, 9.390633, -0.28978837, -0.39196086, 10.444755
1126430442311830, -0.29192436, 3.8333018, 8.991031, -0.13635433, 0.12295842, 9.776726
1126430451951309, -0.47377887, 4.0498524, 9.092726, -0.049566388, -0.08376765, 9.964637
1126430461590684, -0.36370903, 4.193422, 8.841479, -0.247558, -0.23734355, 9.786277
1126430471230059, -0.701097, 3.438486, 8.776874, 0.36282802, 0.21997762, 9.442892
1126430480869539, -0.62931234, 4.442275, 8.842676, -0.12707865, -0.54333043, 9.90007
1126430490508914, -0.9619147, 3.0939198, 8.584251, 0.7001124, 0.3268528, 9.142756
1126430500148289, -0.85064846, 4.6085763, 8.865408, 0.011663675, -0.75673985, 9.999263
1126430509787768, -0.76689965, 3.251846, 8.745767, 0.47822177, 0.34014225, 9.343804
1126430519427143, -0.43070808, 4.3094735, 9.215957, -0.20725894, -0.19432092, 10.178909
1126430529066518, -0.09571291, 3.3990045, 9.247063, -0.12759984, 0.6921265, 9.827271
1126430538705997, -0.22013968, 3.8955152, 9.512667, -0.17615366, 0.3161199, 10.275375
1126430548345372, -0.13519448, 4.1491547, 9.122637, -0.39707708, -0.0014483929, 10.014918
1126430557984747, -0.5491528, 3.6729827, 8.851051, 0.13574755, 0.12049937, 9.596903
1126430567624226, -0.54436713, 4.7102714, 8.703893, -0.30376244, -0.7904725, 9.875405
1126430577263601, -0.8386843, 3.418147, 8.541181, 0.45729393, 0.09376931, 9.226104
1126430586902976, -0.6687939, 4.8047876, 8.950353, -0.20847058, -0.81834435, 10.14539
1126430596542351, -0.67118675, 3.2338998, 8.970692, 0.4281358, 0.49594808, 9.53691
1126430606181830, -0.5395815, 4.395615, 9.615558, -0.07214129, -0.18540859, 10.584515
1126430615821205, -0.33738798, 3.4660037, 9.500702, 0.11815894, 0.6186428, 10.099191
1126430625460580, -0.34337005, 4.024728, 9.7196455, -0.08160603, 0.23738074, 10.522585
1126430635100059, -0.111266255, 4.089334, 9.334401, -0.36551654, 0.11997318, 10.184208
1126430644739434, -0.31585258, 3.7064822, 9.15135, -0.04186809, 0.28784633, 9.874229
1126430654378809, -0.15672988, 4.723432, 9.048459, -0.60556173, -0.52514005, 10.176812
1126430664018289, -0.41515473, 3.5389848, 8.868998, 0.07282674, 0.279073, 9.553676
1126430673657664, -0.3469593, 4.9471607, 9.220742, -0.47009134, -0.72491646, 10.434096
1126430683297039, -0.5371887, 3.397808, 9.073584, 0.28366685, 0.44281316, 9.689531
1126430692936518, -0.56350976, 4.51406, 9.517452, -0.07161963, -0.33510184, 10.543184
1126430702575893, -0.55752766, 3.3236306, 9.285348, 0.35266978, 0.5729711, 9.855068
1126430712215268, -0.6855437, 3.8153558, 9.57488, 0.31820697, 0.21714115, 10.322638
1126430721854747, -0.50009996, 3.6837504, 9.326026, 0.16507065, 0.2996981, 10.033834
1126430731494122, -0.66400826, 3.406183, 9.269794, 0.4209568, 0.42597628, 9.879951
1126430741133497, -0.35294133, 4.401597, 9.12503, -0.32185125, -0.28726745, 10.128115
1126430750772976, -0.4749753, 3.4133615, 8.866604, 0.19719183, 0.36478662, 9.503755
1126430760412351, -0.2727818, 5.020142, 8.963513, -0.6794106, -0.7931864, 10.223995
1126430770051726, -0.37447673, 3.644269, 8.545966, -0.032735586, 0.12637639, 9.297174
1126430779691205, -0.38524446, 4.9926243, 8.82473, -0.54603946, -0.86911225, 10.094407
1126430789330580, -0.44745782, 3.7854455, 8.609376, -0.01464951, 0.004709959, 9.415464
1126430798969955, -0.64965135, 4.2927237, 9.046066, 0.017884731, -0.33040166, 10.028526
1126430808609434, -0.5706882, 3.818945, 8.975478, 0.1184963, 0.07003927, 9.769865
1126430818248809, -0.8279166, 3.2853456, 9.158528, 0.5884789, 0.47216487, 9.73593
1126430827888184, -0.6305088, 3.9014974, 9.182457, 0.15513134, 0.053773403, 9.995486
1126430837527664, -0.849452, 2.8055844, 9.007781, 0.7436761, 0.7891879, 9.410481
1126430847167039, -0.6556334, 4.308277, 9.090333, -0.03452587, -0.3526249, 10.074709
1126430856806414, -0.7573284, 3.0448668, 8.665607, 0.51413023, 0.48397923, 9.189067
1126430866445893, -0.5706882, 4.7042894, 8.863015, -0.2976135, -0.7217953, 10.019956
1126430876085268, -0.46061835, 3.7866418, 8.628518, -0.040659547, -0.010686636, 9.434002
1126430885724643, -0.4749753, 4.6755753, 9.120243, -0.32917094, -0.55870724, 10.239382
1126430895364122, -0.29790643, 4.3322053, 9.144172, -0.3283962, -0.20175767, 10.115536
1126430905003497, -0.50368917, 4.019942, 9.495916, 0.03091836, 0.098246574, 10.323539
1126430914642872, -0.3589234, 4.430311, 9.661021, -0.2359004, -0.13158822, 10.631033
1126430924282351, -0.69152576, 3.150151, 9.672985, 0.58931607, 0.78130007, 10.149413
1126430933921726, -0.5694918, 4.382455, 9.830912, -0.009393811, -0.11609125, 10.777918
1126430943561101, -0.7573284, 2.9336007, 9.4432745, 0.70320266, 0.8370149, 9.856974
1126430953200580, -0.67836523, 4.4518466, 9.5557375, -0.008206248, -0.3206885, 10.558803
1126430962839955, -0.61016977, 3.3810585, 9.056833, 0.32491028, 0.3910315, 9.6732435
1126430972479330, -0.5371887, 4.409972, 9.262616, -0.1526283, -0.3266034, 10.266575
1126430982118809, -0.2835495, 4.066602, 9.012567, -0.26196575, -0.021303892, 9.88812
1126430991758184, -0.4103691, 4.068995, 9.156136, -0.11263013, -0.013546705, 10.027317
1126431001397559, -0.15553348, 4.601398, 9.0544405, -0.5780003, -0.36083817, 10.134872
1126431011037039, -0.36729828, 3.546163, 8.999406, 0.058245778, 0.37490344, 9.672411
1126431020676414, -0.21894327, 4.7282176, 9.189635, -0.5615692, -0.4252026, 10.312964
1126431030315789, -0.44626144, 3.1980073, 8.916854, 0.28073752, 0.5930631, 9.46077
1126431039955268, -0.4019942, 4.6265225, 9.140582, -0.3719262, -0.43553305, 10.236627
1126431049594643, -0.4319045, 3.4073794, 8.763713, 0.13952112, 0.38574505, 9.403786
1126431059234018, -0.46660042, 4.4410787, 9.001799, -0.26417089, -0.36368513, 10.0384865
1126431068873497, -0.32063824, 3.9720855, 8.738588, -0.22524786, -0.016566753, 9.601677
1126431078512872, -0.46181476, 4.048656, 8.891729, -0.11379337, -0.08305669, 9.779974
1126431088152247, -0.2213361, 4.505685, 8.781659, -0.5555397, -0.36094713, 9.850322
1126431097791726, -0.43669012, 3.5880375, 8.723035, 0.054504156, 0.2465682, 9.438871
1126431107431101, -0.2883351, 4.7318068, 8.937193, -0.5451082, -0.53334165, 10.087861
1126431117070476, -0.5347959, 3.2135608, 8.7780695, 0.30227184, 0.52297544, 9.343587
1126431126709955, -0.4833502, 4.6408796, 9.15135, -0.31490815, -0.46635342, 10.256801
1126431136349330, -0.5395815, 3.290131, 8.932407, 0.29838914, 0.5087607, 9.516099
1126431145988705, -0.613759, 4.3298125, 9.420543, -0.033714414, -0.18454027, 10.384384
1126431155628184, -0.4953143, 3.7100716, 9.290133, 0.11878073, 0.31748867, 10.010077
1126431165267559, -0.65682983, 3.912265, 9.491131, 0.18837929, 0.15483618, 10.2839365
1126431174906934, -0.44027936, 4.2963133, 9.298509, -0.19322717, -0.13588977, 10.24981
1126431184546414, -0.715454, 3.5449667, 9.158528, 0.34777653, 0.30005574, 9.835972
1126431194185789, -0.5132605, 4.746164, 9.19801, -0.3279662, -0.57110095, 10.342107
1126431203825268, -0.6903293, 3.347559, 8.986245, 0.37634122, 0.41582346, 9.597958
1126431213464643, -0.587438, 4.792824, 9.285348, -0.26342213, -0.60872746, 10.444807
1126431223104018, -0.66161543, 3.3619158, 9.042477, 0.35182738, 0.44301105, 9.653318
1126431232743497, -0.7046863, 4.3968115, 9.473185, 0.028394103, -0.25141692, 10.4645
1126431242382872, -0.6197411, 3.6167514, 9.280562, 0.2374835, 0.3538041, 9.97057
1126431252022247, -0.7812566, 3.822534, 9.430114, 0.31679302, 0.16468978, 10.199103
1126431261661726, -0.56470615, 4.065406, 9.144172, -0.014913797, -0.04938054, 10.022955
1126431271301101, -0.7609176, 3.434897, 8.953942, 0.3881877, 0.3190651, 9.607191
1126431280940580, -0.4953143, 4.638487, 8.895318, -0.35814035, -0.57398176, 10.021469
1126431290579955, -0.6472585, 3.3128629, 8.6141615, 0.29139227, 0.33537173, 9.241233
1126431300219330, -0.49172506, 4.814359, 8.825927, -0.42397392, -0.73364973, 10.029898
1126431309858809, -0.5766702, 3.3714871, 8.539984, 0.1977613, 0.3033507, 9.19237
1126431319498184, -0.634098, 4.508078, 8.952746, -0.17301774, -0.4778297, 10.030866
1126431329137559, -0.6089734, 3.621537, 8.760123, 0.15622962, 0.18493938, 9.495659
1126431338777039, -0.80159557, 3.9637108, 9.060423, 0.22761035, -0.061034918, 9.919138
1126431348416414, -0.63888365, 4.0594234, 8.963513, 0.02462697, -0.1136713, 9.859925
1126431358055789, -0.78843504, 3.4169507, 9.031709, 0.43087423, 0.36839032, 9.672001
1126431367695268, -0.5024927, 4.4817567, 9.131011, -0.26094878, -0.34767985, 10.174726
1126431377334643, -0.6113662, 3.2506495, 8.983852, 0.35094953, 0.54868627, 9.551224
1126431386974122, -0.4103691, 4.816752, 9.224331, -0.47961152, -0.54004645, 10.389231
1126431396613497, -0.47976094, 3.446861, 8.88814, 0.12229502, 0.40675592, 9.535705
1126431406252872, -0.4881358, 4.733003, 9.235099, -0.34690678, -0.5158086, 10.370161
1126431415892351, -0.45822555, 3.8213377, 9.02812, -0.014480472, 0.16618061, 9.812835
1126431425531726, -0.6257231, 4.2460637, 9.352347, 0.0027829409, -0.13414049, 10.289266
1126431435171205, -0.48095736, 4.2053857, 9.237492, -0.12504816, -0.0851388, 10.159969
1126431444810580, -0.66161543, 3.611966, 9.329616, 0.29076982, 0.35755777, 10.015657
1126431454449955, -0.41754755, 4.520042, 9.383454, -0.2934698, -0.26373148, 10.416269
1126431464089434, -0.6125626, 3.2123644, 9.226724, 0.38506103, 0.6675463, 9.758744
1126431473728809, -0.42831525, 4.6731825, 9.406186, -0.35440004, -0.4012792, 10.49818
1126431483368184, -0.5407779, 3.2470603, 9.038888, 0.27370566, 0.59805965, 9.597121
1126431493007664, -0.506082, 4.6037908, 9.24467, -0.27660942, -0.43550563, 10.327089
1126431502647039, -0.465404, 3.6370904, 8.852247, 0.025354505, 0.2275095, 9.578879
1126431512286518, -0.60777694, 4.26401, 9.072387, -0.061266422, -0.25503016, 10.03945
1126431521925893, -0.41635114, 4.176672, 8.860622, -0.23086572, -0.18275595, 9.800095
1126431531565268, -0.58265233, 3.7423747, 8.926425, 0.10518479, 0.13569808, 9.695175
1126431541204747, -0.32662028, 4.566702, 8.9826565, -0.4453045, -0.41238022, 10.063856
1126431550844122, -0.51086766, 3.269792, 8.894122, 0.2364412, 0.5477667, 9.471112
1126431560483601, -0.3493521, 4.668397, 9.158528, -0.44718933, -0.42468977, 10.267145
1126431570122976, -0.49052864, 3.2207394, 8.825927, 0.23284227, 0.55680394, 9.388637
1126431579762455, -0.4761717, 4.5930233, 9.108279, -0.3165567, -0.4365208, 10.197676
1126431589401830, -0.4989035, 3.5772698, 8.840283, 0.10348344, 0.26446295, 9.545456
1126431599041205, -0.6664011, 4.3800616, 9.15494, -0.055125833, -0.34596086, 10.164607
1126431608680684, -0.46899325, 4.213761, 8.979067, -0.18866348, -0.1848054, 9.92621
1126431618320059, -0.6125626, 3.8404803, 9.141779, 0.13147259, 0.10850167, 9.933157
1126431627959539, -0.33020952, 4.51406, 9.217153, -0.40858412, -0.26404762, 10.25695
1126431637598914, -0.58265233, 3.2949169, 9.18126, 0.3664626, 0.56163335, 9.748937
1126431647238289, -0.506082, 4.6576295, 9.4636135, -0.2732228, -0.3769703, 10.549542
1126431656877768, -0.6963114, 3.2039895, 9.262616, 0.5107894, 0.6072242, 9.793715
1126431666517143, -0.58265233, 4.6085763, 9.540184, -0.18763137, -0.3641231, 10.603102
1126431676156622, -0.45822555, 3.3403804, 9.232706, 0.2320087, 0.59010124, 9.808617
1126431685795997, -0.6029913, 4.037888, 9.525827, 0.089107275, 0.08386469, 10.363133
1126431695435476, -0.5706882, 3.760321, 9.0951185, 0.11151147, 0.15453291, 9.856499
1126431705074851, -0.8554341, 3.7064822, 8.997013, 0.37402755, 0.02983141, 9.760903
1126431714714330, -0.7046863, 4.476971, 8.836694, -0.12823355, -0.57821107, 9.913437
1126431724353705, -0.930808, 3.4564323, 8.7780695, 0.5075214, 0.11796594, 9.465534
1126431733993080, -0.66161543, 4.8191447, 9.144172, -0.27976823, -0.7043185, 10.329737
1126431743632559, -0.67836523, 3.2829528, 8.999406, 0.38935935, 0.46128583, 9.584513
1126431753271934, -0.526421, 4.601398, 9.431311, -0.26573932, -0.35216904, 10.497854
1126431762911414, -0.5072784, 3.266203, 9.200403, 0.28402507, 0.6305134, 9.751647
1126431772550789, -0.57188463, 4.109673, 9.407382, -0.008886099, 0.004864216, 10.281789
1126431782190268, -0.42592242, 3.7052858, 8.997013, -0.0174644, 0.23311162, 9.736641
1126431791829643, -0.6975078, 3.6933217, 8.944371, 0.21823883, 0.09433746, 9.699094
1126431801469122, -0.51445687, 4.3405805, 8.76491, -0.2693001, -0.39507627, 9.782656
1126431811108497, -0.7262217, 3.4360933, 8.670393, 0.3148247, 0.19063902, 9.347427
1126431820747872, -0.50129634, 4.7916274, 8.908479, -0.46022666, -0.6861131, 10.09403
1126431830387351, -0.6305088, 3.324827, 8.773284, 0.29376078, 0.36794853, 9.391532
1126431840026726, -0.5479564, 4.776074, 9.19801, -0.34869266, -0.59302425, 10.355738
1126431849666205, -0.613759, 3.487539, 8.98146, 0.24791253, 0.32543278, 9.645666
1126431859305580, -0.65922266, 4.412365, 9.335598, -0.06673813, -0.30694914, 10.342063
1126431868945059, -0.49292147, 3.8835511, 9.171689, -0.010180712, 0.121441126, 9.971457
1126431878584434, -0.66400826, 3.9744785, 9.35474, 0.13028932, 0.034407616, 10.184812
1126431888223914, -0.36370903, 4.453043, 9.257831, -0.35856915, -0.25262523, 10.270195
1126431897863289, -0.4941179, 3.5042887, 9.29492, 0.1713829, 0.46548104, 9.933464
1126431907502768, -0.23928227, 4.674379, 9.533006, -0.522665, -0.26892877, 10.603762
1126431917142143, -0.41515473, 3.1286156, 9.361918, 0.29887092, 0.82140255, 9.840837
1126431926781622, -0.42592242, 4.516453, 9.635897, -0.26053917, -0.20150423, 10.64527
1126431936420997, -0.58265233, 3.162115, 9.243474, 0.3929385, 0.6761074, 9.755447
1126431946060476, -0.6987042, 4.2281175, 9.436096, 0.07336342, -0.1731906, 10.361937
1126431955699851, -0.5886344, 3.7052858, 9.078369, 0.13669765, 0.16481304, 9.820723
1126431965339330, -0.67118675, 3.9828532, 9.195618, 0.10610509, -0.052932978, 10.042855
1126431974978705, -0.32422748, 4.4542394, 9.0436735, -0.42505276, -0.34054208, 10.071583
1126431984618080, -0.43788654, 3.6777685, 8.98146, 0.002276659, 0.22112846, 9.712644
1126431994257559, -0.17826529, 4.900501, 9.132208, -0.7083787, -0.60805035, 10.323391
1126432003897039, -0.31345975, 3.4779677, 8.932407, -0.028968692, 0.4273398, 9.581179
1126432013536414, -0.22971097, 4.863412, 9.241081, -0.6246828, -0.5379863, 10.41266
1126432023175789, -0.3361916, 3.4109688, 8.9312105, 0.05050111, 0.48896742, 9.55367
1126432032815268, -0.43070808, 4.430311, 9.21476, -0.25730193, -0.28315926, 10.226367
1126432042454643, -0.41635114, 3.5820556, 8.950353, 0.047133327, 0.31616616, 9.644226
1126432052094122, -0.68075806, 3.7567315, 9.108279, 0.23068273, 0.12759662, 9.872574
1126432061733601, -0.6472585, 4.066602, 8.974281, 0.050094128, -0.16648722, 9.87237
1126432071372976, -0.92482597, 3.3822548, 8.973084, 0.57567143, 0.26774168, 9.612915
1126432081012455, -0.69152576, 4.540381, 9.183653, -0.107350826, -0.49541926, 10.255526
1126432090651830, -0.8470592, 3.2207394, 9.103494, 0.5856226, 0.47617483, 9.664087
1126432100291309, -0.65084773, 4.773681, 9.432507, -0.20513856, -0.57284045, 10.574195
1126432109930684, -0.6233303, 3.4025939, 9.141779, 0.33489168, 0.44516945, 9.758482
1126432119570164, -0.56470615, 4.619344, 9.457631, -0.20646918, -0.38693237, 10.531461
1126432129209539, -0.4223332, 3.7998023, 9.133404, -0.015247822, 0.21962595, 9.898861
1126432138849018, -0.56829536, 4.1443686, 9.297313, -0.017187476, -0.061844587, 10.194834
1126432148488393, -0.42951167, 4.2388854, 9.083155, -0.21192098, -0.15490627, 10.029328
1126432158127872, -0.7118647, 3.501896, 9.05803, 0.35749668, 0.30216074, 9.726194
1126432167767247, -0.5706882, 4.4446683, 9.162118, -0.17782748, -0.34613395, 10.191847
1126432177406726, -0.79920274, 3.0245278, 9.001799, 0.6246676, 0.6418855, 9.48771
1126432187046101, -0.6843473, 4.4721856, 9.219545, -0.06727314, -0.39147997, 10.262116
1126432196685580, -0.80877405, 3.080759, 8.897711, 0.5835367, 0.55682087, 9.416151
1126432206324955, -0.7573284, 4.4255257, 9.193225, -0.003099084, -0.39314914, 10.223485
1126432215964434, -0.567099, 3.6861434, 8.919247, 0.10439694, 0.18647814, 9.665222
1126432225603809, -0.58983076, 4.2975097, 9.171689, -0.10429692, -0.22155142, 10.1428
1126432235243289, -0.29312077, 4.3932223, 9.004191, -0.42984378, -0.23052692, 10.011188
1126432244882768, -0.44626144, 3.8524444, 9.05803, -0.029159784, 0.16959405, 9.851841
1126432254522143, -0.23330021, 4.7676992, 9.12144, -0.6188911, -0.4333079, 10.267195
1126432264161622, -0.45942193, 3.418147, 8.983852, 0.17018878, 0.48029017, 9.609617
1126432273800997, -0.36610186, 4.8059845, 9.23151, -0.4919448, -0.48466253, 10.391119
1126432283440476, -0.53240305, 3.2638102, 8.919247, 0.2961297, 0.5509479, 9.491977
1126432293079851, -0.5694918, 4.5284166, 9.203992, -0.18565369, -0.35839105, 10.265547
1126432302719330, -0.55393845, 3.5449667, 8.889337, 0.179528, 0.3099072, 9.579441
1126432312358809, -0.66041905, 4.176672, 9.1465645, 0.029494762, -0.14668894, 10.075613
1126432321998184, -0.43070808, 4.1515474, 8.957532, -0.1868447, -0.09158182, 9.880027
1126432331637664, -0.5587241, 3.7938204, 9.018549, 0.09313321, 0.16043925, 9.798216
1126432341277039, -0.25962126, 4.6815577, 9.115458, -0.54346347, -0.37583923, 10.229339
1126432350916518, -0.41515473, 3.5030923, 9.038888, 0.11159134, 0.46517086, 9.691061
1126432360555893, -0.2416751, 4.922036, 9.286545, -0.627622, -0.4927342, 10.482751
1126432370195372, -0.38165522, 3.4073794, 8.959925, 0.12299955, 0.52862096, 9.578182
1126432379834851, -0.4223332, 4.6971107, 9.212367, -0.37267268, -0.4097395, 10.334515
1126432389474226, -0.47258246, 3.5688949, 8.904889, 0.12150693, 0.34192562, 9.598214
1126432399113705, -0.65922266, 4.2388854, 9.169296, 0.035463214, -0.17143512, 10.121664
1126432408753080, -0.5623133, 4.037888, 9.000603, 0.005551696, -0.035877228, 9.880803
1126432418392559, -0.8171489, 3.6753755, 9.101101, 0.3947047, 0.19109511, 9.839403
1126432428031934, -0.58983076, 4.4662037, 9.132208, -0.13943148, -0.34059405, 10.176279
1126432437671414, -0.78364944, 3.3355947, 9.072387, 0.50364417, 0.46681643, 9.673517
1126432447310893, -0.6089734, 4.718646, 9.3104725, -0.21438515, -0.4782009, 10.442544
1126432456950268, -0.6891329, 3.2853456, 9.01137, 0.43274212, 0.5264392, 9.592122
1126432466589747, -0.6329016, 4.709075, 9.249456, -0.21711552, -0.50577784, 10.3839035
1126432476229122, -0.60777694, 3.586841, 8.940782, 0.21446323, 0.29543567, 9.645678
1126432485868601, -0.72741807, 4.274778, 9.232706, 0.054100394, -0.20246291, 10.198129
1126432495508080, -0.6053841, 3.9541395, 9.026923, 0.055395007, 0.034553528, 9.873338
1126432505147455, -0.85902333, 3.735196, 9.15135, 0.39505666, 0.13862991, 9.912695
1126432514786934, -0.6520442, 4.3788652, 9.109476, -0.08381128, -0.29357076, 10.123684
1126432524426414, -0.86859465, 3.2853456, 8.99462, 0.5703255, 0.43381453, 9.588413
1126432534065789, -0.6687939, 4.6408796, 9.148957, -0.18194854, -0.501462, 10.266641
1126432543705268, -0.7704889, 3.1812577, 8.851051, 0.48479545, 0.5230768, 9.409917
1126432553344643, -0.6520442, 4.6265225, 9.115458, -0.19894934, -0.49349713, 10.229288
1126432562984122, -0.5982057, 3.4719856, 8.779266, 0.20269018, 0.3434, 9.451406
1126432572623601, -0.64008003, 4.3764725, 9.044869, -0.106609225, -0.30421972, 10.06325
1126432582262976, -0.49651068, 3.9924245, 8.822337, -0.10393727, -0.012898922, 9.695805
1126432591902455, -0.7286145, 3.8656049, 8.912068, 0.16997766, 0.019116879, 9.740097
1126432601541934, -0.55513483, 4.449454, 8.840283, -0.2405703, -0.40410352, 9.901276
1126432611181309, -0.7800602, 3.4360933, 8.877372, 0.39668036, 0.32546997, 9.537279
1126432620820789, -0.54317075, 4.7341995, 9.172886, -0.33964074, -0.50527334, 10.31886
1126432630460268, -0.6436693, 3.2949169, 9.029316, 0.35610014, 0.55155444, 9.610842
1126432640099643, -0.52283174, 4.7377887, 9.381062, -0.3202654, -0.41824222, 10.509369
1126432649739122, -0.50009996, 3.4995031, 9.092726, 0.15199578, 0.4649117, 9.743463
1126432659378497, -0.526421, 4.486542, 9.403793, -0.20265067, -0.22050238, 10.428223
1126432669017976, -0.5240282, 3.8464625, 9.1669035, 0.03850591, 0.20208192, 9.952873
1126432678657455, -0.5383851, 4.0211387, 9.174082, -0.022226453, 0.054467916, 10.030939
1126432688296830, -0.54436713, 4.0091743, 9.15135, -0.014652014, 0.052654028, 10.005702
1126432697936309, -0.52163535, 4.1108694, 9.090333, -0.08560729, -0.043018103, 9.98981
1126432707575789, -0.46779683, 4.1347976, 9.05803, -0.1455462, -0.049959898, 9.966926
1126432717215164, -0.45822555, 4.15394, 9.098708, -0.15731227, -0.043515444, 10.011246
1126432726854643, -0.4642076, 4.135994, 9.145369, -0.12914252, -0.015983582, 10.047028
1126432736494122, -0.46181476, 4.1276193, 9.194421, -0.11676884, 0.009269714, 10.088318
1126432746133497, -0.46899325, 4.0773697, 9.225528, -0.08038151, 0.0566957, 10.096811
1126432755772976, -0.4642076, 4.048656, 9.230313, -0.07066667, 0.081249, 10.089312
1126432765412455, -0.48933223, 4.0151563, 9.194421, -0.03729403, 0.08288479, 10.044405
1126432775051830, -0.49052864, 3.9852462, 9.141779, -0.02981782, 0.086471796, 9.984316
1126432784691309, -0.5168497, 3.9948175, 9.072387, -0.020375967, 0.039952755, 9.926323
1126432794330789, -0.58983076, 4.040281, 9.0951185, 0.02977705, -0.020014048, 9.969538
1126432803970164, -0.6017949, 4.045067, 9.1465645, 0.045448303, -0.009313107, 10.019093
1126432813609643, -0.59700924, 4.042674, 9.186047, 0.04686904, 0.010400534, 10.053895
1126432823249122, -0.587438, 4.054638, 9.21476, 0.038023353, 0.015333891, 10.084409
1126432832888601, -0.58624154, 4.0474596, 9.220742, 0.04051292, 0.024072409, 10.086897
1126432842527976, -0.57427746, 4.0677986, 9.18485, 0.01873076, -0.0010244846, 10.061705
1126432852167455, -0.5383851, 4.0905304, 9.164511, -0.024057746, -0.010554075, 10.050365
1126432861806934, -0.53240305, 4.071388, 9.110672, -0.026977539, -0.010189295, 9.993157
1126432871446309, -0.55034924, 4.045067, 9.038888, -0.008181334, -0.021268606, 9.917986
1126432881085789, -0.5479564, 4.028317, 9.02812, -0.004273653, -0.00777483, 9.9012375
1126432890725268, -0.57906306, 4.007978, 9.032906, 0.0313586, -6.2942505E-5, 9.899072
1126432900364747, -0.6089734, 3.9816568, 9.042477, 0.070747614, 0.011609793, 9.898772
1126432910004122, -0.634098, 3.9744785, 9.036494, 0.09166598, 0.0047307014, 9.891835
1126432919643601, -0.65682983, 3.9696927, 9.0747795, 0.117501974, 0.01206255, 9.926105
1126432929283080, -0.6041877, 3.9840498, 9.046066, 0.058365703, 0.015760422, 9.902796
1126432938922455, -0.58624154, 4.0271206, 8.997013, 0.0151411295, -0.02804923, 9.874544
1126432948561934, -0.5587241, 4.085745, 8.975478, -0.03910017, -0.06970477, 9.877162
1126432958201414, -0.53240305, 4.141976, 9.01137, -0.07949114, -0.087225914, 9.931278
1126432967840893, -0.4833502, 4.188636, 9.079565, -0.12939572, -0.07667017, 10.009705
1126432977480268, -0.465404, 4.174279, 9.162118, -0.123396754, -0.024032116, 10.078185
1126432987119747, -0.46899325, 4.1228333, 9.186047, -0.09040773, 0.024715662, 10.079305
1126432996759226, -0.46899325, 4.0642095, 9.195618, -0.06145215, 0.07472515, 10.064183
1126433006398601, -0.50129634, 4.022335, 9.158528, -0.01997161, 0.07880783, 10.015116
1126433016038080, -0.54675996, 3.9924245, 9.123833, 0.027882338, 0.06832886, 9.97383
1126433025677559, -0.56470615, 3.9888353, 9.079565, 0.037558436, 0.04650879, 9.933007
1126433035317039, -0.57188463, 4.001996, 9.052048, 0.03128147, 0.023431778, 9.91368
1126433044956414, -0.58265233, 4.0474596, 9.004191, 0.009692669, -0.03395796, 9.889167
1126433054595893, -0.5778667, 4.0881376, 8.977871, -0.01781118, -0.07248402, 9.881468
1126433064235372, -0.58983076, 4.101298, 8.979067, -0.012537956, -0.08600736, 9.888611
1126433073874851, -0.57188463, 4.0845485, 8.974281, -0.020761251, -0.06424832, 9.876424
1126433083514226, -0.56350976, 4.065406, 9.01137, -0.0140042305, -0.030957222, 9.901956
1126433093153705, -0.587438, 4.0474596, 9.0544405, 0.023180723, -0.009520769, 9.935255
1126433102793184, -0.6089734, 4.0390844, 9.075976, 0.048215866, -0.0048890114, 9.95269
1126433112432664, -0.6472585, 4.0211387, 9.071191, 0.087264776, -0.010089159, 9.943202
1126433122072039, -0.66041905, 4.007978, 9.055637, 0.102493405, -0.011905432, 9.924412
1126433131711518, -0.6376872, 4.01396, 9.079565, 0.079934, 0.0021259785, 9.947392
1126433141350997, -0.6257231, 4.031906, 9.093923, 0.05999887, -0.0013103485, 9.967127
1126433150990476, -0.6233303, 4.046263, 9.15135, 0.055346847, 0.00869441, 10.025212
1126433160629851, -0.6017949, 4.0642095, 9.18485, 0.03215456, 0.016149998, 10.061814
1126433170269330, -0.5814559, 4.072584, 9.202796, 0.013013959, 0.025591135, 10.080412
1126433179908809, -0.57547385, 4.0701914, 9.1872425, 0.006362915, 0.024019003, 10.064913
1126433189548289, -0.54436713, 4.0761733, 9.158528, -0.027389169, 0.02225256, 10.03937
1126433199187664, -0.56829536, 4.058227, 9.144172, 5.700588E-4, 0.020962715, 10.020358
1126433208827143, -0.56590253, 4.0701914, 9.164511, -0.0039856434, 0.02027297, 10.043631
1126433218466622, -0.53359944, 4.058227, 9.169296, -0.027213931, 0.046490192, 10.041266
1126433228106101, -0.4989035, 4.063013, 9.160921, -0.06333852, 0.056301594, 10.033559
1126433237745580, -0.5312066, 4.071388, 9.116654, -0.044308186, 0.017887592, 9.998476
1126433247384955, -0.552742, 4.0941195, 9.032906, -0.05071366, -0.038501024, 9.932607
1126433257024434, -0.5910272, 4.0869412, 8.956335, -0.025997639, -0.07709336, 9.862135
1126433266663914, -0.59940207, 4.0474596, 8.945567, -0.003476262, -0.051008224, 9.836757
1126433276303393, -0.5802595, 4.034299, 8.977871, -0.008799553, -0.01795721, 9.859718
1126433285942872, -0.56350976, 4.0163527, 9.031709, -0.005890131, 0.025238276, 9.900492
1126433295582247, -0.54675996, 4.0331025, 9.072387, -0.022837281, 0.03504467, 9.943407
1126433305221726, -0.55034924, 4.0498524, 9.110672, -0.018940687, 0.03418994, 9.985341
1126433314861205, -0.5371887, 4.0773697, 9.127422, -0.0378505, 0.023544788, 10.011063
1126433324500684, -0.5347959, 4.1180477, 9.110672, -0.058514237, -0.0148899555, 10.012243
1126433334140164, -0.54436713, 4.1204405, 9.09153, -0.053916454, -0.028226614, 9.996328
1126433343779539, -0.51206404, 4.125226, 9.072387, -0.08765948, -0.025001287, 9.978958
1126433353419018, -0.5024927, 4.112066, 9.036494, -0.09672022, -0.022930145, 9.940319
1126433363058497, -0.48095736, 4.1036906, 8.991031, -0.11987853, -0.020909548, 9.894213
1126433372697976, -0.5204389, 4.1312084, 8.971889, -0.0979563, -0.06722689, 9.89032
1126433382337455, -0.5623133, 4.133601, 8.983852, -0.059911966, -0.0824275, 9.904651
1126433391976830, -0.60658056, 4.082155, 8.975478, -5.5217743E-4, -0.060389757, 9.878639
1126433401616309, -0.6891329, 4.031906, 9.008977, 0.099222064, -0.043864727, 9.893485
1126433411255789, -0.71425754, 3.987639, 9.048459, 0.1429379, -0.00414443, 9.912901
1126433420895268, -0.69152576, 3.9684963, 9.073584, 0.13144457, 0.02945733, 9.926679
1126433430534747, -0.6664011, 3.95055, 9.102298, 0.11880767, 0.06275368, 9.9440775
1126433440174226, -0.6305088, 3.9984066, 9.159725, 0.07440412, 0.06269503, 10.013783
1126433449813601, -0.6017949, 4.040281, 9.160921, 0.028475642, 0.040421724, 10.030257
1126433459453080, -0.58504516, 4.0965123, 9.140582, -0.016980648, -0.005421877, 10.033625
1126433469092559, -0.6221339, 4.0869412, 9.12144, 0.015153766, -0.023199081, 10.014493
1126433478732039, -0.65324056, 4.0737805, 9.092726, 0.043900013, -0.039058685, 9.984821
1126433488371518, -0.71425754, 4.0187454, 9.114262, 0.123672366, -0.015843868, 9.985726
1126433498010893, -0.75613195, 3.9804604, 9.11785, 0.17571783, -0.0032584667, 9.975975
1126433507650372, -0.7645068, 3.991228, 9.135797, 0.17712152, -0.0101623535, 9.997284
1126433517289851, -0.721436, 3.9768713, 9.164511, 0.14698148, 0.032227278, 10.015067
1126433526929330, -0.66041905, 4.005585, 9.162118, 0.079386234, 0.039762974, 10.020847
1126433536568809, -0.5910272, 4.0558343, 9.140582, -0.010344744, 0.023823738, 10.01742
1126433546208289, -0.5563313, 4.0869412, 9.084352, -0.06437898, -0.0041763783, 9.9766655
1126433555847664, -0.552742, 4.0965123, 9.014959, -0.08063042, -0.03323984, 9.917097
1126433565487143, -0.58624154, 4.066602, 8.991031, -0.03887391, -0.034022093, 9.885187
1126433575126622, -0.634098, 4.0366917, 8.95155, 0.011079311, -0.048257828, 9.839957
1126433584766101, -0.6999006, 4.024728, 8.937193, 0.07090902, -0.072546005, 9.826058
1126433594405580, -0.72023964, 4.004389, 8.959925, 0.101302505, -0.057281733, 9.8397455
1126433604045059, -0.70588267, 3.993621, 9.042477, 0.10258448, -0.0090518, 9.909744
1126433613684539, -0.64845496, 3.993621, 9.09153, 0.052425146, 0.03387165, 9.950955
1126433623323914, -0.5922236, 4.0091743, 9.119047, -1.0728836E-5, 0.058042288, 9.978869
1126433632963393, -0.5192425, 4.046263, 9.113065, -0.08395445, 0.056602, 9.983965
