timestamp_acc,device_acc_x,device_acc_y,device_acc_z,earth_acc_x,earth_acc_y,earth_acc_z
1126709719490592, 0.7812566, 4.8382874, 8.770891, 0.08151293, -0.059325695, 10.04678
1126709729129863, 0.83030945, 4.84068, 8.756535, 0.03192848, -0.06607771, 10.0395775
1126709738769238, 0.8362915, 4.8382874, 8.690732, 0.021031141, -0.0954752, 9.981367
1126709748408509, 0.8602197, 4.8251266, 8.628518, -0.008176863, -0.10940027, 9.922757
1126709758047780, 0.8458628, 4.8155556, 8.567501, 0.0025407076, -0.12001848, 9.8637085
1126709767687155, 0.7680961, 4.779663, 8.507681, 0.07386762, -0.117492676, 9.787571
1126709777326426, 0.7908279, 4.761717, 8.529217, 0.053493023, -0.08463335, 9.799841
1126709786965801, 0.84825563, 4.766503, 8.568698, -6.041527E-4, -0.07011938, 9.841584
1126709796605072, 0.910469, 4.7653065, 8.612965, -0.05979836, -0.048068047, 9.885058
1126709806244342, 0.991825, 4.7509494, 8.673982, -0.13631183, -0.009522915, 9.938538
1126709815883717, 0.9942178, 4.7222357, 8.749356, -0.1343602, 0.05145359, 9.990922
1126709825522988, 0.9846465, 4.685147, 8.7780695, -0.12209803, 0.09458065, 9.997539
1126709835162259, 0.9272188, 4.6504507, 8.8187475, -0.061680496, 0.1369381, 10.011703
1126709844801634, 0.8470592, 4.5966125, 8.845069, 0.017675161, 0.1981206, 10.002102
1126709854440905, 0.86141616, 4.5631127, 8.855837, -1.9407272E-4, 0.22704172, 9.996918
1126709864080280, 0.9272188, 4.587041, 8.851051, -0.06367725, 0.20278788, 10.009828
1126709873719551, 0.971486, 4.6205406, 8.8187475, -0.10813117, 0.1558299, 10.001376
1126709883358822, 0.99900347, 4.631308, 8.793623, -0.134444, 0.13539219, 9.986914
1126709892998197, 0.94755775, 4.642076, 8.782856, -0.084802985, 0.12013388, 9.978161
1126709902637467, 0.8865408, 4.6755753, 8.785249, -0.019402742, 0.09368372, 9.990916
1126709912276738, 0.87218386, 4.7078786, 8.792427, -0.0011162758, 0.06933355, 10.011333
1126709921916113, 0.8997013, 4.7198424, 8.79123, -0.027629554, 0.0577693, 10.018383
1126709931555384, 0.9200403, 4.759324, 8.756535, -0.047807753, 0.00629282, 10.008608
1126709941194759, 0.8853444, 4.7712884, 8.742178, -0.012507379, -0.007305622, 9.998724
1126709950834030, 0.83389866, 4.776074, 8.707481, 0.036496997, -0.027536869, 9.966164
1126709960473301, 0.7513463, 4.7772703, 8.660822, 0.11428243, -0.04338503, 9.9187565
1126709970112676, 0.73579293, 4.786842, 8.642876, 0.12867188, -0.060865402, 9.906276
1126709979751947, 0.74177504, 4.8394837, 8.596215, 0.11931956, -0.12569523, 9.891194
1126709989391217, 0.80159557, 4.9052863, 8.597412, 0.0588063, -0.17697, 9.929004
1126709999030592, 0.8279166, 4.918447, 8.626125, 0.036065996, -0.17458153, 9.962671
1126710008669863, 0.82911307, 4.9471607, 8.642876, 0.037432373, -0.18878794, 9.9912
1126710018309238, 0.802792, 4.9519463, 8.683554, 0.06836468, -0.16861773, 10.026825
1126710027948509, 0.78843504, 4.962714, 8.699107, 0.08594498, -0.16760159, 10.044359
1126710037587780, 0.7896315, 4.9340005, 8.669196, 0.081047565, -0.15690851, 10.004581
1126710047227155, 0.8147561, 4.907679, 8.6548395, 0.053922802, -0.13684225, 9.98167
1126710056866426, 0.8422736, 4.867001, 8.630911, 0.021701336, -0.11370373, 9.94366
1126710066505697, 0.849452, 4.831109, 8.612965, 0.01175648, -0.08846331, 9.9114275
1126710076145072, 0.8542377, 4.8119664, 8.610572, 0.0060852766, -0.07270002, 9.900575
1126710085784342, 0.85064846, 4.7892346, 8.616554, 0.008703768, -0.050494194, 9.894583
1126710095423717, 0.84107715, 4.7605205, 8.635697, 0.017970622, -0.01616335, 9.896699
1126710105062988, 0.8650054, 4.725825, 8.656036, -0.0051478148, 0.019164085, 9.899911
1126710114702259, 0.92602235, 4.718646, 8.734999, -0.058246195, 0.059117794, 9.970779
1126710124341634, 0.9559326, 4.725825, 8.7984085, -0.07947308, 0.07806444, 10.032289
1126710133980905, 0.9487542, 4.6695933, 8.85823, -0.0699265, 0.15597677, 10.057051
1126710143620176, 0.9343972, 4.6695933, 8.907282, -0.046007335, 0.16889, 10.098873
1126710153259551, 0.90807617, 4.634897, 8.897711, -0.022352815, 0.19490147, 10.071625
1126710162898822, 0.9200403, 4.618148, 8.853444, -0.03743148, 0.18216515, 10.026098
1126710172538197, 0.99900347, 4.6325045, 8.788837, -0.118686974, 0.13734245, 9.983427
1126710182177467, 1.0073783, 4.6325045, 8.738588, -0.124890685, 0.11271095, 9.940298
1126710191816738, 1.0073783, 4.633701, 8.677571, -0.1253699, 0.083729744, 9.887545
1126710201456113, 0.96789676, 4.618148, 8.648857, -0.08953726, 0.08351183, 9.85149
1126710211095384, 0.90329057, 4.618148, 8.615358, -0.022417724, 0.071045876, 9.816418
1126710220734655, 0.86859465, 4.6121655, 8.566305, 0.008567691, 0.05317402, 9.767559
1126710230374030, 0.8446664, 4.62413, 8.578269, 0.033957183, 0.04977131, 9.7815695
1126710240013301, 0.8805587, 4.6935215, 8.628518, 0.001143992, 0.016429901, 9.861825
1126710249652676, 0.9092726, 4.7210393, 8.673982, -0.02560544, 0.018622398, 9.917255
1126710259291947, 0.96430755, 4.76411, 8.671589, -0.08112836, -0.0133013725, 9.9406395
1126710268931217, 0.9296116, 4.8454657, 8.647661, -0.046403646, -0.08800697, 9.955646
1126710278570592, 0.86261255, 4.8885365, 8.641679, 0.016739488, -0.11917353, 9.96524
1126710288209863, 0.7680961, 4.910072, 8.672786, 0.109609246, -0.11491966, 9.994538
1126710297849134, 0.8003992, 4.9340005, 8.629715, 0.069089115, -0.15112686, 9.971428
1126710307488509, 0.86859465, 4.989035, 8.687142, 0.00842315, -0.17143393, 10.05395
1126710317127780, 0.8757731, 4.995017, 8.729017, -1.680851E-4, -0.1516056, 10.094055
1126710326767051, 0.83389866, 4.948357, 8.779266, 0.04424888, -0.08631992, 10.111763
1126710336406426, 0.8003992, 4.912465, 8.817552, 0.07932484, -0.037497997, 10.124942
1126710346045697, 0.7680961, 4.892126, 8.830712, 0.11157483, -0.013690472, 10.123818
1126710355685072, 0.76331043, 4.851448, 8.823533, 0.11455047, 0.016300201, 10.097551
1126710365324342, 0.80518484, 4.8263235, 8.770891, 0.067121804, 0.014719009, 10.043182
1126710374963613, 0.863809, 4.8119664, 8.708678, 0.0032882094, -0.0023818016, 9.987104
1126710384602988, 0.90329057, 4.784449, 8.666803, -0.03709191, 0.006196499, 9.940774
1126710394242259, 0.9068798, 4.7581277, 8.618947, -0.045478284, 0.0057635307, 9.886676
1126710403881530, 0.86979103, 4.727021, 8.58784, -0.009648979, 0.020045757, 9.841329
1126710413520905, 0.849452, 4.705486, 8.58784, 0.011573851, 0.039925575, 9.829163
1126710423160176, 0.8350951, 4.6839504, 8.626125, 0.029212952, 0.07726383, 9.850889
1126710432799447, 0.78723866, 4.668397, 8.658429, 0.07760215, 0.10762215, 9.867343
1126710442438822, 0.81595254, 4.6731825, 8.530413, 0.04027176, 0.040893555, 9.760588
1126710452078092, 0.87218386, 4.729414, 8.556734, -0.0126084685, 0.009356022, 9.815575
1126710461717363, 0.9499506, 4.7784667, 8.504091, -0.091038585, -0.060246944, 9.800192
1126710471356738, 1.0157533, 4.7832522, 8.518449, -0.15726751, -0.05020666, 9.820793
1126710480996009, 1.0217353, 4.8251266, 8.53161, -0.16004288, -0.080471516, 9.853024
1126710490635280, 1.0037891, 4.807181, 8.513663, -0.14411479, -0.07150984, 9.827164
1126710500274655, 0.9834501, 4.81077, 8.568698, -0.11972964, -0.045990944, 9.875061
1126710509913926, 0.9164511, 4.813163, 8.640483, -0.048460484, -0.012218952, 9.932867
1126710519553301, 0.863809, 4.8119664, 8.7577305, 0.008055508, 0.037296295, 10.029835
1126710529192572, 0.8386843, 4.831109, 8.872586, 0.04104626, 0.07734442, 10.136969
1126710538831842, 0.7932207, 4.8358946, 8.953942, 0.09001902, 0.10687494, 10.206305
1126710548471113, 0.8219346, 4.8191447, 8.993423, 0.061770618, 0.12811708, 10.2352915
1126710558110488, 0.8673982, 4.833502, 9.014959, 0.019523025, 0.12132025, 10.264964
1126710567749759, 0.8315059, 4.8251266, 8.977871, 0.052295327, 0.11130762, 10.2254715
1126710577389134, 0.74536425, 4.79402, 8.902496, 0.13329738, 0.10113478, 10.13729
1126710587028405, 0.6723832, 4.7832522, 8.812766, 0.19890895, 0.07048035, 10.047482
1126710596667676, 0.6795616, 4.8119664, 8.703893, 0.1853584, -0.007879257, 9.966952
1126710606307051, 0.73459655, 4.853841, 8.608179, 0.12591732, -0.0876627, 9.908411
1126710615946322, 0.79441714, 4.9375896, 8.519645, 0.06501955, -0.19431162, 9.876906
1126710625585592, 0.8865408, 4.989035, 8.465807, -0.02588129, -0.25929022, 9.862983
1126710635224863, 0.8997013, 4.999803, 8.438289, -0.038092375, -0.27624035, 9.84553
1126710644864238, 0.9020941, 5.0069814, 8.411968, -0.04408747, -0.29501104, 9.826284
1126710654503509, 0.9343972, 4.974678, 8.376076, -0.071195126, -0.27902603, 9.782446
1126710664142780, 0.9391829, 4.95075, 8.458628, -0.07366693, -0.2170105, 9.843163
1126710673782155, 0.9212367, 4.88734, 8.53161, -0.041531682, -0.13211441, 9.874409
1126710683421426, 0.7800602, 4.7892346, 8.645268, 0.10465157, 0.007762909, 9.91337
1126710693060697, 0.73818576, 4.7174497, 8.689535, 0.14991254, 0.08781433, 9.913481
1126710702700072, 0.80997044, 4.703093, 8.733803, 0.08201569, 0.116033554, 9.951595
1126710712339342, 0.91166544, 4.7102714, 8.734999, -0.02035278, 0.10335636, 9.965284
1126710721978613, 1.0157533, 4.7306104, 8.740981, -0.123250306, 0.08741617, 9.989613
1126710731617988, 1.0636097, 4.743771, 8.740981, -0.17046654, 0.07405615, 10.000243
1126710741257259, 1.006182, 4.7401814, 8.737391, -0.11220288, 0.07417488, 9.990277
1126710750896530, 0.94755775, 4.755735, 8.76491, -0.04986447, 0.07276201, 10.016524
1126710760535905, 0.8817552, 4.301099, 8.712267, -0.019428372, 0.44613075, 9.745828
1126710770175176, 1.0516455, 5.2869415, 8.925228, -0.103634655, -0.32148314, 10.421291
1126710779814447, 0.9391829, 4.0414777, 8.766106, -0.087387025, 0.6838496, 9.673931
1126710789453822, 0.95712906, 5.2031927, 8.949157, -4.0620565E-4, -0.24300241, 10.393156
1126710799093092, 0.8817552, 4.26401, 8.837891, -0.0077996254, 0.51953006, 9.838578
1126710808732363, 0.7429714, 4.8095737, 8.754142, 0.17435744, 0.00873661, 10.014416
1126710818371634, 1.0109676, 4.7856455, 8.720642, -0.09415072, -0.0030474663, 9.998259
1126710828011009, 0.8889336, 4.4434714, 8.4347, -0.014318228, 0.17408371, 9.573311
1126710837650280, 1.2370893, 5.3312087, 8.629715, -0.27406758, -0.5224948, 10.201765
1126710847289551, 0.9236295, 4.145565, 8.315059, -0.067552745, 0.38905025, 9.328616
1126710856928926, 1.0803595, 5.5369916, 8.623733, -0.11282742, -0.6804991, 10.281945
1126710866568197, 0.8542377, 4.1108694, 8.382058, 0.009407043, 0.4584539, 9.363631
1126710876207467, 0.89371926, 5.406583, 8.599805, 0.06513375, -0.5693736, 10.181261
1126710885846842, 0.91525465, 4.3992043, 8.577073, -0.019136846, 0.29020762, 9.678445
1126710895486113, 0.82313097, 5.0620165, 8.6548395, 0.11563134, -0.25180244, 10.056393
1126710905125384, 0.9738788, 4.9232326, 8.776874, -0.032687128, -0.07359314, 10.11008
1126710914764655, 0.7082755, 4.54397, 8.578269, 0.19395322, 0.16658306, 9.729883
1126710924404030, 0.9810573, 5.337191, 8.834301, -0.01151669, -0.4051094, 10.359957
1126710934043301, 0.7405786, 4.194618, 8.565108, 0.1351968, 0.4728086, 9.553143
1126710943682572, 0.9846465, 5.5597234, 8.849854, -0.00884819, -0.58684874, 10.481197
1126710953321842, 0.7908279, 4.109673, 8.529217, 0.084911704, 0.5209532, 9.485977
1126710962961217, 0.8662018, 5.465207, 8.691928, 0.08930212, -0.5748596, 10.287369
1126710972600488, 0.87338024, 4.3872404, 8.575876, 0.017066836, 0.3035531, 9.667672
1126710982239759, 0.8207382, 5.1062837, 8.640483, 0.10573232, -0.29028368, 10.065298
1126710991879134, 1.0396814, 4.867001, 8.720642, -0.11725676, -0.03929043, 10.040067
1126711001518405, 0.81834537, 4.6002016, 8.569894, 0.07838452, 0.12221193, 9.759793
1126711011157676, 1.0540384, 5.2630134, 8.807981, -0.1012606, -0.34490776, 10.308329
1126711020796947, 0.7429714, 4.106084, 8.568698, 0.12569416, 0.5546243, 9.513732
1126711030436322, 1.0277174, 5.4293146, 8.935996, -0.04844773, -0.42921257, 10.497576
1126711040075592, 0.79920274, 3.973282, 8.665607, 0.060412943, 0.70656085, 9.540209
1126711049714863, 0.9296116, 5.3336015, 8.830712, 0.04378164, -0.41268206, 10.3499155
1126711059354134, 0.93559366, 4.174279, 8.657232, -0.055938244, 0.5249312, 9.64204
1126711068993509, 0.971486, 5.038088, 8.68475, -0.02493614, -0.21751022, 10.084795
1126711078632780, 1.1760724, 4.7210393, 8.670393, -0.25100297, 0.04868889, 9.938898
1126711088272051, 0.92602235, 4.6097727, 8.469396, -0.023577511, 0.055174828, 9.686825
1126711097911322, 1.1688938, 5.2331033, 8.659625, -0.20958954, -0.40009737, 10.175303
1126711107550697, 0.7920243, 4.176672, 8.38804, 0.075844884, 0.4011395, 9.394917
1126711117189967, 1.0348958, 5.432904, 8.730213, -0.058317363, -0.528944, 10.320895
1126711126829238, 0.79441714, 3.9888353, 8.520842, 0.082582176, 0.6275413, 9.420511
1126711136468509, 0.9846465, 5.4089756, 8.806784, -0.0013840199, -0.47217607, 10.37126
1126711146107884, 0.9403793, 4.180261, 8.705089, -0.03526956, 0.5446501, 9.687084
1126711155747155, 0.85184485, 5.0799623, 8.7984085, 0.10985285, -0.19618034, 10.192798
1126711165386426, 1.0001999, 4.6396832, 8.853444, -0.056799293, 0.20338488, 10.043205
1126711175025697, 0.8039884, 4.6265225, 8.670393, 0.122369766, 0.13279104, 9.858712
1126711184665072, 1.125823, 5.1900325, 8.775677, -0.16152126, -0.3118968, 10.251492
1126711194304342, 0.8542377, 4.2664027, 8.469396, 0.037228763, 0.36326718, 9.514685
1126711203943613, 1.0767702, 5.5537415, 8.751749, -0.094098985, -0.6292515, 10.401528
1126711213582884, 0.76689965, 4.130012, 8.435896, 0.11308128, 0.46629333, 9.411654
1126711223222259, 0.9164511, 5.5740805, 8.63809, 0.055968523, -0.68699026, 10.298144
1126711232861530, 0.8530413, 4.351348, 8.500503, 0.041195095, 0.3172834, 9.582175
1126711242500801, 0.8913264, 5.3072805, 8.648857, 0.06764114, -0.45596075, 10.176048
1126711252140072, 1.0277174, 4.761717, 8.7469635, -0.092870295, 0.066502094, 10.011317
1126711261779447, 0.7812566, 4.8035913, 8.665607, 0.14898336, -0.0023622513, 9.937576
1126711271418717, 0.99661064, 5.1613183, 8.867801, -0.027918994, -0.22689104, 10.306215
1126711281057988, 0.7118647, 4.2329035, 8.63809, 0.18699056, 0.47389293, 9.632306
1126711290697259, 1.0348958, 5.410172, 8.930014, -0.047512293, -0.42229366, 10.483584
1126711300336530, 0.82313097, 4.0211387, 8.566305, 0.054005146, 0.6197603, 9.478485
1126711309975905, 1.0169497, 5.4592247, 8.718249, -0.045756757, -0.5617962, 10.321215
1126711319615176, 0.90329057, 4.156333, 8.444271, -0.017264009, 0.44628835, 9.444432
1126711329254447, 0.8889336, 5.2426744, 8.499306, 0.051986516, -0.46410465, 10.014787
1126711338893717, 1.0205388, 4.599005, 8.566305, -0.104711175, 0.13188505, 9.774743
1126711348533092, 0.86141616, 4.743771, 8.532805, 0.057735145, -0.010935783, 9.800548
1126711358172363, 1.1389836, 5.070391, 8.809176, -0.17836112, -0.17436314, 10.224751
1126711367811634, 0.8602197, 4.2759743, 8.629715, 0.04578036, 0.43471026, 9.659442
1126711377450905, 1.0959128, 5.3970113, 9.013762, -0.09979135, -0.36303377, 10.556274
1126711387090176, 0.78843504, 3.9613178, 8.737391, 0.11455262, 0.7500448, 9.595832
1126711396729551, 1.0037891, 5.4424753, 8.967103, -0.0029549599, -0.43150902, 10.528574
1126711406368822, 0.9415757, 4.1084766, 8.682357, -0.040128887, 0.5959101, 9.632899
1126711416008092, 0.93559366, 5.2235317, 8.772088, 0.035242915, -0.34328938, 10.246514
1126711425647363, 0.991825, 4.503292, 8.690732, -0.0643065, 0.24768353, 9.834972
1126711435286634, 0.8315059, 4.8095737, 8.578269, 0.10351151, -0.06582689, 9.868893
1126711444926009, 1.0971092, 5.0416775, 8.691928, -0.14171708, -0.21433353, 10.104739
1126711454565280, 0.7920243, 4.354937, 8.426325, 0.1114763, 0.26040268, 9.513964
1126711464204551, 1.0959128, 5.4341, 8.744571, -0.117030025, -0.5282812, 10.339498
1126711473843822, 0.82672024, 4.1024942, 8.449057, 0.06753254, 0.50242376, 9.415067
1126711483483092, 1.0348958, 5.5513487, 8.72782, -0.043576002, -0.6404743, 10.375511
1126711493122467, 0.8925229, 4.1383867, 8.499306, -0.005197048, 0.48642898, 9.482848
1126711502761738, 0.930808, 5.326423, 8.664411, 0.045782685, -0.47311068, 10.202122
1126711512401009, 0.9667004, 4.5152564, 8.664411, -0.038446903, 0.2357161, 9.815142
1126711522040280, 0.81834537, 4.8969116, 8.641679, 0.13069409, -0.09937191, 9.964994
1126711531679551, 1.0612168, 4.9902315, 8.7469635, -0.09607071, -0.1391406, 10.124692
1126711541318822, 0.7692925, 4.382455, 8.504091, 0.13580257, 0.2816882, 9.59268
1126711550958197, 1.0971092, 5.363512, 8.7984085, -0.10880017, -0.4410224, 10.352612
1126711560597467, 0.8554341, 4.082155, 8.52443, 0.035387993, 0.55065846, 9.474029
1126711570236738, 1.079163, 5.5334024, 8.799605, -0.08412212, -0.5796819, 10.434227
1126711579876009, 0.8925229, 4.0977087, 8.566305, 0.0060685277, 0.56496334, 9.521039
1126711589515280, 0.9379865, 5.3180485, 8.71466, 0.041748345, -0.44018078, 10.24262
1126711599154655, 0.93679005, 4.4195433, 8.657232, -0.019688308, 0.32410693, 9.759722
1126711608793926, 0.80877405, 4.924429, 8.646464, 0.1390577, -0.12716055, 9.981482
1126711618433197, 1.0516455, 4.935197, 8.7577305, -0.095054805, -0.084386826, 10.106623
1126711628072467, 0.7788638, 4.4458647, 8.566305, 0.1301991, 0.25606847, 9.6784
1126711637711738, 1.1030912, 5.3766723, 8.879765, -0.10473478, -0.42093277, 10.430124
1126711647351009, 0.81954175, 4.104887, 8.632108, 0.06861764, 0.57857394, 9.575781
1126711656990384, 1.0612168, 5.5369916, 8.949157, -0.04839629, -0.52021074, 10.564037
1126711666629655, 0.8865408, 4.1001015, 8.653643, 0.006727755, 0.5858741, 9.598908
1126711676268926, 0.9822537, 5.3623157, 8.763713, 2.707839E-4, -0.46677637, 10.310386
1126711685908197, 0.9870393, 4.3728833, 8.677571, -0.058074594, 0.36693573, 9.760051
1126711695547467, 0.81236327, 4.955536, 8.620144, 0.14169931, -0.1744752, 9.973648
1126711705186738, 1.0492527, 4.814359, 8.682357, -0.09689689, -0.02125597, 9.982609
1126711714826113, 0.8207382, 4.415954, 8.449057, 0.0938285, 0.21944118, 9.565765
1126711724465384, 1.154537, 5.2701917, 8.717052, -0.17590714, -0.4030819, 10.242142
1126711734104655, 0.9212367, 4.101298, 8.445468, -0.026045024, 0.4953797, 9.420677
1126711743743926, 1.1784651, 5.483153, 8.785249, -0.1661179, -0.5545783, 10.406691
1126711753383197, 0.91166544, 4.022335, 8.525627, -0.02572447, 0.5945928, 9.452113
1126711763022467, 0.91166544, 5.359923, 8.711071, 0.089742035, -0.4747796, 10.2571535
1126711772661738, 0.8470592, 4.298706, 8.618947, 0.0667277, 0.40593004, 9.659885
1126711782301113, 0.82313097, 4.9842496, 8.672786, 0.14236292, -0.1663065, 10.03442
1126711791940384, 1.1042876, 4.800002, 8.713464, -0.1490233, -5.1498413E-5, 10.008082
1126711801579655, 0.92602235, 4.54397, 8.520842, -0.0039668083, 0.13794518, 9.700046
1126711811218926, 1.2191432, 5.306084, 8.79482, -0.2223993, -0.40347767, 10.333318
1126711820858197, 0.80877405, 4.121637, 8.539984, 0.09066862, 0.523396, 9.502165
1126711830497467, 1.0073783, 5.4891353, 8.874979, 0.010797799, -0.51327515, 10.471251
1126711840136842, 0.8003992, 4.0366917, 8.573483, 0.09232634, 0.61458635, 9.489674
1126711849776113, 0.92602235, 5.4317074, 8.763713, 0.06833011, -0.5246606, 10.338457
1126711859415384, 0.9056834, 4.3178487, 8.612965, 0.001907289, 0.37664366, 9.669817
1126711869054655, 0.83748794, 5.131408, 8.670393, 0.12863338, -0.30019665, 10.104544
1126711878693926, 1.0049855, 4.8622155, 8.72782, -0.054244637, -0.042644024, 10.0409775
1126711888333197, 0.7956135, 4.65404, 8.530413, 0.123761654, 0.053604603, 9.748992
1126711897972467, 1.1330016, 5.316852, 8.76132, -0.15515679, -0.4191265, 10.3011465
1126711907611842, 0.83988076, 4.2628136, 8.49452, 0.05266279, 0.37605453, 9.533606
1126711917251113, 1.0624132, 5.569295, 8.85464, -0.0655306, -0.58947706, 10.497555
1126711926890384, 0.8255238, 4.046263, 8.566305, 0.053110242, 0.60585856, 9.490281
1126711936529655, 0.930808, 5.473582, 8.779266, 0.05986023, -0.540679, 10.373336
1126711946168926, 0.8865408, 4.2448673, 8.612965, 0.0156181455, 0.44186735, 9.632888
1126711955808197, 0.83389866, 5.0799623, 8.65125, 0.113973916, -0.2629261, 10.062973
1126711965447467, 1.012164, 4.6959143, 8.676374, -0.08261609, 0.08150911, 9.9167595
1126711975086738, 0.80518484, 4.6205406, 8.523234, 0.10862291, 0.073150635, 9.727595
1126711984726113, 1.1066805, 5.15414, 8.739784, -0.14759022, -0.29025698, 10.201359
1126711994365384, 0.81954175, 4.1874394, 8.516056, 0.077510476, 0.4483695, 9.51433
1126712004004655, 1.0935199, 5.477171, 8.924032, -0.11611414, -0.4809723, 10.516118
1126712013643926, 0.83030945, 4.0067816, 8.682357, 0.08717275, 0.6798625, 9.573778
1126712023283197, 0.99302137, 5.444868, 8.941978, -0.014734805, -0.46718025, 10.505865
1126712032922467, 0.92602235, 4.1838503, 8.804391, -0.005111575, 0.57731175, 9.774769
1126712042561738, 0.87936234, 5.1290154, 8.878569, 0.08399415, -0.22658205, 10.288375
1126712052201113, 0.9846465, 4.6121655, 8.87139, -0.04329723, 0.22387362, 10.044459
1126712061840384, 0.7860422, 4.6265225, 8.693125, 0.14239311, 0.12968016, 9.877039
1126712071479655, 1.0827522, 5.1254263, 8.803194, -0.12044573, -0.25526857, 10.240064
1126712081118926, 0.77647096, 4.2125645, 8.484949, 0.10874885, 0.39490867, 9.496062
1126712090758197, 1.0875379, 5.444868, 8.750552, -0.09835094, -0.5544338, 10.348161
1126712100397467, 0.8422736, 4.0307097, 8.440681, 0.023001373, 0.53523946, 9.376255
1126712110036738, 1.0576276, 5.4592247, 8.659625, -0.07126886, -0.61333466, 10.2727585
1126712119676009, 0.971486, 4.141976, 8.493324, -0.09069842, 0.46830082, 9.487295
1126712129315384, 0.9391829, 5.1756754, 8.641679, 0.025331736, -0.36214876, 10.110218
1126712138954655, 1.0217353, 4.5451665, 8.687142, -0.093043625, 0.19932818, 9.854976
1126712148593926, 0.8171489, 4.6564326, 8.610572, 0.112719536, 0.07222271, 9.822125
1126712158233197, 1.0767702, 5.015356, 8.780462, -0.111868024, -0.17013979, 10.16702
1126712167872467, 0.81236327, 4.2508492, 8.516056, 0.08119422, 0.37726188, 9.544839
1126712177511738, 1.1365907, 5.4376893, 8.841479, -0.13936055, -0.5121908, 10.428341
1126712187151009, 0.8925229, 4.0570307, 8.5423765, -0.0032707453, 0.56745577, 9.481892
1126712196790384, 1.0827522, 5.5298133, 8.79482, -0.087646484, -0.60242176, 10.427342
1126712206429655, 0.9212367, 4.1754756, 8.584251, -0.023967922, 0.47524023, 9.578425
1126712216068926, 0.8781659, 5.276174, 8.723035, 0.09251094, -0.42116308, 10.223238
1126712225708197, 0.96550393, 4.5355954, 8.750552, -0.035874307, 0.24387503, 9.900264
1126712235347467, 0.7609176, 4.782056, 8.677571, 0.1752238, -0.00769186, 9.935619
1126712244986738, 1.0073783, 5.0344987, 8.817552, -0.047114074, -0.16687298, 10.201966
1126712254626009, 0.7106683, 4.2963133, 8.5423765, 0.18867838, 0.34730053, 9.5801525
1126712264265280, 0.991825, 5.4173503, 8.852247, -0.017133117, -0.48253345, 10.414439
1126712273904655, 0.7680961, 4.1024942, 8.52443, 0.11891419, 0.5175681, 9.476514
1126712283543926, 0.997807, 5.558527, 8.760123, -0.03582132, -0.65074635, 10.402301
1126712293183197, 0.9451649, 4.2017965, 8.502895, -0.060055196, 0.41377473, 9.522229
1126712302822467, 1.0013963, 5.3766723, 8.676374, -0.041707397, -0.52136993, 10.242914
1126712312461738, 1.0241281, 4.554738, 8.693125, -0.10192877, 0.20488095, 9.864712
1126712322101009, 0.7537391, 4.855037, 8.711071, 0.17985034, -0.04910326, 9.999376
1126712331740280, 0.96550393, 4.9363933, 8.908479, -0.010492504, -0.03738928, 10.230331
1126712341379551, 0.69152576, 4.298706, 8.690732, 0.20918727, 0.41955733, 9.709074
1126712351018926, 1.0372887, 5.322834, 8.9826565, -0.054392338, -0.341897, 10.486982
1126712360658197, 0.84347, 4.0067816, 8.659625, 0.032247543, 0.66072583, 9.5560055
1126712370297467, 1.105484, 5.485546, 8.859426, -0.12803376, -0.54029655, 10.46396
1126712379936738, 0.95712906, 4.082155, 8.516056, -0.072398305, 0.5339942, 9.476968
1126712389576009, 0.91166544, 5.3180485, 8.602198, 0.041395783, -0.50657177, 10.141609
1126712399215280, 0.9020941, 4.4458647, 8.500503, -0.009265363, 0.21666408, 9.632809
1126712408854551, 0.77407813, 4.9160542, 8.506484, 0.14336458, -0.19214535, 9.852391
1126712418493822, 1.0504491, 4.981857, 8.664411, -0.119754136, -0.17477942, 10.047361
1126712428133197, 0.78364944, 4.4662037, 8.534002, 0.10641235, 0.21699214, 9.660842
1126712437772467, 1.0971092, 5.3922257, 8.971889, -0.118514, -0.3854537, 10.51722
1126712447411738, 0.81595254, 4.06062, 8.709874, 0.06182754, 0.6507404, 9.622319
1126712457051009, 1.0875379, 5.4987063, 9.018549, -0.10295683, -0.45585012, 10.608221
1126712466690280, 0.9236295, 4.106084, 8.784052, -0.04374379, 0.65135336, 9.718355
1126712476329551, 0.9128618, 5.308477, 8.855837, 0.04658413, -0.37220097, 10.358495
1126712485968822, 0.87338024, 4.331009, 8.733803, 0.021227956, 0.43491745, 9.778045
1126712495608092, 0.80877405, 4.928018, 8.675179, 0.116904914, -0.11466932, 10.008566
1126712505247467, 1.018146, 4.8969116, 8.736196, -0.08886528, -0.06375313, 10.066058
1126712514886738, 0.73100734, 4.4398823, 8.5112705, 0.15562713, 0.23342514, 9.623405
1126712524526009, 1.0073783, 5.3204412, 8.815159, -0.047526598, -0.3935547, 10.337879
1126712534165280, 0.762114, 4.1467614, 8.554341, 0.110898465, 0.5131352, 9.522478
1126712543804551, 1.0444671, 5.5704913, 8.833105, -0.05813712, -0.6099124, 10.477101
1126712553443822, 0.8566305, 4.1383867, 8.5112705, 0.009457409, 0.50225234, 9.489438
1126712563083092, 0.9631111, 5.5130634, 8.608179, 0.011640549, -0.6597104, 10.246309
1126712572722363, 1.0408778, 4.49731, 8.476574, -0.14957982, 0.15952921, 9.649546
1126712582361738, 0.9451649, 5.144569, 8.447861, -0.012855828, -0.40477085, 9.927853
1126712592001009, 1.0947163, 4.914858, 8.580662, -0.16507709, -0.14520645, 9.946541
1126712601640280, 0.8207382, 4.5128636, 8.435896, 0.0713557, 0.1472125, 9.600893
1126712611279551, 1.0289137, 5.227121, 8.7984085, -0.059251487, -0.31403255, 10.280628
1126712620918822, 0.6867401, 3.9984066, 8.627322, 0.18637279, 0.6861696, 9.50705
1126712630558092, 0.9164511, 5.375476, 8.9826565, 0.0752095, -0.36402273, 10.501694
1126712640197363, 0.74416786, 3.9433718, 8.675179, 0.12298533, 0.7495177, 9.528159
1126712649836738, 0.96789676, 5.3503513, 8.822337, 0.0015342236, -0.41445065, 10.354949
1126712659476009, 1.0612168, 4.301099, 8.664411, -0.16478813, 0.41597533, 9.720981
1126712669115280, 1.0013963, 5.09073, 8.715857, -0.058799922, -0.2446208, 10.140079
1126712678754551, 1.154537, 4.8251266, 8.775677, -0.2206412, 0.0137319565, 10.078613
1126712688393822, 0.84107715, 4.5726843, 8.617751, 0.06860256, 0.16538, 9.790323
1126712698033092, 1.0360922, 5.235496, 8.895318, -0.06776577, -0.28802013, 10.369333
1126712707672363, 0.72382885, 4.1228333, 8.672786, 0.16586775, 0.5812166, 9.611118
1126712717311634, 1.0277174, 5.465207, 9.052048, -0.04089278, -0.41060114, 10.615745
1126712726951009, 0.83748794, 4.0067816, 8.76132, 0.06202197, 0.7135906, 9.643826
1126712736590280, 0.9559326, 5.430511, 8.916854, 0.026358306, -0.46150494, 10.473818
1126712746229551, 0.90448695, 4.26401, 8.693125, 0.0031298995, 0.4526353, 9.714187
1126712755868822, 0.83988076, 5.103891, 8.663215, 0.1070084, -0.28411865, 10.085347
1126712765508092, 1.0133604, 4.7629137, 8.628518, -0.086361825, -0.006365299, 9.907374
1126712775147363, 0.7956135, 4.6767716, 8.425129, 0.11018115, -0.017788887, 9.668274
1126712784787027, 1.0480564, 5.2462635, 8.632108, -0.08846831, -0.41630125, 10.146619
1126712794426402, 0.73579293, 4.2508492, 8.394022, 0.1394957, 0.35182834, 9.430138
1126712804065673, 1.079163, 5.568098, 8.796016, -0.08024764, -0.62158203, 10.447267
1126712813704944, 0.88414794, 4.150351, 8.575876, 0.0047103763, 0.52326035, 9.554003
1126712823344215, 1.018146, 5.578866, 8.841479, -0.014678538, -0.59865093, 10.486828
1126712832983485, 0.90329057, 4.3154554, 8.676374, 0.0052215457, 0.4172001, 9.723399
1126712842622756, 0.84347, 5.2235317, 8.763713, 0.12953085, -0.32330704, 10.23123
1126712852262027, 0.9774681, 4.7401814, 8.770891, -0.032786667, 0.09361696, 10.017157
1126712861901402, 0.7609176, 4.706682, 8.554341, 0.16364688, 0.025382519, 9.791893
1126712871540673, 1.0695918, 5.1732826, 8.73141, -0.106251, -0.2959566, 10.200272
1126712881179944, 0.8147561, 4.2185464, 8.422736, 0.0846706, 0.39481878, 9.44666
1126712890819215, 1.0875379, 5.460421, 8.748159, -0.10970944, -0.5319867, 10.355393
1126712900458485, 0.8554341, 4.017549, 8.489735, 0.04217851, 0.59758973, 9.412184
1126712910097756, 1.0683953, 5.460421, 8.750552, -0.08745289, -0.5420456, 10.355113
1126712919737131, 0.97866446, 4.1671004, 8.590233, -0.06236577, 0.5125258, 9.583739
1126712929376402, 0.9487542, 5.178068, 8.736196, 0.022920966, -0.295362, 10.195385
1126712939015673, 1.0743774, 4.5894337, 8.772088, -0.12274933, 0.23084831, 9.954815
1126712948654944, 0.86261255, 4.6576295, 8.633304, 0.077076435, 0.10335541, 9.846568
1126712958294215, 1.1389836, 5.0536413, 8.803194, -0.16186762, -0.17049646, 10.211637
1126712967933485, 0.86979103, 4.2125645, 8.571091, 0.04056233, 0.45971298, 9.578772
1126712977572756, 1.14018, 5.3946185, 8.895318, -0.13077074, -0.42887926, 10.455983
1126712987212131, 0.84107715, 3.9673, 8.580662, 0.05419129, 0.6725309, 9.466753
1126712996851402, 1.0013963, 5.4221363, 8.801998, 0.003326118, -0.487247, 10.374976
1126713006490673, 0.91884387, 4.1072803, 8.596215, -0.014731705, 0.55357957, 9.555223
1126713016129944, 0.9391829, 5.191229, 8.702696, 0.04255849, -0.33488178, 10.171227
1126713025769215, 1.0612168, 4.5248275, 8.702696, -0.123550415, 0.24011922, 9.862265
1126713035408485, 0.9020941, 4.770092, 8.616554, 0.04871279, -0.014215946, 9.889894
1126713045047860, 1.1353943, 5.0679984, 8.740981, -0.15427059, -0.21991777, 10.163972
1126713054687131, 0.77766734, 4.298706, 8.484949, 0.13144815, 0.34284472, 9.536414
1126713064326402, 1.0348958, 5.4388857, 8.790034, -0.028992414, -0.5164032, 10.375435
1126713073965673, 0.77407813, 4.0905304, 8.523234, 0.114439845, 0.5482087, 9.469083
1126713083604944, 1.0013963, 5.564509, 8.841479, 0.018070757, -0.59119415, 10.478
1126713093244215, 0.930808, 4.210171, 8.618947, -0.036494017, 0.48317194, 9.625146
1126713102883590, 0.95712906, 5.3766723, 8.805588, 0.041216075, -0.4452877, 10.351962
1126713112522860, 0.97507524, 4.5930233, 8.805588, -0.036643445, 0.2286954, 9.9765415
1126713122162131, 0.72023964, 4.8490553, 8.763713, 0.2348974, -0.0016098022, 10.038903
1126713131801402, 0.9667004, 5.026124, 8.882157, 0.0092407465, -0.10622597, 10.250748
1126713141440673, 0.74536425, 4.3764725, 8.592627, 0.15761873, 0.33449078, 9.664657
1126713151080048, 1.0827522, 5.4460645, 8.855837, -0.07436484, -0.4870968, 10.441027
1126713160719319, 0.8255238, 4.1180477, 8.508878, 0.051172495, 0.51346993, 9.474944
1126713170358590, 1.0624132, 5.5980086, 8.742178, -0.057518423, -0.6683302, 10.413555
1126713179997860, 0.8709874, 4.2006, 8.484949, 0.01873374, 0.4323423, 9.497934
1126713189637131, 0.87936234, 5.395815, 8.650054, 0.103639424, -0.52008295, 10.219116
1126713199276402, 0.9403793, 4.53081, 8.648857, -0.013622403, 0.22418904, 9.806368
1126713208915777, 0.83748794, 4.928018, 8.646464, 0.11223656, -0.11752415, 9.986076
1126713218555048, 1.0911272, 5.0069814, 8.815159, -0.12353033, -0.11256838, 10.195074
1126713228194319, 0.8135597, 4.4004006, 8.563912, 0.10724044, 0.29512334, 9.657505
1126713237833590, 1.1306087, 5.343173, 8.860622, -0.14340836, -0.3849945, 10.400465
1126713247472860, 0.91405827, 4.048656, 8.562716, -0.0031135082, 0.59785914, 9.496829
1126713257112131, 1.1916257, 5.517849, 8.805588, -0.19350755, -0.57061625, 10.442316
1126713266751506, 0.9631111, 4.0534415, 8.506484, -0.058659554, 0.5771704, 9.454189
1126713276390777, 0.9176475, 5.259424, 8.658429, 0.060422957, -0.40339184, 10.163938
1126713286030048, 0.910469, 4.2867417, 8.598608, 0.01489526, 0.41366434, 9.642087
1126713295669319, 0.8327023, 4.837091, 8.644072, 0.12182641, -0.053928852, 9.939469
1126713305308590, 1.1413764, 4.85743, 8.8187475, -0.17083079, 0.008350849, 10.131062
1126713314947965, 0.93679005, 4.377669, 8.6548395, -0.0043537617, 0.3489957, 9.737865
1126713324587235, 1.2191432, 5.3096733, 8.945567, -0.21105891, -0.33167315, 10.4664955
1126713334226506, 0.8650054, 4.106084, 8.660822, 0.054060936, 0.5887377, 9.605647
1126713343865777, 1.0025927, 5.5274205, 8.927621, 0.01810962, -0.52710867, 10.534791
1126713353505048, 0.7704889, 4.0642095, 8.6141615, 0.13912112, 0.59714246, 9.536211
1126713363144423, 0.8913264, 5.424529, 8.742178, 0.10317922, -0.5269685, 10.312969
1126713372783694, 0.9559326, 4.4434714, 8.581859, -0.029265225, 0.26356626, 9.707535
1126713382422965, 0.8554341, 5.056034, 8.610572, 0.1012879, -0.25823689, 10.017997
1126713392062235, 1.0683953, 4.907679, 8.732606, -0.107801616, -0.07402372, 10.073138
1126713401701506, 0.77647096, 4.557131, 8.516056, 0.14509636, 0.13526511, 9.687839
1126713411340881, 1.1042876, 5.3611193, 8.810373, -0.11220646, -0.43369532, 10.362577
1126713420980152, 0.8673982, 4.1850467, 8.559127, 0.03616923, 0.48157597, 9.554707
1126713430619423, 1.0863415, 5.5716877, 8.9013, -0.07095039, -0.5682001, 10.5417795
1126713440258694, 0.87338024, 4.092923, 8.629715, 0.03125757, 0.58670974, 9.572962
1126713449897965, 0.94636136, 5.395815, 8.823533, 0.054276526, -0.46199226, 10.375394
1126713459537340, 0.91405827, 4.3298125, 8.695518, 0.005369246, 0.41773725, 9.747835
1126713469176610, 0.78723866, 5.0596237, 8.702696, 0.18434983, -0.21903753, 10.09329
1126713478815881, 0.9451649, 4.8251266, 8.691928, 0.011601388, -0.02217722, 9.986199
1126713488455152, 0.7178468, 4.551149, 8.459825, 0.20194304, 0.114572525, 9.630317
1126713498094527, 1.1318051, 5.2905307, 8.658429, -0.15796542, -0.43483448, 10.199266
1126713507733798, 0.8853444, 4.213761, 8.359326, 0.011282265, 0.36229563, 9.396094
1126713517373069, 1.1916257, 5.5908303, 8.737391, -0.19738477, -0.65784407, 10.41862
1126713527012340, 0.96789676, 4.1084766, 8.489735, -0.060658097, 0.5269556, 9.46629
1126713536651715, 1.0552348, 5.487939, 8.733803, -0.06432849, -0.56080246, 10.353342
1126713546290985, 0.96909314, 4.3118663, 8.7015, -0.04030609, 0.4430895, 9.749332
1126713555930256, 0.8458628, 5.0476594, 8.79123, 0.13148642, -0.15512133, 10.170483
1126713565569527, 0.97507524, 4.692325, 8.946764, -0.006216824, 0.21564627, 10.147254
1126713575208798, 0.7848458, 4.536792, 8.76132, 0.15582395, 0.26727986, 9.892597
1126713584848173, 1.0959128, 5.150551, 8.924032, -0.09741658, -0.20412493, 10.359364
1126713594487444, 0.79800636, 4.1371903, 8.626125, 0.09248036, 0.5518265, 9.583846
1126713604126715, 1.1282159, 5.4867425, 8.866604, -0.1066404, -0.529089, 10.4739
1126713613765985, 0.930808, 4.0594234, 8.5220375, -0.05088818, 0.55735254, 9.468749
1126713623405360, 1.0671989, 5.4963136, 8.719446, -0.056123435, -0.59391356, 10.345107
1126713633044631, 1.0025927, 4.278367, 8.573483, -0.09636009, 0.39189792, 9.625559
1126713642683902, 0.9595219, 5.1409793, 8.675179, 0.023062944, -0.30031204, 10.125135
1126713652323173, 1.0851451, 4.7114677, 8.784052, -0.12234795, 0.115893364, 10.025301
1126713661962548, 0.8111669, 4.6408796, 8.639286, 0.13882712, 0.11228514, 9.838757
1126713671601819, 1.0504491, 5.139783, 8.855837, -0.050024927, -0.22898006, 10.290371
1126713681241090, 0.7190432, 4.159922, 8.6141615, 0.18545344, 0.5258069, 9.576789
1126713690880360, 1.0205388, 5.4341, 8.915657, 0.015450299, -0.45315218, 10.48114
1126713700519631, 0.849452, 4.037888, 8.605786, 0.0384748, 0.62409186, 9.5233755
1126713710159006, 1.0683953, 5.5130634, 8.804391, -0.03828913, -0.57650614, 10.426831
1126713719798277, 1.0001999, 4.2664027, 8.541181, -0.08656114, 0.3920033, 9.591309
1126713729437548, 0.91884387, 5.267799, 8.595019, 0.078170836, -0.45287657, 10.1122265
1126713739076923, 1.006182, 4.595416, 8.586644, -0.060129583, 0.1326127, 9.789765
1126713748716194, 0.9296116, 4.9938207, 8.537591, 0.035920978, -0.2406168, 9.93145
1126713758355465, 0.9631111, 4.820341, 8.59143, -0.0034580827, -0.06305456, 9.898079
1126713767994735, 0.97866446, 4.8526444, 8.666803, -0.011517882, -0.052743435, 9.980806
1126713777634006, 0.9559326, 4.782056, 8.725428, 0.013517201, 0.035280704, 9.995675
1126713787273381, 0.94636136, 4.759324, 8.749356, 0.024612248, 0.06424713, 10.004663
1126713796912652, 0.95473623, 4.7425747, 8.784052, 0.018254578, 0.09231901, 10.027676
1126713806551923, 1.0097711, 4.741378, 8.807981, -0.035002172, 0.09992361, 10.053339
1126713816191298, 0.997807, 4.7509494, 8.793623, -0.02474004, 0.08287859, 10.044275
1126713825830569, 0.96909314, 4.761717, 8.748159, 8.687377E-4, 0.05182171, 10.007031
1126713835469840, 0.9403793, 4.7976093, 8.72782, 0.030590892, 0.011477947, 10.0037565
1126713845109110, 0.9284152, 4.807181, 8.69791, 0.041478753, -0.009979248, 9.981121
1126713854748485, 0.93679005, 4.82752, 8.65125, 0.030624807, -0.048945904, 9.951046
1126713864387756, 0.9822537, 4.8263235, 8.65125, -0.015066862, -0.048386097, 9.954886
1126713874027027, 1.0169497, 4.8358946, 8.683554, -0.04266292, -0.043680668, 9.991018
1126713883666298, 1.0372887, 4.8155556, 8.712267, -0.061547637, -0.012404919, 10.008257
1126713893305673, 1.0289137, 4.784449, 8.725428, -0.050524116, 0.018743515, 10.003988
1126713902944944, 1.0109676, 4.7377887, 8.707481, -0.030541599, 0.0481472, 9.96422
1126713912584215, 1.0025927, 4.7162533, 8.672786, -0.026243567, 0.05032444, 9.922813
1126713922223485, 1.0157533, 4.7449675, 8.641679, -0.03847742, 0.0101614, 9.910778
1126713931862860, 1.0372887, 4.735396, 8.57468, -0.06449622, -0.010476112, 9.849915
1126713941502131, 1.0348958, 4.752146, 8.539984, -0.06381142, -0.039823532, 9.827491
1126713951141402, 1.0049855, 4.738985, 8.567501, -0.032432556, -0.014840603, 9.842193
1126713960780777, 0.9822537, 4.7449675, 8.562716, -0.0122538805, -0.021895885, 9.83865
1126713970420048, 0.9846465, 4.729414, 8.642876, -0.008147299, 0.030500412, 9.901273
1126713980059319, 0.9954142, 4.709075, 8.706285, -0.01595658, 0.076453686, 9.947842
1126713989698590, 0.9595219, 4.698307, 8.784052, 0.024709404, 0.118839264, 10.006977
1126713999337965, 0.951147, 4.679165, 8.855837, 0.03466475, 0.16202211, 10.059706
1126714008977235, 0.9415757, 4.698307, 8.87139, 0.044391274, 0.15014505, 10.081554
1126714018616506, 0.9391829, 4.7425747, 8.845069, 0.04575163, 0.09896994, 10.079556
1126714028255881, 0.9619147, 4.7676992, 8.817552, 0.020242512, 0.06361389, 10.069807
1126714037895152, 0.97866446, 4.7892346, 8.730213, -0.006051779, 0.00883913, 10.005552
1126714047534423, 0.9284152, 4.8011985, 8.641679, 0.037130594, -0.044173717, 9.929188
1126714057173694, 0.91405827, 4.814359, 8.6141615, 0.04923266, -0.06457996, 9.910132
1126714066813069, 0.9451649, 4.820341, 8.578269, 0.014530957, -0.08386278, 9.88476
1126714076452340, 1.026521, 4.8598228, 8.5938225, -0.062343895, -0.10840607, 9.92521
1126714086091610, 1.0540384, 4.881358, 8.632108, -0.08500981, -0.107559204, 9.971617
1126714095730985, 0.9882358, 4.853841, 8.633304, -0.021510482, -0.0823288, 9.953043
1126714105370256, 0.90807617, 4.833502, 8.656036, 0.05954361, -0.053195, 9.955296
1126714115009527, 0.86261255, 4.8047876, 8.669196, 0.10370052, -0.022651672, 9.948556
1126714124648902, 0.86979103, 4.8059845, 8.703893, 0.09592712, -0.007121086, 9.980106
1126714134288173, 0.8925229, 4.8035913, 8.725428, 0.07345331, 0.00420475, 9.999938
1126714143927444, 0.9296116, 4.8179483, 8.743374, 0.037534654, -2.8276443E-4, 10.026066
1126714153566819, 0.9403793, 4.8490553, 8.713464, 0.025286674, -0.041632652, 10.015973
1126714163206090, 0.95712906, 4.8849473, 8.709874, 0.010324836, -0.074929714, 10.0317
1126714172845360, 0.97507524, 4.8729835, 8.688339, -0.011024952, -0.06989336, 10.008945
1126714182484527, 0.97866446, 4.8909297, 8.663215, -0.015106082, -0.09298897, 9.99607
1126714192123694, 1.012164, 4.88734, 8.642876, -0.05014944, -0.100566864, 9.979843
1126714201763277, 1.0169497, 4.85743, 8.629715, -0.058783054, -0.08030558, 9.954441
1126714211402548, 0.9846465, 4.807181, 8.65125, -0.025926054, -0.025653362, 9.945921
1126714221041923, 0.9738788, 4.7509494, 8.693125, -0.0151335, 0.043949604, 9.954308
1126714230681194, 0.91166544, 4.7341995, 8.739784, 0.050913572, 0.07599974, 9.980945
1126714240320465, 0.86979103, 4.6911287, 8.766106, 0.091673136, 0.12382746, 9.979183
1126714249959840, 0.9020941, 4.685147, 8.752945, 0.05816716, 0.12187433, 9.9679575
1126714259599110, 0.9822537, 4.725825, 8.729017, -0.021496713, 0.06988573, 9.9744
1126714269238381, 1.0013963, 4.7545385, 8.68475, -0.043724656, 0.023050308, 9.951426
1126714278877756, 0.9726824, 4.773681, 8.636893, -0.017896235, -0.01651001, 9.916122
1126714288517027, 0.9870393, 4.784449, 8.628518, -0.032713175, -0.028256416, 9.915376
1126714298156298, 1.0145568, 4.796413, 8.622537, -0.06047541, -0.04015112, 9.918557
1126714307795673, 1.0073783, 4.81077, 8.639286, -0.05179906, -0.043889046, 9.939366
1126714317434944, 1.0073783, 4.7916274, 8.706285, -0.04634726, 0.0048851967, 9.988582
1126714327074215, 1.0205388, 4.776074, 8.723035, -0.057779253, 0.025162697, 9.996986
1126714336713590, 0.9391829, 4.7545385, 8.7577305, 0.026174724, 0.05666876, 10.009079
1126714346352860, 0.8542377, 4.718646, 8.799605, 0.11192304, 0.10308552, 10.020243
1126714355992131, 0.8925229, 4.7306104, 8.780462, 0.06980491, 0.082238674, 10.013
1126714365631506, 0.9667004, 4.7509494, 8.754142, -0.0059601665, 0.053412437, 10.0069065
1126714375270777, 1.0193424, 4.7748775, 8.745767, -0.06118548, 0.03015232, 10.016102
1126714384910048, 1.0372887, 4.7952166, 8.705089, -0.08206707, -0.006576538, 9.992088
1126714394549423, 0.951147, 4.779663, 8.699107, 0.0025479198, 0.0032744408, 9.971173
1126714404188694, 0.8554341, 4.7653065, 8.723035, 0.1002571, 0.028021812, 9.975992
1126714413827965, 0.86141616, 4.770092, 8.696713, 0.09231681, 0.012057304, 9.955901
1126714423467340, 0.93320084, 4.79402, 8.688339, 0.020186067, -0.013165474, 9.966954
1126714433106610, 1.0277174, 4.831109, 8.69791, -0.071415186, -0.04230261, 10.00213
1126714442745881, 1.0468599, 4.846662, 8.693125, -0.08868432, -0.058947086, 10.007254
1126714452385256, 0.95712906, 4.820341, 8.672786, -0.0012902021, -0.04289627, 9.968307
1126714462024527, 0.8530413, 4.79402, 8.685946, 0.10213047, -0.0105986595, 9.957182
1126714471663798, 0.8327023, 4.770092, 8.719446, 0.12138873, 0.025455952, 9.97299
1126714481303173, 0.9415757, 4.776074, 8.734999, 0.014262557, 0.027398586, 9.999835
1126714490942444, 0.9942178, 4.833502, 8.825927, -0.028328598, 0.010304451, 10.11174
1126714500581715, 1.0001999, 4.8035913, 8.87139, -0.028809428, 0.05396223, 10.137688
1126714510221090, 0.9882358, 4.813163, 8.8905325, -0.010264397, 0.052149296, 10.15785
1126714519860360, 0.89730847, 4.8155556, 8.851051, 0.08002049, 0.031115055, 10.115753
1126714529499631, 0.8662018, 4.8011985, 8.750552, 0.10282266, -9.1552734E-4, 10.018154
1126714539139006, 0.8997013, 4.8299127, 8.639286, 0.062375844, -0.075350285, 9.93807
1126714548778277, 0.9774681, 4.834698, 8.529217, -0.023675919, -0.12787342, 9.851922
1126714558417548, 1.0301101, 4.831109, 8.467003, -0.08147514, -0.15478659, 9.801035
1126714568056923, 1.0755738, 4.7976093, 8.457432, -0.124617994, -0.12200689, 9.781188
1126714577696194, 1.0636097, 4.7772703, 8.496913, -0.109797716, -0.08563137, 9.804678
1126714587335465, 0.9870393, 4.743771, 8.513663, -0.030092716, -0.04745102, 9.795759
1126714596974840, 0.9415757, 4.7222357, 8.577073, 0.023824573, -9.1838837E-4, 9.836243
1126714606614110, 0.9200403, 4.718646, 8.623733, 0.048376918, 0.022524357, 9.873096
1126714616253381, 0.92243314, 4.738985, 8.670393, 0.04921758, 0.024826527, 9.923786
1126714625892756, 0.96909314, 4.7688956, 8.700303, 0.004296422, 0.012210846, 9.968782
1126714635532027, 0.9774681, 4.7892346, 8.734999, -0.0027430654, 0.011291504, 10.009611
1126714645171402, 0.96909314, 4.833502, 8.769695, 0.0107293725, -0.0107216835, 10.06028
1126714654810673, 0.9607183, 4.831109, 8.772088, 0.013805985, -0.0073156357, 10.060411
1126714664449944, 0.9595219, 4.84068, 8.848659, 0.020810187, 0.020072937, 10.131672
1126714674089319, 0.9619147, 4.837091, 8.868998, 0.020370066, 0.0304842, 10.14793
1126714683728590, 0.9595219, 4.790431, 8.906086, 0.026938856, 0.08613062, 10.157715
1126714693367860, 0.9236295, 4.752146, 8.902496, 0.06034404, 0.11775732, 10.132765
1126714703007235, 0.9164511, 4.7162533, 8.889337, 0.0698086, 0.13923359, 10.103416
1126714712646506, 0.94277215, 4.692325, 8.829515, 0.03861457, 0.13118935, 10.042331
