timestamp_acc,device_acc_x,device_acc_y,device_acc_z,earth_acc_x,earth_acc_y,earth_acc_z
1126684647691217, 0.8147561, 4.76411, 8.579466, -0.038572967, -0.070364475, 9.846896
1126684657330488, 0.971486, 4.9136615, 8.484949, -0.19971561, -0.23712254, 9.848152
1126684666969863, 1.0516455, 4.968696, 8.429914, -0.2822399, -0.31106186, 9.832647
1126684676609134, 1.0851451, 5.0009995, 8.506484, -0.3100525, -0.2966857, 9.917846
1126684686248405, 0.94277215, 4.9435716, 8.691928, -0.15746087, -0.15467119, 10.041347
1126684695887676, 0.72502524, 4.816752, 8.91805, 0.07704532, 0.059000015, 10.16115
1126684705527051, 0.59581286, 4.698307, 9.078369, 0.21876019, 0.22958946, 10.234515
1126684715166322, 0.50129634, 4.627719, 9.150154, 0.32051834, 0.30471945, 10.25655
1126684724805592, 0.5240282, 4.566702, 9.059227, 0.2870002, 0.31663322, 10.149696
1126684734444967, 0.62931234, 4.584648, 8.904889, 0.16830924, 0.22508478, 10.031605
1126684744084238, 0.8350951, 4.668397, 8.708678, -0.046532154, 0.0560565, 9.916002
1126684753723509, 1.0133604, 4.749753, 8.537591, -0.23402321, -0.09186268, 9.81908
1126684763362884, 1.0779666, 4.8179483, 8.41795, -0.3020318, -0.20117712, 9.752171
1126684773002155, 1.032503, 4.855037, 8.361719, -0.2592913, -0.24679852, 9.71739
1126684782641426, 0.9487542, 4.8502517, 8.409575, -0.17019826, -0.21207237, 9.750492
1126684792280801, 0.83389866, 4.8155556, 8.516056, -0.042536676, -0.13091469, 9.8178005
1126684801920072, 0.6891329, 4.786842, 8.679964, 0.11313069, -0.031659603, 9.935629
1126684811559342, 0.59940207, 4.7306104, 8.809176, 0.2073955, 0.07240915, 10.014553
1126684821198613, 0.62931234, 4.6971107, 8.8905325, 0.18095481, 0.1408596, 10.072132
1126684830837988, 0.7537391, 4.7318068, 8.9108715, 0.053944886, 0.10847378, 10.1166725
1126684840477259, 0.87936234, 4.7545385, 8.851051, -0.07502204, 0.057989597, 10.085189
1126684850116530, 0.9343972, 4.776074, 8.76132, -0.13378209, -0.0057940483, 10.021317
1126684859755905, 0.9020941, 4.776074, 8.666803, -0.10699332, -0.045736313, 9.936025
1126684869395176, 0.8171489, 4.779663, 8.59143, -0.025936455, -0.07663107, 9.86504
1126684879034447, 0.73818576, 4.7856455, 8.554341, 0.050398618, -0.091573715, 9.829199
1126684888673717, 0.6831509, 4.782056, 8.577073, 0.10461643, -0.071867466, 9.843008
1126684898313092, 0.6939186, 4.802395, 8.639286, 0.09380478, -0.06112814, 9.90804
1126684907952363, 0.7609176, 4.8191447, 8.699107, 0.03148836, -0.04863119, 9.973679
1126684917591634, 0.7752745, 4.846662, 8.773284, 0.021247268, -0.04069376, 10.052839
1126684927231009, 0.75254273, 4.8155556, 8.82114, 0.0445728, 0.0031485558, 10.078017
1126684936870280, 0.7322037, 4.779663, 8.829515, 0.06346288, 0.03900957, 10.066584
1126684946509551, 0.7393822, 4.7653065, 8.8187475, 0.054701865, 0.04114437, 10.050893
1126684956148926, 0.79441714, 4.7832522, 8.806784, -7.3194504E-5, 0.019183159, 10.053341
1126684965788197, 0.85902333, 4.802395, 8.809176, -0.06273532, 0.0019102097, 10.069686
1126684975427467, 0.8542377, 4.7976093, 8.784052, -0.059852302, -0.005589962, 10.045035
1126684985066842, 0.8350951, 4.786842, 8.748159, -0.041855752, -0.012620926, 10.006979
1126684994706113, 0.7788638, 4.7605205, 8.712267, 0.012223005, -0.0044822693, 9.958545
1126685004345384, 0.74895346, 4.7318068, 8.685946, 0.040771127, 0.010172367, 9.919417
1126685013984655, 0.70947194, 4.709075, 8.652447, 0.07901013, 0.017308712, 9.876084
1126685023624030, 0.68195444, 4.7018967, 8.636893, 0.10493055, 0.017576218, 9.85685
1126685033263301, 0.7322037, 4.712664, 8.59143, 0.05307901, -0.014305115, 9.82624
1126685042902572, 0.80159557, 4.7174497, 8.58784, -0.017117023, -0.02155304, 9.830927
1126685052541947, 0.8961121, 4.7365923, 8.598608, -0.10981548, -0.034791946, 9.857033
1126685062181217, 0.9296116, 4.761717, 8.63809, -0.13951957, -0.038184166, 9.90625
1126685071820488, 0.93320084, 4.7784667, 8.665607, -0.13784933, -0.040342808, 9.938648
1126685081459863, 0.910469, 4.7569313, 8.696713, -0.11340487, -0.0071463585, 9.953756
1126685091099134, 0.8542377, 4.733003, 8.7266245, -0.05721888, 0.029500484, 9.963979
1126685100738405, 0.77766734, 4.729414, 8.721839, 0.018326372, 0.03042841, 9.951952
1126685110377676, 0.70588267, 4.712664, 8.734999, 0.08847451, 0.052045345, 9.949731
1126685120017051, 0.6723832, 4.727021, 8.751749, 0.12382349, 0.048012257, 9.968565
1126685129656322, 0.6975078, 4.752146, 8.763713, 0.09840599, 0.030186176, 9.9930725
1126685139295592, 0.7716853, 4.779663, 8.750552, 0.019342959, -0.0040011406, 10.000622
1126685148934967, 0.86261255, 4.8239303, 8.739784, -0.07100642, -0.04994297, 10.019515
1126685158574238, 0.9056834, 4.831109, 8.762517, -0.112145424, -0.045832157, 10.046238
1126685168213509, 0.8805587, 4.81077, 8.790034, -0.08562499, -0.0151696205, 10.05863
1126685177852780, 0.8327023, 4.7832522, 8.787642, -0.035273015, 0.0052866936, 10.039634
1126685187492155, 0.7752745, 4.759324, 8.792427, 0.02140683, 0.028564453, 10.027846
1126685197131426, 0.7262217, 4.7210393, 8.781659, 0.069624305, 0.056331158, 9.996256
1126685206770697, 0.72382885, 4.712664, 8.730213, 0.06846699, 0.039675713, 9.947034
1126685216410072, 0.7477571, 4.733003, 8.693125, 0.041839957, 0.005894184, 9.926182
1126685226049342, 0.7848458, 4.753342, 8.626125, -4.0769577E-4, -0.040780067, 9.880215
1126685235688613, 0.80159557, 4.773681, 8.573483, -0.021439254, -0.080566406, 9.845215
1126685245327988, 0.80757767, 4.7772703, 8.548359, -0.029421806, -0.09566355, 9.825422
1126685254967259, 0.83748794, 4.761717, 8.578269, -0.059384704, -0.06515741, 9.846538
1126685264606530, 0.79800636, 4.7712884, 8.660822, -0.01372081, -0.03346014, 9.920209
1126685274245801, 0.73459655, 4.743771, 8.739784, 0.05537349, 0.026259422, 9.971113
1126685283885176, 0.701097, 4.7377887, 8.801998, 0.09357947, 0.058208466, 10.0200405
1126685293524447, 0.7262217, 4.749753, 8.82473, 0.06854445, 0.051712513, 10.0476885
1126685303163717, 0.7908279, 4.7832522, 8.82473, 0.005587578, 0.021980762, 10.068776
1126685312802988, 0.8542377, 4.8095737, 8.7984085, -0.059920132, -0.015419006, 10.063293
1126685322442363, 0.8554341, 4.79402, 8.744571, -0.0668717, -0.02680397, 10.008832
1126685332081634, 0.7752745, 4.7832522, 8.720642, 0.010824263, -0.02644968, 9.97644
1126685341720905, 0.762114, 4.7688956, 8.719446, 0.024393976, -0.010676384, 9.967508
1126685351360280, 0.73340017, 4.752146, 8.681161, 0.050635457, -0.013678074, 9.923738
1126685360999551, 0.75254273, 4.7174497, 8.711071, 0.0324257, 0.029850006, 9.934863
1126685370638822, 0.80997044, 4.712664, 8.715857, -0.023823857, 0.03367567, 9.941315
1126685380278092, 0.8422736, 4.723432, 8.713464, -0.055737734, 0.02275467, 9.946912
1126685389917467, 0.8566305, 4.735396, 8.740981, -0.06500065, 0.022827625, 9.977867
1126685399556738, 0.8662018, 4.7509494, 8.740981, -0.07277435, 0.009428024, 9.986049
1126685409196009, 0.84347, 4.7485566, 8.700303, -0.052870512, -0.007844448, 9.947494
1126685418835384, 0.7896315, 4.7581277, 8.694321, 0.0016726255, -0.017125607, 9.942546
1126685428474655, 0.7405786, 4.7485566, 8.663215, 0.046349466, -0.020215988, 9.906866
1126685438113926, 0.70229346, 4.7605205, 8.657232, 0.08474767, -0.033009052, 9.904302
1126685447753197, 0.7369894, 4.7485566, 8.669196, 0.047943175, -0.017273903, 9.911825
1126685457392572, 0.83988076, 4.7688956, 8.688339, -0.052440166, -0.026884556, 9.946431
1126685467031842, 0.8913264, 4.7688956, 8.715857, -0.09979373, -0.014881134, 9.974609
1126685476671113, 0.8279166, 4.7688956, 8.709874, -0.037085354, -0.017269135, 9.96434
1126685486310384, 0.7298109, 4.7569313, 8.687142, 0.060063243, -0.017854214, 9.930937
1126685495949759, 0.6999006, 4.7569313, 8.663215, 0.08753681, -0.029318333, 9.907625
1126685505589030, 0.7118647, 4.786842, 8.656036, 0.07417035, -0.05724001, 9.916593
1126685515228301, 0.7860422, 4.8191447, 8.675179, -0.0021178126, -0.07438707, 9.9546585
1126685524867572, 0.8327023, 4.8358946, 8.691928, -0.046954334, -0.080812454, 9.980989
1126685534506947, 0.85184485, 4.8059845, 8.721839, -0.06640285, -0.040752888, 9.994375
1126685544146217, 0.75972116, 4.7808595, 8.754142, 0.026230812, -0.0055384636, 10.003403
1126685553785488, 0.6879365, 4.7449675, 8.76491, 0.09661427, 0.032682896, 9.990055
1126685563424759, 0.6412765, 4.706682, 8.785249, 0.14211908, 0.07561636, 9.9859295
1126685573064134, 0.65682983, 4.6959143, 8.775677, 0.12560883, 0.07839012, 9.973646
1126685582703405, 0.6867401, 4.7174497, 8.7266245, 0.09400612, 0.032963753, 9.943339
1126685592342676, 0.7585248, 4.7282176, 8.709874, 0.02142489, 0.013476372, 9.939449
1126685601981947, 0.83988076, 4.7748775, 8.687142, -0.060106277, -0.03832674, 9.948177
1126685611621322, 0.92602235, 4.796413, 8.659625, -0.1482495, -0.06788826, 9.94111
1126685621260592, 0.9702896, 4.831109, 8.653643, -0.19094372, -0.10208607, 9.95589
1126685630899863, 0.95353985, 4.8299127, 8.694321, -0.17189294, -0.0773015, 9.989643
1126685640539134, 0.85184485, 4.7712884, 8.774481, -0.061677456, 0.009654045, 10.023893
1126685650178509, 0.7190432, 4.6935215, 8.822337, 0.07181209, 0.09718275, 10.018245
1126685659817780, 0.65922266, 4.6504507, 8.855837, 0.13185, 0.15135574, 10.022318
1126685669457051, 0.64606214, 4.610969, 8.909675, 0.14613187, 0.20373535, 10.049769
1126685679096322, 0.6987042, 4.6037908, 8.8701935, 0.090179265, 0.19089556, 10.015929
1126685688735697, 0.8279166, 4.912465, 8.835498, -0.02328986, -0.09958029, 10.142649
1126685698374967, 0.6831509, 4.274778, 8.562716, 0.06483865, 0.33343267, 9.588802
1126685708014238, 1.0157533, 5.3419766, 8.737391, -0.19529855, -0.5146785, 10.276549
1126685717653509, 0.701097, 4.0845485, 8.383254, 0.025476009, 0.43874168, 9.341353
1126685727292884, 0.9487542, 5.5513487, 8.590233, -0.12390214, -0.75736237, 10.243084
1126685736932155, 0.8781659, 4.2424746, 8.410771, -0.14169738, 0.30427217, 9.45506
1126685746571426, 0.8997013, 5.407779, 8.616554, -0.08483374, -0.60657406, 10.194284
1126685756210697, 0.89013004, 4.5451665, 8.739784, -0.10730469, 0.19702768, 9.888599
1126685765849967, 0.613759, 4.871787, 8.804391, 0.19408265, -0.06791067, 10.078991
1126685775489342, 0.7082755, 4.944768, 9.08794, 0.12258327, -0.005281925, 10.369572
1126685785128613, 0.3397808, 4.261617, 8.8187475, 0.43890512, 0.47060895, 9.779216
1126685794767884, 0.7429714, 5.2534423, 9.004191, 0.096378565, -0.31673002, 10.445887
1126685804407155, 0.613759, 4.028317, 8.577073, 0.13270432, 0.5652883, 9.478031
1126685814046530, 0.9942178, 5.49751, 8.707481, -0.17748618, -0.66474533, 10.322691
1126685823685801, 0.9415757, 4.1180477, 8.35454, -0.20787686, 0.37584925, 9.351938
1126685833325072, 1.0504491, 5.3706903, 8.416754, -0.24879384, -0.676631, 10.01348
1126685842964342, 1.018146, 4.5092745, 8.446664, -0.25600702, 0.091670275, 9.625092
1126685852603613, 0.6831509, 4.889733, 8.455039, 0.101766676, -0.22303629, 9.787939
1126685862242988, 0.75493556, 4.8442693, 8.720642, 0.04620412, -0.06718969, 10.003992
1126685871882259, 0.3900301, 4.2723846, 8.6345005, 0.3684649, 0.39439082, 9.626456
1126685881521530, 0.78723866, 5.188836, 9.0544405, 0.048834562, -0.23348856, 10.46278
1126685891160801, 0.5766702, 3.9649072, 8.891729, 0.17517081, 0.7666273, 9.720982
1126685900800072, 0.95473623, 5.4185467, 9.192028, -0.09804535, -0.3896494, 10.705331
1126685910439447, 0.82911307, 4.0187454, 8.933603, -0.06115377, 0.72837424, 9.803712
1126685920078717, 0.91405827, 5.3383875, 8.980264, -0.069622874, -0.41837692, 10.478507
1126685929717988, 0.89013004, 4.3848476, 8.839087, -0.10293543, 0.36612844, 9.899698
1126685939357259, 0.7393822, 4.9363933, 8.734999, 0.0671739, -0.168365, 10.058927
1126685948996530, 0.9320044, 4.8658047, 8.775677, -0.1255396, -0.086369514, 10.076406
1126685958635905, 0.6723832, 4.430311, 8.475378, 0.09728575, 0.1589756, 9.585253
1126685968275176, 1.0169497, 5.2666025, 8.739784, -0.18913996, -0.44563675, 10.243083
1126685977914447, 0.66999036, 4.0474596, 8.4347, 0.09002501, 0.4787476, 9.36684
1126685987553717, 0.85064846, 5.4185467, 8.663215, -0.016883254, -0.61305046, 10.235207
1126685997192988, 0.6580262, 3.958925, 8.422736, 0.09473348, 0.56444454, 9.31241
1126686006832363, 0.8243274, 5.3108697, 8.572288, 0.0016704202, -0.5511298, 10.102732
1126686016471634, 0.8781659, 4.2927237, 8.534002, -0.1054005, 0.3120563, 9.58746
1126686026110905, 0.80997044, 4.974678, 8.646464, 0.0073535442, -0.22412443, 10.005724
1126686035750176, 1.026521, 4.816752, 8.801998, -0.2036736, -0.022059917, 10.084048
1126686045389447, 0.7118647, 4.4949174, 8.612965, 0.08253926, 0.1747427, 9.739449
1126686055028717, 0.97866446, 5.261817, 8.9013, -0.12339693, -0.36349106, 10.37932
1126686064668092, 0.5706882, 4.1431723, 8.6141615, 0.21040505, 0.4818163, 9.561325
1126686074307363, 0.8111669, 5.493921, 8.889337, 0.043649197, -0.56424, 10.466194
1126686083946634, 0.63888365, 4.0414777, 8.601001, 0.13912266, 0.5662198, 9.506785
1126686093585905, 0.86141616, 5.419743, 8.719446, -0.029119372, -0.5731406, 10.286645
1126686103225176, 0.9343972, 4.3357944, 8.6141615, -0.1492948, 0.32167673, 9.68247
1126686112864551, 0.83988076, 5.0572305, 8.640483, -0.030272901, -0.29077482, 10.0425825
1126686122503822, 0.92482597, 4.7341995, 8.797213, -0.1105243, 0.06333923, 10.032082
1126686132143092, 0.6197411, 4.486542, 8.590233, 0.16911507, 0.18290973, 9.707892
1126686141782363, 0.93320084, 5.1613183, 8.841479, -0.09110564, -0.2930169, 10.275587
1126686151421634, 0.63529444, 4.085745, 8.606983, 0.13127369, 0.5430138, 9.5323105
1126686161060905, 0.991825, 5.4149575, 8.898908, -0.13108009, -0.49865484, 10.4513235
1126686170700280, 0.80997044, 3.9888353, 8.6141615, -0.05276364, 0.6194675, 9.507054
1126686180339551, 0.9212367, 5.4113684, 8.785249, -0.06801802, -0.53798103, 10.344956
1126686189978822, 0.8422736, 4.197011, 8.609376, -0.067159295, 0.4360988, 9.604737
1126686199618092, 0.72023964, 5.0273204, 8.624929, 0.098164916, -0.27134228, 10.004942
1126686209257363, 0.83389866, 4.6636114, 8.712267, -0.03051722, 0.08928442, 9.91662
1126686218896634, 0.53240305, 4.54397, 8.505288, 0.25001675, 0.09603357, 9.65398
1126686228535905, 0.89491564, 5.1529436, 8.782856, -0.06585759, -0.3081913, 10.217288
1126686238175280, 0.69152576, 4.1611185, 8.572288, 0.07017252, 0.4598515, 9.542581
1126686247814551, 1.0348958, 5.4867425, 8.953942, -0.18061608, -0.5325141, 10.537184
1126686257453822, 0.7609176, 4.0390844, 8.723035, 0.0045491457, 0.6380296, 9.6217165
1126686267093092, 0.89730847, 5.444868, 8.940782, -0.035404146, -0.50446177, 10.494455
1126686276732363, 0.7716853, 4.2161536, 8.7469635, -7.3826313E-4, 0.48324156, 9.728685
1126686286371634, 0.67477596, 5.1361938, 8.763713, 0.15893382, -0.3015952, 10.174588
1126686296011009, 0.8422736, 4.648058, 8.775677, -0.042993844, 0.12706327, 9.965359
1126686305650280, 0.65084773, 4.6468616, 8.589037, 0.13679707, 0.043845177, 9.786104
1126686315289551, 0.9607183, 5.148158, 8.743374, -0.1366089, -0.3277359, 10.185628
1126686324928822, 0.6556334, 4.229314, 8.471788, 0.098167956, 0.35372686, 9.484375
1126686334568092, 0.9391829, 5.460421, 8.809176, -0.09065437, -0.56877756, 10.390772
1126686344207363, 0.64965135, 4.007978, 8.541181, 0.105766565, 0.5892453, 9.438184
1126686353846634, 0.83988076, 5.4257255, 8.76491, 2.7608871E-4, -0.5480552, 10.32798
1126686363485905, 0.8219346, 4.17069, 8.58784, -0.052192926, 0.45750165, 9.57127
1126686373125280, 0.7956135, 5.18405, 8.678768, 0.02648592, -0.3788433, 10.133322
1126686382764551, 0.86859465, 4.6085763, 8.729017, -0.07099259, 0.14770031, 9.907689
1126686392403822, 0.62452674, 4.735396, 8.585447, 0.16875839, -0.028373241, 9.823167
1126686402043092, 0.88414794, 5.1158547, 8.773284, -0.062215567, -0.277802, 10.190347
1126686411682363, 0.56470615, 4.2652063, 8.5016985, 0.19842884, 0.34009242, 9.520227
1126686421321634, 0.86979103, 5.4580283, 8.819944, -0.033733964, -0.54927015, 10.393997
1126686430960905, 0.6652047, 4.074977, 8.567501, 0.0780983, 0.5392623, 9.4949
1126686440600176, 0.9068798, 5.517849, 8.813962, -0.055389434, -0.60388803, 10.420522
1126686450239447, 0.8063812, 4.145565, 8.62134, -0.056345373, 0.50491047, 9.586729
1126686459878822, 0.8207382, 5.2235317, 8.712267, 0.010376096, -0.3950181, 10.183632
1126686469518092, 0.8997013, 4.5475593, 8.781659, -0.112496525, 0.22166348, 9.927009
1126686479157363, 0.6759724, 4.7198424, 8.688339, 0.11738759, 0.035210133, 9.909897
1126686488796634, 0.94755775, 4.979464, 8.872586, -0.12230921, -0.12054682, 10.216959
1126686498435905, 0.62931234, 4.241278, 8.630911, 0.12332943, 0.42465305, 9.627127
1126686508075176, 0.9726824, 5.3300123, 8.937193, -0.11150846, -0.39760017, 10.443085
1126686517714447, 0.6999006, 3.9720855, 8.6345005, 0.030337065, 0.6518805, 9.507684
1126686527353717, 0.8985049, 5.4424753, 8.851051, -0.039678514, -0.53173876, 10.415596
1126686536992988, 0.7728817, 4.068995, 8.653643, -0.025784492, 0.5701394, 9.5767355
1126686546632363, 0.77407813, 5.2199426, 8.772088, 0.061428398, -0.37208843, 10.23007
1126686556271634, 0.8147561, 4.4662037, 8.804391, -0.02411151, 0.29272938, 9.901609
1126686565910905, 0.6855437, 4.792824, 8.713464, 0.12054017, -0.028447628, 9.96746
1126686575550176, 0.95832545, 5.0045886, 8.860622, -0.13038522, -0.15376472, 10.219308
1126686585189447, 0.6472585, 4.348955, 8.555537, 0.1270991, 0.27944422, 9.61433
1126686594828717, 0.9726824, 5.380262, 8.831908, -0.12631649, -0.4928527, 10.374829
1126686604467988, 0.65084773, 4.0570307, 8.517252, 0.098683566, 0.5196204, 9.441767
1126686614107259, 0.8470592, 5.4759746, 8.713464, 2.015233E-4, -0.6250262, 10.307163
1126686623746530, 0.72263247, 4.0558343, 8.480164, 0.028847754, 0.5141151, 9.41382
1126686633385801, 0.8350951, 5.3156557, 8.620144, -0.0023690462, -0.5249171, 10.148149
1126686643025176, 0.95353985, 4.465007, 8.616554, -0.166919, 0.21512628, 9.747636
1126686652664447, 0.802792, 4.8502517, 8.603394, 0.003905058, -0.12550259, 9.908179
1126686662303717, 0.9846465, 4.9459643, 8.784052, -0.15716612, -0.13174295, 10.126678
1126686671942988, 0.62811595, 4.365705, 8.577073, 0.15350473, 0.28651524, 9.6392145
1126686681582259, 0.87936234, 5.285745, 8.895318, -0.033370852, -0.37774992, 10.377633
1126686691221530, 0.54436713, 3.9948175, 8.648857, 0.22498792, 0.64564586, 9.517886
1126686700860801, 0.8530413, 5.477171, 8.900104, 9.6678734E-5, -0.5486398, 10.470814
1126686710500072, 0.75972116, 4.031906, 8.663215, 0.008828342, 0.6162486, 9.56582
1126686720139342, 0.9164511, 5.319245, 8.7673025, -0.07680482, -0.47487068, 10.284379
1126686729778613, 1.032503, 4.408776, 8.717052, -0.2398209, 0.30622673, 9.815247
1126686739417884, 0.8362915, 4.9459643, 8.673982, -0.024028718, -0.18233824, 10.018288
1126686749057259, 0.95712906, 4.8693943, 8.782856, -0.13362134, -0.06918001, 10.086775
1126686758696530, 0.6089734, 4.35733, 8.555537, 0.17680967, 0.27680063, 9.614912
1126686768335801, 0.89730847, 5.2606206, 8.822337, -0.05215484, -0.3870783, 10.303416
1126686777975072, 0.6017949, 4.017549, 8.529217, 0.16719252, 0.5666239, 9.428754
1126686787614342, 0.88414794, 5.436493, 8.819944, -0.033110976, -0.54920673, 10.383923
1126686797253613, 0.72263247, 4.004389, 8.554341, 0.0433774, 0.58150625, 9.454842
1126686806892884, 0.8542377, 5.337191, 8.677571, -0.018979192, -0.5296192, 10.209541
1126686816532155, 0.8554341, 4.3525443, 8.657232, -0.0661993, 0.3336308, 9.721543
1126686826171426, 0.7393822, 4.999803, 8.65125, 0.08424845, -0.23414755, 10.016332
1126686835810697, 0.94755775, 4.871787, 8.769695, -0.12741065, -0.07244921, 10.075625
1126686845449967, 0.6891329, 4.4985065, 8.579466, 0.09563589, 0.16986132, 9.7098255
1126686855089238, 1.0253245, 5.306084, 8.82832, -0.17191055, -0.42681122, 10.3408575
1126686864728509, 0.6855437, 4.1228333, 8.602198, 0.07019058, 0.5088239, 9.549959
1126686874367780, 0.9343972, 5.471189, 8.879765, -0.069607794, -0.5482435, 10.457142
1126686884007155, 0.66759753, 3.9828532, 8.647661, 0.08456999, 0.6521621, 9.521468
1126686893646426, 0.7573284, 5.3132625, 8.793623, 0.088565946, -0.43569136, 10.292446
1126686903285697, 0.77766734, 4.258028, 8.718249, -0.005865574, 0.44662213, 9.723371
1126686912924967, 0.68075806, 4.9603214, 8.738588, 0.1325061, -0.15657663, 10.069214
1126686922564238, 0.90448695, 4.746164, 8.82832, -0.10024041, 0.06162405, 10.063278
1126686932203509, 0.6556334, 4.5128636, 8.662018, 0.12553579, 0.19174814, 9.786409
1126686941842780, 1.0025927, 5.252246, 8.902496, -0.16283125, -0.35420227, 10.377561
1126686951482051, 0.6843473, 4.135994, 8.650054, 0.0859285, 0.51500463, 9.598209
1126686961121322, 0.9631111, 5.483153, 8.962317, -0.11229527, -0.5270524, 10.536855
1126686970760592, 0.7106683, 4.048656, 8.663215, 0.058200717, 0.60079384, 9.569933
1126686980399863, 0.82672024, 5.4185467, 8.786445, 0.018363535, -0.5423145, 10.341724
1126686990039134, 0.7477571, 4.2664027, 8.611769, 0.019973457, 0.37819624, 9.632262
1126686999678405, 0.68075806, 5.0919266, 8.620144, 0.13183859, -0.32856274, 10.028595
1126687009317676, 0.9164511, 4.755735, 8.681161, -0.11803895, -0.013650894, 9.940089
1126687018957051, 0.6843473, 4.5882373, 8.476574, 0.0909304, 0.04539156, 9.662415
1126687028596322, 1.0145568, 5.17089, 8.733803, -0.18894976, -0.34655285, 10.19269
1126687038235592, 0.654437, 4.109673, 8.502895, 0.10221475, 0.4759419, 9.454098
1126687047874863, 0.8745767, 5.424529, 8.848659, -0.024286926, -0.50868034, 10.4033575
1126687057514134, 0.5802595, 3.979264, 8.608179, 0.17294133, 0.64598775, 9.477593
1126687067153405, 0.7716853, 5.413761, 8.790034, 0.065270245, -0.52794695, 10.33857
1126687076792676, 0.76331043, 4.2711883, 8.660822, 0.0118713975, 0.4011805, 9.678556
1126687086431947, 0.7716853, 5.2127643, 8.711071, 0.037799, -0.39908886, 10.173025
1126687096071217, 0.9702896, 4.766503, 8.773284, -0.17283309, 0.025509357, 10.030005
1126687105710488, 0.7298109, 4.6899323, 8.609376, 0.05533552, 0.016831398, 9.830874
1126687115349759, 1.0037891, 5.1924253, 8.834301, -0.17817652, -0.31897926, 10.289813
1126687124989030, 0.634098, 4.1982074, 8.585447, 0.12200323, 0.4378059, 9.56715
1126687134628301, 0.91166544, 5.3886366, 8.935996, -0.060762763, -0.4382429, 10.465409
1126687144267572, 0.6556334, 3.9290147, 8.641679, 0.08284432, 0.6975274, 9.489586
1126687153906842, 0.83748794, 5.359923, 8.847462, 0.011380702, -0.45532227, 10.368235
1126687163546113, 0.8135597, 4.1024942, 8.678768, -0.06827134, 0.55308294, 9.617838
1126687173185488, 0.80159557, 5.0739803, 8.72782, 0.018176049, -0.27362204, 10.123609
1126687182824759, 0.90807617, 4.5523453, 8.763713, -0.12391719, 0.19567394, 9.914507
1126687192464030, 0.6664011, 4.648058, 8.60459, 0.11698511, 0.04834795, 9.801607
1126687202103301, 0.9164511, 5.0883374, 8.810373, -0.09103128, -0.24717283, 10.21197
1126687211742572, 0.6436693, 4.194618, 8.545966, 0.105843216, 0.42045736, 9.531773
1126687221381842, 0.9834501, 5.444868, 8.915657, -0.13540399, -0.5142951, 10.479498
1126687231021113, 0.77407813, 4.0594234, 8.666803, -0.023443818, 0.593632, 9.583248
1126687240660384, 0.96909314, 5.49751, 8.87139, -0.1225335, -0.5721302, 10.465226
1126687250299655, 0.782453, 4.1491547, 8.688339, -0.02213186, 0.51512694, 9.646197
1126687259938926, 0.70588267, 5.180461, 8.744571, 0.117364556, -0.35127735, 10.181641
1126687269578197, 0.7812566, 4.537988, 8.7984085, 0.011136532, 0.22803664, 9.927919
1126687279217467, 0.5778667, 4.6779685, 8.629715, 0.2106452, 0.029676914, 9.8307705
1126687288856738, 0.8889336, 5.0189457, 8.793623, -0.07797116, -0.19218397, 10.161929
1126687298496009, 0.66400826, 4.28076, 8.505288, 0.09590793, 0.3182068, 9.539146
1126687308135280, 1.0157533, 5.428118, 8.82473, -0.18675417, -0.5374203, 10.394631
1126687317774551, 0.75254273, 4.058227, 8.567501, 0.011888027, 0.54256845, 9.49437
1126687327413926, 0.9391829, 5.511867, 8.813962, -0.10979432, -0.6052542, 10.419706
1126687337053197, 0.7860422, 4.156333, 8.62134, -0.011464655, 0.49180627, 9.590541
1126687346692467, 0.72741807, 5.2462635, 8.743374, 0.08983809, -0.40639973, 10.214
1126687356331738, 0.7477571, 4.490132, 8.730213, 0.041985154, 0.24999881, 9.842396
1126687365971009, 0.56590253, 4.7784667, 8.626125, 0.22617388, -0.050631523, 9.874731
1126687375610280, 0.91405827, 5.032106, 8.792427, -0.10506868, -0.1979208, 10.169275
1126687385249551, 0.7118647, 4.3334017, 8.526823, 0.051827133, 0.29064178, 9.586693
1126687394888822, 1.0456635, 5.4017973, 8.834301, -0.20888925, -0.5031085, 10.393312
1126687404528092, 0.75254273, 4.054638, 8.589037, -0.0015740395, 0.5597842, 9.511288
1126687414167363, 0.9499506, 5.487939, 8.892925, -0.10323131, -0.546124, 10.478315
1126687423806634, 0.71425754, 4.080959, 8.622537, 0.040397823, 0.5602455, 9.549713
1126687433445905, 0.6855437, 5.2510495, 8.725428, 0.13909906, -0.41468668, 10.197316
1126687443085176, 0.6987042, 4.447061, 8.720642, 0.08059412, 0.28506947, 9.809505
1126687452724447, 0.59342, 4.8418765, 8.630911, 0.1983025, -0.10083151, 9.911563
1126687462363717, 0.9296116, 4.989035, 8.751749, -0.13085383, -0.17935133, 10.11427
1126687472002988, 0.715454, 4.4231324, 8.520842, 0.043932796, 0.20973563, 9.624699
1126687481642363, 1.0217353, 5.4221363, 8.867801, -0.19833243, -0.50047874, 10.430322
1126687491281634, 0.6664011, 4.078566, 8.632108, 0.08188659, 0.5668602, 9.553222
1126687500920905, 0.88295156, 5.5022955, 8.94796, -0.0461275, -0.5319872, 10.527853
1126687510560176, 0.70229346, 4.078566, 8.760123, 0.05649215, 0.62132764, 9.668426
1126687520199447, 0.71665037, 5.3216376, 8.896515, 0.11203885, -0.40283632, 10.382995
1126687529838717, 0.7716853, 4.368098, 8.885747, 0.0073788166, 0.42051125, 9.922469
1126687539477988, 0.6759724, 4.847859, 8.804391, 0.12476835, -0.043404102, 10.072661
1126687549117259, 0.95353985, 4.863412, 8.868998, -0.14706445, -0.029109001, 10.158674
1126687558756530, 0.6664011, 4.359723, 8.55793, 0.09136969, 0.26981974, 9.62332
1126687568395801, 0.98943216, 5.2833524, 8.774481, -0.16087782, -0.43960667, 10.279356
1126687578035072, 0.67118675, 4.0187454, 8.445468, 0.07080388, 0.52672744, 9.361853
1126687587674342, 0.9236295, 5.454439, 8.718249, -0.09790683, -0.6034169, 10.307191
1126687597313613, 0.7369894, 4.0091743, 8.453842, -0.0051412284, 0.5316489, 9.370242
1126687606952884, 0.80757767, 5.3012986, 8.664411, 0.012800217, -0.50388527, 10.177126
1126687616592259, 0.8470592, 4.3154554, 8.679964, -0.07538557, 0.3724327, 9.723068
1126687626231530, 0.7465607, 4.914858, 8.723035, 0.055763364, -0.13165808, 10.039128
1126687635870801, 0.95473623, 4.85743, 8.924032, -0.14095855, 0.0027341843, 10.204147
1126687645510072, 0.67477596, 4.438686, 8.665607, 0.10403845, 0.24631166, 9.755947
1126687655149342, 0.951147, 5.288138, 8.959925, -0.11925781, -0.36309624, 10.440462
1126687664788613, 0.6125626, 4.091727, 8.677571, 0.15025365, 0.5535681, 9.596285
1126687674427884, 0.8219346, 5.4927244, 8.933603, 0.006583154, -0.55514574, 10.504601
1126687684067155, 0.6305088, 4.025924, 8.615358, 0.12975228, 0.5810671, 9.511864
1126687693706426, 0.8003992, 5.3994045, 8.712267, 0.013136983, -0.5761118, 10.26478
1126687703345697, 0.8279166, 4.3812585, 8.6548395, -0.05537784, 0.2906525, 9.731371
1126687712984967, 0.73100734, 5.023731, 8.639286, 0.061978698, -0.27259493, 10.016555
1126687722624238, 0.8769695, 4.7952166, 8.780462, -0.077623785, -0.010566711, 10.042587
1126687732263509, 0.59581286, 4.505685, 8.60459, 0.1803366, 0.1624229, 9.728119
1126687741902780, 0.89371926, 5.237889, 8.859426, -0.06536472, -0.3612976, 10.324186
1126687751542155, 0.6436693, 4.098905, 8.590233, 0.11179054, 0.51478386, 9.525227
1126687761181426, 0.99900347, 5.5405807, 8.883354, -0.15991145, -0.6213174, 10.497544
1126687770820697, 0.76331043, 4.15394, 8.583055, -0.0017968416, 0.4535792, 9.555154
1126687780459967, 0.80997044, 5.5094743, 8.749356, 0.011245847, -0.6561618, 10.350407
1126687790099238, 0.7537391, 4.341777, 8.659625, 0.018755734, 0.32688522, 9.710872
1126687799738509, 0.6305088, 5.1409793, 8.703893, 0.17579687, -0.34752607, 10.120934
1126687809377780, 0.762114, 4.814359, 8.801998, 0.044262648, -0.0195055, 10.061397
1126687819017051, 0.51445687, 4.56072, 8.610572, 0.2713858, 0.10609293, 9.753044
1126687828656322, 0.84107715, 5.1589255, 8.829515, -0.021634817, -0.31576872, 10.255833
1126687838295592, 0.5922236, 4.071388, 8.538788, 0.17246339, 0.5031991, 9.463346
1126687847934863, 0.9882358, 5.380262, 8.834301, -0.15606761, -0.503705, 10.377411
1126687857574238, 0.9164511, 3.918247, 8.545966, -0.16013521, 0.6325414, 9.423393
1126687867213509, 1.1617154, 5.3563333, 8.742178, -0.32296377, -0.5342727, 10.299313
1126687876852780, 1.0671989, 4.1312084, 8.63809, -0.28999448, 0.4875126, 9.617724
1126687886492051, 0.8602197, 4.9160542, 8.676374, -0.0380798, -0.18015957, 10.007653
1126687896131322, 0.8961121, 4.4817567, 8.806784, -0.08898944, 0.25314498, 9.918498
1126687905770592, 0.58983076, 4.3836513, 8.660822, 0.20143181, 0.2688427, 9.719119
1126687915409863, 0.9056834, 4.928018, 8.938389, -0.07033306, -0.09031916, 10.24633
1126687925049134, 0.63529444, 3.979264, 8.7266245, 0.13630745, 0.64613724, 9.589371
1126687934688405, 1.0133604, 5.2773705, 9.090333, -0.14935791, -0.32801962, 10.553758
1126687944327676, 0.82672024, 3.8739798, 8.833105, -0.04536599, 0.7806566, 9.6490135
1126687953967051, 1.0049855, 5.346762, 9.016156, -0.1464715, -0.442935, 10.520042
1126687963606322, 0.8853444, 4.1312084, 8.823533, -0.09789711, 0.53667164, 9.767694
1126687973245592, 0.78723866, 5.0883374, 8.85823, 0.05164969, -0.2792287, 10.241999
1126687982884863, 0.8315059, 4.601398, 8.873783, -0.016178906, 0.14858818, 10.029255
1126687992524134, 0.56111693, 4.6325045, 8.694321, 0.24473473, 0.04857397, 9.864273
1126688002163405, 0.8709874, 5.131408, 8.863015, -0.022541285, -0.3179307, 10.2733345
1126688011802676, 0.5706882, 4.226921, 8.55793, 0.20508549, 0.33780217, 9.55377
1126688021441947, 0.8997013, 5.495117, 8.904889, -0.02559179, -0.61130905, 10.484678
1126688031081217, 0.69272214, 4.085745, 8.590233, 0.07895818, 0.47731996, 9.525292
1126688040720488, 0.91405827, 5.5262237, 8.774481, -0.052446008, -0.7006006, 10.386173
1126688050359863, 0.77407813, 4.2352962, 8.598608, 0.0073973536, 0.35328388, 9.609794
1126688059999134, 0.7286145, 5.24746, 8.65125, 0.11357698, -0.4980235, 10.131629
1126688069638405, 0.8279166, 4.6372905, 8.657232, -0.016855955, 0.04238987, 9.855734
1126688079277676, 0.6329016, 4.759324, 8.514859, 0.17517608, -0.12939596, 9.772776
1126688088916947, 0.92243314, 5.1003013, 8.725428, -0.07897192, -0.33526707, 10.142898
1126688098556217, 0.6652047, 4.260421, 8.488539, 0.11297989, 0.2950952, 9.515732
1126688108195488, 1.0145568, 5.38744, 8.867801, -0.14553475, -0.52500343, 10.411287
1126688117834759, 0.72382885, 3.9601214, 8.615358, 0.04253909, 0.6222055, 9.489045
1126688127474134, 0.91525465, 5.4149575, 8.88455, -0.0440284, -0.5438061, 10.430581
1126688137113405, 0.7812566, 4.046263, 8.662018, -0.0046580434, 0.56354165, 9.575781
1126688146752676, 0.78364944, 5.1218367, 8.762517, 0.055970192, -0.33470774, 10.174177
1126688156391947, 0.92602235, 4.415954, 8.816355, -0.11083627, 0.30579662, 9.89851
1126688166031217, 0.7716853, 4.6576295, 8.719446, 0.046472847, 0.048416615, 9.915304
1126688175670488, 1.0564312, 4.892126, 8.88455, -0.2129972, -0.09112167, 10.194632
1126688185309759, 0.72023964, 4.182654, 8.602198, 0.06715208, 0.4055884, 9.583431
1126688194949030, 0.99900347, 5.2510495, 8.95155, -0.12505901, -0.37370825, 10.418565
1126688204588405, 0.7369894, 3.8967116, 8.69791, 0.026627928, 0.70124507, 9.533557
1126688214227676, 0.96550393, 5.359923, 8.943174, -0.08185917, -0.48801136, 10.459276
1126688223866947, 0.8243274, 3.9744785, 8.732606, -0.05450657, 0.6404984, 9.608392
1126688233506217, 0.8530413, 5.157729, 8.845069, 0.01963967, -0.35634947, 10.268289
1126688243145488, 0.9343972, 4.388437, 8.845069, -0.11993462, 0.3168106, 9.912213
1126688252784759, 0.7477571, 4.741378, 8.712267, 0.08443713, -0.046039104, 9.946566
1126688262424030, 0.9631111, 4.928018, 8.837891, -0.11050403, -0.15718222, 10.16289
1126688272063301, 0.6161518, 4.3118663, 8.547162, 0.1773135, 0.25873637, 9.587879
1126688281702676, 0.89013004, 5.3156557, 8.830712, -0.024436593, -0.49103737, 10.333843
1126688291341947, 0.6161518, 4.007978, 8.508878, 0.1540488, 0.51104355, 9.410614
1126688300981217, 0.9056834, 5.485546, 8.812766, -0.041428626, -0.6483226, 10.399727
1126688310620488, 0.7956135, 4.1144586, 8.597412, -0.009544134, 0.4659798, 9.553011
1126688320259759, 0.8362915, 5.316852, 8.762517, 0.020415068, -0.52283573, 10.270164
1126688329899030, 0.86979103, 4.4315076, 8.766106, -0.061020553, 0.26374054, 9.857289
1126688339538301, 0.7046863, 4.875376, 8.73141, 0.12782508, -0.14511395, 10.023273
1126688349177676, 0.9379865, 4.942375, 8.896515, -0.09021354, -0.130373, 10.219087
1126688358816947, 0.6891329, 4.3800616, 8.666803, 0.10237661, 0.26503396, 9.731012
1126688368456217, 0.9954142, 5.3144593, 8.980264, -0.12195027, -0.42188072, 10.473137
1126688378095488, 0.66400826, 4.0031924, 8.705089, 0.10764894, 0.6089337, 9.584499
1126688387734759, 0.89371926, 5.416154, 8.959925, -0.008870095, -0.5100827, 10.495402
1126688397374030, 0.67836523, 3.938586, 8.617751, 0.086859435, 0.6333244, 9.477851
1126688407013405, 0.7513463, 5.1732826, 8.683554, 0.09767333, -0.42193937, 10.126398
1126688416652676, 0.77647096, 4.28076, 8.595019, 0.015239298, 0.31238365, 9.62831
1126688426291947, 0.72263247, 4.8789654, 8.52443, 0.093639225, -0.2354126, 9.845214
1126688435931217, 1.0313065, 4.8765726, 8.628518, -0.21140021, -0.18579721, 9.960757
1126688445570488, 0.83389866, 4.4674, 8.383254, -0.05239451, 0.061776876, 9.535484
1126688455209759, 1.1282159, 5.346762, 8.750552, -0.27577448, -0.54396343, 10.29859
1126688464849134, 0.72741807, 4.0761733, 8.57468, 0.05010712, 0.49846458, 9.508864
1126688474488405, 0.89491564, 5.4233327, 8.988638, -0.021914124, -0.49002075, 10.524659
1126688484127676, 0.6364908, 3.958925, 8.860622, 0.15747225, 0.7233274, 9.697467
1126688493766947, 0.74895346, 5.2941203, 9.066405, 0.123468935, -0.34955215, 10.5190735
1126688503406217, 0.77407813, 4.2759743, 9.036494, 0.04557258, 0.5141723, 10.013737
1126688513045488, 0.7429714, 4.9399824, 8.973084, 0.097548485, -0.095513344, 10.269034
1126688522684863, 0.96550393, 4.831109, 9.006584, -0.12839848, 0.009070396, 10.265175
1126688532324134, 0.71665037, 4.5355954, 8.719446, 0.085537195, 0.13978267, 9.853278
1126688541963405, 1.0085747, 5.2833524, 8.920443, -0.16287255, -0.41780758, 10.406934
1126688551602676, 0.6795616, 4.0845485, 8.632108, 0.10063857, 0.50002646, 9.560257
1126688561241947, 0.9092726, 5.48076, 8.915657, -0.051611423, -0.5945158, 10.4880085
1126688570881217, 0.6364908, 3.979264, 8.630911, 0.14708912, 0.60011744, 9.505289
1126688580520592, 0.75254273, 5.267799, 8.784052, 0.09511304, -0.47224998, 10.258826
1126688590159863, 0.7728817, 4.1168513, 8.662018, 0.013808131, 0.48940182, 9.609198
1126688599799134, 0.7860422, 4.910072, 8.660822, 0.043747425, -0.21766233, 9.984347
1126688609438405, 1.026521, 4.666004, 8.709874, -0.20076972, 0.023479939, 9.932089
1126688619077676, 0.74895346, 4.4147577, 8.471788, 0.050967455, 0.13542557, 9.5813
1126688628717051, 1.0217353, 5.1026945, 8.696713, -0.17295814, -0.3649025, 10.126757
1126688638356322, 0.6831509, 4.0570307, 8.391629, 0.08873123, 0.42266607, 9.335903
1126688647995592, 0.9726824, 5.4496536, 8.742178, -0.10004765, -0.64562464, 10.326841
1126688657634863, 0.7585248, 4.0211387, 8.478967, 0.01435411, 0.4988153, 9.401531
1126688667274134, 0.93559366, 5.4460645, 8.730213, -0.064235926, -0.636755, 10.312225
1126688676913405, 0.8542377, 4.5284166, 8.703893, -0.041462064, 0.15275216, 9.847281
1126688686552780, 0.8446664, 4.8239303, 8.859426, -0.005133629, -0.04129696, 10.122819
1126688696192051, 0.8135597, 4.6911287, 8.949157, 0.025873482, 0.11430693, 10.136185
1126688705831322, 0.762114, 4.725825, 9.014959, 0.08331758, 0.11559343, 10.206049
1126688715470592, 0.7082755, 4.6408796, 8.974281, 0.13199002, 0.1663065, 10.1258135
1126688725109863, 0.7704889, 4.6576295, 8.909675, 0.063108504, 0.119603634, 10.082221
1126688734749238, 0.81236327, 4.6612186, 8.847462, 0.016336739, 0.088653564, 10.0327635
1126688744388509, 0.8781659, 4.6528435, 8.772088, -0.05492556, 0.059702396, 9.968102
1126688754027780, 0.9415757, 4.6767716, 8.736196, -0.119330466, 0.025334835, 9.953141
1126688763667051, 0.9619147, 4.6707897, 8.687142, -0.14220756, 0.008806229, 9.90897
1126688773306322, 0.9092726, 4.6672006, 8.663215, -0.08910471, 0.0034060478, 9.881947
1126688782945697, 0.83988076, 4.648058, 8.653643, -0.017721891, 0.020047665, 9.858736
1126688792584967, 0.802792, 4.6564326, 8.63809, 0.018590212, 0.005712509, 9.845968
1126688802224238, 0.82672024, 4.6803613, 8.644072, -0.00407362, -0.011872768, 9.864536
1126688811863509, 0.84107715, 4.7018967, 8.628518, -0.022184372, -0.03559923, 9.862294
1126688821502884, 0.8470592, 4.705486, 8.62134, -0.03020519, -0.0402565, 9.858198
1126688831142155, 0.8769695, 4.735396, 8.6548395, -0.056417167, -0.05064249, 9.904219
1126688840781426, 0.8554341, 4.7569313, 8.65125, -0.035859466, -0.06947994, 9.909498
1126688850420697, 0.80159557, 4.772485, 8.672786, 0.016416192, -0.07000208, 9.931324
1126688860059967, 0.7645068, 4.7772703, 8.713464, 0.05297035, -0.05446148, 9.966216
1126688869699342, 0.77647096, 4.761717, 8.748159, 0.043013453, -0.024040222, 9.9902315
1126688879338613, 0.80997044, 4.7581277, 8.790034, 0.0063786507, -0.0039925575, 10.027987
1126688888977884, 0.86979103, 4.772485, 8.863015, -0.048497796, 0.015595913, 10.103643
1126688898617155, 0.8255238, 4.7629137, 8.916854, -0.0011050105, 0.04899931, 10.142719
1126688908256530, 0.72263247, 4.715057, 8.892925, 0.096579015, 0.08124685, 10.090696
1126688917895801, 0.65084773, 4.7078786, 8.833105, 0.16340366, 0.06055689, 10.029013
1126688927535072, 0.6628119, 4.725825, 8.773284, 0.14578784, 0.01696682, 9.986075
1126688937174342, 0.73340017, 4.76411, 8.719446, 0.06923461, -0.039933205, 9.962779
1126688946813717, 0.85184485, 4.8179483, 8.69791, -0.054507494, -0.09187508, 9.979003
1126688956452988, 0.87936234, 4.831109, 8.683554, -0.081846654, -0.110673904, 9.974871
1126688966092259, 0.85184485, 4.837091, 8.707481, -0.051708043, -0.10353947, 9.996497
1126688975731530, 0.78843504, 4.8299127, 8.7673025, 0.018220842, -0.07107592, 10.040415
1126688985370801, 0.6855437, 4.786842, 8.841479, 0.125808, 5.888939E-4, 10.0766945
1126688995010176, 0.6556334, 4.7653065, 8.882157, 0.15683553, 0.04038143, 10.099728
1126689004649447, 0.6939186, 4.7365923, 8.882157, 0.11739507, 0.061614513, 10.089201
1126689014288717, 0.75972116, 4.755735, 8.85823, 0.05219981, 0.028652191, 10.082602
1126689023927988, 0.8147561, 4.7581277, 8.784052, -0.0064261556, -0.010400295, 10.023126
1126689033567363, 0.8458628, 4.746164, 8.693125, -0.04290849, -0.041457653, 9.940243
1126689043206634, 0.8315059, 4.752146, 8.636893, -0.031126738, -0.069375515, 9.892645
1126689052845905, 0.8207382, 4.7162533, 8.584251, -0.024000227, -0.05868101, 9.828633
1126689062485176, 0.80518484, 4.7401814, 8.566305, -0.008146226, -0.08380127, 9.823042
1126689072124551, 0.8219346, 4.7174497, 8.616554, -0.021729827, -0.039917946, 9.85763
1126689081763822, 0.8530413, 4.715057, 8.666803, -0.04846269, -0.012994289, 9.903051
1126689091403092, 0.86141616, 4.7114677, 8.7266245, -0.051159143, 0.015496731, 9.954452
1126689101042363, 0.8805587, 4.6911287, 8.79123, -0.06169945, 0.0565567, 10.00304
1126689110681738, 0.86979103, 4.6875396, 8.809176, -0.047091186, 0.06468296, 10.016225
1126689120321009, 0.79920274, 4.674379, 8.810373, 0.023992538, 0.072604656, 10.005267
1126689129960280, 0.7812566, 4.648058, 8.784052, 0.039043248, 0.08303738, 9.968247
1126689139599551, 0.7585248, 4.645665, 8.76132, 0.059317827, 0.07093334, 9.945337
1126689149238926, 0.8243274, 4.6707897, 8.750552, -0.007494092, 0.04404497, 9.953189
1126689158878197, 0.9236295, 4.688736, 8.743374, -0.106913865, 0.025211334, 9.963528
1126689168517467, 0.9595219, 4.7114677, 8.7469635, -0.1420303, 0.0067420006, 9.98037
1126689178156842, 0.9523434, 4.718646, 8.750552, -0.13244933, 0.0017766953, 9.98635
1126689187796113, 0.8961121, 4.7007003, 8.7469635, -0.07725757, 0.015431881, 9.970093
1126689197435384, 0.8458628, 4.664808, 8.769695, -0.02541858, 0.056261063, 9.968935
1126689207074655, 0.82911307, 4.636094, 8.787642, -0.006246865, 0.086945534, 9.969746
1126689216714030, 0.76689965, 4.636094, 8.760123, 0.054213822, 0.073293686, 9.94047
1126689226353301, 0.70947194, 4.625326, 8.750552, 0.10954252, 0.079788685, 9.922238
1126689235992572, 0.71306115, 4.6564326, 8.725428, 0.10463232, 0.040439606, 9.915207
1126689245631842, 0.7908279, 4.7210393, 8.682357, 0.023984253, -0.03725195, 9.914383
1126689255271217, 0.86979103, 4.7976093, 8.685946, -0.058820963, -0.09878111, 9.960223
1126689264910488, 0.8662018, 4.8287163, 8.678768, -0.05543536, -0.12909698, 9.968355
1126689274549759, 0.83389866, 4.8179483, 8.68475, -0.025329113, -0.1130805, 9.965916
1126689284189134, 0.8135597, 4.773681, 8.720642, -0.004343033, -0.057130814, 9.974781
1126689293828405, 0.81595254, 4.7449675, 8.7673025, -0.004440725, -0.011638641, 10.0022955
1126689303467676, 0.82911307, 4.718646, 8.801998, -0.017046452, 0.02667141, 10.021338
1126689313106947, 0.76570326, 4.712664, 8.805588, 0.044505656, 0.033405304, 10.016525
1126689322746322, 0.74536425, 4.699504, 8.7780695, 0.06237346, 0.031737328, 9.984515
1126689332385592, 0.72502524, 4.7078786, 8.748159, 0.07757503, 0.0122179985, 9.960619
1126689342024863, 0.7537391, 4.738985, 8.773284, 0.049090207, -0.0011792183, 9.999711
1126689351664238, 0.7585248, 4.752146, 8.774481, 0.039653122, -0.009969711, 10.007402
1126689361303509, 0.8147561, 4.7581277, 8.785249, -0.016857982, -0.012203693, 10.02416
1126689370942780, 0.84347, 4.759324, 8.85464, -0.041127384, 0.019406796, 10.087873
1126689380582051, 0.7692925, 4.7401814, 8.885747, 0.03706658, 0.04633093, 10.100203
1126689390221426, 0.7298109, 4.686343, 8.892925, 0.074471176, 0.09742451, 10.077872
1126689399860697, 0.7322037, 4.666004, 8.897711, 0.07363182, 0.115009785, 10.072653
1126689409499967, 0.7393822, 4.679165, 8.853444, 0.068784654, 0.08105135, 10.04059
1126689419139342, 0.75972116, 4.7042894, 8.7673025, 0.043838084, 0.017882347, 9.97852
1126689428778613, 0.8446664, 4.7138605, 8.642876, -0.050845444, -0.041407585, 9.880735
1126689438417884, 0.951147, 4.759324, 8.544769, -0.16299826, -0.12696934, 9.824778
1126689448057259, 0.9631111, 4.776074, 8.517252, -0.17639136, -0.1497612, 9.809613
1126689457696530, 0.8769695, 4.7605205, 8.516056, -0.08753884, -0.1309452, 9.794389
1126689467335801, 0.8003992, 4.7162533, 8.580662, -0.0052574873, -0.0636096, 9.823815
1126689476975072, 0.7692925, 4.686343, 8.671589, 0.03183967, 0.0057053566, 9.88681
1126689486614447, 0.75613195, 4.688736, 8.754142, 0.05139309, 0.038680077, 9.95926
1126689496253717, 0.8003992, 4.682754, 8.835498, 0.012855113, 0.077480316, 10.031385
1126689505892988, 0.8578269, 4.6839504, 8.877372, -0.042052567, 0.091778755, 10.07337
1126689515532363, 0.8673982, 4.7222357, 8.8905325, -0.050828755, 0.060449123, 10.103822
1126689525171634, 0.83389866, 4.7318068, 8.847462, -0.022139132, 0.03294325, 10.067841
1126689534810905, 0.7573284, 4.7306104, 8.790034, 0.04772997, 0.01137495, 10.010721
1126689544450280, 0.7393822, 4.735396, 8.734999, 0.062363803, -0.018363953, 9.963264
1126689554089551, 0.7369894, 4.752146, 8.693125, 0.056479156, -0.045896053, 9.934342
1126689563728822, 0.7477571, 4.759324, 8.673982, 0.04399082, -0.060145855, 9.92183
1126689573368092, 0.7812566, 4.7545385, 8.724232, 0.013473868, -0.03393984, 9.966288
1126689583007467, 0.84107715, 4.7748775, 8.785249, -0.039780498, -0.027251244, 10.034198
1126689592646738, 0.8877372, 4.7688956, 8.816355, -0.08183551, -0.011124611, 10.062393
1126689602286009, 0.8554341, 4.753342, 8.849854, -0.0455755, 0.017716885, 10.081843
1126689611925384, 0.7704889, 4.703093, 8.845069, 0.036967397, 0.06139469, 10.047033
1126689621564655, 0.6879365, 4.682754, 8.827123, 0.116548985, 0.07199478, 10.015027
1126689631203926, 0.6687939, 4.699504, 8.776874, 0.13162392, 0.033803463, 9.977357
1126689640843301, 0.74895346, 4.699504, 8.708678, 0.047281444, 5.4359436E-4, 9.923965
