timestamp_acc,device_acc_x,device_acc_y,device_acc_z,earth_acc_x,earth_acc_y,earth_acc_z
1126573048403086, 0.29192436, 5.4017973, 8.220542, -0.00588727, -0.0706296, 9.840576
1126573058042461, 0.27996024, 5.3826547, 8.254042, 0.016130686, -0.04440689, 9.857907
1126573067681940, 0.25603202, 5.4149575, 8.297112, 0.0350101, -0.060886145, 9.910827
1126573077321315, 0.2440679, 5.4185467, 8.331808, 0.053233862, -0.054919958, 9.941499
1126573086960690, 0.2620141, 5.4484572, 8.405986, 0.047618628, -0.03555131, 10.02055
1126573096600170, 0.2835495, 5.4424753, 8.422736, 0.036367655, -0.012717485, 10.032046
1126573106239545, 0.29671, 5.424529, 8.405986, 0.027924776, -0.0012140274, 10.008666
1126573115878920, 0.30867413, 5.383851, 8.379665, 0.026245117, 0.022774935, 9.964875
1126573125518399, 0.3182454, 5.3682976, 8.376076, 0.020050764, 0.037444115, 9.95373
1126573135157774, 0.33738798, 5.3503513, 8.384451, 0.013075352, 0.06400657, 9.951625
1126573144797253, 0.38883367, 5.3563333, 8.419147, -0.026318312, 0.09992075, 9.985632
1126573154436628, 0.37806597, 5.373083, 8.465807, -0.0110862255, 0.09997606, 10.033581
1126573164076003, 0.34337005, 5.410172, 8.4347, -0.0048909187, 0.041172028, 10.02648
1126573173715482, 0.32422748, 5.4460645, 8.410771, -0.0100803375, -0.0069611073, 10.025251
1126573183354857, 0.26919255, 5.440082, 8.350951, 0.02415371, -0.05538559, 9.970038
1126573192994232, 0.2943172, 5.4484572, 8.299505, -0.016164303, -0.0727582, 9.932196
1126573202633711, 0.357727, 5.4341, 8.258827, -0.07654095, -0.045704365, 9.892304
1126573212273086, 0.3804588, 5.4185467, 8.244471, -0.09465504, -0.028461933, 9.872535
1126573221912461, 0.35294133, 5.407779, 8.26481, -0.059800625, -0.023471832, 9.8828945
1126573231551940, 0.2835495, 5.40419, 8.287541, 0.008230686, -0.04566908, 9.897821
1126573241191315, 0.18305093, 5.3826547, 8.313862, 0.11188316, -0.06724167, 9.905037
1126573250830690, 0.2009971, 5.407779, 8.347362, 0.0958581, -0.060504913, 9.947366
1126573260470170, 0.24885355, 5.393422, 8.395218, 0.07323623, -0.005713463, 9.981244
1126573270109545, 0.3589234, 5.365905, 8.396415, -0.010768175, 0.06947851, 9.970785
1126573279749024, 0.41156548, 5.3407803, 8.414361, -0.039788008, 0.12122464, 9.973892
1126573289388399, 0.4127619, 5.332405, 8.397611, -0.042003155, 0.11627293, 9.955376
1126573299027774, 0.3804588, 5.365905, 8.364112, -0.03686118, 0.060228348, 9.944399
1126573308667253, 0.34576288, 5.4017973, 8.315059, -0.03596592, -0.0073900223, 9.921584
1126573318306628, 0.30508488, 5.400601, 8.263613, -0.01613903, -0.049602985, 9.876446
1126573327946003, 0.28235307, 5.3982077, 8.226524, -0.008036375, -0.07500696, 9.84329
1126573337585482, 0.30987054, 5.395815, 8.230113, -0.029840946, -0.057816982, 9.8458805
1126573347224857, 0.32542387, 5.386244, 8.2456665, -0.032569885, -0.037376642, 9.854242
1126573356864232, 0.37208393, 5.3946185, 8.260024, -0.07043266, -0.015870333, 9.872342
1126573366503711, 0.39601216, 5.365905, 8.26481, -0.076854706, 0.01749444, 9.861573
1126573376143086, 0.3493521, 5.395815, 8.305488, -0.03536892, -0.011065245, 9.910431
1126573385782461, 0.28713873, 5.3850474, 8.370093, 0.04028058, -0.0046663284, 9.956806
1126573395421940, 0.22492532, 5.393422, 8.409575, 0.09964895, -0.02479887, 9.992498
1126573405061315, 0.19980069, 5.416154, 8.441878, 0.12191248, -0.03905821, 10.031131
1126573414700690, 0.23569304, 5.4436717, 8.492127, 0.09121251, -0.019213676, 10.089433
1126573424340170, 0.276371, 5.4867425, 8.493324, 0.03609538, -0.032850027, 10.115083
1126573433979545, 0.33020952, 5.505885, 8.5016985, -0.016299486, -0.017587423, 10.134205
1126573443618920, 0.3505485, 5.4999027, 8.504091, -0.030623913, -0.0025660992, 10.13363
1126573453258399, 0.37208393, 5.444868, 8.504091, -0.025906801, 0.04998231, 10.104526
1126573462897774, 0.36251262, 5.3742795, 8.472985, 0.002295971, 0.08334994, 10.039861
1126573472537149, 0.37567315, 5.3336015, 8.425129, -0.006939888, 0.09865785, 9.978047
1126573482176628, 0.32662028, 5.2977095, 8.365308, 0.031309128, 0.07437873, 9.906779
1126573491816003, 0.28594232, 5.255835, 8.274381, 0.056480885, 0.045067787, 9.806412
1126573501455482, 0.27876383, 5.279763, 8.183454, 0.02680397, -0.014667749, 9.742772
1126573511094857, 0.276371, 5.3479586, 8.106883, -0.017684698, -0.102448225, 9.71534
1126573520734232, 0.2883351, 5.3994045, 8.112865, -0.04460597, -0.13006616, 9.74866
1126573530373711, 0.30867413, 5.456832, 8.2014, -0.056693077, -0.122766495, 9.8547945
1126573540013086, 0.33140594, 5.474778, 8.29113, -0.058955193, -0.0837214, 9.940594
1126573549652461, 0.33379877, 5.4496536, 8.3581295, -0.030342579, -0.033272505, 9.98331
1126573559291940, 0.29910284, 5.413761, 8.426325, 0.03223753, 0.010047197, 10.019983
1126573568931315, 0.32303107, 5.363512, 8.452646, 0.035869837, 0.07022333, 10.015619
1126573578570690, 0.3469593, 5.3072805, 8.432307, 0.031792164, 0.11369109, 9.968826
1126573588210170, 0.34217364, 5.304888, 8.426325, 0.032598495, 0.108034134, 9.962387
1126573597849545, 0.317049, 5.337191, 8.376076, 0.024886847, 0.047785282, 9.936895
1126573607488920, 0.32542387, 5.38744, 8.350951, -0.010350466, 0.0020844936, 9.943274
1126573617128399, 0.3278167, 5.4317074, 8.359326, -0.026233912, -0.02713108, 9.974358
1126573626767774, 0.34337005, 5.4687963, 8.395218, -0.042317867, -0.031438112, 10.025096
1126573636407149, 0.34576288, 5.493921, 8.427522, -0.04498768, -0.034105062, 10.065916
1126573646046628, 0.33738798, 5.5022955, 8.440681, -0.035208464, -0.038161278, 10.081244
1126573655686003, 0.30867413, 5.4640107, 8.426325, 0.002907753, -0.029818058, 10.0475235
1126573665325378, 0.30508488, 5.407779, 8.395218, 0.021510363, -1.6641617E-4, 9.990813
1126573674964857, 0.30508488, 5.343173, 8.359326, 0.036977768, 0.032964706, 9.925647
1126573684604232, 0.31585258, 5.3108697, 8.300702, 0.023533106, 0.03530526, 9.859257
1126573694243607, 0.30149564, 5.306084, 8.240881, 0.019648552, 0.00719738, 9.805972
1126573703883086, 0.2536392, 5.298906, 8.2014, 0.052001476, -0.029788017, 9.7674
1126573713522461, 0.2739782, 5.346762, 8.224132, 0.02128625, -0.04331994, 9.813101
1126573723161836, 0.26919255, 5.3970113, 8.210971, 5.567074E-4, -0.0875628, 9.82917
1126573732801315, 0.29910284, 5.4412785, 8.193025, -0.047693014, -0.112682104, 9.839088
1126573742440690, 0.33020952, 5.45085, 8.242078, -0.06347394, -0.07985067, 9.886468
1126573752080065, 0.3924229, 5.4592247, 8.281559, -0.10767889, -0.038658142, 9.92614
1126573761719440, 0.39720857, 5.4293146, 8.329415, -0.086048126, 0.00709939, 9.950224
1126573771358920, 0.34097722, 5.3994045, 8.377272, -0.01216054, 0.022377968, 9.972356
1126573780998295, 0.29312077, 5.3766723, 8.398808, 0.04499221, 0.0255754, 9.976563
1126573790637670, 0.24526432, 5.3886366, 8.407183, 0.0830574, -0.00309968, 9.988563
1126573800277149, 0.21894327, 5.389833, 8.449057, 0.116455555, 0.0024724007, 10.023534
1126573809916524, 0.22372891, 5.4053864, 8.469396, 0.11219978, 2.3412704E-4, 10.049196
1126573819555899, 0.33140594, 5.4317074, 8.484949, 0.01166153, 0.037131786, 10.079987
1126573829195378, 0.41156548, 5.424529, 8.4813595, -0.05778861, 0.07747531, 10.075665
1126573838834753, 0.45942193, 5.416154, 8.444271, -0.105569124, 0.08781052, 10.041546
1126573848474128, 0.44985065, 5.3814583, 8.365308, -0.10359454, 0.07447767, 9.956133
1126573858113607, 0.3589234, 5.3515477, 8.304291, -0.029000998, 0.028713942, 9.88572
1126573867752982, 0.28953153, 5.3072805, 8.219346, 0.024296999, -0.0059518814, 9.78816
1126573877392357, 0.2536392, 5.2893343, 8.16431, 0.048229933, -0.03437519, 9.731076
1126573887031836, 0.2644069, 5.3132625, 8.177471, 0.02909875, -0.03893614, 9.755478
1126573896671211, 0.2847459, 5.3826547, 8.210971, -0.005010128, -0.06723285, 9.821892
1126573906310586, 0.31944183, 5.454439, 8.274381, -0.044745207, -0.076143265, 9.915167
1126573915949961, 0.33020952, 5.477171, 8.340183, -0.03974867, -0.05945754, 9.983085
1126573925589440, 0.3397808, 5.495117, 8.398808, -0.03917122, -0.040983677, 10.0423355
1126573935228815, 0.32542387, 5.4843497, 8.437093, -0.010293722, -0.021757603, 10.068165
1126573944868190, 0.317049, 5.4496536, 8.428718, 0.0077695847, -0.0031142235, 10.042034
1126573954507670, 0.317049, 5.3814583, 8.396415, 0.022291422, 0.034259558, 9.977913
1126573964147045, 0.32303107, 5.345566, 8.350951, 0.01371336, 0.045387745, 9.920463
1126573973786420, 0.2943172, 5.3012986, 8.304291, 0.042948008, 0.04380274, 9.856363
1126573983425795, 0.2835495, 5.306084, 8.228917, 0.029291153, 0.0010869503, 9.795362
1126573993065274, 0.2883351, 5.3623157, 8.183454, -0.008303881, -0.060566425, 9.787889
1126574002704649, 0.29192436, 5.407779, 8.210971, -0.017105103, -0.08080506, 9.835777
1126574012344024, 0.31226337, 5.4233327, 8.270791, -0.02239275, -0.056094408, 9.895069
1126574021983503, 0.35413775, 5.4424753, 8.390432, -0.033956528, 0.005094528, 10.007205
1126574031622878, 0.38165522, 5.424529, 8.443074, -0.035191298, 0.053264856, 10.04254
1126574041262253, 0.35533416, 5.395815, 8.447861, 5.450249E-4, 0.064852, 10.030115
1126574050901628, 0.3182454, 5.373083, 8.3784685, 0.022587776, 0.031648874, 9.958341
1126574060541107, 0.2739782, 5.3587265, 8.331808, 0.053349495, 1.11579895E-4, 9.909956
1126574070180482, 0.25124636, 5.352744, 8.310273, 0.06777811, -0.014842987, 9.887912
1126574079819857, 0.28953153, 5.40419, 8.328219, 0.01935029, -0.026988268, 9.93213
1126574089459336, 0.26679972, 5.1661043, 8.26122, 0.11067891, 0.10931873, 9.745941
1126574099098711, 0.47736812, 5.8875403, 8.467003, -0.29035544, -0.23730898, 10.317002
1126574108738086, 0.27756742, 4.8825545, 8.163115, 0.18930125, 0.28051758, 9.509905
1126574118377461, 0.44985065, 6.1567326, 8.475378, -0.36878347, -0.43984032, 10.469494
1126574128016940, 0.2620141, 4.715057, 8.1942215, 0.268808, 0.4224522, 9.444308
1126574137656315, 0.31944183, 6.0227346, 8.422736, -0.20850754, -0.42609024, 10.348567
1126574147295690, 0.30149564, 4.895715, 8.269595, 0.18598104, 0.3411796, 9.606983
1126574156935065, 0.25124636, 5.6482577, 8.311469, -0.041673183, -0.23377562, 10.049383
1126574166574545, 0.3481557, 5.334798, 8.38804, 0.01013279, 0.08282328, 9.946534
1126574176213920, 0.15792629, 5.15414, 8.246863, 0.20971227, 0.06889677, 9.723792
1126574185853295, 0.38285163, 5.7858453, 8.4705925, -0.16343069, -0.20060086, 10.2619
1126574195492670, 0.23090738, 4.7892346, 8.170293, 0.24914014, 0.34613776, 9.463716
1126574205132149, 0.42592242, 6.0957155, 8.446664, -0.31469846, -0.43115664, 10.411549
1126574214771524, 0.2440679, 4.6875396, 8.141579, 0.27266896, 0.42243838, 9.384299
1126574224410899, 0.35653058, 6.0550375, 8.395218, -0.2566328, -0.440969, 10.344563
1126574234050378, 0.36251262, 4.8993044, 8.275578, 0.12171769, 0.3709383, 9.615997
1126574243689753, 0.3182454, 5.716453, 8.397611, -0.09853697, -0.20242691, 10.161117
1126574253329128, 0.43908295, 5.316852, 8.455039, -0.044876575, 0.17770624, 9.995789
1126574262968503, 0.24047868, 5.2570314, 8.267202, 0.10555673, 0.04155779, 9.799386
1126574272607878, 0.43429732, 5.84088, 8.46102, -0.23339152, -0.21341419, 10.285589
1126574282247357, 0.22851457, 4.84068, 8.151151, 0.2462008, 0.29891086, 9.475005
1126574291886732, 0.41515473, 6.084948, 8.469396, -0.29419708, -0.4077325, 10.424817
1126574301526107, 0.24885355, 4.688736, 8.170293, 0.27193975, 0.4373355, 9.409286
1126574311165482, 0.35533416, 6.0729837, 8.455039, -0.23085737, -0.4278164, 10.404748
1126574320804961, 0.2847459, 4.881358, 8.297112, 0.20534122, 0.37407207, 9.6212635
1126574330444336, 0.25603202, 5.784649, 8.402397, -0.047382593, -0.2797823, 10.200367
1126574340083711, 0.3361916, 5.304888, 8.397611, 0.033838272, 0.114650965, 9.937827
1126574349723086, 0.16390835, 5.306084, 8.2348995, 0.1506406, -0.030369759, 9.796497
1126574359362565, 0.3505485, 5.7355957, 8.373683, -0.12829375, -0.21729326, 10.152577
1126574369001940, 0.17826529, 4.8191447, 8.112865, 0.26986384, 0.2963276, 9.429415
1126574378641315, 0.42592242, 5.9916277, 8.4347, -0.27661872, -0.34585285, 10.345485
1126574388280690, 0.3062813, 4.618148, 8.142776, 0.23363745, 0.5182681, 9.348941
1126574397920170, 0.4438686, 6.038288, 8.382058, -0.31738448, -0.40597153, 10.327211
1126574407559545, 0.33499518, 4.8011985, 8.175078, 0.14419603, 0.3998196, 9.477077
1126574417198920, 0.33140594, 5.808577, 8.254042, -0.18015695, -0.3320372, 10.091379
1126574426838295, 0.37208393, 5.258228, 8.22772, -0.027331114, 0.09630132, 9.771017
1126574436477670, 0.20817557, 5.3766723, 8.177471, 0.065820694, -0.09098196, 9.788279
1126574446117045, 0.42592242, 5.7834525, 8.428718, -0.20930243, -0.18473005, 10.227174
1126574455756524, 0.21894327, 4.9495535, 8.242078, 0.2225771, 0.26714444, 9.610252
1126574465395899, 0.4127619, 6.084948, 8.596215, -0.24936199, -0.34599257, 10.531382
1126574475035274, 0.19621146, 4.7018967, 8.299505, 0.34006584, 0.47237659, 9.523095
1126574484674649, 0.32183465, 6.1292152, 8.554341, -0.20710015, -0.43121052, 10.517548
1126574494314128, 0.25962126, 4.8047876, 8.297112, 0.25034356, 0.41493583, 9.579178
1126574503953503, 0.2644069, 5.8360944, 8.4012, -0.08900261, -0.30913544, 10.227736
1126574513592878, 0.32303107, 5.1661043, 8.365308, 0.08442545, 0.20181394, 9.83481
1126574523232253, 0.23330021, 5.377869, 8.26481, 0.06236267, -0.043432236, 9.862922
1126574532871628, 0.4438686, 5.651847, 8.403593, -0.18627334, -0.09395027, 10.134952
1126574542511003, 0.24885355, 4.912465, 8.160722, 0.19250822, 0.26812482, 9.522745
1126574552150482, 0.40797627, 6.01436, 8.475378, -0.25997114, -0.3477006, 10.391464
1126574561789857, 0.19860429, 4.6803613, 8.153543, 0.31329322, 0.4251578, 9.388641
1126574571429232, 0.33379877, 6.087341, 8.403593, -0.24239683, -0.47538328, 10.368353
1126574581068607, 0.2620141, 4.753342, 8.179864, 0.23743355, 0.39988112, 9.452871
1126574590707982, 0.3278167, 5.9210396, 8.330612, -0.19580817, -0.38790894, 10.216481
1126574600347461, 0.3900301, 5.1816573, 8.297112, -0.002952814, 0.18831897, 9.788173
1126574609986836, 0.2321038, 5.4664035, 8.260024, 0.029339552, -0.11333537, 9.907055
1126574619626211, 0.38644084, 5.6123657, 8.403593, -0.12353325, -0.0874691, 10.11165
1126574629265586, 0.1902294, 4.9674997, 8.13799, 0.21216536, 0.18939519, 9.53196
1126574638904961, 0.39960137, 5.9844494, 8.423932, -0.2610078, -0.35154963, 10.331709
1126574648544440, 0.2009971, 4.6971107, 8.132008, 0.2936684, 0.39721656, 9.380233
1126574658183815, 0.38285163, 6.1196437, 8.455039, -0.2766459, -0.44934893, 10.431004
1126574667823190, 0.2727818, 4.7449675, 8.237292, 0.23851466, 0.44870472, 9.496519
1126574677462565, 0.317049, 5.942575, 8.459825, -0.16365647, -0.33809376, 10.3364525
1126574687101940, 0.37567315, 5.0859447, 8.462217, 0.09598756, 0.33205605, 9.874088
1126574696741315, 0.3182454, 5.4783673, 8.453842, 0.0025172234, 0.0053486824, 10.078751
1126574706380795, 0.48454657, 5.5202417, 8.519645, -0.1446197, 0.074929, 10.16197
1126574716020170, 0.27876383, 4.9363933, 8.1679, 0.16009712, 0.25575757, 9.54302
1126574725659545, 0.4319045, 5.9150577, 8.384451, -0.28111959, -0.30498385, 10.261648
1126574735298920, 0.18664017, 4.705486, 8.062616, 0.2963941, 0.33615685, 9.326381
1126574744938295, 0.32063824, 6.1627145, 8.338987, -0.30061793, -0.553457, 10.3548975
1126574754577670, 0.20458634, 4.7748775, 8.088937, 0.26323628, 0.31096554, 9.386492
1126574764217045, 0.27038896, 6.0215383, 8.372486, -0.18350267, -0.4598441, 10.304632
1126574773856524, 0.3397808, 5.1050873, 8.366505, 0.08848786, 0.25155258, 9.803299
1126574783495899, 0.22971097, 5.5872407, 8.355737, 0.008425951, -0.16173983, 10.052966
1126574793135274, 0.36251262, 5.5501523, 8.455039, -0.06771493, -0.03065896, 10.120167
1126574802774649, 0.20578274, 5.10748, 8.2049885, 0.16856003, 0.11584544, 9.664819
1126574812414024, 0.40558344, 5.9617176, 8.46102, -0.24956131, -0.31819868, 10.350454
1126574822053399, 0.21655045, 4.703093, 8.202596, 0.30147696, 0.4264152, 9.443296
1126574831692774, 0.39840496, 6.0526447, 8.537591, -0.25768638, -0.34768438, 10.464054
1126574841332253, 0.29312077, 4.5966125, 8.251649, 0.29515314, 0.5646467, 9.428602
1126574850971628, 0.38404804, 5.9138613, 8.407183, -0.23527813, -0.30926752, 10.2786665
1126574860611003, 0.39601216, 4.930411, 8.228917, 0.062544346, 0.3440447, 9.594715
1126574870250378, 0.27876383, 5.588437, 8.242078, -0.0688715, -0.19862843, 9.959719
1126574879889753, 0.36251262, 5.4927244, 8.297112, -0.093658924, -0.061241627, 9.956455
1126574889529128, 0.1591227, 5.157729, 8.120044, 0.16459322, 0.017699242, 9.619521
1126574899168503, 0.37447673, 5.938986, 8.437093, -0.22416759, -0.32602167, 10.316964
1126574908807982, 0.21535404, 4.7784667, 8.233703, 0.27455294, 0.3882656, 9.510408
1126574918447357, 0.45224348, 6.145965, 8.571091, -0.32223296, -0.38746977, 10.544527
1126574928086732, 0.3290131, 4.7102714, 8.26122, 0.20583618, 0.4990301, 9.500066
1126574937726107, 0.34337005, 6.005985, 8.425129, -0.22055984, -0.3929441, 10.342607
1126574947365482, 0.2727818, 4.9196434, 8.280363, 0.1930939, 0.32144594, 9.628142
1126574957004857, 0.16869399, 5.6147585, 8.329415, 0.053753138, -0.22245216, 10.043943
1126574966644232, 0.31345975, 5.3647084, 8.365308, 0.019030571, 0.04790616, 9.942539
1126574976283607, 0.22851457, 5.113462, 8.1738825, 0.13405252, 0.10752821, 9.642744
1126574985923086, 0.465404, 5.849255, 8.421539, -0.27885818, -0.22401214, 10.257912
1126574995562461, 0.25244278, 4.792824, 8.148758, 0.21860123, 0.3483987, 9.4481735
1126575005201836, 0.44027936, 6.1531434, 8.5016985, -0.3412664, -0.42749643, 10.489742
1126575014841211, 0.25004998, 4.723432, 8.228917, 0.2654916, 0.44606113, 9.477286
1126575024480586, 0.30987054, 6.081359, 8.421539, -0.2103672, -0.47277594, 10.379475
1126575034119961, 0.29790643, 4.900501, 8.281559, 0.17050183, 0.35877538, 9.619257
1126575043759336, 0.27756742, 5.6757755, 8.362915, -0.05491495, -0.20503664, 10.108649
1126575053398711, 0.35653058, 5.3108697, 8.410771, 0.008439064, 0.12539077, 9.952775
1126575063038086, 0.20338993, 5.17089, 8.279166, 0.16313028, 0.10390258, 9.76149
1126575072677565, 0.4019942, 5.7655063, 8.508878, -0.17125106, -0.15289307, 10.283529
1126575082316940, 0.18424734, 4.776074, 8.203793, 0.30056977, 0.35384464, 9.483221
1126575091956315, 0.36490545, 6.1064835, 8.514859, -0.25226235, -0.42339373, 10.472929
1126575101595690, 0.22013968, 4.6875396, 8.170293, 0.28544807, 0.43358064, 9.407746
1126575111235065, 0.3684947, 6.0921264, 8.394022, -0.29613876, -0.46706653, 10.363567
1126575120874440, 0.33020952, 4.9232326, 8.242078, 0.11741853, 0.32956934, 9.599829
1126575130513815, 0.29072794, 5.802595, 8.377272, -0.10819149, -0.28891134, 10.190099
1126575140153190, 0.38883367, 5.3383875, 8.440681, -0.027154922, 0.13726878, 9.993753
1126575149792565, 0.2321038, 5.2666025, 8.30788, 0.108347654, 0.061344147, 9.838512
1126575159431940, 0.4235296, 5.7487564, 8.475378, -0.1845429, -0.14924765, 10.24711
1126575169071315, 0.18424734, 4.8191447, 8.133204, 0.2665224, 0.29991126, 9.447018
1126575178710795, 0.3481557, 6.038288, 8.398808, -0.24401832, -0.43368196, 10.338012
1126575188350170, 0.17706887, 4.6037908, 8.09133, 0.3368547, 0.44532394, 9.294303
1126575197989545, 0.33379877, 6.038288, 8.35454, -0.24485826, -0.4611268, 10.300392
1126575207628920, 0.31465617, 4.820341, 8.232507, 0.18463564, 0.39317203, 9.535209
1126575217268295, 0.3074777, 5.812166, 8.419147, -0.1312151, -0.26797915, 10.230778
1126575226907670, 0.38644084, 5.24746, 8.4705925, 0.029450178, 0.21944094, 9.969308
1126575236547045, 0.2009971, 5.332405, 8.30788, 0.115978956, -0.010599613, 9.87331
1126575246186420, 0.38524446, 5.749953, 8.445468, -0.16350985, -0.17506766, 10.221494
1126575255825795, 0.19740787, 4.895715, 8.170293, 0.24490476, 0.25125003, 9.520376
1126575265465170, 0.41156548, 6.0717874, 8.43111, -0.32263684, -0.40448332, 10.385179
1126575275104649, 0.25244278, 4.662415, 8.115258, 0.26752698, 0.4349525, 9.348717
1126575284744024, 0.38285163, 6.10768, 8.428718, -0.30010748, -0.44382572, 10.402239
1126575294383399, 0.3385844, 4.790431, 8.243274, 0.15974629, 0.437001, 9.528795
1126575304022774, 0.32303107, 5.7858453, 8.365308, -0.14619398, -0.26852012, 10.171787
1126575313662149, 0.37088752, 5.1625147, 8.333005, 0.028473377, 0.20946193, 9.807315
1126575323301524, 0.21894327, 5.3790655, 8.221739, 0.060438156, -0.07094288, 9.827034
1126575332940899, 0.37447673, 5.6709895, 8.377272, -0.1452496, -0.15022564, 10.121037
1126575342580274, 0.17467605, 4.924429, 8.103293, 0.23392892, 0.19389653, 9.479006
1126575352219649, 0.39361933, 6.050252, 8.472985, -0.28180695, -0.3835535, 10.407951
1126575361859024, 0.22492532, 4.7018967, 8.237292, 0.30984247, 0.44613647, 9.471874
1126575371498399, 0.36610186, 6.1208405, 8.538788, -0.27533484, -0.4174726, 10.500453
1126575381137774, 0.23330021, 4.782056, 8.364112, 0.3129785, 0.44252157, 9.622218
1126575390777253, 0.2536392, 5.871987, 8.482556, -0.09461069, -0.313483, 10.314606
1126575400416628, 0.3062813, 5.119444, 8.408379, 0.13053608, 0.24408436, 9.845138
1126575410056003, 0.21415763, 5.407779, 8.283952, 0.064667225, -0.074931145, 9.894645
1126575419695378, 0.4139583, 5.6147585, 8.423932, -0.15069103, -0.07137346, 10.130732
1126575429334753, 0.2536392, 4.981857, 8.183454, 0.16040468, 0.21839166, 9.580122
1126575438974128, 0.45942193, 6.0227346, 8.512466, -0.31392217, -0.31647062, 10.428221
1126575448613503, 0.2321038, 4.668397, 8.2253275, 0.30729103, 0.47063446, 9.443935
1126575458252878, 0.39361933, 6.084948, 8.492127, -0.28019428, -0.41234016, 10.442664
1126575467892253, 0.3062813, 4.709075, 8.190632, 0.21324539, 0.46036577, 9.439186
1126575477531628, 0.33738798, 5.901897, 8.29472, -0.21775556, -0.3873093, 10.17601
1126575487171003, 0.35174492, 5.0823555, 8.207381, 0.044938803, 0.20696211, 9.657657
1126575496810378, 0.20817557, 5.515456, 8.16431, 0.0054962635, -0.20894456, 9.852708
1126575506449857, 0.3493521, 5.625526, 8.299505, -0.12201285, -0.16668797, 10.030338
1126575516089232, 0.15194423, 5.0105705, 8.135597, 0.22929013, 0.13950276, 9.552216
1126575525728607, 0.39481574, 5.9581285, 8.550752, -0.2147553, -0.27457142, 10.423484
1126575535367982, 0.2213361, 4.666004, 8.359326, 0.35459065, 0.5333719, 9.554511
1126575545007357, 0.39481574, 6.084948, 8.664411, -0.23712659, -0.31420803, 10.5877075
1126575554646732, 0.29910284, 4.6779685, 8.3377905, 0.28273392, 0.539608, 9.545705
1126575564286107, 0.37686956, 5.9353967, 8.46461, -0.219733, -0.31091976, 10.338067
1126575573925482, 0.36011982, 5.083552, 8.35454, 0.07548809, 0.26361275, 9.7824
1126575583564857, 0.21655045, 5.6303115, 8.2660055, -0.022194862, -0.2526331, 10.000491
1126575593204232, 0.35533416, 5.608776, 8.335398, -0.11803579, -0.14004445, 10.051366
1126575602843607, 0.16749759, 5.1266227, 8.152347, 0.18022394, 0.0505054, 9.629955
1126575612482982, 0.4139583, 5.973682, 8.513663, -0.25469565, -0.29634666, 10.401251
1126575622122357, 0.24526432, 4.692325, 8.242078, 0.29408085, 0.46041393, 9.471613
1126575631761732, 0.45104706, 6.0323057, 8.510074, -0.3005817, -0.32808065, 10.431468
1126575641401211, 0.29671, 4.597809, 8.219346, 0.29182243, 0.5424583, 9.402452
1126575651040586, 0.31465617, 5.9066825, 8.335398, -0.19089198, -0.38423634, 10.211889
1126575660679961, 0.276371, 4.92084, 8.1738825, 0.16768527, 0.27091742, 9.539492
1126575670319336, 0.16390835, 5.535795, 8.188239, 0.042672396, -0.23639274, 9.8823805
1126575679958711, 0.32183465, 5.477171, 8.318648, -0.044555664, -0.061694145, 9.964794
1126575689598086, 0.19262223, 5.1457653, 8.166703, 0.15152287, 0.05602908, 9.653236
1126575699237461, 0.4534399, 5.9712887, 8.487342, -0.29896498, -0.29430342, 10.378868
1126575708876836, 0.27038896, 4.813163, 8.248059, 0.23302317, 0.37931752, 9.543162
1126575718516211, 0.47976094, 6.1806607, 8.606983, -0.36310124, -0.3970647, 10.59346
1126575728155586, 0.3361916, 4.7042894, 8.334201, 0.22932577, 0.53531694, 9.558407
1126575737794961, 0.36490545, 5.994021, 8.492127, -0.22601628, -0.36376047, 10.392031
1126575747434336, 0.2620141, 4.853841, 8.361719, 0.24668002, 0.39097142, 9.660904
1126575757073711, 0.18305093, 5.5310097, 8.384451, 0.06976557, -0.14366746, 10.044853
1126575766713190, 0.33379877, 5.3276196, 8.437093, 0.021252394, 0.10551262, 9.983382
1126575776352565, 0.19980069, 5.10748, 8.224132, 0.16492057, 0.10993028, 9.681082
1126575785991940, 0.4235296, 5.875576, 8.480164, -0.24412942, -0.25156546, 10.3195
1126575795631315, 0.22851457, 4.843073, 8.212168, 0.23052382, 0.3152616, 9.528628
1126575805270690, 0.38883367, 6.204589, 8.541181, -0.32285833, -0.4874282, 10.547894
1126575814910065, 0.24526432, 4.7712884, 8.254042, 0.26388574, 0.39975047, 9.524974
1126575824549440, 0.3505485, 6.078966, 8.451449, -0.25100613, -0.44994926, 10.403761
1126575834188815, 0.30269206, 4.8969116, 8.287541, 0.16610861, 0.3530581, 9.623017
1126575843828190, 0.2416751, 5.639883, 8.316256, -0.040201426, -0.22466755, 10.048616
1126575853467565, 0.34456646, 5.304888, 8.365308, 0.0031321049, 0.09784341, 9.911073
1126575863106940, 0.19860429, 5.157729, 8.169097, 0.13292527, 0.0516901, 9.662062
1126575872746315, 0.46660042, 5.7966127, 8.439486, -0.2666819, -0.18442631, 10.243937
1126575882385690, 0.27756742, 4.7605205, 8.212168, 0.21669638, 0.4050355, 9.485161
1126575892025065, 0.4989035, 6.0550375, 8.608179, -0.3367176, -0.29005003, 10.526901
1126575901664440, 0.29790643, 4.6325045, 8.304291, 0.26843417, 0.5580652, 9.493503
1126575911303920, 0.32422748, 6.033502, 8.477771, -0.21529579, -0.4216466, 10.399843
1126575920943295, 0.21774685, 4.883751, 8.252846, 0.2266295, 0.31237078, 9.584309
1126575930582670, 0.14596218, 5.7954164, 8.283952, -0.012619257, -0.40757608, 10.102758
1126575940222045, 0.26799613, 5.3443694, 8.292327, 0.030441523, 3.2782555E-4, 9.868935
1126575949861420, 0.17228323, 5.259424, 8.142776, 0.109506845, -0.04785514, 9.694419
1126575959500795, 0.40079778, 5.7690954, 8.420342, -0.20047331, -0.2084322, 10.21086
1126575969140170, 0.22492532, 4.8418765, 8.2014, 0.23233104, 0.3200009, 9.518453
1126575978779545, 0.45104706, 6.076573, 8.549556, -0.32706833, -0.35433435, 10.487638
1126575988418920, 0.25842485, 4.618148, 8.249256, 0.30637372, 0.52117157, 9.438158
1126575998058295, 0.37447673, 6.0011992, 8.477771, -0.24207568, -0.3632865, 10.384443
1126576007697670, 0.32662028, 4.7688956, 8.315059, 0.21918893, 0.45930076, 9.577591
1126576017337045, 0.30388847, 5.7607207, 8.405986, -0.12169385, -0.24760318, 10.191307
1126576026976420, 0.38524446, 5.271388, 8.422736, -0.0076727867, 0.15750504, 9.9425125
1126576036615899, 0.20338993, 5.3647084, 8.303095, 0.083533525, -0.050631523, 9.887028
1126576046255274, 0.36490545, 5.7930236, 8.523234, -0.15829396, -0.19473076, 10.308968
1126576055894649, 0.14596218, 4.9399824, 8.276773, 0.28190494, 0.24437523, 9.632784
1126576065534024, 0.39840496, 6.1005015, 8.599805, -0.26744103, -0.37843513, 10.541193
1126576075173399, 0.24047868, 4.7042894, 8.295917, 0.29122674, 0.47511172, 9.523648
1126576084812774, 0.357727, 6.1064835, 8.536395, -0.2516632, -0.42424917, 10.490179
1126576094452149, 0.24765715, 4.7688956, 8.310273, 0.26145065, 0.44054174, 9.5708885
1126576104091524, 0.23330021, 5.76431, 8.416754, -0.048281193, -0.2816968, 10.200087
1126576113730899, 0.3074777, 5.1146584, 8.364112, 0.10150385, 0.22777891, 9.8056345
1126576123370274, 0.22851457, 5.2845488, 8.208578, 0.071913004, -0.012462854, 9.764941
1126576133009649, 0.43788654, 5.5920267, 8.321041, -0.19488335, -0.1023767, 10.032637
1126576142649024, 0.25842485, 4.816752, 8.001599, 0.15653396, 0.2598827, 9.338172
1126576152288503, 0.4761717, 5.99761, 8.361719, -0.35150456, -0.37652493, 10.288397
1126576161927878, 0.28594232, 4.6695933, 8.087741, 0.192451, 0.4386711, 9.331076
1126576171567253, 0.39720857, 6.113662, 8.338987, -0.32466054, -0.51724195, 10.329588
1126576181206628, 0.25722843, 4.8119664, 8.148758, 0.19026566, 0.33555245, 9.459105
1126576190846003, 0.25842485, 5.9246287, 8.340183, -0.13093615, -0.42114925, 10.224096
1126576200485378, 0.317049, 5.211568, 8.445468, 0.0793283, 0.19964767, 9.926768
1126576210124753, 0.21535404, 5.4484572, 8.465807, 0.09639001, -0.018510818, 10.069374
1126576219764128, 0.40797627, 5.625526, 8.63809, -0.09548521, 0.010005951, 10.316025
1126576229403503, 0.21415763, 4.965107, 8.368897, 0.2524972, 0.29185867, 9.72562
1126576239042878, 0.39720857, 6.023931, 8.629715, -0.23859024, -0.29354858, 10.524942
1126576248682253, 0.12323037, 4.6839504, 8.269595, 0.41525006, 0.41567278, 9.4866
1126576258321732, 0.2847459, 6.114858, 8.4909315, -0.20375204, -0.47964168, 10.454517
1126576267961107, 0.2321038, 4.7365923, 8.236095, 0.28423834, 0.40586424, 9.490888
1126576277600482, 0.3290131, 5.8947186, 8.377272, -0.19436717, -0.34365773, 10.241033
1126576287239857, 0.43429732, 5.0823555, 8.360522, 0.007900953, 0.30103874, 9.789104
1126576296879232, 0.34456646, 5.487939, 8.276773, -0.08310294, -0.08370304, 9.936161
1126576306518607, 0.47377887, 5.584848, 8.362915, -0.20893455, -0.05871725, 10.0651
1126576316157982, 0.22731815, 4.944768, 8.103293, 0.16811395, 0.20050001, 9.491961
1126576325797357, 0.3589234, 5.9377894, 8.4012, -0.21957111, -0.3584423, 10.285409
1126576335436732, 0.124426775, 4.6468616, 8.126026, 0.3793602, 0.39411378, 9.345688
1126576345076107, 0.3278167, 6.0825553, 8.46102, -0.23867536, -0.45100117, 10.413139
1126576354715482, 0.25244278, 4.6959143, 8.216953, 0.263412, 0.451396, 9.45307
1126576364354961, 0.30388847, 5.960521, 8.379665, -0.19216537, -0.4120288, 10.277756
1126576373994336, 0.31944183, 5.139783, 8.360522, 0.08205366, 0.20976138, 9.81667
1126576383633711, 0.21415763, 5.6410794, 8.365308, -3.7884712E-4, -0.20913267, 10.089712
1126576393273086, 0.37328035, 5.5968122, 8.518449, -0.088630915, -0.035787106, 10.198946
1126576402912461, 0.18305093, 5.048856, 8.34138, 0.23215604, 0.21376634, 9.746974
1126576412551836, 0.4139583, 5.9114685, 8.664411, -0.1986587, -0.18966532, 10.493495
1126576422191211, 0.20697916, 4.6528435, 8.396415, 0.36699915, 0.5468612, 9.579031
1126576431830586, 0.38404804, 6.0490556, 8.664411, -0.21470356, -0.3049221, 10.567474
1126576441469961, 0.25962126, 4.615755, 8.321041, 0.3306918, 0.55793166, 9.496932
1126576451109440, 0.33260235, 5.9246287, 8.415557, -0.20384693, -0.3440416, 10.289488
1126576460748815, 0.4127619, 4.9926243, 8.257631, 0.034223318, 0.31885004, 9.653099
1126576470388190, 0.33499518, 5.588437, 8.208578, -0.13862276, -0.18943286, 9.933202
1126576480027565, 0.4354937, 5.5094743, 8.246863, -0.18758988, -0.06431198, 9.925492
1126576489666940, 0.19381863, 5.127819, 8.026724, 0.110220194, 0.014194727, 9.526176
1126576499306315, 0.35653058, 5.912665, 8.360522, -0.22849655, -0.34843802, 10.237746
1126576508945690, 0.14117654, 4.7198424, 8.163115, 0.3430766, 0.360842, 9.417291
1126576518585065, 0.3469593, 6.1328044, 8.523234, -0.25424838, -0.4496622, 10.493348
1126576528224440, 0.2321038, 4.7318068, 8.292327, 0.2801634, 0.45885682, 9.535068
1126576537863920, 0.3278167, 6.000003, 8.500503, -0.19522691, -0.37004232, 10.401491
1126576547503295, 0.3062813, 4.979464, 8.395218, 0.1640377, 0.3516891, 9.75797
1126576557142670, 0.2213361, 5.676972, 8.41795, -0.002651453, -0.20498991, 10.153662
1126576566782045, 0.3361916, 5.4867425, 8.474181, -0.026850462, 0.016873598, 10.100898
1126576576421420, 0.17706887, 5.1720862, 8.220542, 0.16041541, 0.06355262, 9.712331
1126576586060795, 0.40677986, 5.8707905, 8.425129, -0.24948215, -0.2612064, 10.27054
1126576595700170, 0.20578274, 4.741378, 8.109276, 0.2563337, 0.35249805, 9.385808
1126576605339545, 0.43669012, 6.0717874, 8.403593, -0.352391, -0.4027574, 10.362976
1126576614979024, 0.29072794, 4.6492543, 8.130812, 0.22666717, 0.476799, 9.355825
1126576624618399, 0.3804588, 6.038288, 8.367701, -0.28856015, -0.42412543, 10.313143
1126576634257774, 0.33738798, 4.9363933, 8.281559, 0.11824989, 0.34339237, 9.640235
1126576643897149, 0.25722843, 5.6793647, 8.367701, -0.05195546, -0.21594572, 10.113874
1126576653536524, 0.36011982, 5.367101, 8.462217, -0.0044369698, 0.110805035, 10.02658
1126576663175899, 0.2117648, 5.206782, 8.295917, 0.14205503, 0.08654976, 9.795407
1126576672815274, 0.38763726, 5.855237, 8.516056, -0.19343328, -0.2231822, 10.337796
1126576682454649, 0.15314065, 4.822734, 8.252846, 0.32101703, 0.32737374, 9.548899
1126576692094128, 0.34097722, 6.1591253, 8.581859, -0.246845, -0.4348879, 10.556956
1126576701733503, 0.19262223, 4.7318068, 8.2253275, 0.31358683, 0.3981316, 9.477674
1126576711372878, 0.30987054, 6.099305, 8.441878, -0.23822284, -0.4726138, 10.4059
1126576721012253, 0.32542387, 4.910072, 8.299505, 0.14370489, 0.3656435, 9.640651
1126576730651628, 0.31465617, 5.7224355, 8.415557, -0.0996809, -0.19321871, 10.179373
1126576740291003, 0.43429732, 5.3036914, 8.4502535, -0.04844594, 0.1922822, 9.984249
1126576749930378, 0.24646074, 5.180461, 8.240881, 0.11004591, 0.10235238, 9.735886
1126576759569857, 0.41156548, 5.6985073, 8.368897, -0.18646073, -0.16130638, 10.130155
1126576769209232, 0.15553348, 4.779663, 8.056634, 0.2757131, 0.28548908, 9.3606205
1126576778848607, 0.36251262, 6.0837517, 8.392825, -0.27530384, -0.4562235, 10.358525
1126576788487982, 0.20219351, 4.7162533, 8.123632, 0.28406835, 0.38662386, 9.383345
1126576798127357, 0.3481557, 6.135197, 8.394022, -0.28688312, -0.5042615, 10.386765
1126576807766732, 0.3290131, 4.9172506, 8.268398, 0.14313984, 0.3470223, 9.618372
1126576817406107, 0.32183465, 5.8504515, 8.427522, -0.1472919, -0.27668405, 10.259446
1126576827045586, 0.35294133, 5.302495, 8.453842, 0.03697014, 0.15831494, 9.984088
1126576836684961, 0.17587246, 5.288138, 8.30788, 0.1563003, 0.015598297, 9.84843
1126576846324336, 0.33738798, 5.7200427, 8.465807, -0.10579896, -0.15804386, 10.220884
1126576855963711, 0.14117654, 4.8442693, 8.188239, 0.32059622, 0.272995, 9.505621
1126576865603086, 0.3804588, 6.064609, 8.535198, -0.2609315, -0.36706972, 10.467618
1126576875242461, 0.24646074, 4.6815577, 8.248059, 0.29764605, 0.47403693, 9.470739
1126576884881940, 0.4319045, 6.13759, 8.520842, -0.32490993, -0.40499115, 10.497225
1126576894521315, 0.38883367, 4.847859, 8.322237, 0.12232065, 0.44910026, 9.6278715
1126576904160690, 0.35174492, 5.8504515, 8.447861, -0.15540552, -0.26626205, 10.277298
1126576913800065, 0.4019942, 5.2283173, 8.443074, 0.013053894, 0.22151232, 9.936457
1126576923439440, 0.22013968, 5.35753, 8.316256, 0.10113716, -0.01451993, 9.894508
1126576933078815, 0.4331009, 5.7056856, 8.437093, -0.18072915, -0.12963152, 10.192031
1126576942718295, 0.20338993, 4.9088755, 8.151151, 0.23314095, 0.2383585, 9.511494
1126576952357670, 0.40079778, 6.0346985, 8.456235, -0.2609625, -0.37996387, 10.386227
1126576961997045, 0.20817557, 4.633701, 8.13799, 0.31570065, 0.4489286, 9.350946
1126576971636420, 0.36011982, 6.0550375, 8.415557, -0.24860859, -0.42445278, 10.362084
1126576981275795, 0.27756742, 4.712664, 8.195417, 0.25066757, 0.44986296, 9.443829
1126576990915170, 0.32183465, 5.7762737, 8.340183, -0.1315465, -0.26774025, 10.145865
1126577000554649, 0.40917268, 5.09073, 8.315059, 0.024846077, 0.27340364, 9.754374
1126577010194024, 0.26799613, 5.349155, 8.228917, 0.03543687, -0.021781206, 9.81828
1126577019833399, 0.4019942, 5.666204, 8.344969, -0.16820621, -0.15193129, 10.092303
1126577029472774, 0.18305093, 5.0009995, 8.115258, 0.20395386, 0.14870214, 9.530855
1126577039112149, 0.34456646, 6.10768, 8.495717, -0.24376392, -0.44072485, 10.456865
1126577048751524, 0.12323037, 4.846662, 8.338987, 0.37685394, 0.34111834, 9.63253
1126577058391003, 0.33260235, 6.259624, 8.725428, -0.21296501, -0.46422005, 10.731531
1126577068030378, 0.27756742, 4.95075, 8.526823, 0.24184453, 0.41597652, 9.852013
1126577077669753, 0.41156548, 5.6446686, 8.662018, -0.0826447, 0.00879097, 10.346754
1126577087309128, 0.42592242, 5.3994045, 8.573483, -0.03340912, 0.16063046, 10.13966
1126577096948503, 0.38285163, 5.4376893, 8.459825, -0.03422475, 0.06136322, 10.063733
1126577106587878, 0.2644069, 5.328816, 8.30788, 0.071109295, 0.023474455, 9.87327
1126577116227357, 0.19381863, 5.337191, 8.184649, 0.09936404, -0.0686605, 9.772261
1126577125866732, 0.19740787, 5.3407803, 8.122437, 0.07509875, -0.09702873, 9.722233
1126577135506107, 0.2727818, 5.406583, 8.140383, -0.01160264, -0.099345684, 9.775549
1126577145145482, 0.37806597, 5.4520464, 8.202596, -0.10662985, -0.054586887, 9.855758
1126577154784857, 0.3505485, 5.4221363, 8.262417, -0.051795483, -0.016505957, 9.888732
1126577164424336, 0.3397808, 5.426922, 8.365308, -0.010261059, 0.021971703, 9.977211
1126577174063711, 0.34576288, 5.48076, 8.414361, -0.01644969, 0.0060458183, 10.047858
1126577183703086, 0.33140594, 5.454439, 8.328219, -0.013064146, -0.022573233, 9.960888
1126577193342461, 0.30029923, 5.424529, 8.26481, 0.01073575, -0.04300642, 9.89044
1126577202981836, 0.31585258, 5.4293146, 8.236095, -0.013898134, -0.049752712, 9.869539
1126577212621315, 0.36729828, 5.4376893, 8.196614, -0.07548642, -0.046855927, 9.842763
1126577222260690, 0.34456646, 5.4173503, 8.210971, -0.042845964, -0.03708291, 9.842928
1126577231900065, 0.35294133, 5.40419, 8.2456665, -0.03819251, -0.005190611, 9.865059
1126577241539440, 0.35533416, 5.413761, 8.26122, -0.039497375, -0.0043287277, 9.883383
1126577251178815, 0.3481557, 5.419743, 8.2456665, -0.040652752, -0.01924467, 9.87339
1126577260818295, 0.27996024, 5.4293146, 8.273184, 0.024591923, -0.04673004, 9.8994255
1126577270457670, 0.25244278, 5.4125648, 8.349754, 0.078041315, -0.011582136, 9.953481
1126577280097045, 0.27158538, 5.406583, 8.38804, 0.07482052, 0.017202377, 9.982895
1126577289736420, 0.31465617, 5.426922, 8.423932, 0.038294554, 0.035153866, 10.025488
1126577299375795, 0.357727, 5.4628143, 8.483752, 0.004400015, 0.056518316, 10.096592
1126577309015274, 0.3696911, 5.4963136, 8.471788, -0.023182154, 0.03007412, 10.105242
1126577318654649, 0.37806597, 5.4580283, 8.440681, -0.0254879, 0.04697919, 10.058591
1126577328294024, 0.3589234, 5.436493, 8.471788, 0.007194996, 0.0690074, 10.072271
1126577337933399, 0.3493521, 5.4125648, 8.452646, 0.019104958, 0.07344198, 10.042876
1126577347572878, 0.31944183, 5.3718867, 8.390432, 0.042696238, 0.06021118, 9.967603
1126577357212253, 0.29072794, 5.3515477, 8.366505, 0.06823397, 0.050723553, 9.935531
1126577366851628, 0.27876383, 5.3790655, 8.311469, 0.051686287, -8.85725E-4, 9.904036
1126577376491003, 0.29910284, 5.4460645, 8.2348995, -0.0130188465, -0.07553768, 9.877084
1126577386130378, 0.2739782, 5.5106707, 8.212168, -0.018960953, -0.14407396, 9.89248
1126577395769857, 0.2883351, 5.515456, 8.219346, -0.035030365, -0.13666677, 9.901572
1126577405409232, 0.3397808, 5.5298133, 8.279166, -0.066836596, -0.092255116, 9.96122
1126577415048607, 0.38644084, 5.4927244, 8.343773, -0.07185221, -0.011141539, 9.996631
1126577424687982, 0.37806597, 5.4412785, 8.385647, -0.030971289, 0.041674852, 10.00334
1126577434327461, 0.35294133, 5.3826547, 8.398808, 0.017332792, 0.07883787, 9.981533
1126577443966836, 0.3074777, 5.3312087, 8.376076, 0.07040954, 0.08455849, 9.932918
1126577453606211, 0.2847459, 5.2941203, 8.32463, 0.08948755, 0.07599211, 9.868863
1126577463245586, 0.27996024, 5.3108697, 8.260024, 0.065568686, 0.032289267, 9.823766
1126577472885065, 0.33738798, 5.3515477, 8.216953, -0.015667677, 0.011632919, 9.8117695
1126577482524440, 0.38524446, 5.355137, 8.216953, -0.0612092, 0.031903505, 9.815268
1126577492163815, 0.39720857, 5.3910294, 8.240881, -0.07898378, 0.021349192, 9.855272
1126577501803190, 0.38165522, 5.440082, 8.26122, -0.07802892, -0.013385773, 9.898568
1126577511442565, 0.33379877, 5.4843497, 8.29472, -0.043171644, -0.055666447, 9.949218
1126577521082045, 0.3062813, 5.54417, 8.321041, -0.03255701, -0.102938175, 10.002984
1126577530721420, 0.2644069, 5.5669017, 8.350951, 0.0036580563, -0.12631798, 10.039059
1126577540360795, 0.2632105, 5.564509, 8.426325, 0.026379347, -0.08960223, 10.100856
1126577550000170, 0.29910284, 5.541777, 8.484949, 0.019741058, -0.028271675, 10.138735
1126577559639649, 0.33738798, 5.501099, 8.526823, 0.013112545, 0.039652586, 10.152876
1126577569279024, 0.37567315, 5.424529, 8.536395, 0.011086464, 0.11901379, 10.120396
1126577578918399, 0.35653058, 5.363512, 8.525627, 0.04758358, 0.14996028, 10.077498
1126577588557774, 0.3182454, 5.3312087, 8.441878, 0.067870855, 0.11685133, 9.988499
1126577598197253, 0.23928227, 5.304888, 8.353344, 0.122344494, 0.057489634, 9.897433
1126577607836628, 0.21535404, 5.312066, 8.2456665, 0.109681845, -0.0073161125, 9.8103695
1126577617476003, 0.17826529, 5.369494, 8.172686, 0.09836888, -0.09928799, 9.779392
1126577627115378, 0.20937198, 5.4580283, 8.170293, 0.03656006, -0.15060782, 9.826677
1126577636754857, 0.29790643, 5.5513487, 8.191829, -0.07115507, -0.16848207, 9.898426
1126577646394232, 0.42592242, 5.584848, 8.274381, -0.17143798, -0.093382835, 9.989954
1126577656033607, 0.4977071, 5.576473, 8.370093, -0.20304322, -0.006752491, 10.067867
1126577665672982, 0.5072784, 5.485546, 8.427522, -0.15886664, 0.09210968, 10.066674
1126577675312461, 0.4426722, 5.386244, 8.437093, -0.061498404, 0.13946986, 10.018427
1126577684951836, 0.3290131, 5.2809596, 8.390432, 0.064997435, 0.14164948, 9.91826
1126577694591211, 0.2620141, 5.2283173, 8.3174515, 0.12564206, 0.1118927, 9.826274
1126577704230586, 0.17347965, 5.239085, 8.255239, 0.1746819, 0.031949043, 9.777297
1126577713870065, 0.1902294, 5.3336015, 8.249256, 0.12094951, -0.031727076, 9.824362
1126577723509440, 0.28235307, 5.447261, 8.271988, 4.7039986E-4, -0.061457872, 9.9082985
1126577733148815, 0.36490545, 5.5465627, 8.366505, -0.080228806, -0.054612875, 10.044227
1126577742788190, 0.44865423, 5.5716877, 8.471788, -0.1307776, 0.014998436, 10.148836
1126577752427670, 0.45822555, 5.515456, 8.474181, -0.115400076, 0.06262493, 10.120512
1126577762067045, 0.3696911, 5.4460645, 8.396415, -0.033323526, 0.035179615, 10.014674
1126577771706420, 0.26799613, 5.400601, 8.287541, 0.04212928, -0.028925896, 9.895406
1126577781345795, 0.17347965, 5.3826547, 8.219346, 0.110215664, -0.09062576, 9.825495
1126577790985274, 0.14955142, 5.389833, 8.19781, 0.11955166, -0.115413904, 9.810664
1126577800624649, 0.19621146, 5.430511, 8.271988, 0.08430982, -0.085317135, 9.896482
1126577810264024, 0.25722843, 5.4293146, 8.353344, 0.053578615, -0.01807332, 9.965881
1126577819903503, 0.3505485, 5.4412785, 8.40479, -0.016581774, 0.04051423, 10.018431
1126577829542878, 0.3804588, 5.508278, 8.392825, -0.06972861, -0.0025348663, 10.045923
1126577839182253, 0.37806597, 5.5070815, 8.3784685, -0.06882191, -0.011260748, 10.033184
1126577848821628, 0.32542387, 5.4867425, 8.328219, -0.028047323, -0.04199791, 9.978323
1126577858461107, 0.27996024, 5.432904, 8.289934, 0.019390583, -0.039016485, 9.915439
1126577868100482, 0.27876383, 5.4053864, 8.282756, 0.028675795, -0.02239275, 9.894373
1126577877739857, 0.32542387, 5.3718867, 8.315059, 0.0062322617, 0.040976286, 9.904623
1126577887379232, 0.357727, 5.3982077, 8.304291, -0.036609173, 0.031536102, 9.910979
1126577897018711, 0.3912265, 5.456832, 8.267202, -0.0964725, -0.014621735, 9.912981
1126577906658086, 0.3696911, 5.4987063, 8.276773, -0.08725858, -0.051012278, 9.943201
1126577916297461, 0.33738798, 5.4903316, 8.274381, -0.057072878, -0.060745478, 9.935593
1126577925936836, 0.317049, 5.460421, 8.315059, -0.012549639, -0.029915094, 9.9526825
1126577935576315, 0.33260235, 5.4352965, 8.360522, 7.305145E-4, 0.016041517, 9.977531
1126577945215690, 0.35413775, 5.365905, 8.423932, 0.028036118, 0.10715294, 9.993433
1126577954855065, 0.36370903, 5.298906, 8.408379, 0.04181099, 0.15328646, 9.944157
1126577964494440, 0.35533416, 5.2749777, 8.368897, 0.04647875, 0.1471479, 9.897793
1126577974133920, 0.32422748, 5.2689953, 8.304291, 0.055797577, 0.104889154, 9.839439
1126577983773295, 0.30269206, 5.3072805, 8.258827, 0.042577744, 0.043644905, 9.821577
1126577993412670, 0.2943172, 5.367101, 8.208578, 0.010083914, -0.027743816, 9.811844
1126578003052149, 0.29312077, 5.456832, 8.185846, -0.02872634, -0.10591626, 9.841697
1126578012691524, 0.29790643, 5.5405807, 8.190632, -0.06220603, -0.16454339, 9.891526
1126578022330899, 0.30149564, 5.593223, 8.243274, -0.07217717, -0.1766882, 9.964446
1126578031970274, 0.2727818, 5.568098, 8.330612, -0.013924599, -0.12910795, 10.022993
1126578041609753, 0.29192436, 5.521438, 8.377272, -9.319782E-4, -0.062660456, 10.037244
