timestamp_acc,device_acc_x,device_acc_y,device_acc_z,earth_acc_x,earth_acc_y,earth_acc_z
779257057552305, -0.50009996, 4.595416, 8.79482, -0.0048875213, 0.014412403, 9.93562
779257067191315, -0.47258246, 4.587041, 8.770891, 0.021077156, 0.010582447, 9.909202
779257076830378, -0.45942193, 4.6002016, 8.7780695, 0.03607911, 0.015089512, 9.920982
779257086469388, -0.4761717, 4.6025944, 8.792427, 0.019147187, 0.013441086, 9.935635
779257096108399, -0.51206404, 4.597809, 8.792427, -0.016711056, 0.016423225, 9.9352045
779257105747461, -0.526421, 4.5894337, 8.811569, -0.032538444, 0.0032930374, 9.949007
779257115386471, -0.5084748, 4.6061835, 8.82114, -0.011469662, 0.010427475, 9.964324
779257125025482, -0.4941179, 4.5894337, 8.85823, -0.002614051, -0.024064064, 9.988729
779257134664544, -0.48933223, 4.595416, 8.852247, 0.0035569966, -0.016476154, 9.985955
779257144303555, -0.47018966, 4.578666, 8.819944, 0.020558655, -0.019738674, 9.948662
779257153942565, -0.46899325, 4.5822554, 8.805588, 0.023223937, -0.010105133, 9.937542
779257163581628, -0.47976094, 4.59063, 8.805588, 0.013899267, -0.0011196136, 9.941943
779257173220638, -0.4869394, 4.5942197, 8.82473, 0.0058241785, -0.006184578, 9.960912
779257182859649, -0.50368917, 4.6121655, 8.817552, -0.0069838166, 0.015772343, 9.963669
779257192498711, -0.5371887, 4.6121655, 8.810373, -0.039445788, 0.025032997, 9.958972
779257202137721, -0.5300102, 4.6169515, 8.811569, -0.030840456, 0.02646923, 9.961891
779257211776732, -0.5084748, 4.6037908, 8.801998, -0.0117738545, 0.0155415535, 9.946267
779257221415794, -0.51206404, 4.618148, 8.805588, -0.012173474, 0.02647829, 9.956256
779257231054805, -0.52283174, 4.587041, 8.796016, -0.02733785, 0.0057873726, 9.933951
779257240693815, -0.5132605, 4.5882373, 8.79482, -0.01766929, 0.005578041, 9.932968
779257250332878, -0.44745782, 4.5942197, 8.807981, 0.048160404, -0.007660389, 9.944104
779257259971888, -0.42951167, 4.6121655, 8.833105, 0.06739074, -0.0066809654, 9.97375
779257269610899, -0.424726, 4.60738, 8.810373, 0.07096687, -0.0018568039, 9.9511795
779257279249961, -0.4534399, 4.6121655, 8.772088, 0.044437796, 0.024653912, 9.9209175
779257288889024, -0.48095736, 4.595416, 8.740981, 0.014811158, 0.029469013, 9.887005
779257298528034, -0.5240282, 4.5858445, 8.737391, -0.02940607, 0.030806541, 9.881537
779257308167044, -0.52283174, 4.59063, 8.781659, -0.028840154, 0.015686512, 9.922886
779257317806107, -0.53599226, 4.5726843, 8.803194, -0.045778453, -0.0076141357, 9.934324
779257327445117, -0.5024927, 4.5834517, 8.846265, -0.011665791, -0.022681713, 9.975786
779257337084128, -0.53359944, 4.581059, 8.859426, -0.041357726, -0.022076607, 9.987894
779257346723190, -0.5371887, 4.599005, 8.885747, -0.041453928, -0.016806126, 10.019678
779257356362201, -0.4833502, 4.6085763, 8.898908, 0.01272428, -0.023365498, 10.03307
779257366001211, -0.47138608, 4.601398, 8.8905325, 0.024086148, -0.027058125, 10.021743
779257375640274, -0.4869394, 4.595416, 8.840283, 0.008703828, -0.0067796707, 9.975243
779257385279284, -0.51445687, 4.5834517, 8.773284, -0.017778784, 0.01880455, 9.9117365
779257394918294, -0.51445687, 4.5834517, 8.732606, -0.016696185, 0.035158157, 9.875709
779257404557357, -0.4749753, 4.5738807, 8.719446, 0.02089417, 0.025931358, 9.85767
779257414196367, -0.4749753, 4.5894337, 8.737391, 0.022848427, 0.030447483, 9.880742
779257423835378, -0.465404, 4.60738, 8.786445, 0.03344953, 0.021847248, 9.931996
779257433474440, -0.47258246, 4.610969, 8.825927, 0.025743037, 0.009176254, 9.968983
779257443113451, -0.47736812, 4.60738, 8.860622, 0.018834114, -0.008505344, 9.9983015
779257452752461, -0.4869394, 4.6025944, 8.851051, 0.008903861, -0.0062623024, 9.988092
779257462391524, -0.50129634, 4.6145587, 8.840283, -0.0025958717, 0.010933399, 9.984786
779257472030534, -0.52522457, 4.570291, 8.806784, -0.03287801, -0.0076613426, 9.935882
779257481669544, -0.53359944, 4.57747, 8.766106, -0.037234724, 0.017301083, 9.903578
779257491308607, -0.5312066, 4.575077, 8.782856, -0.035544157, 0.0070352554, 9.917195
779257500947617, -0.49052864, 4.6025944, 8.816355, 0.008403242, 0.007835388, 9.957535
779257510586628, -0.46660042, 4.6085763, 8.852247, 0.031289995, -0.008507729, 9.990893
779257520225690, -0.4977071, 4.5834517, 8.843872, -0.004116684, -0.019587994, 9.973435
779257529864701, -0.51445687, 4.578666, 8.833105, -0.021450669, -0.015276432, 9.962526
779257539503711, -0.5192425, 4.5798626, 8.819944, -0.025303513, -0.0072026253, 9.951658
779257549142774, -0.51565325, 4.5631127, 8.803194, -0.023407578, -0.015764713, 9.928914
779257558781784, -0.52283174, 4.595416, 8.780462, -0.02333054, 0.023698807, 9.924042
779257568420794, -0.50009996, 4.597809, 8.790034, -0.0010582507, 0.016278267, 9.93249
779257578059857, -0.44865423, 4.6301117, 8.787642, 0.05572036, 0.03562832, 9.942711
779257587698919, -0.44027936, 4.6229334, 8.772088, 0.06246388, 0.034914017, 9.925208
779257597337930, -0.4426722, 4.6145587, 8.760123, 0.057747185, 0.032952785, 9.910876
779257606976940, -0.47138608, 4.5894337, 8.7266245, 0.024969697, 0.030693054, 9.871045
779257616616003, -0.49172506, 4.581059, 8.707481, 0.003462702, 0.034785748, 9.851238
779257626255013, -0.5204389, 4.5762734, 8.72782, -0.025128663, 0.026322842, 9.868469
779257635894024, -0.5300102, 4.566702, 8.7577305, -0.037530005, 0.006002426, 9.89101
779257645533086, -0.5407779, 4.5762734, 8.823533, -0.046111494, -0.011376381, 9.954255
779257655172096, -0.55513483, 4.558327, 8.876176, -0.06586653, -0.048573494, 9.993314
779257664811107, -0.5347959, 4.59063, 8.9013, -0.037904143, -0.032403946, 10.029485
779257674450169, -0.50368917, 4.6061835, 8.902496, -0.0044957697, -0.025308132, 10.036156
779257684089180, -0.4881358, 4.6061835, 8.87139, 0.012610137, -0.012975693, 10.007821
779257693728190, -0.485743, 4.5882373, 8.831908, 0.012589276, -0.011603355, 9.964445
779257703367253, -0.506082, 4.587041, 8.79482, -0.005783856, 0.008340836, 9.932061
779257713006263, -0.49052864, 4.5966125, 8.770891, 0.012516379, 0.024342537, 9.914497
779257722645274, -0.47377887, 4.595416, 8.760123, 0.029178023, 0.023905754, 9.903568
779257732284336, -0.47856453, 4.5834517, 8.774481, 0.02029103, 0.006761074, 9.911011
779257741923346, -0.48933223, 4.595416, 8.766106, 0.012176603, 0.023136616, 9.909655
779257751562357, -0.47856453, 4.584648, 8.760123, 0.020583808, 0.013995171, 9.898847
779257761201419, -0.5024927, 4.597809, 8.76132, -4.003644E-4, 0.029866219, 9.907179
779257770840430, -0.4881358, 4.5942197, 8.792427, 0.011244297, 0.009511948, 9.932356
779257780479440, -0.485743, 4.578666, 8.836694, 0.008512676, -0.024373531, 9.964266
779257790118503, -0.50368917, 4.595416, 8.860622, -0.0067377985, -0.016227245, 9.994093
779257799757513, -0.5192425, 4.5762734, 8.864211, -0.025600314, -0.030132294, 9.989223
779257809396524, -0.50488555, 4.581059, 8.846265, -0.009911895, -0.019660473, 9.974815
779257819035586, -0.4869394, 4.5894337, 8.830712, 0.010223329, -0.008382797, 9.964001
779257828674596, -0.485743, 4.5858445, 8.816355, 0.011084944, -0.0056381226, 9.949567
779257838313607, -0.5168497, 4.6002016, 8.788837, -0.015538484, 0.025492191, 9.933367
779257847952617, -0.4989035, 4.5966125, 8.805588, 6.8470836E-4, 0.011159897, 9.945652
779257857591628, -0.49651068, 4.6002016, 8.813962, 0.0034038424, 0.00948, 9.954607
779257867230690, -0.49292147, 4.6121655, 8.796016, 0.010099083, 0.026758194, 9.94405
779257876869701, -0.47856453, 4.6145587, 8.760123, 0.026278138, 0.041026115, 9.912647
779257886508711, -0.4941179, 4.6025944, 8.708678, 0.0104697645, 0.05601549, 9.862347
779257896147774, -0.4869394, 4.6169515, 8.707481, 0.019916922, 0.065523624, 9.867568
779257905786784, -0.49052864, 4.6002016, 8.72782, 0.011501074, 0.041104794, 9.878031
779257915425794, -0.4953143, 4.57747, 8.760123, 3.4612417E-4, 0.008090019, 9.896376
779257925064857, -0.47856453, 4.5930233, 8.840283, 0.016207427, -0.01706934, 9.973713
779257934703867, -0.50129634, 4.5918264, 8.855837, -0.0070177615, -0.02088499, 9.98807
779257944342878, -0.50129634, 4.5822554, 8.865408, -0.008445531, -0.03079176, 9.992138
779257953981940, -0.49292147, 4.584648, 8.849854, 8.802414E-4, -0.023035526, 9.979046
779257963620951, -0.48933223, 4.5966125, 8.79482, 0.008556694, 0.012256622, 9.935638
779257973259961, -0.47976094, 4.601398, 8.784052, 0.019000858, 0.018938541, 9.927834
779257982898971, -0.5072784, 4.595416, 8.781659, -0.009537488, 0.017475605, 9.92433
779257992537982, -0.51086766, 4.5966125, 8.784052, -0.012637079, 0.018251896, 9.927179
779258002177044, -0.5288138, 4.5762734, 8.805588, -0.035060674, -0.0059347153, 9.937758
779258011816055, -0.51206404, 4.56072, 8.796016, -0.02107194, -0.017880917, 9.921267
779258021455065, -0.49052864, 4.597809, 8.786445, 0.0077137053, 0.01445961, 9.928837
779258031094128, -0.45583272, 4.5882373, 8.79482, 0.03949058, -0.004515171, 9.930105
779258040733138, -0.485743, 4.5858445, 8.815159, 0.00785467, -0.009695053, 9.948507
779258050372149, -0.48095736, 4.5858445, 8.819944, 0.012279183, -0.012886047, 9.952509
779258060011211, -0.46899325, 4.5798626, 8.812766, 0.023071826, -0.016591072, 9.942793
779258069650221, -0.4881358, 4.5930233, 8.796016, 0.006913662, 0.0061736107, 9.934988
779258079289232, -0.506082, 4.5882373, 8.762517, -0.010187745, 0.020841122, 9.903999
779258088928242, -0.52283174, 4.5930233, 8.751749, -0.02569282, 0.03168869, 9.89751
779258098567253, -0.5383851, 4.456632, 8.749356, -0.06634343, -0.082184315, 9.833183
779258108206315, -0.41874397, 5.1661043, 8.865408, 0.18389222, 0.45493698, 10.257614
779258117845326, -0.63170516, 3.867998, 8.688339, -0.26570216, -0.5440588, 9.5121565
779258127484336, -0.38285163, 5.369494, 8.98146, 0.25483418, 0.56518173, 10.452766
779258137123399, -0.55752766, 3.9888353, 8.76491, -0.18080434, -0.4815607, 9.632273
779258146762409, -0.51086766, 4.9663033, 8.949157, 0.054038286, 0.25734615, 10.244189
779258156401419, -0.44745782, 4.465007, 8.773284, 0.019198298, -0.10600114, 9.8537
779258166040430, -0.56350976, 4.4207397, 8.718249, -0.10042459, -0.093611956, 9.790277
779258175679440, -0.3182454, 5.020142, 8.784052, 0.26756722, 0.33610153, 10.113265
779258185318503, -0.6089734, 3.9577286, 8.6141615, -0.24462742, -0.43864918, 9.486095
779258194957513, -0.28115666, 5.410172, 8.88455, 0.3768525, 0.6218405, 10.380536
779258204596524, -0.63888365, 3.751946, 8.6345005, -0.3309406, -0.6155958, 9.410175
779258214235534, -0.36490545, 5.3886366, 8.91805, 0.28764063, 0.5931525, 10.405172
779258223874544, -0.56350976, 3.9457645, 8.666803, -0.20291549, -0.48626757, 9.524833
779258233513607, -0.50368917, 5.0548377, 8.85823, 0.07979095, 0.3671813, 10.2045145
779258243152617, -0.48454657, 4.436293, 8.742178, -0.02319622, -0.1070838, 9.814741
779258252791628, -0.6089734, 4.465007, 8.786445, -0.14026162, -0.078195095, 9.873346
779258262430638, -0.35653058, 4.9902315, 8.882157, 0.21629226, 0.27254057, 10.188288
779258272069649, -0.6843473, 3.9349968, 8.769695, -0.33351243, -0.5062225, 9.617308
779258281708711, -0.31585258, 5.367101, 9.014959, 0.3280123, 0.5273495, 10.478043
779258291347721, -0.64008003, 3.7220356, 8.717052, -0.3424, -0.6718335, 9.47004
779258300986732, -0.36370903, 5.416154, 8.968299, 0.30158865, 0.5975013, 10.461807
779258310625742, -0.5814559, 3.900301, 8.662018, -0.24263287, -0.5085819, 9.50071
779258320264753, -0.45104706, 5.096712, 8.863015, 0.1427126, 0.40219736, 10.225012
779258329903815, -0.4426722, 4.3992043, 8.711071, 0.012881637, -0.13125563, 9.768026
779258339542826, -0.56829536, 4.554738, 8.730213, -0.08045316, 0.01419735, 9.86299
779258349181836, -0.35533416, 4.9698925, 8.792427, 0.21142894, 0.29840994, 10.0994625
779258358820846, -0.62093747, 3.979264, 8.658429, -0.25661874, -0.43840075, 9.535746
779258368459857, -0.29192436, 5.377869, 8.921639, 0.36053848, 0.57539415, 10.399099
779258378098867, -0.6652047, 3.7280176, 8.679964, -0.357009, -0.65653205, 9.440545
779258387737878, -0.36490545, 5.4173503, 8.935996, 0.2951367, 0.6213007, 10.433589
779258397376940, -0.6113662, 3.845266, 8.660822, -0.2801811, -0.5447221, 9.475994
779258407015951, -0.44985065, 5.148158, 8.897711, 0.16389215, 0.42125607, 10.279633
779258416654961, -0.46779683, 4.3465624, 8.737391, -0.03537786, -0.19311714, 9.768056
779258426293971, -0.5706882, 4.5690947, 8.793623, -0.08451086, -0.0014367104, 9.925874
779258435932982, -0.37567315, 4.875376, 8.804391, 0.17607486, 0.2098465, 10.067408
779258445572044, -0.634098, 4.0414777, 8.729017, -0.2551996, -0.41298985, 9.627859
779258455211055, -0.31106696, 5.3359947, 8.949157, 0.32375014, 0.5346017, 10.405115
779258464850065, -0.6628119, 3.731607, 8.679964, -0.34520733, -0.65857387, 9.442091
779258474489076, -0.3290131, 5.4759746, 8.965906, 0.3286307, 0.6420584, 10.486265
779258484128086, -0.5814559, 3.8584266, 8.642876, -0.22231668, -0.5565338, 9.463915
779258493767096, -0.41635114, 5.194818, 8.877372, 0.18265423, 0.46074247, 10.282101
779258503406107, -0.4749753, 4.28076, 8.696713, -0.04579109, -0.2334075, 9.701894
779258513045117, -0.5347959, 4.6576295, 8.768498, -0.034520507, 0.07087088, 9.942829
779258522684128, -0.3385844, 4.847859, 8.751749, 0.19187608, 0.21082592, 10.006409
779258532323190, -0.62093747, 4.078566, 8.626125, -0.21709505, -0.3499949, 9.553044
779258541962201, -0.31226337, 5.285745, 8.855837, 0.2981719, 0.537992, 10.299716
779258551601211, -0.6723832, 3.749553, 8.658429, -0.3255383, -0.6489332, 9.431466
779258561240221, -0.36490545, 5.4628143, 8.958728, 0.27400425, 0.6592274, 10.474955
779258570879232, -0.65682983, 3.7830527, 8.696713, -0.3126301, -0.6338618, 9.480308
779258580518242, -0.46779683, 5.194818, 8.971889, 0.12082794, 0.42846966, 10.368297
779258590157253, -0.5240282, 4.223332, 8.799605, -0.096021384, -0.31405902, 9.769152
779258599796263, -0.51445687, 4.712664, 8.873783, -0.007557839, 0.068730354, 10.0604725
779258609435274, -0.35413775, 4.773681, 8.82114, 0.16710669, 0.11917734, 10.034135
779258619074336, -0.60658056, 4.1204405, 8.712267, -0.20616573, -0.35055923, 9.648014
779258628713346, -0.276371, 5.2701917, 8.87139, 0.34659827, 0.49728394, 10.304632
779258638352357, -0.6364908, 3.8033917, 8.6345005, -0.30138606, -0.5729809, 9.434319
779258647991367, -0.3397808, 5.4520464, 8.895318, 0.31949446, 0.6642132, 10.41267
779258657630378, -0.6233303, 3.7962132, 8.601001, -0.28201205, -0.5825522, 9.399899
779258667269388, -0.41156548, 5.2737813, 8.874979, 0.2113226, 0.53523064, 10.315827
779258676908399, -0.51206404, 4.162315, 8.721839, -0.098232746, -0.3347745, 9.671392
779258686547409, -0.52283174, 4.7688956, 8.85823, -0.008130461, 0.12194252, 10.073185
779258696186419, -0.39601216, 4.7365923, 8.807981, 0.11490768, 0.100847244, 10.007461
779258705825430, -0.62093747, 4.191029, 8.732606, -0.20172992, -0.29985738, 9.699386
779258715464440, -0.317049, 5.2103715, 8.896515, 0.28001076, 0.4548831, 10.301027
779258725103503, -0.66759753, 3.784249, 8.679964, -0.3308442, -0.62053466, 9.466438
779258734742513, -0.31585258, 5.473582, 8.957532, 0.33852264, 0.6383419, 10.477365
779258744381524, -0.63529444, 3.784249, 8.659625, -0.30130175, -0.60351586, 9.4476595
779258754020534, -0.39840496, 5.302495, 8.921639, 0.23197156, 0.5335412, 10.3697815
779258763659544, -0.5240282, 4.135994, 8.702696, -0.13279665, -0.35113215, 9.642461
779258773298555, -0.5132605, 4.837091, 8.817552, 0.021462739, 0.1960659, 10.068327
779258782937565, -0.39720857, 4.6767716, 8.721839, 0.10880083, 0.08205509, 9.903629
779258792576576, -0.62452674, 4.2341, 8.646464, -0.20407212, -0.21890664, 9.643103
779258802215586, -0.32422748, 5.188836, 8.852247, 0.27605706, 0.44364548, 10.252727
779258811854596, -0.6735796, 3.818945, 8.699107, -0.3423161, -0.5859437, 9.500106
779258821493607, -0.31944183, 5.456832, 8.997013, 0.32314187, 0.60696745, 10.50488
779258831132617, -0.63529444, 3.7387853, 8.69791, -0.3137867, -0.6618612, 9.460404
779258840771628, -0.38165522, 5.3240304, 8.940782, 0.24762613, 0.52758074, 10.39658
779258850410638, -0.5168497, 4.0773697, 8.7015, -0.1276831, -0.3954618, 9.614338
779258860049649, -0.50368917, 4.8885365, 8.842676, 0.042925686, 0.23260069, 10.113775
779258869688659, -0.41874397, 4.6145587, 8.739784, 0.073839605, 0.026432037, 9.891773
779258879327669, -0.6161518, 4.3262234, 8.708678, -0.17790192, -0.17099428, 9.740433
779258888966680, -0.32063824, 5.1589255, 8.851051, 0.26464462, 0.42535734, 10.237552
779258898605690, -0.6580262, 3.8536408, 8.68475, -0.322129, -0.5602815, 9.502144
779258908244701, -0.32303107, 5.4341, 8.953942, 0.30969536, 0.61090374, 10.45647
779258917883711, -0.6305088, 3.735196, 8.6345005, -0.30439842, -0.6523845, 9.4013605
779258927522721, -0.36251262, 5.355137, 8.902496, 0.26243544, 0.5707059, 10.376358
779258937161732, -0.53359944, 4.022335, 8.663215, -0.15457118, -0.43381476, 9.555264
779258946800742, -0.49052864, 4.955536, 8.880961, 0.05808896, 0.27301645, 10.177992
779258956439753, -0.4319045, 4.5822554, 8.787642, 0.052276194, -0.017935753, 9.919839
779258966078763, -0.61016977, 4.3525443, 8.7780695, -0.16661793, -0.18373251, 9.813763
779258975717774, -0.32303107, 5.0943193, 8.849854, 0.23793824, 0.38452387, 10.206463
779258985356784, -0.65682983, 3.8775692, 8.679964, -0.2747233, -0.549417, 9.509543
779258994995794, -0.30269206, 5.430511, 8.958728, 0.3192851, 0.6206784, 10.457233
779259004634805, -0.6448657, 3.7339997, 8.659625, -0.30078176, -0.66968465, 9.423841
779259014273815, -0.38524446, 5.3790655, 8.933603, 0.21325386, 0.5947981, 10.415985
779259023912826, -0.5694918, 3.9673, 8.670393, -0.17325076, -0.47719646, 9.538437
779259033551836, -0.50009996, 5.0309095, 8.829515, 0.058716625, 0.36390972, 10.167822
779259043190846, -0.42951167, 4.5008993, 8.703893, 0.0439502, -0.050753832, 9.807946
779259052829857, -0.56350976, 4.429115, 8.682357, -0.10131636, -0.086280346, 9.762182
779259062468867, -0.32063824, 5.0679984, 8.785249, 0.24517149, 0.38277245, 10.13713
779259072107878, -0.6436693, 3.9314077, 8.678768, -0.2669884, -0.50706387, 9.532203
779259081746888, -0.31345975, 5.393422, 8.989835, 0.31101367, 0.56957006, 10.468204
779259091385899, -0.65682983, 3.7220356, 8.73141, -0.327014, -0.7062857, 9.482445
779259101024909, -0.36251262, 5.42094, 9.005388, 0.2709943, 0.5971961, 10.496901
779259110663919, -0.57906306, 3.9194436, 8.706285, -0.21237585, -0.5361593, 9.547995
779259120302930, -0.47377887, 5.026124, 8.915657, 0.08746269, 0.3161912, 10.240493
779259129941940, -0.4438686, 4.4398823, 8.7780695, 0.014511794, -0.13468146, 9.846102
779259139580951, -0.58504516, 4.490132, 8.784052, -0.11580381, -0.07306099, 9.881517
779259149219961, -0.32303107, 4.9842496, 8.8187475, 0.23734018, 0.28812408, 10.128084
779259158858971, -0.63888365, 3.9661036, 8.666803, -0.25597265, -0.46269512, 9.537927
779259168497982, -0.26799613, 5.383851, 8.906086, 0.35729125, 0.5817108, 10.387975
779259178136992, -0.64606214, 3.702893, 8.616554, -0.32168224, -0.65769243, 9.372182
779259187776003, -0.36610186, 5.393422, 8.872586, 0.27486023, 0.6304531, 10.366911
779259197415013, -0.57906306, 3.8931224, 8.608179, -0.23760718, -0.5041387, 9.44891
779259207054024, -0.48215377, 5.1146584, 8.866604, 0.11527103, 0.40139484, 10.238873
779259216693034, -0.485743, 4.4231324, 8.7673025, -0.036841035, -0.14002013, 9.830801
779259226331992, -0.60777694, 4.5619164, 8.859426, -0.12695831, -0.030806065, 9.982627
779259235971003, -0.37328035, 4.975875, 8.896515, 0.19753182, 0.25104284, 10.195321
779259245610065, -0.6723832, 4.0271206, 8.769695, -0.29376876, -0.43894434, 9.659109
779259255249076, -0.35533416, 5.3383875, 8.987442, 0.2778403, 0.5281296, 10.442349
779259264888034, -0.695115, 3.6981075, 8.705089, -0.37666923, -0.69806385, 9.450322
779259274527044, -0.37088752, 5.4436717, 8.953942, 0.28184417, 0.64045954, 10.462056
779259284166055, -0.56590253, 3.8668015, 8.646464, -0.20156488, -0.5574279, 9.470078
779259293805065, -0.38524446, 5.1732826, 8.848659, 0.20806524, 0.4578371, 10.244858
779259303444076, -0.39960137, 4.3525443, 8.669196, 0.04574284, -0.17775989, 9.706987
779259313083086, -0.5072784, 4.619344, 8.696713, -0.010222256, 0.06310177, 9.860244
779259322722096, -0.3182454, 4.8765726, 8.675179, 0.22191563, 0.2625394, 9.95102
779259332361107, -0.59581286, 4.0127635, 8.566305, -0.21415505, -0.381732, 9.468225
779259342000117, -0.30508488, 5.278567, 8.845069, 0.31133893, 0.51776075, 10.287205
779259351639128, -0.6879365, 3.723232, 8.703893, -0.37246257, -0.6759565, 9.460331
779259361278138, -0.39481574, 5.4173503, 9.075976, 0.23442689, 0.5550909, 10.560013
779259370917149, -0.66161543, 3.8057845, 8.85464, -0.33176738, -0.66509056, 9.631926
779259380556159, -0.4989035, 5.1876397, 9.099904, 0.09243837, 0.38706827, 10.479045
779259390195169, -0.5623133, 4.2652063, 8.896515, -0.13535112, -0.30626678, 9.876437
779259399834180, -0.60059845, 4.6636114, 8.886943, -0.094441, 0.047263145, 10.053686
779259409473138, -0.37447673, 4.8083773, 8.797213, 0.15952173, 0.16448498, 10.029915
779259419112149, -0.5922236, 4.089334, 8.622537, -0.1934841, -0.33600402, 9.553596
779259428751159, -0.24885355, 5.304888, 8.803194, 0.38214093, 0.564559, 10.258423
779259438390169, -0.61016977, 3.76391, 8.575876, -0.28226918, -0.5944419, 9.362264
779259448029180, -0.32422748, 5.453243, 8.843872, 0.33476284, 0.676826, 10.367589
779259457668190, -0.58504516, 3.8440695, 8.569894, -0.24045828, -0.52862644, 9.392815
779259467307201, -0.41754755, 5.265406, 8.855837, 0.21028778, 0.53797054, 10.295196
779259476946211, -0.51206404, 4.2161536, 8.700303, -0.09280342, -0.28271008, 9.677031
779259486585221, -0.573081, 4.7246284, 8.845069, -0.057902277, 0.102048874, 10.043508
779259496224232, -0.43429732, 4.76411, 8.883354, 0.08672878, 0.097002506, 10.088727
779259505863242, -0.6652047, 4.115655, 8.839087, -0.26838472, -0.3944142, 9.7613
779259515502253, -0.33379877, 5.1924253, 9.036494, 0.25699297, 0.3814454, 10.417264
779259525141263, -0.65084773, 3.7304106, 8.781659, -0.31244606, -0.70279455, 9.532345
779259534780274, -0.32183465, 5.424529, 8.999406, 0.33139062, 0.58693886, 10.491142
779259544419284, -0.613759, 3.757928, 8.642876, -0.27794456, -0.6284907, 9.419436
779259554058294, -0.4139583, 5.272585, 8.866604, 0.20824373, 0.53692245, 10.308081
779259563697305, -0.5180461, 4.162315, 8.682357, -0.10191968, -0.30757308, 9.63699
779259573336263, -0.55034924, 4.82752, 8.825927, -0.00461185, 0.2032671, 10.072908
779259582975274, -0.40797627, 4.752146, 8.7780695, 0.11428779, 0.13426638, 9.988632
779259592614284, -0.63170516, 4.211368, 8.718249, -0.20117465, -0.27058363, 9.696847
779259602253294, -0.29671, 5.2462635, 8.867801, 0.31729162, 0.490973, 10.291136
779259611892305, -0.63888365, 3.8344984, 8.653643, -0.27739182, -0.5720115, 9.465353
779259621531315, -0.30987054, 5.4293146, 8.916854, 0.32793194, 0.6414232, 10.419442
779259631170326, -0.60777694, 3.743571, 8.615358, -0.2510009, -0.6323798, 9.388569
779259640809336, -0.37328035, 5.306084, 8.878569, 0.23740593, 0.55350065, 10.3324795
779259650448346, -0.5204389, 4.0833516, 8.687142, -0.11207074, -0.39234996, 9.604403
779259660087357, -0.5300102, 4.8382874, 8.853444, -4.90278E-4, 0.1891408, 10.101369
779259669726367, -0.42711884, 4.65404, 8.840283, 0.07468191, 0.021435738, 9.999354
779259679365378, -0.6628119, 4.2484565, 8.817552, -0.23311079, -0.27335787, 9.803513
779259689004388, -0.37208393, 5.180461, 8.986245, 0.22806951, 0.40534735, 10.368795
779259698643399, -0.72502524, 3.8069808, 8.807981, -0.37459472, -0.64238524, 9.594076
779259708282409, -0.35294133, 5.426922, 9.069994, 0.2990338, 0.576437, 10.555527
779259717921367, -0.6376872, 3.7256248, 8.708678, -0.29660174, -0.67304826, 9.465043
779259727560378, -0.39960137, 5.325227, 8.914461, 0.23402753, 0.5582113, 10.373957
779259737199388, -0.5347959, 4.0211387, 8.636893, -0.1437456, -0.4161167, 9.53193
779259746838399, -0.47736812, 4.912465, 8.76491, 0.07720503, 0.29141188, 10.054501
779259756477409, -0.36131623, 4.6396832, 8.72782, 0.14453134, 0.049810886, 9.889829
779259766116419, -0.5802595, 4.342973, 8.72782, -0.12965605, -0.17163444, 9.763539
779259775755430, -0.36251262, 5.12423, 8.855837, 0.23342767, 0.40609455, 10.2272
779259785394440, -0.6963114, 3.8739798, 8.696713, -0.33622697, -0.5407009, 9.524704
779259795033451, -0.29671, 5.4496536, 8.976674, 0.3584932, 0.6226163, 10.480996
779259804672461, -0.67836523, 3.6789649, 8.687142, -0.351879, -0.6991637, 9.425962
779259814311471, -0.40558344, 5.3479586, 8.91805, 0.22947717, 0.57222366, 10.388294
779259823950482, -0.5706882, 3.9900317, 8.732606, -0.18964478, -0.48104334, 9.604015
779259833589492, -0.48215377, 4.948357, 8.874979, 0.07847959, 0.2642274, 10.168974
779259843228503, -0.4019942, 4.53081, 8.804391, 0.08260995, -0.071670055, 9.9093485
779259852867513, -0.57547385, 4.3800616, 8.772088, -0.112963766, -0.16100502, 9.819724
779259862506524, -0.33379877, 5.099105, 8.855837, 0.24266365, 0.38703966, 10.21418
779259872145534, -0.6759724, 3.9026937, 8.705089, -0.2911597, -0.5332732, 9.544496
779259881784492, -0.33260235, 5.4185467, 8.946764, 0.29126483, 0.61922693, 10.442583
779259891423503, -0.6759724, 3.7220356, 8.657232, -0.31058285, -0.6749766, 9.418391
779259901062513, -0.39361933, 5.386244, 8.885747, 0.23150128, 0.6252923, 10.376823
779259910701524, -0.57188463, 3.9637108, 8.652447, -0.17484474, -0.4633062, 9.521433
779259920340534, -0.47976094, 5.0009995, 8.8701935, 0.091218024, 0.31980324, 10.188715
779259929979544, -0.4534399, 4.473382, 8.793623, 0.02459991, -0.106918335, 9.875856
779259939618555, -0.5982057, 4.442275, 8.811569, -0.12823027, -0.11927414, 9.884571
779259949257565, -0.34337005, 5.0309095, 8.895318, 0.22694263, 0.3089671, 10.218006
779259958896576, -0.65084773, 3.912265, 8.729017, -0.27941316, -0.52300763, 9.569407
779259968535586, -0.3278167, 5.3970113, 8.977871, 0.31710017, 0.5756421, 10.459706
779259978174596, -0.65682983, 3.7328033, 8.696713, -0.329419, -0.66525245, 9.457641
779259987813607, -0.36490545, 5.389833, 8.938389, 0.28306228, 0.5923338, 10.423399
779259997452617, -0.59700924, 3.9026937, 8.702696, -0.22803956, -0.52435565, 9.539257
779260007091628, -0.47138608, 5.078766, 8.950353, 0.12010646, 0.34040308, 10.295368
779260016730638, -0.44626144, 4.418347, 8.8187475, 0.011218369, -0.17053676, 9.872285
779260026369649, -0.5922236, 4.485346, 8.780462, -0.11508137, -0.06127739, 9.876671
779260036008659, -0.38165522, 4.989035, 8.7673025, 0.20048398, 0.3308878, 10.087222
779260045647669, -0.67477596, 3.9780676, 8.627322, -0.29955882, -0.41552687, 9.510449
779260055286680, -0.32063824, 5.3682976, 8.894122, 0.3314847, 0.5887847, 10.37161
779260064925690, -0.64606214, 3.7268212, 8.646464, -0.3166824, -0.6431525, 9.410314
779260074564701, -0.34337005, 5.40419, 8.957532, 0.30105853, 0.6063657, 10.445202
779260084203711, -0.5886344, 3.885944, 8.733803, -0.2215699, -0.5684364, 9.557936
779260093842721, -0.47856453, 5.1003013, 8.961121, 0.11371824, 0.36709023, 10.314848
779260103481732, -0.49651068, 4.348955, 8.843872, -0.049898595, -0.23114967, 9.864994
779260113120742, -0.5910272, 4.5427737, 8.855837, -0.10389185, -0.050301075, 9.969886
779260122759753, -0.36490545, 4.910072, 8.851051, 0.19411665, 0.22602081, 10.123947
779260132398763, -0.6376872, 4.0007997, 8.678768, -0.24823907, -0.42432642, 9.565165
779260142037774, -0.33260235, 5.326423, 8.9013, 0.3169875, 0.54393435, 10.359451
779260151676784, -0.6879365, 3.7328033, 8.63809, -0.36653024, -0.6252985, 9.407356
779260161315794, -0.3900301, 5.4376893, 8.940782, 0.28953296, 0.6289382, 10.448865
779260170954805, -0.6305088, 3.851248, 8.690732, -0.28665727, -0.5471852, 9.506678
779260180593815, -0.43070808, 5.2019963, 8.928818, 0.18944466, 0.4479885, 10.331189
779260190232826, -0.49292147, 4.345366, 8.822337, -0.050122738, -0.2220316, 9.844136
779260199871836, -0.5766702, 4.6468616, 8.878569, -0.06838876, 0.029354095, 10.037397
779260209510846, -0.39361933, 4.8693943, 8.874979, 0.15929848, 0.18589449, 10.127747
779260219149857, -0.64008003, 4.0414777, 8.709874, -0.24219948, -0.40704918, 9.611494
779260228788867, -0.29192436, 5.288138, 8.892925, 0.33230534, 0.5200224, 10.33213
779260238427878, -0.6472585, 3.751946, 8.610572, -0.3044722, -0.6129222, 9.389868
779260248066888, -0.29192436, 5.460421, 8.883354, 0.35611814, 0.6739454, 10.403576
779260257705899, -0.5455636, 3.8416767, 8.628518, -0.17776114, -0.5557053, 9.442831
779260267344909, -0.40558344, 5.2103715, 8.891729, 0.1963442, 0.486526, 10.300489
779260276983919, -0.5180461, 4.241278, 8.781659, -0.08446625, -0.28472114, 9.761463
779260286622930, -0.58624154, 4.6612186, 8.864211, -0.08126438, 0.045392513, 10.031759
779260296261940, -0.44745782, 4.7952166, 8.919247, 0.08145389, 0.11911297, 10.1354065
779260305900951, -0.70947194, 4.066602, 8.801998, -0.2996626, -0.41798806, 9.708311
779260315539961, -0.3696911, 5.231907, 9.006584, 0.23130241, 0.44278955, 10.4105015
779260325178971, -0.7070791, 3.7208393, 8.76491, -0.36384934, -0.69882655, 9.515646
779260334817982, -0.34337005, 5.4460645, 9.019745, 0.3035493, 0.6126962, 10.519781
779260344456992, -0.5946164, 3.7998023, 8.7015, -0.24474329, -0.61961937, 9.490225
779260354096003, -0.38763726, 5.245067, 8.879765, 0.23017734, 0.50890636, 10.305303
779260363735013, -0.485743, 4.210171, 8.68475, -0.053070784, -0.26958442, 9.659755
779260373374024, -0.52283174, 4.755735, 8.748159, 0.010633677, 0.17098856, 9.969518
779260383013034, -0.39720857, 4.753342, 8.756535, 0.13405022, 0.14300919, 9.9694805
779260392652044, -0.6520442, 4.1479583, 8.6548395, -0.23607937, -0.2816038, 9.612592
779260402291055, -0.31106696, 5.245067, 8.902496, 0.30523017, 0.48044348, 10.321724
779260411930065, -0.64008003, 3.772285, 8.719446, -0.30158278, -0.634928, 9.496025
779260421569076, -0.32063824, 5.4352965, 8.99821, 0.3174562, 0.62184525, 10.494074
779260431208086, -0.60658056, 3.7615173, 8.72782, -0.26663858, -0.6640525, 9.496302
779260440847096, -0.41515473, 5.2773705, 8.946764, 0.19922614, 0.5249133, 10.380384
779260450486107, -0.57547385, 4.1180477, 8.751749, -0.15575317, -0.37583327, 9.680759
779260460125117, -0.573081, 4.7916274, 8.873783, -0.041440845, 0.1610713, 10.099727
779260469764128, -0.43429732, 4.703093, 8.857033, 0.080547094, 0.067659855, 10.037115
779260479403190, -0.6305088, 4.2125645, 8.756535, -0.20291373, -0.27628183, 9.731527
779260489042201, -0.3361916, 5.1852465, 8.976674, 0.26164007, 0.40874243, 10.360742
779260498681211, -0.6855437, 3.7830527, 8.775677, -0.35737455, -0.63105226, 9.553429
779260508320221, -0.31345975, 5.4125648, 9.037691, 0.3385443, 0.5621009, 10.518717
779260517959232, -0.613759, 3.7507496, 8.689535, -0.28778055, -0.646559, 9.457905
779260527598242, -0.3900301, 5.304888, 8.87139, 0.2532748, 0.55872965, 10.325657
779260537237253, -0.506082, 4.098905, 8.657232, -0.10357407, -0.34585023, 9.585117
779260546876263, -0.5084748, 4.880162, 8.788837, 0.04887384, 0.2563796, 10.062309
779260556515274, -0.41994038, 4.6695933, 8.744571, 0.09135312, 0.08480072, 9.921363
779260566154284, -0.6053841, 4.2831526, 8.681161, -0.16656518, -0.18688989, 9.695967
779260575793294, -0.3361916, 5.176872, 8.864211, 0.2632989, 0.4486785, 10.257516
779260585432305, -0.6723832, 3.8213377, 8.693125, -0.31961736, -0.5834708, 9.4964485
779260595071315, -0.35413775, 5.4257255, 8.997013, 0.29282826, 0.6013894, 10.491077
779260604710378, -0.654437, 3.7292142, 8.720642, -0.3192972, -0.66750574, 9.47826
779260614349388, -0.39601216, 5.3312087, 8.970692, 0.23676127, 0.5554762, 10.425322
779260623988399, -0.58265233, 4.025924, 8.7673025, -0.19743595, -0.45245028, 9.652432
779260633627409, -0.5276174, 4.910072, 8.933603, 0.0207631, 0.22464323, 10.2051735
779260643266419, -0.44745782, 4.578666, 8.861818, 0.041165292, -0.04274845, 9.984625
779260652905430, -0.63529444, 4.3298125, 8.779266, -0.18830642, -0.18082714, 9.80603
779260662544440, -0.3361916, 5.103891, 8.894122, 0.2574296, 0.37717724, 10.249859
779260672183451, -0.66400826, 3.863212, 8.724232, -0.3034975, -0.5512953, 9.543664
779260681822461, -0.29192436, 5.4257255, 8.991031, 0.3615004, 0.6030283, 10.481795
779260691461471, -0.6125626, 3.737589, 8.677571, -0.2739099, -0.6478462, 9.441944
779260701100482, -0.34456646, 5.3922257, 8.892925, 0.29856396, 0.61977863, 10.38295
779260710739544, -0.51565325, 3.9984066, 8.627322, -0.12806821, -0.41928315, 9.51271
779260720378555, -0.48215377, 4.968696, 8.793623, 0.080970734, 0.32559586, 10.106218
779260730017565, -0.4438686, 4.5284166, 8.734999, 0.039400905, -0.029279947, 9.8489275
779260739656576, -0.59700924, 4.398008, 8.763713, -0.13779849, -0.12992644, 9.821695
779260749295586, -0.35533416, 5.0536413, 8.922835, 0.21566331, 0.32295275, 10.253377
779260758934649, -0.66400826, 3.879962, 8.805588, -0.2901229, -0.59005046, 9.622944
779260768573659, -0.34097722, 5.407779, 9.067601, 0.3006632, 0.5659013, 10.543772
779260778212669, -0.6687939, 3.7208393, 8.719446, -0.33529946, -0.68262124, 9.47324
779260787851680, -0.3684947, 5.386244, 8.940782, 0.27027112, 0.59915876, 10.423674
779260797490690, -0.55393845, 3.9553359, 8.673982, -0.17935154, -0.4795468, 9.535584
779260807129701, -0.47976094, 5.0548377, 8.876176, 0.09537649, 0.3645692, 10.218907
779260816768711, -0.45583272, 4.4638104, 8.792427, 0.012928605, -0.10528588, 9.870609
779260826407774, -0.5814559, 4.4434714, 8.782856, -0.11627516, -0.09769702, 9.858906
779260836046784, -0.32662028, 5.015356, 8.837891, 0.2493625, 0.32096624, 10.158916
779260845685794, -0.6376872, 3.946961, 8.670393, -0.26124993, -0.4621234, 9.533051
779260855324805, -0.3182454, 5.375476, 8.91805, 0.3184313, 0.5899253, 10.396116
779260864963815, -0.6735796, 3.7196429, 8.6548395, -0.33629796, -0.6447468, 9.416311
779260874602826, -0.37088752, 5.419743, 8.939586, 0.27753446, 0.6399932, 10.437468
779260884241836, -0.5922236, 3.926622, 8.740981, -0.22021684, -0.5293741, 9.583586
779260893880899, -0.46061835, 5.103891, 8.991031, 0.112424135, 0.36451387, 10.341904
779260903519909, -0.46899325, 4.4051867, 8.823533, -0.005922407, -0.16588831, 9.871819
779260913158919, -0.56470615, 4.5128636, 8.833105, -0.0861167, -0.06662321, 9.934624
779260922797930, -0.3481557, 4.9603214, 8.840283, 0.20488131, 0.2849493, 10.136738
779260932436940, -0.65324056, 3.952943, 8.668, -0.26896027, -0.46412277, 9.534096
779260942076003, -0.3397808, 5.3539405, 8.941978, 0.29182658, 0.5743232, 10.407885
779260951715013, -0.634098, 3.739982, 8.677571, -0.29337406, -0.6572666, 9.443079
779260961354024, -0.33499518, 5.4436717, 8.941978, 0.3140177, 0.6524358, 10.448948
779260970993034, -0.56829536, 3.9050865, 8.669196, -0.20517668, -0.5195646, 9.508712
779260980632044, -0.4354937, 5.151747, 8.894122, 0.16962591, 0.43474483, 10.277052
779260990271107, -0.5132605, 4.3561335, 8.755338, -0.060047477, -0.1727922, 9.790903
779260999910117, -0.6089734, 4.5762734, 8.806784, -0.11780131, 0.0120129585, 9.942764
779261009549128, -0.3912265, 4.877769, 8.839087, 0.15585911, 0.21418667, 10.0997505
779261019188138, -0.6520442, 4.0067816, 8.758927, -0.2697938, -0.44925547, 9.63969
779261028827149, -0.32542387, 5.312066, 9.01137, 0.30224675, 0.50127125, 10.449216
779261038466211, -0.66759753, 3.7256248, 8.750552, -0.34920284, -0.685935, 9.502932
779261048105221, -0.33140594, 5.430511, 9.001799, 0.32376727, 0.6102605, 10.495495
779261057744232, -0.57427746, 3.8476589, 8.712267, -0.22332597, -0.58563924, 9.520767
779261067383242, -0.43429732, 5.1756754, 8.9312105, 0.17472875, 0.43018007, 10.321199
779261077022253, -0.5072784, 4.2855453, 8.748159, -0.07201767, -0.23671532, 9.751529
779261086661315, -0.47976094, 4.883751, 8.839087, 0.06204173, 0.23498297, 10.107005
779261096300326, -0.47018966, 4.549952, 8.755338, 0.015746355, -0.014562607, 9.878189
779261105939336, -0.4761717, 4.610969, 8.770891, 0.018935233, 0.028282642, 9.920441
779261115578399, -0.49651068, 4.566702, 8.768498, -0.009019941, -0.0054483414, 9.898878
779261125217409, -0.47377887, 4.5738807, 8.785249, 0.013943493, -0.010348797, 9.915904
779261134856419, -0.4833502, 4.57747, 8.8187475, 0.0043096244, -0.020132065, 9.9477005
779261144495430, -0.5024927, 4.5894337, 8.834301, -0.0129032135, -0.012532711, 9.967946
779261154134440, -0.53240305, 4.5798626, 8.849854, -0.04381931, -0.022579193, 9.978784
779261163773503, -0.53240305, 4.5822554, 8.863015, -0.04334736, -0.024236202, 9.99155
779261173412513, -0.51445687, 4.5882373, 8.886943, -0.024989635, -0.032263756, 10.014625
779261183051524, -0.5084748, 4.621737, 8.88455, -0.013184547, -0.0031170845, 10.027664
779261192690586, -0.5132605, 4.5918264, 8.891729, -0.02280441, -0.031657696, 10.020462
779261202329596, -0.4953143, 4.587041, 8.8701935, -0.005591452, -0.028717518, 9.998289
779261211968607, -0.51086766, 4.584648, 8.825927, -0.020038366, -0.0101828575, 9.958738
779261221607669, -0.49052864, 4.59063, 8.7780695, 0.0028015971, 0.011480331, 9.918107
779261231246680, -0.47018966, 4.610969, 8.736196, 0.028529942, 0.04461336, 9.88941
779261240885690, -0.45942193, 4.6025944, 8.721839, 0.03720951, 0.03857422, 9.872312
779261250524701, -0.46779683, 4.6037908, 8.725428, 0.029265612, 0.03942156, 9.876456
779261260163711, -0.46181476, 4.599005, 8.748159, 0.03243509, 0.023439884, 9.894081
779261269802774, -0.47138608, 4.601398, 8.790034, 0.020819813, 0.00897789, 9.932738
779261279441784, -0.47976094, 4.57747, 8.812766, 0.006720096, -0.019542694, 9.9422245
779261289080794, -0.51565325, 4.595416, 8.823533, -0.02491191, -6.8950653E-4, 9.961821
779261298719857, -0.51445687, 4.5966125, 8.855837, -0.024227172, -0.01405859, 9.990924
779261308358867, -0.5180461, 4.601398, 8.8905325, -0.028413206, -0.02526474, 10.02404
779261317997878, -0.5347959, 4.5930233, 8.898908, -0.04611829, -0.032666206, 10.028422
779261327636940, -0.53599226, 4.581059, 8.894122, -0.04824668, -0.03962946, 10.018727
779261337275951, -0.49172506, 4.5894337, 8.876176, -0.0019840896, -0.03218937, 10.004507
779261346914961, -0.50368917, 4.584648, 8.843872, -0.013341993, -0.019507408, 9.9742775
779261356554024, -0.48933223, 4.5858445, 8.809176, 0.0023649633, -0.00502491, 9.94339
779261366193034, -0.47377887, 4.584648, 8.774481, 0.018775225, 0.0062918663, 9.911337
779261375832044, -0.46061835, 4.6085763, 8.748159, 0.03657654, 0.034190178, 9.89843
779261385471107, -0.45224348, 4.6229334, 8.744571, 0.046865076, 0.045897484, 9.901478
779261395110117, -0.49651068, 4.6085763, 8.7469635, 8.109212E-5, 0.03979969, 9.899155
779261404749128, -0.48454657, 4.627719, 8.786445, 0.013703108, 0.03585148, 9.942369
779261414388190, -0.485743, 4.6097727, 8.807981, 0.008363068, 0.01046896, 9.953205
779261424027201, -0.5024927, 4.5966125, 8.833105, -0.011712074, -0.008592129, 9.9702
779261433666211, -0.5204389, 4.575077, 8.837891, -0.033779383, -0.025867462, 9.965374
779261443305274, -0.51445687, 4.57747, 8.868998, -0.027652442, -0.037625313, 9.993741
779261452944284, -0.5312066, 4.5714874, 8.839087, -0.043096066, -0.025266647, 9.965322
779261462583294, -0.5096712, 4.5966125, 8.859426, -0.017588377, -0.016459465, 9.993871
779261472222357, -0.48454657, 4.5942197, 8.849854, 0.006892562, -0.018919468, 9.983042
779261481861367, -0.45104706, 4.5966125, 8.834301, 0.041018605, -0.01620245, 9.968713
779261491500378, -0.46779683, 4.5918264, 8.82832, 0.023588002, -0.014541149, 9.962036
779261501139440, -0.4989035, 4.575077, 8.8187475, -0.010285646, -0.01907587, 9.947365
779261510778451, -0.5072784, 4.558327, 8.809176, -0.021017283, -0.027606964, 9.931569
779261520417461, -0.4989035, 4.597809, 8.813962, -0.0055197775, 0.002752304, 9.953625
779261530056524, -0.4881358, 4.6025944, 8.822337, 0.006026268, 0.0011973381, 9.962717
779261539695534, -0.47976094, 4.619344, 8.805588, 0.018589854, 0.02097702, 9.955206
779261549334544, -0.47258246, 4.6265225, 8.784052, 0.02837044, 0.03483963, 9.939095
779261558973607, -0.4749753, 4.6289153, 8.782856, 0.026547492, 0.037976265, 9.939259
779261568612617, -0.4869394, 4.6121655, 8.800801, 0.010180563, 0.01730442, 9.948008
779261578251628, -0.46779683, 4.597809, 8.787642, 0.026418865, 0.0066976547, 9.928774
779261587890690, -0.50009996, 4.5918264, 8.79123, -0.007360488, 0.007167816, 9.930789
779261597529753, -0.5084748, 4.578666, 8.800801, -0.018786252, -0.0061426163, 9.933603
779261607168763, -0.5096712, 4.5798626, 8.812766, -0.020444393, -0.010346413, 9.944811
779261616807774, -0.4941179, 4.584648, 8.823533, -0.0044124126, -0.014295578, 9.955786
779261626446836, -0.52283174, 4.5798626, 8.82473, -0.031977355, -0.011562824, 9.956064
779261636085846, -0.5240282, 4.587041, 8.82832, -0.030695915, -0.0060100555, 9.962622
779261645724857, -0.5312066, 4.604987, 8.852247, -0.0346663, 6.504059E-4, 9.992456
779261655363919, -0.5276174, 4.5822554, 8.849854, -0.035208046, -0.01852417, 9.97967
779261665002930, -0.49292147, 4.587041, 8.847462, 4.2161345E-4, -0.020102978, 9.978031
779261674641940, -0.45583272, 4.595416, 8.836694, 0.03876248, -0.014966488, 9.9705105
779261684281003, -0.4426722, 4.5918264, 8.812766, 0.051487952, -0.009627342, 9.947006
779261693920065, -0.44626144, 4.587041, 8.782856, 0.04839906, 2.6988983E-4, 9.918484
779261703559076, -0.47856453, 4.5738807, 8.8187475, 0.011552721, -0.020237923, 9.945812
779261713198086, -0.4977071, 4.599005, 8.822337, -0.0024773479, 0.004160881, 9.9615345
779261722837149, -0.4881358, 4.5834517, 8.811569, 0.0045588017, -0.0067634583, 9.9443445
779261732476159, -0.506082, 4.5918264, 8.784052, -0.009490877, 0.016130924, 9.924727
779261742115169, -0.5371887, 4.575077, 8.774481, -0.04195103, 0.012422562, 9.910071
779261751754232, -0.4941179, 4.587041, 8.790034, 0.0017281175, 0.0062527657, 9.927223
779261761393294, -0.506082, 4.6061835, 8.835498, -0.007732868, 0.004691601, 9.976923
779261771032305, -0.5192425, 4.60738, 8.87139, -0.022256136, -0.0059518814, 10.009925
779261780671315, -0.50488555, 4.610969, 8.883354, -0.00816834, -0.011469841, 10.021465
779261790310378, -0.5072784, 4.6085763, 8.878569, -0.0103238225, -0.009220123, 10.016243
779261799949388, -0.50009996, 4.59063, 8.849854, -0.0055665374, -0.013047695, 9.98217
779261809588399, -0.5024927, 4.57747, 8.805588, -0.008447796, -0.004237175, 9.937002
779261819227461, -0.4953143, 4.5738807, 8.787642, -0.001188904, -6.3610077E-4, 9.919092
779261828866524, -0.48215377, 4.578666, 8.772088, 0.0133751035, 0.007343769, 9.906863
779261838505534, -0.506082, 4.601398, 8.787642, -0.006204307, 0.024696827, 9.93232
779261848144544, -0.5084748, 4.6025944, 8.809176, -0.009299725, 0.016321182, 9.952069
779261857783607, -0.5072784, 4.5930233, 8.827123, -0.010550916, -8.907318E-4, 9.963492
779261867422669, -0.4869394, 4.610969, 8.831908, 0.012609214, 0.008603573, 9.974995
779261877061680, -0.4953143, 4.610969, 8.817552, 0.004940003, 0.016541481, 9.962695
779261886700690, -0.5084748, 4.5930233, 8.806784, -0.011007547, 0.007874012, 9.945536
779261896339753, -0.52163535, 4.597809, 8.810373, -0.022635907, 0.012737751, 9.95158
779261905978763, -0.51086766, 4.6025944, 8.843872, -0.01247251, -5.259514E-4, 9.982925
779261915617774, -0.50009996, 4.5894337, 8.839087, -0.0033990145, -0.011071682, 9.972076
779261925256836, -0.48454657, 4.5918264, 8.82832, 0.012691408, -0.0066456795, 9.962865
779261934895899, -0.48933223, 4.59063, 8.82114, 0.008040845, -0.0033774376, 9.956194
779261944534909, -0.4941179, 4.5738807, 8.8187475, 1.9919872E-4, -0.016320229, 9.946588
779261954173919, -0.45822555, 4.570291, 8.813962, 0.034763426, -0.024267197, 9.938896
779261963812982, -0.47856453, 4.5726843, 8.790034, 0.016144216, -0.007368088, 9.919823
779261973452044, -0.49172506, 4.5894337, 8.79123, 0.0063765645, 0.009081364, 9.929266
779261983091055, -0.4977071, 4.6002016, 8.811569, 0.0018170476, 0.010092735, 9.952548
779261992730065, -0.51086766, 4.618148, 8.831908, -0.008244485, 0.018919945, 9.979502
779262002369128, -0.5180461, 4.610969, 8.840283, -0.01647839, 0.010735035, 9.983968
779262012008190, -0.5180461, 4.618148, 8.82832, -0.014269143, 0.02246666, 9.976681
779262021647201, -0.51086766, 4.5858445, 8.796016, -0.011977911, 0.008070946, 9.932807
779262031286211, -0.50368917, 4.5834517, 8.796016, -0.005376905, 0.0044665337, 9.931343
779262040925274, -0.4881358, 4.5798626, 8.804391, 0.008847147, -0.005408287, 9.936327
779262050564336, -0.47856453, 4.581059, 8.841479, 0.016665906, -0.021864414, 9.969259
