timestamp_acc,device_acc_x,device_acc_y,device_acc_z,earth_acc_x,earth_acc_y,earth_acc_z
266486552396228, 4.398008, -0.48215377, 8.409575, 0.41473594, 0.09865594, 9.492848
266486562036645, 4.2915273, -0.42711884, 8.493324, 0.36967435, -0.016853094, 9.518364
266486571677061, 4.237689, -0.39720857, 8.835498, 0.34979582, -0.20712829, 9.798803
266486581317478, 4.334598, -0.2321038, 9.281759, 0.17202753, -0.30964208, 10.240518
266486590957999, 4.523631, 0.10049855, 9.420543, -0.13921018, -0.18361664, 10.448294
266486600598415, 4.725825, 0.28594232, 9.346365, -0.2916039, 0.031439304, 10.473001
266486610238832, 4.7676992, 0.3469593, 9.02812, -0.3205601, 0.20059156, 10.208589
266486619879249, 4.59063, 0.26679972, 8.724232, -0.21425143, 0.1436975, 9.858537
266486629519665, 4.3968115, 0.043070808, 8.749356, -0.0037066638, -0.055015326, 9.791936
266486639160186, 4.3669014, -0.09930214, 9.037691, 0.13232526, -0.23066187, 10.034381
266486648800603, 4.4674, -0.022731815, 9.005388, 0.062415347, -0.12194371, 10.051687
266486658441020, 4.613362, -0.050249275, 9.02812, 0.075944096, 0.035885334, 10.138321
266486668081436, 4.587041, -0.039481573, 8.900104, 0.054147363, 0.09799099, 10.012085
266486677721853, 4.503292, -0.07776674, 8.683554, 0.08101052, 0.14411998, 9.780717
266486687362374, 4.5152564, -0.27517462, 8.912068, 0.27228993, 0.04180789, 9.990611
266486697002790, 4.5188456, -0.3062813, 9.263813, 0.26369852, -0.057783127, 10.3082075
266486706643207, 4.4614177, -0.043070808, 9.208778, -3.6731362E-4, -0.06980634, 10.232439
266486716283624, 4.3992043, 0.11485548, 9.133404, -0.17296387, -0.04597044, 10.136726
266486725924145, 4.339384, 0.20817557, 8.85464, -0.26660505, 0.06574273, 9.85915
266486735564561, 4.31067, 0.12921242, 8.56152, -0.1814001, 0.18698645, 9.582813
266486745204978, 4.274778, -0.1052842, 8.563912, 0.051399678, 0.14609885, 9.570864
266486754845395, 4.2592244, -0.25124636, 9.001799, 0.17168039, -0.09643626, 9.959806
266486764485811, 4.3058844, -0.2117648, 9.336794, 0.12157604, -0.19736123, 10.281414
266486774126332, 4.5415773, 0.019142581, 9.589237, -0.11496511, -0.10663414, 10.609203
266486783766749, 4.694718, 0.27756742, 9.425328, -0.35031334, 0.12110138, 10.526958
266486793407165, 4.619344, 0.2656033, 9.105886, -0.32128984, 0.19582987, 10.207082
266486803047582, 4.334598, 0.023928227, 9.090333, -0.08815208, -0.064227104, 10.070331
266486812687999, 4.0558343, -0.12323037, 9.084352, 0.041586876, -0.3224306, 9.94408
266486822328520, 4.1072803, -0.08135597, 9.242277, 0.0031530857, -0.33563876, 10.10858
266486831968936, 4.3537407, 0.11006984, 9.280562, -0.17628352, -0.11233044, 10.249504
266486841609353, 4.554738, 0.148355, 8.502895, -0.17563921, 0.40947104, 9.636823
266486851249770, 4.682754, -0.29790643, 8.019546, 0.2932236, 0.70323896, 9.260104
266486860890186, 4.4913282, -0.6029913, 8.274381, 0.5695889, 0.3793378, 9.409181
266486870530603, 4.150351, -0.39840496, 8.801998, 0.24387833, -0.18646002, 9.734735
266486880171124, 4.019942, -0.14356937, 9.086744, -0.0819456, -0.40631294, 9.92863
266486889811540, 4.2329035, -0.14117654, 9.270991, -0.1175704, -0.28329253, 10.1879635
266486899451957, 4.5152564, -0.15314065, 9.227921, -0.1064778, 2.4366379E-4, 10.273955
266486909092374, 4.6372905, -0.11964113, 9.200403, -0.14177224, 0.12794209, 10.3019285
266486918732895, 4.5332026, -0.17347965, 9.328419, -0.100648284, -0.03523922, 10.372466
266486928373311, 4.371687, -0.22013968, 9.281759, -0.043164372, -0.17559338, 10.2605295
266486938013728, 4.3441696, -0.27876383, 9.02453, 0.055686355, -0.09968209, 10.018914
266486947654145, 4.4638104, -0.30867413, 8.935996, 0.0936653, 0.045592785, 9.993101
266486957294561, 4.4949174, -0.24885355, 8.945567, 0.060774744, 0.06334472, 10.014072
266486966934978, 4.465007, -0.19381863, 8.711071, 0.036498785, 0.13284278, 9.789668
266486976575499, 4.4554358, -0.16151553, 8.573483, 0.035637394, 0.15631771, 9.6620865
266486986215915, 4.447061, -0.17467605, 8.685946, 0.045359135, 0.07153201, 9.759373
266486995856332, 4.503292, -0.09332009, 9.022138, -0.0452843, -0.0245862, 10.083881
266487005496749, 4.5882373, -0.009571291, 9.29492, -0.1483023, -0.093765736, 10.364206
266487015137165, 4.56072, -0.02871387, 9.314062, -0.1497483, -0.1463294, 10.3686495
266487024777686, 4.619344, -0.06460621, 9.11785, -0.117108405, -0.013062477, 10.220755
266487034418103, 4.6229334, -0.22253251, 8.707481, 0.033762336, 0.17933154, 9.859408
266487044058520, 4.5355954, -0.30029923, 8.675179, 0.08829296, 0.11121178, 9.792875
266487053698936, 4.462614, -0.3290131, 8.976674, 0.09264672, -0.09153414, 10.029303
266487063339353, 4.487739, -0.35413775, 9.178867, 0.089835405, -0.16702247, 10.221588
266487072979874, 4.570291, -0.3481557, 9.174082, 0.07619107, -0.095954895, 10.254635
266487082620290, 4.485346, -0.28713873, 8.973084, 0.016360521, -0.076313734, 10.035483
266487092260707, 4.426722, -0.24765715, 8.925228, -0.017167896, -0.09884405, 9.965282
266487101901124, 4.4350967, -0.23569304, 8.807981, -0.0133861005, -0.035567284, 9.864317
266487111541540, 4.5092745, -0.17228323, 8.669196, -0.056601465, 0.09232998, 9.772741
266487121182061, 4.636094, -0.1794617, 8.801998, -0.049741447, 0.14493513, 9.948732
266487130822478, 4.6875396, -0.18903299, 8.876176, -0.0326491, 0.14052725, 10.038647
266487140462895, 4.6097727, -0.22612174, 8.900104, 0.015722066, 0.0204916, 10.025583
266487150103311, 4.558327, -0.2321038, 8.992228, 0.019582719, -0.07853699, 10.083938
266487159743728, 4.5475593, -0.2620141, 9.030513, 0.047567338, -0.1070323, 10.113623
266487169384145, 4.5966125, -0.22971097, 9.101101, 0.012839556, -0.08835316, 10.198221
266487179024665, 4.644469, -0.21774685, 9.06162, 0.0052276254, -0.015407562, 10.184851
266487188665082, 4.6576295, -0.2321038, 8.902496, 0.030570388, 0.077619076, 10.049621
266487198305499, 4.6695933, -0.24526432, 8.703893, 0.056505233, 0.18188071, 9.8786
266487207945915, 4.6432724, -0.2321038, 8.745767, 0.041330427, 0.13997507, 9.903584
266487217586332, 4.6097727, -0.13758731, 8.949157, -0.06377432, 0.020916939, 10.067365
266487227226749, 4.604987, -0.14237295, 9.11785, -0.06845361, -0.06885195, 10.215281
266487236867270, 4.621737, -0.16151553, 9.052048, -0.041267604, -0.029850483, 10.164816
266487246507686, 4.5858445, -0.14476576, 8.938389, -0.053913176, -0.008577347, 10.047026
266487256148103, 4.526024, -0.17228323, 8.915657, -0.029233694, -0.05178237, 10.0
266487265788520, 4.5451665, -0.19142582, 8.785249, -0.0011317134, 0.020776272, 9.893198
266487275428936, 4.5714874, -0.19740787, 8.804391, 0.0021936297, 0.014100075, 9.922428
266487285069457, 4.508078, -0.19262223, 8.815159, -0.0071208775, -0.0466125, 9.902761
266487294709874, 4.482953, -0.24646074, 8.909675, 0.037840366, -0.14711308, 9.975815
266487304350290, 4.60738, -0.25842485, 9.040084, 0.04997003, -0.09751654, 10.149181
266487313990707, 4.772485, -0.22731815, 9.113065, 0.020401865, 0.013718605, 10.289587
266487323631124, 4.729414, -0.22851457, 8.970692, 0.028651983, 0.047709942, 10.143461
266487333271540, 4.648058, -0.276371, 8.72782, 0.082656235, 0.08590984, 9.891485
266487342912061, 4.6061835, -0.34337005, 8.668, 0.15402701, 0.08072662, 9.820328
266487352552478, 4.648058, -0.25842485, 8.851051, 0.06440157, 0.035630226, 10.000346
266487362192895, 4.733003, -0.104087785, 9.055637, -0.0976952, 0.016561508, 10.21797
266487371833311, 4.8047876, -0.05742774, 9.120243, -0.14721228, 0.047958374, 10.30748
266487381473728, 4.7377887, -0.08733802, 8.874979, -0.10865086, 0.101131916, 10.059696
266487391114145, 4.627719, -0.15314065, 8.712267, -0.0383597, 0.08035803, 9.865845
266487400754665, 4.554738, -0.15672988, 8.69791, -0.038715333, 0.022665739, 9.819464
266487410395082, 4.5272202, -0.19980069, 8.859426, -0.007676095, -0.0862515, 9.950758
266487420035499, 4.5451665, -0.25722843, 8.907282, 0.044772685, -0.10313749, 10.002586
266487429675915, 4.633701, -0.20219351, 8.99462, -0.008906782, -0.060410023, 10.119858
266487439316332, 4.6779685, -0.1794617, 8.958728, -0.027936965, -0.012046337, 10.10809
266487448956749, 4.688736, -0.25842485, 8.907282, 0.054389954, 0.014436722, 10.0691395
266487458597270, 4.638487, -0.32063824, 8.8905325, 0.11981666, -0.03431034, 10.032169
266487468237686, 4.595416, -0.30029923, 8.839087, 0.099944174, -0.046274662, 9.966211
266487477878103, 4.619344, -0.2548356, 8.7577305, 0.06285706, 0.012410164, 9.904394
266487487518520, 4.6432724, -0.21655045, 8.738588, 0.026976854, 0.04516697, 9.897831
266487497158936, 4.709075, -0.21535404, 8.88814, 0.02237773, 0.028748035, 10.060788
266487506799353, 4.698307, -0.17228323, 9.014959, -0.028108835, -0.041567802, 10.16714
266487516439874, 4.6803613, -0.13758731, 9.102298, -0.068250656, -0.09633589, 10.235361
266487526080290, 4.6767716, -0.12203395, 9.072387, -0.07910547, -0.079251766, 10.206995
266487535720707, 4.682754, -0.05742774, 9.086744, -0.1307055, -0.053920746, 10.221567
266487545361124, 4.692325, -0.04426722, 9.053245, -0.13225266, -0.01810503, 10.196239
266487555001540, 4.692325, -0.08015956, 8.853444, -0.08668643, 0.07101536, 10.019744
266487564641957, 4.718646, -0.13878371, 8.62134, -0.005670339, 0.2053926, 9.827012
266487574282478, 4.6839504, -0.22013968, 8.477771, 0.086785406, 0.22691178, 9.685116
266487583922895, 4.60738, -0.29072794, 8.55793, 0.14314345, 0.10423994, 9.722104
266487593563311, 4.597809, -0.25004998, 8.82114, 0.090280056, -0.023588657, 9.950186
266487603203728, 4.642076, -0.3505485, 8.988638, 0.17384037, -0.08533049, 10.120765
266487612844145, 4.76411, 0.1363909, 9.077172, -0.32859224, 0.004837513, 10.247069
266487622484561, 4.688736, -0.26679972, 9.048459, 0.06977159, -0.083248615, 10.194031
266487632125082, 4.5523453, -0.2644069, 8.927621, 0.06505132, -0.153332, 10.023394
266487641765499, 4.706682, 0.1794617, 8.956335, -0.37240934, 0.010704994, 10.112478
266487651405915, 4.610969, -0.77766734, 8.711071, 0.58854496, -0.040035248, 9.869173
266487661046332, 4.8179483, 0.47736812, 8.811569, -0.6536284, 0.228086, 10.030204
266487670686749, 4.534399, -1.0408778, 8.606983, 0.8623105, -0.058059216, 9.745636
266487680327165, 4.784449, 0.43429732, 8.87139, -0.609037, 0.15140867, 10.069125
266487689967686, 4.62413, -0.82911307, 8.894122, 0.64249253, -0.08930111, 10.037662
266487699608103, 4.766503, 0.32422748, 9.128618, -0.5123955, 0.004826069, 10.29047
266487709248520, 4.6935215, -0.3062813, 9.08794, 0.106499165, -0.09326267, 10.231986
266487718888936, 4.6528435, -0.14596218, 8.987442, -0.039818615, -0.0738287, 10.121134
266487728529353, 4.779663, 0.26919255, 8.953942, -0.4415105, 0.08812666, 10.143374
266487738169770, 4.5966125, -0.6472585, 8.715857, 0.48020715, -0.0323267, 9.863179
266487747810186, 4.8083773, 0.47976094, 8.876176, -0.637836, 0.17118979, 10.084694
266487757450707, 4.4985065, -0.9942178, 8.7469635, 0.8083665, -0.1674037, 9.851545
266487767091124, 4.7114677, 0.5371887, 8.939586, -0.712039, 0.06960964, 10.094099
266487776731540, 4.506881, -0.89491564, 8.772088, 0.69515836, -0.15330172, 9.8770275
266487786371957, 4.6959143, 0.23928227, 8.952746, -0.42947575, 0.043750763, 10.103178
266487796012374, 4.6564326, -0.47856453, 8.831908, 0.27558762, 0.0043110847, 9.991898
266487805652790, 4.599005, -0.19381863, 8.776874, -7.263422E-4, 0.018862247, 9.91068
266487815293207, 4.6325045, 0.07178468, 8.85823, -0.26823062, 0.047367573, 9.992962
266487824933728, 4.496114, -0.6879365, 8.779266, 0.48589832, -0.10605693, 9.875043
266487834574145, 4.773681, 0.4953143, 9.018549, -0.6781335, 0.16313171, 10.192209
266487844214561, 4.551149, -0.8362915, 8.95155, 0.6460117, -0.13320208, 10.055222
266487853854978, 4.790431, 0.721436, 9.160921, -0.8974944, 0.13949251, 10.3230915
266487863495395, 4.5284166, -0.8147561, 8.85464, 0.6290311, -0.089848995, 9.958478
266487873135811, 4.662415, 0.2955136, 8.811569, -0.46437415, 0.14891338, 9.961494
266487882776332, 4.5822554, -0.5623133, 8.754142, 0.37048382, 0.03639865, 9.889876
266487892416749, 4.5798626, -0.17467605, 8.916854, -0.027646571, -0.007832527, 10.025724
266487902057165, 4.6695933, 0.0059820567, 9.135797, -0.2428579, -0.025893688, 10.257109
266487911697582, 4.5487556, -0.64606214, 9.131011, 0.39602202, -0.1862688, 10.212366
266487921337999, 4.6875396, 0.37328035, 9.188439, -0.6253162, 0.014659405, 10.302841
266487930978415, 4.386044, -1.0947163, 8.737391, 0.85403216, -0.16184711, 9.799093
266487940618832, 4.5678983, 0.40558344, 8.790034, -0.63202316, 0.10268259, 9.893681
266487950259249, 4.3274198, -1.0540384, 8.548359, 0.802018, -0.12702179, 9.604823
266487959899770, 4.56072, 0.14476576, 8.736196, -0.3953076, 0.12367344, 9.847369
266487969540186, 4.432704, -0.8327023, 8.868998, 0.55361646, -0.16765857, 9.933115
266487979180603, 4.517649, -0.22731815, 9.0951185, -0.056884646, -0.12610602, 10.156911
266487988821020, 4.6839504, -0.104087785, 9.202796, -0.18690717, -0.009963036, 10.325049
266487998461436, 4.6325045, -0.63529444, 9.103494, 0.35039997, -0.07739258, 10.227831
266488008101853, 4.8083773, 0.37088752, 9.205189, -0.6389401, 0.15724564, 10.371141
266488017742270, 4.462614, -0.8853444, 8.912068, 0.6166498, -0.1659739, 9.985786
266488027382790, 4.638487, 0.62093747, 8.930014, -0.872494, 0.15012455, 10.043032
266488037023207, 4.4243293, -0.9559326, 8.602198, 0.70016235, -0.06303954, 9.694952
266488046663624, 4.706682, 0.3469593, 8.76491, -0.5864928, 0.24887419, 9.934334
266488056304040, 4.570291, -0.66759753, 8.799605, 0.41202343, 0.00442338, 9.929579
266488065944457, 4.5966125, -0.0526421, 9.016156, -0.22595406, -0.006515026, 10.117885
266488075584874, 4.6695933, -0.18664017, 9.071191, -0.09163439, 0.014676094, 10.2038145
266488085225290, 4.554738, -0.6329016, 8.9013, 0.35615158, -0.057772636, 10.012449
266488094865811, 4.7425747, 0.30508488, 9.019745, -0.57320046, 0.1551013, 10.177834
266488104506228, 4.508078, -0.9343972, 8.889337, 0.6633924, -0.1311357, 9.987937
266488114146645, 4.7856455, 0.5288138, 9.09153, -0.783352, 0.17544365, 10.256392
266488123787061, 4.4817567, -1.0277174, 8.772088, 0.7742503, -0.112558365, 9.873182
266488133427478, 4.636094, 0.36490545, 8.796016, -0.5972314, 0.17044139, 9.930291
266488143067895, 4.475775, -0.7609176, 8.670393, 0.5071641, -0.026713371, 9.773912
266488152708311, 4.5595236, -0.019142581, 8.88814, -0.22913542, 0.023459911, 9.98677
266488162348832, 4.56072, -0.26679972, 8.977871, 6.64413E-4, -0.04182625, 10.073321
266488171989249, 4.4602213, -0.5802595, 8.878569, 0.3132127, -0.118079424, 9.947222
266488181629665, 4.636094, 0.27517462, 9.042477, -0.5364652, 0.050937653, 10.151113
266488191270082, 4.4458647, -0.9320044, 8.843872, 0.6645154, -0.15579557, 9.9187975
266488200910499, 4.6839504, 0.45942193, 9.004191, -0.7098261, 0.13158178, 10.1343355
266488210550915, 4.4781675, -1.0887343, 8.82473, 0.828568, -0.13600421, 9.920191
266488220191332, 4.686343, 0.3397808, 9.086744, -0.593227, 0.07868338, 10.212154
266488229831749, 4.54397, -0.83748794, 9.0029955, 0.56854624, -0.16088295, 10.102171
266488239472270, 4.6612186, 0.019142581, 9.075976, -0.28711277, -0.015273571, 10.198923
266488249112686, 4.645665, -0.2440679, 9.035298, -0.01863432, -0.0452857, 10.162479
266488258753103, 4.5451665, -0.40558344, 8.866604, 0.14560103, -0.0747478, 9.970603
266488268393520, 4.674379, 0.19740787, 8.866604, -0.44523072, 0.09407425, 10.014908
266488278033936, 4.4554358, -0.8985049, 8.7673025, 0.6357059, -0.15944862, 9.853642
266488287674353, 4.7605205, 0.5192425, 9.097511, -0.7789218, 0.11128664, 10.250746
266488297314770, 4.517649, -0.9738788, 8.976674, 0.7122606, -0.18065667, 10.069672
266488306955290, 4.81077, 0.50488555, 9.066405, -0.7466419, 0.16647816, 10.247582
266488316595707, 4.5858445, -0.79920274, 8.85823, 0.54229516, -0.03280568, 9.992086
266488326236124, 4.6121655, 0.078963146, 8.840283, -0.31440312, 0.095401764, 9.965991
266488335876540, 4.510471, -0.33140594, 8.7266245, 0.10395381, 0.02504325, 9.828362
266488345516957, 4.473382, -0.3505485, 8.660822, 0.12457651, 0.020520449, 9.753354
266488355157374, 4.7114677, 0.16630118, 8.7577305, -0.3767206, 0.22893143, 9.936253
266488364797790, 4.51406, -0.89730847, 8.730213, 0.6683719, -0.043262243, 9.846315
266488374438207, 4.7222357, 0.424726, 9.062816, -0.6478095, 0.094213486, 10.207154
266488384078728, 4.5008993, -1.0289137, 9.05803, 0.769708, -0.2422235, 10.134769
266488393719145, 4.786842, 0.5240282, 9.334401, -0.77547526, 0.039542675, 10.474567
266488403359561, 4.599005, -0.8003992, 9.067601, 0.5428239, -0.14966416, 10.183115
266488412999978, 4.638487, 0.19980069, 8.927621, -0.42919576, 0.07733488, 10.053243
266488422640395, 4.508078, -0.38524446, 8.699107, 0.15805924, 0.005352497, 9.804112
266488432280811, 4.4662037, -0.3924229, 8.682357, 0.16547573, -0.017473698, 9.770189
266488441921228, 4.6145587, 0.09092726, 8.914461, -0.31911832, 0.056452274, 10.033195
266488451561749, 4.459025, -0.7812566, 8.968299, 0.5240716, -0.200073, 10.030401
266488461202165, 4.741378, 0.53240305, 9.208778, -0.7744936, 0.073841095, 10.342169
266488470842582, 4.517649, -0.9726824, 8.913264, 0.7127686, -0.14283967, 10.013647
266488480482999, 4.7318068, 0.5192425, 8.924032, -0.75619745, 0.19319963, 10.084087
266488490123415, 4.4662037, -0.90329057, 8.660822, 0.65722567, -0.06334138, 9.764057
266488499763832, 4.662415, 0.19980069, 8.830712, -0.43550465, 0.14646196, 9.977394
266488509404249, 4.621737, -0.45822555, 8.900104, 0.21240538, 0.015684128, 10.0367775
266488519044770, 4.631308, -0.20817557, 8.958728, -0.03606695, 0.0089674, 10.087109
266488528685186, 4.7018967, 0.096909314, 9.01137, -0.33811495, 0.07569933, 10.158837
266488538325603, 4.506881, -0.77407813, 8.8905325, 0.5256372, -0.12226844, 9.983061
266488547966020, 4.7078786, 0.3385844, 9.006584, -0.5772544, 0.085128784, 10.151692
266488557606436, 4.4745784, -1.0803595, 8.834301, 0.8313283, -0.16589928, 9.9254875
266488567246853, 4.727021, 0.52163535, 9.025727, -0.7666563, 0.08690977, 10.172771
266488576887270, 4.554738, -0.91405827, 8.833105, 0.6656435, -0.08695507, 9.957623
266488586527790, 4.703093, 0.28594232, 8.9348, -0.5172081, 0.09027767, 10.087411
266488596168207, 4.578666, -0.5276174, 8.941978, 0.27638817, -0.08141422, 10.055769
266488605808624, 4.5822554, -0.22492532, 8.919247, -0.030499935, -0.037516594, 10.029869
266488615449040, 4.682754, -0.05623133, 8.940782, -0.19184142, 0.059996605, 10.091012
266488625089457, 4.4985065, -0.7716853, 8.823533, 0.5142716, -0.12572503, 9.920006
266488634729874, 4.692325, 0.3912265, 9.065208, -0.64271736, 0.059151173, 10.194724
266488644370290, 4.4985065, -0.93559366, 8.977871, 0.6695461, -0.21156049, 10.060865
266488654010811, 4.802395, 0.61734825, 9.145369, -0.8617327, 0.14302015, 10.311103
266488663651228, 4.549952, -0.8745767, 8.8905325, 0.60848945, -0.11528611, 10.0062475
266488673291645, 4.6839504, 0.3361916, 8.91805, -0.57155955, 0.11316109, 10.062036
266488682932061, 4.5523453, -0.6029913, 8.721839, 0.35808498, 0.013836622, 9.850356
266488692572478, 4.5882373, -0.17347965, 8.822337, -0.06340596, 0.03819275, 9.945358
266488702212895, 4.6528435, -0.1471586, 8.912068, -0.09696573, 0.0561018, 10.054005
266488711853311, 4.5128636, -0.7429714, 8.755338, 0.4990625, -0.032286644, 9.865281
266488721493832, 4.6935215, 0.276371, 8.943174, -0.51684296, 0.10958862, 10.089933
266488731134249, 4.49731, -1.0049855, 8.786445, 0.7529675, -0.10483599, 9.892392
266488740774665, 4.800002, 0.54675996, 9.083155, -0.79218686, 0.15459776, 10.256275
266488750415082, 4.5595236, -0.9212367, 9.053245, 0.6418659, -0.16853881, 10.15671
266488760055499, 4.738985, 0.40079778, 9.196814, -0.67012346, 0.042830944, 10.331946
266488769695915, 4.534399, -0.6520442, 8.938389, 0.39490068, -0.11309099, 10.035538
266488779336436, 4.534399, -0.101694964, 8.760123, -0.14158875, 0.01960373, 9.863592
266488788976853, 4.551149, -0.20578274, 8.657232, -0.029042006, 0.08080602, 9.7824135
266488798617270, 4.449454, -0.69272214, 8.678768, 0.44446015, -0.07170105, 9.767079
266488808257686, 4.6935215, 0.2727818, 9.037691, -0.53204036, 0.076037884, 10.173228
266488817898103, 4.546363, -0.92482597, 9.097511, 0.6432494, -0.20579982, 10.189863
266488827538520, 4.8394837, 0.58624154, 9.309277, -0.8550526, 0.114006996, 10.472956
266488837179040, 4.6396832, -0.95832545, 8.956335, 0.6895099, -0.06272411, 10.108492
266488846819457, 4.738985, 0.40558344, 8.930014, -0.6409665, 0.17067099, 10.095922
266488856459874, 4.5224347, -0.6879365, 8.812766, 0.4313724, -0.07169962, 9.9196415
266488866100290, 4.599005, -0.07178468, 8.930014, -0.17265475, 0.0060548782, 10.04347
266488875740707, 4.5894337, -0.26679972, 8.840283, 0.026606321, 0.018642426, 9.964117
266488885381124, 4.5188456, -0.567099, 8.68475, 0.333682, 0.0018146038, 9.80077
266488895021540, 4.666004, 0.24047868, 8.790034, -0.46388125, 0.1794877, 9.942169
266488904662061, 4.4805603, -0.92482597, 8.779266, 0.67318135, -0.102409124, 9.876365
266488914302478, 4.8263235, 0.51086766, 9.176475, -0.74970245, 0.19298363, 10.351946
266488923942895, 4.54397, -0.98584294, 8.961121, 0.7220103, -0.14346242, 10.068731
266488933583311, 4.644469, 0.47856453, 9.104691, -0.73108065, 0.06682491, 10.205711
266488943223728, 4.485346, -0.6855437, 8.939586, 0.4217595, -0.14462566, 10.015274
266488952864249, 4.5738807, 0.03708875, 8.898908, -0.2816469, 0.047955513, 10.001534
266488962504665, 4.546363, -0.2943172, 8.864211, 0.04006028, -0.006160736, 9.966375
266488972145082, 4.476971, -0.4749753, 8.872586, 0.21469206, -0.09757614, 9.946661
266488981785499, 4.666004, 0.23330021, 9.083155, -0.49103525, 0.048840046, 10.202266
266488991425915, 4.526024, -0.93559366, 8.897711, 0.6686319, -0.13141775, 10.003257
266489001066436, 4.7581277, 0.43788654, 9.085547, -0.68932855, 0.14267302, 10.241249
266489010706853, 4.4458647, -1.0779666, 8.860622, 0.7935038, -0.19336438, 9.938375
266489020347270, 4.7042894, 0.39960137, 9.004191, -0.6691544, 0.1325717, 10.1439705
266489029987686, 4.5320063, -0.8709874, 8.809176, 0.60374606, -0.06583476, 9.92625
266489039628103, 4.642076, 0.07298109, 8.883354, -0.34226725, 0.092356205, 10.017111
266489049268520, 4.601398, -0.3397808, 8.950353, 0.0642578, -0.024923325, 10.069379
266489058909040, 4.59063, -0.40558344, 9.037691, 0.120384514, -0.08807421, 10.143766
266489068549457, 4.7210393, 0.16151553, 9.199206, -0.4423254, 0.020619392, 10.331681
266489078189874, 4.4949174, -0.87338024, 8.907282, 0.5959126, -0.16001344, 9.996303
266489087830290, 4.709075, 0.47018966, 8.876176, -0.715849, 0.20062017, 10.031466
266489097470707, 4.4135613, -1.0516455, 8.636893, 0.7866586, -0.121742725, 9.723568
266489107111228, 4.6169515, 0.44027936, 8.859426, -0.69221234, 0.13597608, 9.975062
266489116751645, 4.486542, -0.8566305, 8.912068, 0.5627742, -0.15364623, 9.997376
266489126392061, 4.6767716, 0.16271193, 9.24826, -0.4516524, -0.028849125, 10.35491
266489136032478, 4.6731825, -0.38644084, 9.256635, 0.08057088, -0.099868774, 10.375779
266489145672895, 4.5415773, -0.3912265, 9.014959, 0.10286182, -0.10103631, 10.100877
266489155313415, 4.575077, 0.034695927, 8.776874, -0.2976439, 0.1067307, 9.892728
266489164953832, 4.430311, -0.9236295, 8.568698, 0.6587061, -0.026412487, 9.667924
266489174594249, 4.6755753, 0.35413775, 8.835498, -0.6062609, 0.20478845, 9.982132
266489184234665, 4.421936, -1.1330016, 8.805588, 0.84407157, -0.151371, 9.881308
266489193875186, 4.668397, 0.41515473, 9.136993, -0.71062565, 0.06723499, 10.244094
266489203515603, 4.5128636, -0.8889336, 9.0029955, 0.5830084, -0.15185761, 10.091934
266489213156020, 4.618148, 0.22851457, 9.134601, -0.5204276, -0.0074911118, 10.224947
266489222796436, 4.537988, -0.4319045, 9.0544405, 0.12413937, -0.10768223, 10.135865
266489232436853, 4.54397, -0.28115666, 8.8905325, -0.0029982328, -0.0021739006, 9.988407
266489242077374, 4.688736, 0.029910283, 8.840283, -0.29253107, 0.18557811, 10.000788
266489251717790, 4.5020957, -0.81834537, 8.717052, 0.5411787, -0.030552864, 9.830146
266489261358207, 4.685147, 0.3469593, 8.928818, -0.618117, 0.17157602, 10.068927
266489270998624, 4.4542394, -1.1318051, 8.894122, 0.8400354, -0.19754338, 9.974064
266489280639145, 4.686343, 0.4642076, 9.150154, -0.7430712, 0.08315611, 10.263701
266489290279561, 4.449454, -0.95832545, 8.896515, 0.64724684, -0.19402003, 9.970327
266489299919978, 4.634897, 0.24526432, 9.042477, -0.5261209, 0.06701708, 10.150248
266489309560395, 4.551149, -0.465404, 9.06162, 0.15870142, -0.095053434, 10.149301
266489319200915, 4.60738, -0.19142582, 9.123833, -0.102210104, -0.036981106, 10.222383
266489328841332, 4.7102714, -0.034695927, 9.09153, -0.23929286, 0.092161655, 10.2361145
266489338481749, 4.517649, -0.7609176, 8.800801, 0.49588168, -0.023434639, 9.909379
266489348122165, 4.694718, 0.3397808, 8.896515, -0.5895444, 0.20951343, 10.045513
266489357762582, 4.418347, -1.0899308, 8.689535, 0.8152179, -0.09615779, 9.774658
266489367403103, 4.633701, 0.46779683, 8.900104, -0.7399393, 0.16770196, 10.016297
266489377043520, 4.429115, -0.9284152, 8.809176, 0.6441042, -0.12912154, 9.881755
266489386683936, 4.6576295, 0.3505485, 9.080762, -0.62858415, 0.08526039, 10.191874
266489396324457, 4.584648, -0.5491528, 9.048459, 0.24707204, -0.06345129, 10.1553
266489405964874, 4.5798626, -0.17467605, 9.026923, -0.11417389, -0.022589684, 10.123115
266489415605290, 4.6229334, -0.09571291, 9.046066, -0.18765277, 0.014387131, 10.157586
266489425245707, 4.5391846, -0.721436, 8.921639, 0.43584985, -0.0750978, 10.026201
266489434886228, 4.682754, 0.32063824, 9.008977, -0.5932506, 0.12623739, 10.140256
266489444526645, 4.4147577, -1.0253245, 8.804391, 0.7406501, -0.1473589, 9.873621
266489454167061, 4.7078786, 0.47018966, 8.985049, -0.7430784, 0.17482042, 10.125886
266489463807478, 4.4554358, -1.052842, 8.8701935, 0.7615667, -0.1454463, 9.951813
266489473447999, 4.6576295, 0.2943172, 9.08794, -0.58447945, 0.06277847, 10.199277
266489483088415, 4.5475593, -0.68195444, 9.044869, 0.38907272, -0.1153636, 10.138558
266489492728832, 4.642076, -0.14356937, 9.048459, -0.14679211, 0.02016735, 10.169667
266489502369353, 4.651647, -0.1591227, 8.9108715, -0.12068343, 0.089138985, 10.052078
266489512009770, 4.516453, -0.64247286, 8.742178, 0.3626241, -0.010345459, 9.854197
266489521650186, 4.6875396, 0.30388847, 8.82473, -0.5672186, 0.2114451, 9.978716
266489531290603, 4.4674, -1.0241281, 8.696713, 0.731866, -0.086937666, 9.802863
266489540931124, 4.698307, 0.4833502, 9.046066, -0.7815799, 0.13950968, 10.1739235
266489550571540, 4.4602213, -1.0348958, 9.036494, 0.7037295, -0.24597573, 10.102826
266489560211957, 4.682754, 0.32303107, 9.162118, -0.6327654, 0.0670414, 10.274827
266489569852478, 4.5332026, -0.80757767, 8.87139, 0.5001372, -0.060555696, 9.982479
266489579492895, 4.5714874, -0.12323037, 8.920443, -0.17101344, 0.033227444, 10.022856
266489589133311, 4.5655055, -0.276371, 8.907282, -0.018192053, 0.018477917, 10.012953
266489598773728, 4.473382, -0.6329016, 8.841479, 0.34249556, -0.08058882, 9.922685
266489608414249, 4.6899323, 0.24765715, 9.035298, -0.53682196, 0.10525656, 10.168294
266489618054665, 4.4554358, -0.9379865, 8.925228, 0.6307313, -0.1776402, 9.998053
266489627695082, 4.6971107, 0.5024927, 9.180064, -0.80440795, 0.073390484, 10.292543
266489637335603, 4.459025, -0.997807, 9.047262, 0.6893128, -0.22886252, 10.109596
266489646976020, 4.7042894, 0.47018966, 9.235099, -0.7649076, 0.053202152, 10.346523
266489656616436, 4.54397, -0.72023964, 8.962317, 0.42517924, -0.066354275, 10.065007
266489666256957, 4.60738, -0.0047856453, 8.955139, -0.27980962, 0.07106972, 10.066735
266489675897374, 4.597809, -0.3900301, 8.744571, 0.11117953, 0.12463808, 9.88593
266489685537790, 4.4398823, -0.6843473, 8.630911, 0.40159184, 0.0015790462, 9.721742
266489695178311, 4.5320063, 0.11246266, 8.82832, -0.3978986, 0.07272005, 9.916015
266489704818728, 4.3992043, -1.0025927, 8.82473, 0.68910295, -0.1614995, 9.886005
266489714459145, 4.7198424, 0.46660042, 9.235099, -0.7963898, 0.074118614, 10.350939
266489724099665, 4.4279184, -0.98584294, 9.020942, 0.6508904, -0.23622322, 10.073543
266489733740082, 4.618148, 0.4319045, 9.171689, -0.75286806, 0.016046524, 10.250202
266489743380499, 4.462614, -0.8350951, 9.006584, 0.5179212, -0.1662817, 10.071495
266489753021020, 4.584648, 0.0023928226, 9.055637, -0.30961466, 0.007630348, 10.145327
266489762661436, 4.551149, -0.44865423, 8.909675, 0.14693385, -0.0037090778, 10.013739
266489772301853, 4.473382, -0.56829536, 8.740981, 0.285272, -0.002718687, 9.831453
266489781942374, 4.642076, 0.096909314, 8.940782, -0.37694585, 0.12439203, 10.066692
266489791582790, 4.5248275, -0.90329057, 8.987442, 0.59646773, -0.11446452, 10.084406
266489801223207, 4.766503, 0.506082, 9.290133, -0.8049557, 0.10640097, 10.422235
266489810863728, 4.469793, -0.9942178, 9.081959, 0.67055583, -0.211941, 10.14667
266489820504145, 4.6468616, 0.49052864, 9.135797, -0.81064916, 0.093446255, 10.228923
266489830144665, 4.4374895, -0.8673982, 8.779266, 0.55827487, -0.0800004, 9.859062
266489839785082, 4.540381, 0.0047856453, 8.766106, -0.29969415, 0.11089659, 9.866995
266489849425499, 4.470989, -0.5240282, 8.822337, 0.20516276, -0.02888608, 9.902277
266489859066020, 4.4841495, -0.4941179, 8.946764, 0.16994196, -0.07216263, 10.018097
266489868706436, 4.648058, 0.0741775, 9.104691, -0.39968342, 0.050062656, 10.214845
266489878346853, 4.4614177, -0.8243274, 9.006584, 0.49683928, -0.17290115, 10.071028
266489887987374, 4.7162533, 0.4749753, 9.170493, -0.7892789, 0.122555256, 10.292162
266489897627790, 4.486542, -1.0408778, 8.790034, 0.74748033, -0.061955452, 9.895182
266489907268311, 4.7401814, 0.4211368, 8.880961, -0.6944009, 0.26466846, 10.048179
266489916908728, 4.505685, -0.96909314, 8.748159, 0.68584764, -0.02905655, 9.864046
266489926549145, 4.712664, 0.1160519, 9.066405, -0.39976233, 0.12365055, 10.2101555
266489936189665, 4.6779685, -0.4953143, 9.114262, 0.19127947, 0.0038733482, 10.2548485
266489945830082, 4.599005, -0.276371, 9.080762, -0.022622168, -0.035035133, 10.182621
266489955470499, 4.6289153, 0.09571291, 9.012567, -0.3882125, 0.05674553, 10.124645
266489965111020, 4.4434714, -0.80997044, 8.635697, 0.534589, -0.008450985, 9.730873
266489974751436, 4.6803613, 0.3792624, 8.886943, -0.66109276, 0.19288898, 10.027618
266489984391957, 4.386044, -1.0683953, 8.822337, 0.774395, -0.17356181, 9.878395
266489994032374, 4.638487, 0.46899325, 9.141779, -0.7600177, 0.049288273, 10.233651
266490003672790, 4.505685, -0.9810573, 8.933603, 0.67255414, -0.11197162, 10.030359
266490013313311, 4.674379, 0.18544376, 9.069994, -0.4748084, 0.07898378, 10.193985
266490022953728, 4.534399, -0.5180461, 9.035298, 0.20754975, -0.08872914, 10.12002
266490032594249, 4.5188456, -0.28953153, 8.949157, -0.007725358, -0.041274786, 10.0294285
266490042234665, 4.645665, -0.08255238, 8.920443, -0.20164126, 0.1052351, 10.055426
266490051875186, 4.486542, -0.8458628, 8.815159, 0.55458105, -0.06587601, 9.9115925
266490061515603, 4.6971107, 0.33140594, 9.12503, -0.615934, 0.09787893, 10.249386
266490071156020, 4.4398823, -1.0947163, 8.993423, 0.7821535, -0.22717357, 10.056306
266490080796540, 4.729414, 0.45224348, 9.0951185, -0.74103296, 0.13753271, 10.233524
266490090436957, 4.506881, -1.0229317, 8.792427, 0.7303405, -0.07524133, 9.90586
266490100077478, 4.6037908, 0.2632105, 8.949157, -0.5498087, 0.076575756, 10.052036
266490109717895, 4.499703, -0.5491528, 8.91805, 0.2517742, -0.089604616, 10.000455
266490119358415, 4.599005, -0.1471586, 8.927621, -0.1329521, 0.032120228, 10.04272
266490128998832, 4.6408796, -0.06460621, 8.962317, -0.2176086, 0.06229353, 10.090284
266490138639353, 4.485346, -0.72502524, 8.894122, 0.43440956, -0.117301464, 9.977322
266490148279770, 4.727021, 0.29312077, 9.083155, -0.580147, 0.11715174, 10.226635
266490157920186, 4.4350967, -1.1234303, 8.883354, 0.8297474, -0.20124531, 9.955761
266490167560707, 4.658826, 0.42831525, 9.097511, -0.7252488, 0.06590223, 10.204044
266490177201124, 4.469793, -1.032503, 8.892925, 0.7261505, -0.1687069, 9.97865
266490186841645, 4.6839504, 0.28115666, 9.017352, -0.56030506, 0.09837341, 10.14926
266490196482061, 4.5296135, -0.6664011, 8.900104, 0.36393487, -0.09017992, 10.001637
266490206122582, 4.5272202, -0.15314065, 8.880961, -0.13346767, -0.025151968, 9.968561
266490215762999, 4.6002016, -0.1471586, 8.949157, -0.13924694, 0.01505518, 10.06237
266490225403520, 4.5320063, -0.62811595, 8.8701935, 0.338732, -0.06293082, 9.97473
266490235043936, 4.761717, 0.32063824, 9.042477, -0.5935025, 0.1674056, 10.206021
266490244684457, 4.520042, -0.99302137, 8.943174, 0.69927293, -0.14236021, 10.044302
266490254324874, 4.800002, 0.57188463, 9.158528, -0.83467764, 0.16693354, 10.32091
266490263965395, 4.5559344, -0.95353985, 8.886943, 0.68903726, -0.09387612, 10.007994
266490273605811, 4.729414, 0.33499518, 8.919247, -0.5935638, 0.16891146, 10.082247
266490283246332, 4.5427737, -0.72263247, 8.776874, 0.4542097, -0.04270482, 9.8987055
266490292886749, 4.6037908, -0.0059820567, 8.969496, -0.2714938, 0.0059928894, 10.078344
266490302527270, 4.662415, -0.124426775, 9.09153, -0.15827441, -0.011025429, 10.2168665
266490312167686, 4.610969, -0.5288138, 8.999406, 0.24508119, -0.0666275, 10.122525
266490321808207, 4.7449675, 0.3062813, 9.069994, -0.5737631, 0.13116837, 10.223839
266490331448624, 4.4554358, -0.9942178, 8.745767, 0.70960927, -0.13591456, 9.838993
266490341089040, 4.6875396, 0.3924229, 8.796016, -0.6373632, 0.21464229, 9.952118
266490350729561, 4.388437, -1.174876, 8.659625, 0.89210427, -0.16608071, 9.736754
266490360370082, 4.6169515, 0.2656033, 8.935996, -0.52994263, 0.06099987, 10.0476
266490370010499, 4.536792, -0.8769695, 8.932407, 0.591185, -0.12912893, 10.038591
266490379651020, 4.6612186, -0.0634098, 9.140582, -0.23466516, -0.040125847, 10.257902
266490389291436, 4.662415, -0.28115666, 9.097511, -0.008952439, -0.042111874, 10.226438
266490398931957, 4.601398, -0.5084748, 9.040084, 0.22060812, -0.09388161, 10.153673
266490408572374, 4.76411, 0.28953153, 9.081959, -0.56317353, 0.110126495, 10.243695
266490418212895, 4.534399, -0.8781659, 8.849854, 0.60018605, -0.09270644, 9.964088
266490427853311, 4.7318068, 0.54317075, 9.0436735, -0.80164456, 0.14369917, 10.188709
266490437493832, 4.469793, -0.9774681, 8.792427, 0.7198593, -0.14517498, 9.884432
266490447134249, 4.7676992, 0.46899325, 8.883354, -0.7139094, 0.22717571, 10.064971
266490456774770, 4.6061835, -0.8063812, 8.82832, 0.5444217, -0.021402597, 9.975447
266490466415186, 4.6372905, 0.0741775, 8.919247, -0.34330857, 0.033545017, 10.047087
266490476055707, 4.619344, -0.3361916, 8.891729, 0.065812945, -0.0068769455, 10.02546
266490485696124, 4.642076, -0.4833502, 8.865408, 0.2078389, 0.008031845, 10.016722
266490495336645, 4.834698, 0.14476576, 9.049655, -0.42164838, 0.15462923, 10.251332
266490504977165, 4.523631, -0.93559366, 8.962317, 0.6442414, -0.1877377, 10.060389
266490514617582, 4.7210393, 0.44027936, 9.111869, -0.72235453, 0.043789387, 10.246194
266490524258103, 4.462614, -1.0827522, 8.720642, 0.79183346, -0.15479898, 9.822725
266490533898520, 4.688736, 0.41994038, 8.82473, -0.6832539, 0.16306877, 9.977126
266490543539040, 4.508078, -0.8865408, 8.719446, 0.60799265, -0.087163925, 9.836676
266490553179457, 4.648058, 0.050249275, 8.95155, -0.32088417, 0.026153564, 10.0813465
266490562819978, 4.613362, -0.41635114, 9.077172, 0.13923872, -0.11407614, 10.189165
266490572460499, 4.581059, -0.35533416, 9.107083, 0.078495204, -0.14691877, 10.199196
266490582100915, 4.727021, -0.1160519, 9.203992, -0.15089417, -0.035749912, 10.346382
266490591741436, 4.7485566, -0.17467605, 9.1681, -0.08817792, -0.007194042, 10.325966
266490601381853, 4.6971107, -0.21655045, 8.928818, -0.025695324, 0.051967144, 10.091094
266490611022374, 4.5858445, -0.28235307, 8.715857, 0.05025369, 0.04514575, 9.852476
266490620662790, 4.6061835, -0.28953153, 8.737391, 0.05633253, 0.049173355, 9.881154
266490630303311, 4.6432724, -0.2536392, 8.82473, -0.0010335445, 0.028756142, 9.974935
266490639943832, 4.6492543, -0.29671, 8.9348, 0.03490907, -0.020447254, 10.07634
266490649584249, 4.633701, -0.28713873, 9.02812, 0.008660555, -0.08626032, 10.151505
266490659224770, 4.631308, -0.26679972, 8.967103, -0.01659596, -0.06464529, 10.095776
266490668865186, 4.6612186, -0.29790643, 8.756535, 0.033388972, 0.059598446, 9.924109
266490678505707, 4.62413, -0.3278167, 8.672786, 0.071056664, 0.06468654, 9.833516
266490688146228, 4.601398, -0.24765715, 8.883354, -0.018443942, -0.04382038, 10.007294
266490697786645, 4.685147, -0.20219351, 9.066405, -0.069990754, -0.05005169, 10.2070465
266490707427165, 4.782056, -0.18305093, 9.133404, -0.07012296, 0.019738197, 10.310932
266490717067582, 4.7688956, -0.19980069, 9.017352, -0.04688394, 0.06044197, 10.202406
266490726708103, 4.7078786, -0.22851457, 8.830712, -0.0016815066, 0.09698343, 10.009417
266490736348624, 4.6839504, -0.25244278, 8.766106, 0.030755937, 0.10590696, 9.941608
266490745989040, 4.658826, -0.2727818, 8.863015, 0.044644594, 0.03274536, 10.016438
266490755629561, 4.6325045, -0.23330021, 8.974281, -0.0069773793, -0.047023773, 10.10198
266490765270082, 4.6432724, -0.18424734, 8.980264, -0.06364855, -0.04190302, 10.111047
266490774910499, 4.6731825, -0.20817557, 9.017352, -0.05583012, -0.030798435, 10.158275
266490784551020, 4.6695933, -0.2321038, 9.042477, -0.033982635, -0.04752922, 10.179487
266490794191436, 4.625326, -0.27996024, 8.955139, 0.011106372, -0.0368433, 10.082909
266490803831957, 4.5858445, -0.30987054, 8.851051, 0.044915557, -0.026849747, 9.973183
266490813472478, 4.597809, -0.317049, 8.800801, 0.0569731, 0.009577274, 9.9343405
266490823112895, 4.6169515, -0.30987054, 8.815159, 0.053077042, 0.012475014, 9.955717
266490832753415, 4.621737, -0.31345975, 8.825927, 0.05760193, 0.005517006, 9.967565
266490842393936, 4.5834517, -0.29910284, 8.883354, 0.037460208, -0.055811882, 10.000347
266490852034353, 4.60738, -0.28594232, 8.892925, 0.025198638, -0.037988663, 10.019568
266490861674874, 4.6959143, -0.25004998, 8.98146, -0.009569645, 0.005068302, 10.138081
266490871315395, 4.692325, -0.22492532, 9.006584, -0.034801304, -0.004160881, 10.158043
266490880955811, 4.636094, -0.22971097, 9.017352, -0.030002892, -0.056628704, 10.14173
266490890596332, 4.692325, -0.18424734, 9.0747795, -0.0689376, -0.028057098, 10.217531
266490900236853, 4.686343, -0.19381863, 9.030513, -0.04133147, -0.01345396, 10.175837
266490909877270, 4.6408796, -0.2548356, 8.882157, 0.031529367, 0.009453297, 10.024686
266490919517790, 4.615755, -0.23808585, 8.725428, 0.023344278, 0.059521675, 9.873748
266490929158311, 4.6265225, -0.22372891, 8.739784, 0.0051887035, 0.059075832, 9.891163
266490938798728, 4.727021, -0.19381863, 8.961121, -0.038016617, 0.04360819, 10.133145
266490948439249, 4.725825, -0.21296121, 9.102298, -0.033879578, -0.02527237, 10.258109
266490958079770, 4.6911287, -0.25842485, 9.004191, 0.010642946, -0.011420727, 10.156214
266490967720186, 4.6600223, -0.31465617, 8.781659, 0.07933718, 0.05732584, 9.945993
266490977360707, 4.6396832, -0.3361916, 8.763713, 0.09781635, 0.046826363, 9.921219
266490987001228, 4.642076, -0.23808585, 8.940782, -0.018648922, -0.026818752, 10.076809
266490996641645, 4.664808, -0.19381863, 8.9826565, -0.06385523, -0.020544052, 10.123321
266491006282165, 4.6707897, -0.20697916, 8.988638, -0.04545784, -0.018898964, 10.131747
266491015922686, 4.6432724, -0.20338993, 8.894122, -0.04435724, 8.7451935E-4, 10.035177
266491025563207, 4.6097727, -0.21894327, 8.864211, -0.02526164, -0.014211655, 9.993565
266491035203624, 4.62413, -0.24885355, 8.930014, 0.005214572, -0.03450203, 10.059246
266491044844145, 4.6971107, -0.23090738, 8.985049, -0.006218493, -8.511543E-4, 10.141364
266491054484665, 4.727021, -0.20817557, 9.075976, -0.030941129, -0.017448425, 10.235242
266491064125082, 4.6875396, -0.21655045, 9.064013, -0.024503767, -0.047609806, 10.206536
266491073765603, 4.6552362, -0.22731815, 8.949157, -0.0062652826, -0.018104553, 10.090091
266491083406124, 4.644469, -0.20937198, 8.846265, -0.01844281, 0.02127266, 9.993525
266491093046645, 4.65404, -0.22013968, 8.827123, -0.008782506, 0.05053568, 9.981182
266491102687061, 4.627719, -0.2656033, 8.885747, 0.028689146, -0.0021328926, 10.022076
266491112327582, 4.634897, -0.26799613, 8.976674, 0.025372624, -0.037745953, 10.106073
266491121968103, 4.6767716, -0.23330021, 8.985049, -0.007982612, -0.0019626617, 10.132012
266491131608520, 4.658826, -0.2440679, 8.891729, 0.00897634, 0.019602776, 10.041247
266491141249040, 4.6528435, -0.2883351, 8.845069, 0.06326932, 0.02007103, 9.998148
266491150889561, 4.62413, -0.26919255, 8.831908, 0.04465556, 5.5265427E-4, 9.972746
266491160530082, 4.601398, -0.22492532, 8.827123, -3.4797192E-4, -0.013068199, 9.956976
266491170170499, 4.627719, -0.16151553, 8.88455, -0.06513435, -0.009306431, 10.018621
266491179811020, 4.679165, -0.16271193, 8.912068, -0.06180674, 0.022772789, 10.066861
266491189451540, 4.694718, -0.22612174, 8.976674, -0.0018666387, 2.9325485E-4, 10.13273
266491199092061, 4.662415, -0.21894327, 9.030513, -0.014342368, -0.05735445, 10.16527
266491208732478, 4.6552362, -0.21894327, 8.975478, -0.011266351, -0.03839779, 10.113197
266491218372999, 4.718646, -0.25962126, 8.933603, 0.03965932, 0.030544281, 10.106422
266491228013520, 4.6731825, -0.26081768, 8.9312105, 0.037788987, -0.008692265, 10.083239
266491237654040, 4.645665, -0.2416751, 8.904889, 0.018762946, -0.018490314, 10.04674
266491247294457, 4.6672006, -0.21894327, 8.837891, 0.0016962886, 0.036180496, 9.996885
266491256934978, 4.6971107, -0.20937198, 8.866604, -0.0074796677, 0.052402973, 10.035962
266491266575499, 4.705486, -0.1794617, 8.970692, -0.042939186, 0.013798237, 10.131392
266491276216020, 4.6911287, -0.17826529, 9.0233345, -0.047616184, -0.026592255, 10.171337
266491285856436, 4.668397, -0.16031912, 8.963513, -0.061463982, -0.021673203, 10.107421
266491295496957, 4.6935215, -0.17108682, 8.868998, -0.04143578, 0.041434288, 10.03564
266491305137478, 4.6504507, -0.22253251, 8.822337, 0.010073721, 0.02071762, 9.975435
266491314777999, 4.666004, -0.22013968, 8.895318, -0.0015021563, 0.0023727417, 10.047225
266491324418520, 4.65404, -0.21535404, 8.913264, -0.008359194, -0.015975475, 10.057456
266491334058936, 4.618148, -0.22612174, 8.882157, -0.0043489933, -0.02272129, 10.013521
266491343699457, 4.6636114, -0.22253251, 8.903693, -0.00581038, 0.007865906, 10.053579
266491353339978, 4.679165, -0.20578274, 8.938389, -0.021759808, 0.022532463, 10.091124
266491362980499, 4.6815577, -0.2548356, 8.8701935, 0.0372476, 0.052556515, 10.032852
266491372620915, 4.6528435, -0.29192436, 8.904889, 0.069176614, 0.007750988, 10.051189
266491382261436, 4.6229334, -0.26081768, 8.935996, 0.042236626, -0.04167652, 10.064196
266491391901957, 4.6528435, -0.20338993, 8.945567, -0.011221945, -0.022341251, 10.08528
266491401542478, 4.6767716, -0.18424734, 8.915657, -0.026484191, 0.0057725906, 10.069477
266491411182999, 4.638487, -0.20219351, 8.845069, -0.0070109367, 0.0030388832, 9.989576
266491420823415, 4.6552362, -0.22492532, 8.925228, 0.009644151, -0.029040337, 10.068792
266491430463936, 4.6636114, -0.2213361, 9.016156, -0.0033982992, -0.070717335, 10.153046
266491440104457, 4.6707897, -0.16390835, 9.084352, -0.06992823, -0.095756054, 10.215409
266491449744978, 4.6815577, -0.148355, 9.016156, -0.086128056, -0.047912598, 10.15974
266491459385499, 4.645665, -0.20458634, 8.867801, -0.021001875, -0.011451244, 10.013061
266491469025915, 4.679165, -0.2548356, 8.797213, 0.035910726, 0.04604721, 9.9673
266491478666436, 4.688736, -0.28594232, 8.811569, 0.07231325, 0.044852257, 9.985115
266491488306957, 4.6636114, -0.25842485, 8.788837, 0.04600376, 0.032265663, 9.952718
266491497947478, 4.6672006, -0.23330021, 8.737391, 0.025745511, 0.05518818, 9.908354
266491507587999, 4.7318068, -0.25124636, 8.803194, 0.04425943, 0.080019474, 9.997047
266491517228520, 4.7880383, -0.20458634, 8.955139, -0.008829534, 0.046098232, 10.156746
266491526868936, 4.8095737, -0.20817557, 9.0747795, -0.012205124, 0.0035572052, 10.272623
266491536509457, 4.7485566, -0.17108682, 9.006584, -0.04952061, -0.014566898, 10.183022
266491546149978, 4.7114677, -0.18783657, 8.840283, -0.024484932, 0.028665066, 10.019103
266491555790499, 4.6564326, -0.20219351, 8.718249, -0.0067697167, 0.040090084, 9.88582
