timestamp_acc,device_acc_x,device_acc_y,device_acc_z,earth_acc_x,earth_acc_y,earth_acc_z
256711902866182, 7.7671022, -0.25244278, 6.4055862, 0.06574559, -0.019165039, 10.070673
256711912505869, 7.8029947, -0.22013968, 6.3804617, 0.06621504, 0.033549547, 10.081666
256711922145453, 7.8017983, -0.20338993, 6.4271216, 0.024432182, 0.016117811, 10.110216
256711931785140, 7.806584, -0.14117654, 6.3972116, -0.009804249, 0.07506728, 10.093625
256711941424724, 7.7742805, -0.11365908, 6.390033, -0.039515495, 0.07799363, 10.063659
256711951064411, 7.7419777, -0.11485548, 6.381658, -0.04527402, 0.06368327, 10.033487
256711960704099, 7.6869426, -0.1698904, 6.390033, -0.026116133, -0.0033118725, 9.99749
256711970343682, 7.6893353, -0.16630118, 6.4211397, -0.041365385, -0.02042079, 10.019104
256711979983369, 7.7240314, -0.15553348, 6.4570317, -0.05349946, -0.017416, 10.068512
256711989623057, 7.737192, -0.1471586, 6.468996, -0.060845852, -0.01388073, 10.086119
256711999262640, 7.759924, -0.13399807, 6.465407, -0.06338477, 0.008703232, 10.101078
256712008902328, 7.765906, -0.1052842, 6.4498534, -0.07754898, 0.038520336, 10.095221
256712018541911, 7.765906, -0.18065812, 6.4331036, -0.0072214603, 0.003770113, 10.085964
256712028181599, 7.771888, -0.23090738, 6.422336, 0.040683508, -0.015730381, 10.084644
256712037821286, 7.756335, -0.22492532, 6.3481584, 0.06490564, 0.023323298, 10.025251
256712047460869, 7.739585, -0.24526432, 6.3218374, 0.08743143, 0.014384031, 9.995954
256712057100557, 7.7419777, -0.23090738, 6.3625154, 0.057872772, -0.0010204315, 10.023462
256712066740244, 7.7300134, -0.19501504, 6.3828545, 0.013474464, -0.0015540123, 10.026556
256712076379828, 7.735996, -0.16271193, 6.363712, -0.0010688305, 0.03185749, 10.01838
256712086019515, 7.7383885, -0.11724831, 6.3960147, -0.051862955, 0.040771484, 10.039974
256712095659099, 7.732406, -0.13399807, 6.418747, -0.050788403, 0.011567354, 10.050158
256712105298786, 7.7347994, -0.15792629, 6.40439, -0.023161888, 0.0068974495, 10.043289
256712114938474, 7.743174, -0.19142582, 6.4163537, 6.992817E-4, -0.01649952, 10.057968
256712124578057, 7.749156, -0.22851457, 6.4331036, 0.024105549, -0.046847343, 10.073911
256712134217744, 7.757531, -0.23688944, 6.437889, 0.031443596, -0.050521612, 10.083567
256712143857432, 7.7479596, -0.21894327, 6.413961, 0.024441719, -0.029422522, 10.060629
256712153497015, 7.7300134, -0.20578274, 6.3696938, 0.027941227, -0.0030708313, 10.018368
256712163136703, 7.722835, -0.1794617, 6.3517475, 0.012887239, 0.020060062, 10.000927
256712172776286, 7.7240314, -0.18544376, 6.363712, 0.012100458, 0.008951902, 10.009579
256712182415974, 7.7347994, -0.1794617, 6.35773, 0.013572454, 0.020023823, 10.013966
256712192055661, 7.751549, -0.18185452, 6.3481584, 0.024613142, 0.03104496, 10.020834
256712201695244, 7.753942, -0.18783657, 6.3397837, 0.03280759, 0.03402829, 10.017462
256712211334932, 7.752745, -0.20937198, 6.363712, 0.038577795, 0.0056550503, 10.03216
256712220974619, 7.756335, -0.17467605, 6.3924255, -0.0040545464, 0.013160944, 10.05257
256712230614203, 7.752745, -0.09451649, 6.391229, -0.06953883, 0.059358835, 10.04756
256712240253890, 7.728817, -0.11844472, 6.40439, -0.065862894, 0.024981737, 10.037923
256712249893578, 7.706085, -0.20458634, 6.378069, 0.008264303, -0.022918701, 10.005238
256712259533161, 7.743174, -0.19980069, 6.375676, 0.02005577, -8.029938E-4, 10.032223
256712269172849, 7.746763, -0.19621146, 6.38764, 0.013196468, -0.005522251, 10.04254
256712278812432, 7.756335, -0.23808585, 6.364908, 0.062268734, -0.010205269, 10.036209
256712288452119, 7.746763, -0.2416751, 6.407979, 0.041342497, -0.044053078, 10.056307
256712298091807, 7.7647095, -0.20338993, 6.4163537, 0.012098789, -0.013039827, 10.074788
256712307731390, 7.769495, -0.16271193, 6.428318, -0.02596736, 0.0066070557, 10.0853405
256712317371078, 7.753942, -0.1471586, 6.418747, -0.03959441, 0.013920546, 10.066967
256712327010765, 7.739585, -0.16630118, 6.418747, -0.032859802, -0.0066945553, 10.056244
256712336650349, 7.7204423, -0.19262223, 6.4067826, -0.013045073, -0.025347233, 10.034361
256712346290036, 7.732406, -0.1902294, 6.385247, -0.0022330284, -0.0050504208, 10.029839
256712355929619, 7.7312098, -0.19740787, 6.378069, 0.0032186508, -0.0045058727, 10.024485
256712365569307, 7.743174, -0.20458634, 6.38764, 0.008808374, -0.008520842, 10.03994
256712375208994, 7.7611203, -0.19980069, 6.391229, 0.00876832, 0.004609823, 10.055974
256712384848578, 7.77787, -0.1698904, 6.3768725, -0.0021269321, 0.040691853, 10.059173
256712394488265, 7.752745, -0.20697916, 6.3517475, 0.029519796, 0.018555164, 10.024539
256712404127953, 7.739585, -0.19740787, 6.364908, 0.010045528, 0.0073173046, 10.022577
256712413767536, 7.722835, -0.20458634, 6.363712, 0.010498762, -0.006432295, 10.009031
256712423407224, 7.7240314, -0.18544376, 6.3326054, 0.012804031, 0.024707317, 9.989804
256712433046807, 7.7479596, -0.16390835, 6.3050876, 0.01834011, 0.06672621, 9.990351
256712442686494, 7.743174, -0.18664017, 6.350551, 0.013459682, 0.02323389, 10.0160055
256712452326182, 7.753942, -0.20338993, 6.3684974, 0.020734787, 0.0077900887, 10.036049
256712461965765, 7.752745, -0.17347965, 6.411568, -0.026812315, 3.5762787E-6, 10.061941
256712471605453, 7.745567, -0.19262223, 6.4354963, -0.025951624, -0.02983594, 10.071989
256712481245140, 7.7611203, -0.19621146, 6.463014, -0.033078432, -0.040858746, 10.101548
256712490884724, 7.763513, -0.21894327, 6.448657, -0.0094304085, -0.045428276, 10.094706
256712500524411, 7.7503524, -0.21774685, 6.3828545, 0.015342712, -0.0117845535, 10.0427
256712510163994, 7.7503524, -0.2105684, 6.343373, 0.028327942, 0.016905785, 10.017465
256712519803682, 7.771888, -0.2105684, 6.3074803, 0.0537467, 0.049997807, 10.01127
256712529443369, 7.7742805, -0.18903299, 6.2919273, 0.044973373, 0.07370949, 10.002801
256712539082953, 7.7383885, -0.1902294, 6.309873, 0.02475977, 0.04199648, 9.98654
256712548722640, 7.7479596, -0.18903299, 6.346962, 0.009901285, 0.024937868, 10.017477
256712558362328, 7.7407813, -0.2428715, 6.4127645, 0.017980814, -0.051979065, 10.0548115
256712568001911, 7.773084, -0.2105684, 6.4462643, -0.016697407, -0.03764701, 10.100387
256712577641599, 7.7682986, -0.20458634, 6.468996, -0.033830643, -0.050557613, 10.111011
256712587281182, 7.7682986, -0.18544376, 6.430711, -0.031218052, -0.013254404, 10.086315
256712596920869, 7.749156, -0.2009971, 6.40439, -0.011359692, -0.015210867, 10.055132
256712606560557, 7.7240314, -0.24646074, 6.3720865, 0.03084302, -0.03587365, 10.01612
256712616200140, 7.7036924, -0.23808585, 6.3457656, 0.030890942, -0.024736166, 9.983524
256712625839828, 7.7012997, -0.21296121, 6.3014984, 0.031676054, 0.016265154, 9.953039
256712635479411, 7.690532, -0.19142582, 6.29432, 0.013831854, 0.028205156, 9.939739
256712645119099, 7.7012997, -0.15074782, 6.3290157, -0.0312562, 0.036640644, 9.9692955
256712654758786, 7.7216387, -0.09930214, 6.334998, -0.06744766, 0.074632406, 9.987776
256712664398369, 7.798209, -0.032303106, 6.3601227, -0.104212284, 0.13857985, 10.061521
256712674038057, 7.813762, -0.046660043, 6.3792653, -0.093425274, 0.12592053, 10.086004
256712683677744, 7.812566, -0.104087785, 6.384051, -0.047954082, 0.08288598, 10.0893
256712693317328, 7.789834, -0.18544376, 6.3996043, 0.0012304783, 0.011535406, 10.083191
256712702957015, 7.7886376, -0.2428715, 6.4067826, 0.042800665, -0.026970148, 10.087922
256712712596599, 7.7826557, -0.3278167, 6.38764, 0.118117094, -0.06838822, 10.072762
256712722236286, 7.776674, -0.32063824, 6.3972116, 0.09930849, -0.07155752, 10.074166
256712731875974, 7.7886376, -0.31345975, 6.410372, 0.09169698, -0.06913757, 10.091621
256712741515557, 7.8221374, -0.22013968, 6.398408, 0.03117752, 0.017276764, 10.108048
256712751155244, 7.834101, -0.15792629, 6.4127645, -0.021524668, 0.054040432, 10.125131
256712760794828, 7.810173, -0.13519448, 6.4055862, -0.046160936, 0.059526205, 10.101631
256712770434515, 7.7826557, -0.17587246, 6.437889, -0.040748596, 9.934902E-4, 10.101753
256712780074203, 7.7790666, -0.16031912, 6.4594245, -0.06681013, -0.005232334, 10.112331
256712789713786, 7.780263, -0.16031912, 6.4271216, -0.05407548, 0.010112524, 10.092722
256712799353474, 7.756335, -0.19501504, 6.4259253, -0.035727262, -0.024616957, 10.074194
256712808993057, 7.77787, -0.18783657, 6.385247, -0.013937235, 0.013968945, 10.064866
256712818632744, 7.7742805, -0.19980069, 6.334998, 0.018535614, 0.033164263, 10.030458
256712828272432, 7.7814593, -0.18305093, 6.262017, 0.042472363, 0.089993715, 9.989372
256712837912015, 7.757531, -0.18783657, 6.198607, 0.06704712, 0.112093925, 9.930773
256712847551703, 7.7096744, -0.2727818, 6.239285, 0.09963465, 0.01154232, 9.921295
256712857191286, 7.6833534, -0.29671, 6.283552, 0.0883441, -0.045670748, 9.929506
256712866830974, 7.692925, -0.27517462, 6.32423, 0.053019524, -0.05357027, 9.962282
256712876470661, 7.7001033, -0.25244278, 6.398408, -0.0018143654, -0.08143997, 10.014405
256712886110244, 7.7156568, -0.2548356, 6.4199433, -0.0070512295, -0.086529255, 10.040141
256712895749932, 7.7706914, -0.17228323, 6.407979, -0.051163435, 0.004049301, 10.073374
256712905389515, 7.773084, -0.13878371, 6.355337, -0.051798582, 0.05767274, 10.041135
256712915029203, 7.7814593, -0.2213361, 6.344569, 0.022570848, 0.01672721, 10.042554
256712924668786, 7.7874413, -0.22253251, 6.3182483, 0.037950516, 0.035481453, 10.03052
256712934308474, 7.8257265, 0.014356935, 6.2871413, -0.12565303, 0.21366, 10.035383
256712943948161, 7.564909, -0.82313097, 6.2105713, 0.48121095, -0.38888407, 9.802743
256712953587744, 7.867601, 0.3792624, 6.3744793, -0.43535805, 0.4023738, 10.115608
256712963227432, 7.472785, -0.89371926, 6.2883377, 0.45338845, -0.53454757, 9.782287
256712972867015, 7.9513497, 0.2883351, 6.5108705, -0.401711, 0.32263637, 10.268059
256712982506703, 7.661818, -0.34576288, 6.1651077, 0.16370773, -0.016928673, 9.838926
256712992146286, 7.926225, -0.16869399, 6.40439, 0.009105206, 0.08669233, 10.191277
256713001785974, 7.797013, -0.0047856453, 6.233303, -0.080037594, 0.22532773, 9.979495
256713011425661, 7.716853, -0.69152576, 6.4331036, 0.3194499, -0.37355185, 10.0583935
256713021065244, 7.90469, 0.37328035, 6.4259253, -0.43463898, 0.40566444, 10.176565
256713030704932, 7.57448, -1.0037891, 6.4414787, 0.49906945, -0.64938474, 9.9600315
256713040344515, 7.995617, 0.48454657, 6.5001025, -0.528625, 0.47911763, 10.291113
256713049984203, 7.5122666, -0.8386843, 6.37089, 0.3732686, -0.5378673, 9.863934
256713059623786, 7.9884386, 0.38524446, 6.526424, -0.45803618, 0.39009523, 10.305136
256713069263474, 7.5816584, -0.4546363, 6.2380886, 0.17967343, -0.17489243, 9.825432
256713078903057, 7.8867435, -0.13040884, 6.4055862, -0.035201073, 0.08498621, 10.160748
256713088542744, 7.7156568, -0.02632105, 6.1399827, -0.0503335, 0.22402763, 9.857927
256713098182432, 7.726424, -0.6664011, 6.343373, 0.3394351, -0.30959725, 10.00845
256713107822015, 7.8687973, 0.36729828, 6.3134627, -0.3754847, 0.4477148, 10.078256
256713117461703, 7.585248, -0.94755775, 6.326623, 0.50221443, -0.54308105, 9.895094
256713127101286, 7.984849, 0.55393845, 6.363712, -0.50967884, 0.60104346, 10.19512
256713136740974, 7.5254273, -0.8542377, 6.202196, 0.48112392, -0.44409442, 9.767308
256713146380557, 7.987242, 0.3589234, 6.4354963, -0.39825892, 0.4276445, 10.246901
256713156020244, 7.5864444, -0.526421, 6.209375, 0.23851442, -0.20652556, 9.812648
256713165659828, 7.908279, -0.059820566, 6.437889, -0.101113796, 0.118623495, 10.1964
256713175299515, 7.745567, -0.0849452, 6.2141604, -0.032348156, 0.15179348, 9.929387
256713184939203, 7.7204423, -0.6436693, 6.4701924, 0.25619435, -0.37318397, 10.083551
256713194578786, 7.8628154, 0.3361916, 6.4295144, -0.41228485, 0.35715222, 10.14781
256713204218474, 7.5924263, -0.92482597, 6.4737816, 0.42535233, -0.6167054, 9.992439
256713213858057, 7.9800634, 0.5096712, 6.4606214, -0.5172875, 0.51934433, 10.25395
256713223497744, 7.550552, -0.9451649, 6.3014984, 0.4967916, -0.54695773, 9.852263
256713233137328, 8.024331, 0.37447673, 6.4821568, -0.39749098, 0.43214703, 10.305519
256713242777015, 7.597212, -0.6017949, 6.1914287, 0.3225007, -0.24072242, 9.81079
256713252416599, 7.9226356, -0.014356935, 6.4031935, -0.10379195, 0.1755476, 10.184677
256713262056286, 7.7072816, -0.09930214, 6.1435723, 0.0018184185, 0.16681981, 9.855339
256713271695869, 7.746763, -0.5288138, 6.3684974, 0.22767305, -0.22749472, 10.037238
256713281335557, 7.847262, 0.3397808, 6.279963, -0.35845733, 0.4367895, 10.0406
256713290975140, 7.600801, -0.8865408, 6.3601227, 0.4287336, -0.5319731, 9.926857
256713300614828, 7.9573317, 0.49172506, 6.390033, -0.4739504, 0.5245557, 10.192822
256713310254515, 7.489535, -0.95832545, 6.2608204, 0.49001598, -0.5718484, 9.779688
256713319894099, 8.007581, 0.37806597, 6.4474607, -0.41032457, 0.43150282, 10.270319
256713329533786, 7.5900335, -0.6867401, 6.2344995, 0.35281968, -0.3229475, 9.834656
256713339173369, 7.9633136, 0.038285162, 6.4905314, -0.19042397, 0.17278576, 10.270187
256713348813057, 7.7096744, -0.09930214, 6.2201424, -0.051383972, 0.124755144, 9.905601
256713358452640, 7.7742805, -0.4642076, 6.4271216, 0.148669, -0.20579505, 10.094473
256713368092328, 7.8281193, 0.28594232, 6.2871413, -0.33555627, 0.3887496, 10.031234
256713377731911, 7.643872, -0.8362915, 6.363712, 0.41065025, -0.47009182, 9.961696
256713387371599, 7.9836526, 0.5371887, 6.3481584, -0.48794746, 0.58726406, 10.1854515
256713397011182, 7.542177, -0.9738788, 6.222535, 0.5321076, -0.54139733, 9.796763
256713406650869, 8.014759, 0.4426722, 6.4151573, -0.4242618, 0.5107436, 10.254059
256713416290453, 7.5900335, -0.66161543, 6.2237315, 0.31634736, -0.3115728, 9.827718
256713425930140, 7.9334035, 0.086141616, 6.4558353, -0.21833754, 0.22211146, 10.22385
256713435569724, 7.643872, -0.25962126, 6.202196, 0.055926323, -0.007990599, 9.846837
256713445209411, 7.780263, -0.44985065, 6.4271216, 0.13103938, -0.1987238, 10.098818
256713454848994, 7.820941, 0.22492532, 6.3050876, -0.28704405, 0.34989333, 10.038279
256713464488682, 7.6594253, -0.84107715, 6.4343, 0.35974908, -0.52195, 10.018612
256713474128265, 8.008778, 0.5084748, 6.410372, -0.48243642, 0.57235, 10.243612
256713483767953, 7.609176, -0.91884387, 6.29432, 0.47709417, -0.50806665, 9.893258
256713493407536, 8.070991, 0.56829536, 6.4354963, -0.49738145, 0.62687397, 10.307236
256713503047224, 7.539784, -0.7429714, 6.262017, 0.3341081, -0.4058237, 9.815134
256713512686807, 7.9310107, 0.08015956, 6.558727, -0.26616597, 0.15444636, 10.28735
256713522326494, 7.661818, -0.317049, 6.250053, 0.07381821, -0.061792612, 9.892313
256713531966078, 7.818548, -0.4223332, 6.4558353, 0.108819485, -0.17370605, 10.146127
256713541605765, 7.8520474, 0.15074782, 6.3014984, -0.22798753, 0.3151915, 10.061557
256713551245349, 7.6977105, -0.8003992, 6.4402823, 0.34343123, -0.4802575, 10.051071
256713560885036, 8.002795, 0.5407779, 6.38764, -0.5105164, 0.5987859, 10.223501
256713570524619, 7.5589266, -0.99302137, 6.3074803, 0.51557136, -0.58983064, 9.863775
256713580164307, 7.999206, 0.4331009, 6.428318, -0.45095944, 0.48664975, 10.249779
256713589803890, 7.5409803, -0.81236327, 6.2679987, 0.3952992, -0.4483745, 9.821244
256713599443578, 7.9633136, 0.12562318, 6.4773707, -0.26233792, 0.24256825, 10.259573
256713609083161, 7.615158, -0.40079778, 6.1878395, 0.14285755, -0.0919559, 9.818949
256713618722849, 7.8496547, -0.357727, 6.410372, 0.09047413, -0.08052039, 10.140181
256713628362432, 7.832905, 0.19621146, 6.209375, -0.24086404, 0.39223337, 9.986861
256713638002119, 7.682157, -0.74536425, 6.385247, 0.33202267, -0.39762902, 10.003706
256713647641703, 7.905886, 0.4331009, 6.361319, -0.4773333, 0.49279404, 10.133425
256713657281286, 7.5290165, -0.9822537, 6.256035, 0.51915, -0.55061007, 9.808987
256713666920974, 7.966903, 0.47258246, 6.34098, -0.47502232, 0.5621445, 10.166674
256713676560557, 7.459625, -0.9176475, 6.1639113, 0.48591948, -0.4887612, 9.695716
256713686200244, 7.88794, 0.10289137, 6.463014, -0.28104138, 0.2057538, 10.192125
256713695839828, 7.5816584, -0.4319045, 6.196214, 0.13346672, -0.13381052, 9.799257
256713705479515, 7.8867435, -0.25244278, 6.4271216, -0.0016798973, 0.004302025, 10.177049
256713715119099, 7.8484583, 0.111266255, 6.2727847, -0.21073127, 0.3129773, 10.040724
256713724758786, 7.7551384, -0.7848458, 6.4666033, 0.32930207, -0.42813206, 10.1135235
256713734398369, 8.005188, 0.40797627, 6.4474607, -0.46625924, 0.4859383, 10.264779
256713744038057, 7.623533, -1.0097711, 6.3888364, 0.4976132, -0.58329296, 9.968313
256713753677640, 8.002795, 0.41156548, 6.5108705, -0.49733925, 0.43744183, 10.30373
256713763317328, 7.513463, -0.9451649, 6.343373, 0.43629074, -0.5795007, 9.851786
256713772956911, 7.98126, 0.21535404, 6.5575304, -0.38715863, 0.26305366, 10.32129
256713782596599, 7.6067834, -0.44865423, 6.2201424, 0.14755392, -0.13455892, 9.834365
256713792236182, 7.8759756, -0.2321038, 6.4175506, -0.011042833, 0.014341593, 10.162158
256713801875765, 7.7790666, 0.025124637, 6.1591253, -0.122601986, 0.28136563, 9.917415
256713811515453, 7.7276206, -0.7106683, 6.3314085, 0.34400725, -0.31427526, 10.004538
256713821155036, 7.891529, 0.37686956, 6.3110695, -0.43312407, 0.47279882, 10.091419
256713830794724, 7.536195, -1.0336994, 6.346962, 0.49873066, -0.63570786, 9.873898
256713840434307, 7.96451, 0.4642076, 6.3996043, -0.5178559, 0.4987843, 10.202298
256713850073994, 7.500303, -0.9284152, 6.227321, 0.4489913, -0.51087546, 9.769003
256713859713578, 7.958528, 0.26799613, 6.4438715, -0.3983302, 0.3593185, 10.229649
256713869353265, 7.597212, -0.55393845, 6.168697, 0.23968339, -0.18866634, 9.797156
256713878992849, 7.9501534, -0.16749759, 6.401997, -0.042847395, 0.10047817, 10.208166
256713888632432, 7.8053875, -0.041874398, 6.1794643, -0.08683157, 0.23694825, 9.952283
256713898272119, 7.786245, -0.6831509, 6.401997, 0.2799728, -0.31903696, 10.094439
256713907911703, 7.9226356, 0.3469593, 6.381658, -0.4475553, 0.42522955, 10.160362
256713917551390, 7.5936227, -0.98943216, 6.401997, 0.43967795, -0.6193874, 9.952423
256713927190974, 7.960921, 0.42592242, 6.4127645, -0.49698162, 0.48841238, 10.207628
256713936830661, 7.4859457, -1.0073783, 6.2715883, 0.47162032, -0.60016155, 9.7879715
256713946470244, 8.005188, 0.276371, 6.4797635, -0.39228702, 0.36330342, 10.288872
256713956109932, 7.6199436, -0.6029913, 6.1794643, 0.27638602, -0.222749, 9.822777
256713965749515, 7.946564, -0.14596218, 6.384051, -0.046919346, 0.1171124, 10.193596
256713975389203, 7.7850485, -0.0526421, 6.0981083, -0.049618006, 0.26429176, 9.885564
256713985028786, 7.82453, -0.5814559, 6.3385873, 0.24728012, -0.20214415, 10.08152
256713994668369, 7.9274216, 0.3397808, 6.320641, -0.42281532, 0.44776917, 10.125746
256714004308057, 7.576873, -1.006182, 6.3493547, 0.46384478, -0.6130755, 9.906799
256714013947640, 7.9501534, 0.37806597, 6.3948183, -0.4835403, 0.4437256, 10.188763
256714023587328, 7.5266237, -1.0396814, 6.2715883, 0.49742484, -0.6072738, 9.820775
256714033226911, 8.013563, 0.2644069, 6.4642105, -0.40781045, 0.36503887, 10.284628
256714042866599, 7.611569, -0.66400826, 6.2081785, 0.2814517, -0.28924823, 9.836437
256714052506182, 7.9944205, -0.07537391, 6.4331036, -0.12704587, 0.15506816, 10.259682
256714062145765, 7.797013, -0.07178468, 6.1304116, -0.056360483, 0.23605156, 9.915726
256714071785453, 7.8149586, -0.5515456, 6.367301, 0.19117546, -0.21149015, 10.091532
256714081425036, 7.9022965, 0.25842485, 6.296713, -0.35748553, 0.40107727, 10.093216
256714091064724, 7.5936227, -0.96550393, 6.361319, 0.42037535, -0.5811608, 9.927094
256714100704307, 7.9860454, 0.47018966, 6.346962, -0.51752305, 0.5302696, 10.184935
256714110343994, 7.54457, -0.99302137, 6.2237315, 0.5000963, -0.5353811, 9.803303
256714119983578, 8.063812, 0.34217364, 6.411568, -0.42193913, 0.4472823, 10.289425
256714129623161, 7.623533, -0.6520442, 6.1842504, 0.28881955, -0.26763558, 9.830224
256714139262849, 8.030313, 0.043070808, 6.4163537, -0.21277142, 0.2365272, 10.274053
256714148902432, 7.7623167, -0.1698904, 6.131608, -0.011154652, 0.14105463, 9.892372
256714158542119, 7.8424764, -0.5312066, 6.3397837, 0.194247, -0.17601752, 10.095086
256714168181703, 7.8903327, 0.20338993, 6.257231, -0.31766248, 0.36305904, 10.060762
256714177821390, 7.685746, -0.9284152, 6.363712, 0.42296195, -0.5329685, 9.998326
256714187460974, 8.018349, 0.41754755, 6.352944, -0.47165442, 0.5045779, 10.2152405
256714197100557, 7.5792656, -1.038485, 6.216553, 0.5250957, -0.5860021, 9.825992
256714206740244, 8.123632, 0.41874397, 6.3996043, -0.45991373, 0.5243468, 10.32653
256714216379828, 7.665407, -0.6687939, 6.174679, 0.29445934, -0.26767302, 9.857692
256714226019515, 8.002795, 0.05383851, 6.4259253, -0.24678683, 0.21897817, 10.258231
256714235659099, 7.7180495, -0.26799613, 6.1627145, 0.022091866, 0.02181983, 9.880194
256714245298786, 7.8317084, -0.5024927, 6.3218374, 0.16402197, -0.17341614, 10.074562
256714254938369, 7.84128, 0.14117654, 6.189036, -0.2471335, 0.33033252, 9.981962
256714264577953, 7.6606216, -0.9391829, 6.323034, 0.4203663, -0.5426388, 9.9537325
256714274217640, 7.989635, 0.41994038, 6.3278193, -0.4785154, 0.49580956, 10.177284
256714283857224, 7.580462, -1.0085747, 6.236892, 0.48467827, -0.5864539, 9.83873
256714293496911, 8.072187, 0.4749753, 6.3493547, -0.5068948, 0.56998897, 10.252722
256714303136494, 7.605587, -0.7429714, 6.1399827, 0.35165024, -0.33940005, 9.790686
256714312776182, 7.9884386, 0.061016977, 6.4067826, -0.2482984, 0.2143879, 10.235142
256714322415765, 7.668997, -0.33140594, 6.1064835, 0.0795939, -0.023744583, 9.808445
256714332055349, 7.820941, -0.46181476, 6.314659, 0.13138819, -0.15428019, 10.06053
256714341695036, 7.797013, 0.08015956, 6.148358, -0.20586443, 0.28437924, 9.923653
256714351334619, 7.6366935, -0.92243314, 6.2608204, 0.42760134, -0.51653457, 9.895362
256714360974307, 7.928618, 0.39361933, 6.2727847, -0.4693756, 0.4732206, 10.095617
256714370613890, 7.568498, -1.0205388, 6.1698933, 0.5294306, -0.5504732, 9.788152
256714380253578, 8.059027, 0.42711884, 6.3050876, -0.45199013, 0.532542, 10.217464
256714389893161, 7.623533, -0.8446664, 6.15434, 0.4255197, -0.39834905, 9.816714
256714399532744, 8.056634, 0.08973085, 6.4235325, -0.2508099, 0.25256252, 10.298179
256714409172432, 7.728817, -0.45702913, 6.168697, 0.16631246, -0.10789776, 9.897324
256714418812015, 7.90469, -0.44147578, 6.3589263, 0.11810446, -0.12502599, 10.153096
256714428451703, 7.853244, 0.051445685, 6.2201424, -0.20678091, 0.25399494, 10.012941
256714438091286, 7.735996, -0.8554341, 6.3888364, 0.34581423, -0.5001619, 10.051114
256714447730974, 8.012366, 0.38644084, 6.3050876, -0.43750024, 0.4968431, 10.181514
256714457370557, 7.615158, -1.0348958, 6.235696, 0.5097635, -0.5792806, 9.866616
256714467010140, 8.054241, 0.41994038, 6.3661046, -0.47151923, 0.506567, 10.251608
256714476649828, 7.568498, -0.87936234, 6.1914287, 0.40817523, -0.46444583, 9.798312
256714486289411, 8.003992, 0.18544376, 6.4797635, -0.3837583, 0.2713933, 10.289056
256714495929099, 7.6546397, -0.42831525, 6.1974106, 0.09394002, -0.13418937, 9.856876
256714505568682, 7.8891363, -0.2847459, 6.4474607, -0.05484104, -0.07512665, 10.192186
256714515208369, 7.8233337, 0.0849452, 6.239285, -0.2594285, 0.25278878, 10.0004635
256714524847953, 7.751549, -0.82313097, 6.384051, 0.33358312, -0.45082188, 10.0601015
256714534487536, 7.9836526, 0.35533416, 6.3218374, -0.43963385, 0.45641732, 10.170006
256714544127224, 7.664211, -1.0492527, 6.2285175, 0.55339336, -0.5415411, 9.901312
256714553766807, 8.073383, 0.37686956, 6.2404814, -0.37910938, 0.57526946, 10.187763
256714563406494, 7.5792656, -0.9595219, 6.084948, 0.52203894, -0.44265795, 9.7429
256714573046078, 8.054241, 0.20219351, 6.337391, -0.30669212, 0.38051295, 10.238914
256714582685765, 7.672586, -0.3924229, 6.122037, 0.1000762, -0.059150934, 9.822851
256714592325349, 7.9190464, -0.14955142, 6.3314085, -0.09168458, 0.090441704, 10.139221
256714601964932, 7.7551384, 0.009571291, 6.1854467, -0.20224833, 0.19244647, 9.91585
256714611604619, 7.743174, -0.7477571, 6.40439, 0.2715764, -0.42763376, 10.063573
256714621244203, 7.948957, 0.3589234, 6.375676, -0.48716068, 0.39661527, 10.176905
256714630883890, 7.6307116, -1.0348958, 6.3338017, 0.5023873, -0.6139338, 9.93914
256714640523474, 8.037491, 0.4211368, 6.3744793, -0.51468086, 0.48161077, 10.24284
256714650163161, 7.5589266, -0.9595219, 6.1770716, 0.4870205, -0.51416945, 9.783288
256714659802744, 8.051848, 0.30269206, 6.3972116, -0.4163816, 0.3965845, 10.272175
256714669442328, 7.665407, -0.5371887, 6.1363935, 0.21064544, -0.16607332, 9.830077
256714679082015, 7.9657063, -0.22971097, 6.361319, -0.019517422, 0.040636778, 10.196549
256714688721599, 7.810173, -0.11365908, 6.101698, -0.032699585, 0.1905911, 9.909847
256714698361286, 7.786245, -0.9128618, 6.385247, 0.4348631, -0.4966755, 10.089326
256714708000869, 7.9860454, 0.2548356, 6.352944, -0.3851478, 0.37066913, 10.19392
256714717640557, 7.722835, -0.9667004, 6.314659, 0.4721563, -0.5180254, 9.998016
256714727280140, 8.063812, 0.47138608, 6.410372, -0.53875446, 0.5149784, 10.285169
256714736919724, 7.5696945, -0.910469, 6.2512493, 0.39417577, -0.52130675, 9.837693
256714746559411, 8.033902, 0.33499518, 6.4618177, -0.48312616, 0.37341905, 10.297478
256714756198994, 7.628319, -0.59342, 6.189036, 0.2033422, -0.26617193, 9.835414
256714765838682, 7.9573317, -0.14955142, 6.3457656, -0.08348918, 0.09440708, 10.178132
256714775478265, 7.804191, -0.14117654, 6.088537, -0.019646168, 0.17769527, 9.897659
256714785117953, 7.8317084, -0.6867401, 6.2787666, 0.30243516, -0.27734375, 10.05295
256714794757536, 7.999206, 0.276371, 6.2081785, -0.32467818, 0.48070145, 10.112798
256714804397224, 7.6797643, -0.9631111, 6.2524457, 0.44872117, -0.5232091, 9.925943
256714814036807, 8.023134, 0.46301118, 6.262017, -0.46678638, 0.5983312, 10.159824
256714823676390, 7.5146594, -1.0025927, 6.1495543, 0.42024326, -0.6220131, 9.732874
256714833316078, 7.999206, 0.31585258, 6.3696938, -0.39371777, 0.45420194, 10.212677
256714842955661, 7.554141, -0.65682983, 6.1304116, 0.22145414, -0.33501077, 9.742543
256714852595349, 7.9190464, -0.11365908, 6.3864436, -0.14628816, 0.08948231, 10.172584
256714862234932, 7.7347994, -0.18783657, 6.10768, -0.014345646, 0.10015845, 9.8567705
256714871874619, 7.818548, -0.6197411, 6.302695, 0.21140885, -0.27489066, 10.055719
256714881514203, 7.9393854, 0.25603202, 6.227321, -0.3119235, 0.44947624, 10.0786705
256714891153890, 7.685746, -0.9451649, 6.285945, 0.40100074, -0.5433762, 9.950933
256714900793474, 8.054241, 0.43788654, 6.3086767, -0.4945631, 0.5267658, 10.214689
256714910433057, 7.587641, -1.0468599, 6.253642, 0.5141847, -0.60847545, 9.856045
256714920072744, 8.084151, 0.32542387, 6.422336, -0.44053006, 0.41204786, 10.312223
256714929712328, 7.628319, -0.71425754, 6.2440705, 0.26055932, -0.3709514, 9.873415
256714939352015, 8.003992, -0.03589234, 6.4761744, -0.22179222, 0.118685484, 10.292849
256714948991599, 7.7383885, -0.25722843, 6.1591253, 0.0059986115, 0.026732683, 9.893579
256714958631286, 7.85444, -0.5599205, 6.326623, 0.19626427, -0.21482778, 10.096893
256714968270869, 7.9130645, 0.25004998, 6.1878395, -0.31638503, 0.42452598, 10.0343485
256714977910557, 7.6941214, -0.94277215, 6.2751775, 0.45232177, -0.5084896, 9.950026
256714987550140, 8.026724, 0.44027936, 6.24766, -0.443851, 0.57583356, 10.155138
256714997189828, 7.600801, -0.99661064, 6.0897336, 0.55267835, -0.4827919, 9.762773
256715006829411, 8.079366, 0.39720857, 6.270392, -0.40244365, 0.54360914, 10.212457
256715016468994, 7.6139617, -0.6963114, 6.1005015, 0.32900238, -0.28296542, 9.771647
256715026108682, 7.952546, 0.03589234, 6.4091754, -0.25873876, 0.16959286, 10.20912
256715035748265, 7.6893353, -0.2883351, 6.1507506, 0.022794724, -0.022196531, 9.850876
256715045387953, 7.8867435, -0.47018966, 6.410372, 0.10396862, -0.19475865, 10.17182
256715055027536, 7.9501534, 0.20697916, 6.2488565, -0.3062265, 0.3722093, 10.102656
256715064667224, 7.7587276, -0.93320084, 6.3338017, 0.45307207, -0.5012655, 10.036395
256715074306807, 8.09133, 0.45583272, 6.343373, -0.48715186, 0.5368922, 10.265974
256715083946494, 7.6749787, -0.951147, 6.2404814, 0.48670125, -0.50943375, 9.912476
256715093586078, 8.114061, 0.46061835, 6.410372, -0.50853944, 0.51706505, 10.325554
256715103225765, 7.594819, -0.7680961, 6.2548385, 0.3050816, -0.4439652, 9.85414
256715112865349, 7.987242, 0.08015956, 6.503692, -0.32342935, 0.1528306, 10.294295
256715122505036, 7.692925, -0.3290131, 6.189036, 0.040464163, -0.06655955, 9.878635
256715132144619, 7.856833, -0.45822555, 6.3481584, 0.12992358, -0.16392493, 10.109161
256715141784307, 7.874779, 0.11365908, 6.1507506, -0.20697093, 0.32790923, 9.985312
256715151423890, 7.7347994, -0.8889336, 6.265606, 0.45909858, -0.4515016, 9.97299
256715161063578, 8.015956, 0.4354937, 6.2512493, -0.44882393, 0.53719425, 10.150533
256715170703161, 7.645068, -0.9954142, 6.2321067, 0.5166509, -0.5336244, 9.885616
256715180342849, 8.110473, 0.50368917, 6.3493547, -0.51912475, 0.5883038, 10.282615
256715189982432, 7.6067834, -0.7465607, 6.1842504, 0.31651878, -0.37671995, 9.819539
256715199622015, 8.029117, 0.18903299, 6.4558353, -0.35897517, 0.27370548, 10.294488
256715209261703, 7.7036924, -0.3505485, 6.1651077, 0.06940532, -0.06169176, 9.872675
256715218901286, 7.921439, -0.3684947, 6.3720865, 0.06744027, -0.09203768, 10.172288
256715228540974, 7.880761, 0.10289137, 6.1794643, -0.204216, 0.30992174, 10.008247
256715238180557, 7.7551384, -0.8566305, 6.3541408, 0.38422608, -0.4867599, 10.043232
256715247820244, 7.9860454, 0.35294133, 6.3361945, -0.43514705, 0.4210081, 10.182448
256715257459828, 7.60439, -1.0671989, 6.2751775, 0.5192406, -0.6578531, 9.881352
256715267099515, 8.053044, 0.41515473, 6.4008007, -0.49521947, 0.4676082, 10.272791
256715276739099, 7.554141, -0.8925229, 6.1854467, 0.42130327, -0.5104954, 9.781784
256715286378786, 7.9908314, 0.18065812, 6.4031935, -0.33179855, 0.2760582, 10.232332
256715296018369, 7.635497, -0.41635114, 6.145965, 0.11604214, -0.13262105, 9.808974
256715305658057, 7.914261, -0.27876383, 6.34098, 0.020558834, -0.01711893, 10.144976
256715315297640, 7.850851, 0.09212367, 6.1435723, -0.18290186, 0.31090856, 9.962818
256715324937328, 7.771888, -0.7680961, 6.3182483, 0.34221554, -0.39379096, 10.031964
256715334576911, 8.006385, 0.424726, 6.279963, -0.44607902, 0.5159955, 10.161461
256715344216599, 7.63789, -0.9954142, 6.282356, 0.46783757, -0.5910306, 9.911005
256715353856182, 8.04108, 0.41754755, 6.4031935, -0.48804092, 0.4561963, 10.2658615
256715363495869, 7.5637126, -0.94755775, 6.2847486, 0.4121871, -0.60425496, 9.852444
256715373135453, 8.015956, 0.25722843, 6.4163537, -0.3742814, 0.35075927, 10.258078
256715382775140, 7.652247, -0.4749753, 6.196214, 0.14938235, -0.19331717, 9.854739
256715392414724, 7.941778, -0.2548356, 6.3948183, -0.0014111996, -0.019253016, 10.199516
256715402054411, 7.832905, 0.029910283, 6.1028943, -0.10630441, 0.2824719, 9.925197
256715411693994, 7.8017983, -0.7118647, 6.3014984, 0.33254743, -0.33850813, 10.042834
256715421333682, 7.989635, 0.4319045, 6.233303, -0.41203928, 0.5496814, 10.119434
256715430973265, 7.655836, -0.9415757, 6.2464633, 0.48083282, -0.53960705, 9.899209
256715440612953, 8.059027, 0.4941179, 6.343373, -0.49254322, 0.5569594, 10.240978
256715450252536, 7.5828547, -0.90089774, 6.2105713, 0.4337566, -0.51771665, 9.81969
256715459892224, 8.059027, 0.2943172, 6.4821568, -0.41344213, 0.34506083, 10.332613
256715469531807, 7.698907, -0.50009996, 6.209375, 0.18110132, -0.19758224, 9.899887
256715479171494, 8.009974, -0.12083755, 6.40439, -0.07424903, 0.08701348, 10.255604
256715488811078, 7.861619, 0.050249275, 6.157929, -0.13428283, 0.2742052, 9.981707
256715498450765, 7.8604226, -0.57188463, 6.350551, 0.22754598, -0.25129008, 10.1157255
256715508090453, 7.9920278, 0.42951167, 6.2991056, -0.44616413, 0.50172687, 10.16292
256715517730036, 7.6331043, -0.9499506, 6.314659, 0.45279717, -0.59476376, 9.923853
256715527369724, 8.037491, 0.50368917, 6.334998, -0.50576353, 0.5491619, 10.219089
256715537009307, 7.576873, -0.90329057, 6.181857, 0.46901584, -0.5088661, 9.795988
256715546648994, 8.026724, 0.3074777, 6.411568, -0.40868926, 0.36466312, 10.263092
256715556288578, 7.60439, -0.56590253, 6.212964, 0.19843173, -0.28663492, 9.829872
256715565928265, 7.945368, -0.07537391, 6.3972116, -0.13480687, 0.08193135, 10.199705
256715575567849, 7.7647095, -0.06699903, 6.111269, -0.068353176, 0.1725173, 9.879696
256715585207536, 7.8352976, -0.6017949, 6.3290157, 0.2622924, -0.26212168, 10.083302
256715594847119, 7.958528, 0.33140594, 6.2464633, -0.36435246, 0.44510102, 10.106208
256715604486807, 7.6546397, -0.95473623, 6.285945, 0.49825, -0.5547488, 9.922808
256715614126390, 8.029117, 0.47976094, 6.3194447, -0.48270035, 0.52141666, 10.204282
256715623766078, 7.59123, -0.9870393, 6.2213387, 0.5302901, -0.56954956, 9.83364
256715633405765, 8.07458, 0.36729828, 6.4618177, -0.45218682, 0.3864479, 10.3312645
256715643045349, 7.628319, -0.57547385, 6.202196, 0.2330432, -0.27789164, 9.841653
256715652685036, 7.9334035, -0.07776674, 6.4235325, -0.14953136, 0.06040883, 10.206896
256715662324619, 7.7383885, -0.1363909, 6.1064835, -0.014879227, 0.112149, 9.85787
256715671964307, 7.7706914, -0.59581286, 6.306284, 0.2537005, -0.28688455, 10.018044
256715681603890, 7.861619, 0.25244278, 6.1914287, -0.30056024, 0.37707543, 9.998504
256715691243578, 7.6307116, -0.9296116, 6.2524457, 0.47441983, -0.5394206, 9.882763
256715700883161, 8.053044, 0.51206404, 6.314659, -0.47867298, 0.57696366, 10.218935
256715710522849, 7.6426754, -0.9451649, 6.2117677, 0.5023842, -0.5258913, 9.867165
256715720162432, 8.117651, 0.4331009, 6.4199433, -0.45089293, 0.4767592, 10.337742
256715729802119, 7.6594253, -0.6161518, 6.2548385, 0.2403264, -0.32401967, 9.899834
256715739441807, 8.062616, 0.04546363, 6.5144596, -0.22710204, 0.14398956, 10.362128
256715749081390, 7.800602, -0.18664017, 6.2285175, -0.00800252, 0.03919506, 9.98384
256715758721078, 7.905886, -0.52283174, 6.407979, 0.19825745, -0.23684669, 10.185439
256715768360661, 7.9334035, 0.24047868, 6.270392, -0.3002255, 0.3490634, 10.104581
256715778000349, 7.7312098, -0.9020941, 6.35773, 0.44451618, -0.53511, 10.026074
256715787639932, 8.05783, 0.5132605, 6.344569, -0.50709987, 0.5452001, 10.241643
256715797279619, 7.5960155, -0.9092726, 6.212964, 0.46979833, -0.5340643, 9.82961
256715806919307, 8.049456, 0.47258246, 6.3792653, -0.4904287, 0.48367, 10.258541
256715816558890, 7.580462, -0.7106683, 6.178268, 0.33386683, -0.38673425, 9.791753
256715826198578, 7.9573317, 0.019142581, 6.448657, -0.2235198, 0.11371827, 10.239227
256715835838161, 7.698907, -0.2644069, 6.198607, 0.022251606, -0.049401045, 9.887511
256715845477849, 7.8424764, -0.4749753, 6.4151573, 0.12648916, -0.24145842, 10.139526
256715855117432, 7.9011, 0.20219351, 6.257231, -0.294636, 0.31766462, 10.07142
256715864757119, 7.7216387, -0.86141616, 6.314659, 0.42960954, -0.4797392, 9.991294
256715874396807, 8.059027, 0.56111693, 6.2512493, -0.5132861, 0.6123805, 10.183437
256715884036390, 7.6331043, -0.9092726, 6.1435723, 0.51484346, -0.45399356, 9.816486
256715893676078, 8.087741, 0.51206404, 6.3110695, -0.4870448, 0.5727773, 10.243929
256715903315661, 7.60439, -0.73459655, 6.148358, 0.37828875, -0.37150645, 9.79222
256715912955349, 8.031509, 0.14596218, 6.4414787, -0.291934, 0.23203039, 10.289803
256715922595036, 7.68455, -0.47856453, 6.2081785, 0.16875982, -0.20425892, 9.8869915
256715932234619, 7.853244, -0.19980069, 6.3972116, -0.072506666, -0.056773424, 10.130608
256715941874307, 7.8257265, -0.25004998, 6.3589263, -0.027387857, -0.07409382, 10.086339
256715951513890, 7.844869, -0.21774685, 6.3194447, -0.023033142, -0.018548727, 10.075906
256715961153578, 7.87119, -0.25603202, 6.236892, 0.058655977, 0.018710852, 10.045707
256715970793265, 7.88794, -0.20937198, 6.2261243, 0.03555441, 0.06503463, 10.050999
256715980432849, 7.8424764, -0.23928227, 6.2201424, 0.04475355, 0.026749134, 10.012449
256715990072536, 7.8592257, -0.2213361, 6.218946, 0.036361456, 0.04647255, 10.024382
256715999712119, 7.8424764, -0.22851457, 6.2679987, 0.009553194, 0.0019216537, 10.042131
256716009351807, 7.830512, -0.2213361, 6.283552, -0.007925272, -0.009525299, 10.042351
256716018991494, 7.8197446, -0.2009971, 6.3194447, -0.047198296, -0.024591446, 10.055911
256716028631078, 7.8149586, -0.23330021, 6.283552, -0.0067579746, -0.024710178, 10.030474
256716038270765, 7.82453, -0.2620141, 6.289534, 0.01614523, -0.041184425, 10.042321
256716047910349, 7.84128, -0.24526432, 6.239285, 0.032584667, 0.008758783, 10.023642
256716057550036, 7.8352976, -0.25004998, 6.2512493, 0.027544737, -0.004481077, 10.026552
256716067189724, 7.881958, -0.22851457, 6.245267, 0.030102491, 0.036066532, 10.058761
256716076829307, 7.8699937, -0.1902294, 6.2584276, -0.01301384, 0.04470873, 10.056775
256716086468994, 7.8628154, -0.17826529, 6.290731, -0.040444136, 0.028877974, 10.071071
256716096108578, 7.8484583, -0.21655045, 6.3314085, -0.03543639, -0.02805233, 10.086123
256716105748265, 7.87119, -0.24526432, 6.2979093, 0.012741327, -0.013287067, 10.083606
256716115387953, 7.861619, -0.23569304, 6.283552, 0.009306431, -0.0018436909, 10.066953
256716125027536, 7.853244, -0.23808585, 6.2871413, 0.0065500736, -0.009719372, 10.06271
256716134667224, 7.8903327, -0.23330021, 6.265606, 0.024970531, 0.025125265, 10.078111
256716144306911, 7.8891363, -0.20338993, 6.2727847, -0.0035719872, 0.037531376, 10.080985
256716153946494, 7.9022965, -0.13878371, 6.2668023, -0.048213482, 0.08636093, 10.08606
256716163586182, 7.891529, -0.1698904, 6.3050876, -0.043447495, 0.036160707, 10.102278
256716173225869, 7.8592257, -0.22612174, 6.334998, -0.022352457, -0.03347993, 10.096987
256716182865453, 7.8317084, -0.22013968, 6.3182483, -0.028072119, -0.033737183, 10.064911
256716192505140, 7.820941, -0.2321038, 6.289534, -0.008569002, -0.02889061, 10.03884
256716202144828, 7.816155, -0.23090738, 6.2811594, -0.008211613, -0.02646494, 10.029844
256716211784411, 7.810173, -0.24765715, 6.296713, -0.0071561337, -0.049204588, 10.035251
256716221424099, 7.816155, -0.20458634, 6.282356, -0.031122684, -0.010537624, 10.030007
256716231063682, 7.8376904, -0.1471586, 6.256035, -0.05741191, 0.051842928, 10.029109
256716240703369, 7.8221374, -0.16869399, 6.2488565, -0.043445587, 0.03249359, 10.01297
256716250343057, 7.8197446, -0.21655045, 6.262017, -0.013306379, -0.006368637, 10.020376
256716259982640, 7.8424764, -0.2117648, 6.2309103, 0.0067253113, 0.024784803, 10.018626
256716269622328, 7.8664045, -0.23569304, 6.1914287, 0.055011988, 0.046289682, 10.013215
256716279262015, 7.8783684, -0.25004998, 6.192625, 0.070082664, 0.043427706, 10.0236225
256716288901599, 7.864012, -0.2440679, 6.2321067, 0.03993249, 0.01680541, 10.036909
256716298541286, 7.8352976, -0.24646074, 6.24766, 0.02359891, -0.008306265, 10.024235
256716308180974, 7.8317084, -0.20458634, 6.2955165, -0.034254313, -0.013087511, 10.050359
256716317820557, 7.8293157, -0.17228323, 6.3218374, -0.073519945, -0.008275986, 10.064194
256716327460244, 7.789834, -0.20937198, 6.3086767, -0.05199313, -0.04166341, 10.025983
256716337099932, 7.7706914, -0.2428715, 6.285945, -0.02124238, -0.059111834, 9.997589
256716346739515, 7.798209, -0.2739782, 6.270392, 0.027475357, -0.058772802, 10.010033
256716356379203, 7.8317084, -0.23090738, 6.262017, 0.014177799, -0.0090715885, 10.030033
256716366018890, 7.8592257, -0.20817557, 6.253642, 0.014538765, 0.024919271, 10.045794
256716375658474, 7.8927255, -0.20817557, 6.262017, 0.024695158, 0.035964012, 10.077173
256716385298161, 7.908279, -0.1698904, 6.263213, 0.0022568703, 0.068166256, 10.089249
256716394937849, 7.893922, -0.17587246, 6.257231, 0.002285242, 0.057513952, 10.074451
256716404577432, 7.853244, -0.23569304, 6.245267, 0.037358522, 0.003632307, 10.03648
256716414217119, 7.8580294, -0.26679972, 6.2871413, 0.042916298, -0.036809683, 10.067014
256716423856807, 7.8604226, -0.26679972, 6.317052, 0.030904293, -0.053015232, 10.087557
256716433496390, 7.8424764, -0.19860429, 6.32423, -0.031880856, -0.022218227, 10.076619
256716443136078, 7.8604226, -0.26679972, 6.3338017, 0.023755789, -0.061083794, 10.098028
256716452775765, 7.9034934, -0.21655045, 6.4091754, -0.0388453, -0.05087161, 10.177698
256716462415349, 7.8891363, -0.18305093, 6.3684974, -0.051991224, -0.011123657, 10.140361
256716472055036, 7.8783684, -0.10887343, 6.3338017, -0.0994308, 0.050083637, 10.108669
256716481694724, 7.847262, -0.18185452, 6.3421764, -0.05922818, -0.018131733, 10.091182
256716491334411, 7.838887, -0.22013968, 6.3122663, -0.017510176, -0.027361631, 10.066792
256716500973994, 7.8592257, -0.19501504, 6.2787666, -0.015239239, 0.018396616, 10.061202
256716510613682, 7.8436728, -0.22253251, 6.24766, 0.014457226, 0.013072252, 10.030233
256716520253369, 7.847262, -0.25124636, 6.2440705, 0.039575815, -6.351471E-4, 10.031425
256716529892953, 7.8376904, -0.2727818, 6.235696, 0.05670786, -0.013154507, 10.019197
256716539532640, 7.8831544, -0.22013968, 6.222535, 0.037375927, 0.05081916, 10.045324
256716549172328, 7.874779, -0.13160525, 6.2081785, -0.029011965, 0.11055589, 10.027856
256716558811911, 7.847262, -0.13519448, 6.2344995, -0.050443172, 0.078022, 10.0228815
256716568451599, 7.8293157, -0.13280165, 6.257231, -0.07253289, 0.05222988, 10.023012
256716578091286, 7.818548, -0.11724831, 6.279963, -0.10002375, 0.04196596, 10.02844
256716587730974, 7.8149586, -0.15314065, 6.285945, -0.07484889, 0.013798237, 10.030172
256716597370557, 7.838887, -0.1902294, 6.2727847, -0.0302279, 0.01147747, 10.0414715
256716607010244, 7.8424764, -0.2321038, 6.2931237, -0.0040638447, -0.023561716, 10.05789
256716616649932, 7.856833, -0.23808585, 6.2811594, 0.014134169, -0.010931253, 10.061766
256716626289515, 7.880761, -0.22731815, 6.2548385, 0.030153751, 0.026360273, 10.063768
256716635929203, 7.8628154, -0.20937198, 6.2955165, -0.008196354, 0.0047802925, 10.074778
256716645568890, 7.884351, -0.22971097, 6.3122663, 0.007466793, -0.0072243214, 10.102493
256716655208474, 7.874779, -0.22612174, 6.3314085, -0.008211374, -0.02244091, 10.1069
256716664848161, 7.8580294, -0.24526432, 6.3122663, 0.0097129345, -0.031891584, 10.082281
256716674487849, 7.850851, -0.17706887, 6.375676, -0.0779016, -0.031175137, 10.114811
256716684127536, 7.952546, -0.24765715, 6.263213, 0.07210231, 0.05107498, 10.125431
256716693767119, 7.8963146, -0.18783657, 6.273981, -0.0014944077, 0.052518845, 10.08698
256716703406807, 7.8699937, -0.17467605, 6.3050876, -0.03691578, 0.028775215, 10.085597
256716713046494, 7.816155, -0.2213361, 6.3457656, -0.037408352, -0.05487132, 10.070035
256716722686078, 7.797013, -0.2416751, 6.3158555, -0.012535334, -0.05776143, 10.03685
256716732325765, 7.844869, -0.22253251, 6.262017, 0.015196323, 0.012403011, 10.040118
256716741965453, 7.7994056, -0.27756742, 6.3158555, 0.017006397, -0.07689881, 10.039503
256716751605140, 7.893922, -0.29671, 6.2464633, 0.09863877, 0.004314661, 10.070285
256716761244724, 7.874779, -0.276371, 6.235696, 0.07733011, 0.012336493, 10.048198
256716770884411, 7.8927255, -0.23330021, 6.212964, 0.056741238, 0.060060024, 10.0470705
256716780524099, 7.865208, -0.2105684, 6.1734824, 0.04547453, 0.082099676, 10.000445
256716790163786, 7.87119, -0.20817557, 6.1435723, 0.060468912, 0.104784966, 9.9863825
256716799803369, 7.85444, -0.2213361, 6.1794643, 0.04491353, 0.06531048, 9.996036
256716809443057, 7.826923, -0.22612174, 6.259624, -0.0031535625, -0.0019664764, 10.024706
256716819082744, 7.844869, -0.21535404, 6.300302, -0.027844429, -0.011325359, 10.063859
256716828722328, 7.82453, -0.20817557, 6.32423, -0.054294348, -0.030136824, 10.062736
256716838362015, 7.8520474, -0.21774685, 6.346962, -0.048761845, -0.03385496, 10.098637
256716848001703, 7.8352976, -0.2105684, 6.384051, -0.07912278, -0.059390068, 10.108538
256716857641390, 7.8352976, -0.17108682, 6.343373, -0.09065509, -0.010657549, 10.082223
256716867280974, 7.8496547, -0.21415763, 6.2919273, -0.022168875, 0.004899025, 10.0623455
256716876920661, 7.820941, -0.23449662, 6.24766, 0.006173849, 0.0051720142, 10.012757
256716886560349, 7.8173513, -0.25004998, 6.233303, 0.024192572, 0.0027780533, 10.001349
256716896200036, 7.798209, -0.3074777, 6.2237315, 0.06753492, -0.036584377, 9.98176
