timestamp_acc,device_acc_x,device_acc_y,device_acc_z,earth_acc_x,earth_acc_y,earth_acc_z
256325352272777, -1.18684, 4.6061835, 8.730213, -0.25696933, 0.06720734, 9.938391
256325361912048, -1.0671989, 4.6803613, 8.366505, -0.065005004, 0.22234607, 9.643102
256325371551319, -0.94636136, 4.7318068, 8.098508, 0.09675133, 0.32595158, 9.421032
256325381190590, -0.80757767, 4.784449, 7.8783684, 0.26880258, 0.41494322, 9.239449
256325390829757, -0.7190432, 4.7676992, 7.836494, 0.3472703, 0.37333632, 9.186874
256325400469027, -0.76570326, 4.7222357, 7.987242, 0.258636, 0.27543116, 9.30264
256325410108298, -0.8147561, 4.6803613, 8.306684, 0.15933198, 0.1133821, 9.567255
256325419747569, -0.8817552, 4.631308, 8.685946, 0.02831459, -0.07163501, 9.882622
256325429386840, -0.9702896, 4.610969, 9.013762, -0.10066956, -0.19717932, 10.168648
256325439026111, -0.9798609, 4.6037908, 9.255438, -0.13481563, -0.28979874, 10.378632
256325448665277, -0.98943216, 4.651647, 9.332008, -0.13367957, -0.28377724, 10.46923
256325458304548, -0.9810573, 4.6899323, 9.270991, -0.0935207, -0.215271, 10.433319
256325467943819, -0.98584294, 4.686343, 9.119047, -0.07867509, -0.14540386, 10.298708
256325477583090, -0.9906286, 4.668397, 8.809176, -0.05222881, -0.016553879, 10.018675
256325487222361, -1.0013963, 4.6432724, 8.560323, -0.04272324, 0.078323364, 9.789481
256325496861632, -0.97866446, 4.686343, 8.416754, 0.011486709, 0.16994858, 9.681545
256325506500798, -0.9667004, 4.7102714, 8.299505, 0.044436038, 0.23182106, 9.588913
256325516140069, -0.96550393, 4.679165, 8.238488, 0.03583622, 0.22816038, 9.520827
256325525779340, -0.9320044, 4.6755753, 8.285149, 0.052515984, 0.18420577, 9.55702
256325535418611, -0.91405827, 4.699504, 8.480164, 0.052239954, 0.101914406, 9.737602
256325545057882, -0.89730847, 4.6779685, 8.689535, 0.03586626, -0.0148563385, 9.909344
256325554697152, -0.9236295, 4.6289153, 8.837891, -0.020556748, -0.10559082, 10.018816
256325564336423, -1.0001999, 4.5726843, 8.933603, -0.124773085, -0.16302133, 10.0835
256325573975590, -1.038485, 4.5475593, 9.055637, -0.18175638, -0.21558833, 10.182524
256325583614861, -1.0217353, 4.6085763, 9.215957, -0.16131544, -0.23978996, 10.350518
256325593254132, -0.9702896, 4.6636114, 9.0544405, -0.07520664, -0.14538336, 10.229704
256325602893402, -0.9320044, 4.723432, 8.912068, -0.006539941, -0.055131435, 10.129231
256325612532673, -0.9619147, 4.752146, 8.79123, -0.014909983, 0.025567532, 10.039573
256325622171944, -0.9200403, 4.727021, 8.617751, 0.02607584, 0.05611515, 9.871828
256325631811111, -0.9379865, 4.668397, 8.487342, 0.0022108555, 0.078514814, 9.731524
256325641450382, -0.9499506, 4.621737, 8.372486, -0.020088792, 0.07895732, 9.610137
256325651089652, -0.89730847, 4.619344, 8.508878, 0.009696722, -0.008549929, 9.723391
256325660728923, -0.86859465, 4.7509494, 8.743374, 0.061437607, -0.032833576, 9.98838
256325670368194, -0.7956135, 4.8191447, 9.025727, 0.13389349, -0.14612198, 10.260684
256325680007465, -0.73818576, 4.8382874, 9.220742, 0.18220615, -0.25136566, 10.434542
256325689646632, -0.762114, 4.692325, 9.38824, 0.08792782, -0.43581152, 10.513806
256325699285902, -0.86859465, 4.6839504, 9.420543, 0.014209032, -0.43967342, 10.547368
256325708925173, -1.1222339, 4.694718, 9.059227, -0.18100512, -0.16056204, 10.262107
256325718564444, -1.5218352, 4.6767716, 7.4739814, -0.3660732, 0.68875384, 8.912922
256325728203715, -1.6223338, 4.666004, 7.1688967, -0.45191354, 0.8340266, 8.654295
256325737842882, -1.2753744, 4.7365923, 7.8077803, -0.169716, 0.4505496, 9.208232
256325747482152, -0.8805587, 4.7784667, 7.987242, 0.13006097, 0.20383334, 9.345946
256325757121423, -0.849452, 5.0165524, 7.8029947, 0.27417755, 0.4657085, 9.299573
256325766760694, -1.0241281, 4.971089, 7.786245, 0.070653856, 0.49355984, 9.281032
256325776399965, -1.2143575, 4.8083773, 8.328219, -0.2186144, 0.18263435, 9.68882
256325786039236, -1.1485549, 4.6899323, 8.969496, -0.2771994, -0.2475481, 10.179801
256325795678402, -0.87338024, 4.735396, 9.461221, -0.05427289, -0.54032516, 10.602198
256325805317673, -0.7286145, 4.7892346, 9.519845, 0.09344697, -0.55144453, 10.666879
256325814956944, -0.73818576, 4.9256253, 9.249456, 0.16429806, -0.31224537, 10.4992695
256325824596215, -0.7106683, 5.009374, 8.885747, 0.2091186, -0.092282295, 10.222678
256325834235486, -0.6879365, 5.1589255, 8.400003, 0.32524574, 0.23523235, 9.873537
256325843874652, -0.7573284, 5.096712, 8.1679, 0.24976313, 0.31002975, 9.649151
256325853513923, -0.8135597, 4.9340005, 8.165507, 0.12892509, 0.21264601, 9.571831
256325863153194, -0.76570326, 4.900501, 8.209774, 0.13260853, 0.13026667, 9.589945
256325872792465, -0.6759724, 4.928018, 8.4347, 0.19428861, 0.009714127, 9.79023
256325882431736, -0.6161518, 4.985446, 8.675179, 0.24038672, -0.0846467, 10.02138
256325892070902, -0.7118647, 4.9782677, 8.851051, 0.13333285, -0.13228846, 10.178198
256325901710173, -0.8530413, 4.8598228, 8.810373, -0.013243198, -0.13686228, 10.096996
256325911349444, -1.0887343, 4.7114677, 8.768498, -0.2805432, -0.14305592, 10.00853
256325920988715, -1.2765709, 4.633701, 8.827123, -0.47533953, -0.15812206, 10.038326
256325930627986, -1.302892, 4.6803613, 8.762517, -0.46448237, -0.07564926, 10.008173
256325940267152, -1.134198, 4.743771, 8.611769, -0.26041287, -0.0148124695, 9.89365
256325949906423, -0.96909314, 4.8849473, 8.5423765, -0.045481324, 0.06387043, 9.887766
256325959545694, -0.91525465, 4.8598228, 8.560323, -0.0074091554, 0.0148797035, 9.886072
256325969184965, -0.92243314, 4.8323054, 8.541181, -0.027228117, 6.685257E-4, 9.8566265
256325978824236, -0.90329057, 4.846662, 8.384451, 0.010019422, 0.074484825, 9.726224
256325988463402, -0.8662018, 4.9112687, 8.27797, 0.081451, 0.16235256, 9.662436
256325998102673, -0.8171489, 4.991428, 8.323434, 0.15351099, 0.18473625, 9.736733
256326007741944, -0.7800602, 5.1649075, 8.310273, 0.2548148, 0.31281948, 9.807276
256326017381215, -0.6735796, 5.076373, 8.440681, 0.30441678, 0.13839912, 9.866941
256326027020486, -0.65922266, 4.912465, 8.556734, 0.23484707, -0.04952669, 9.885695
256326036659652, -0.7585248, 4.8323054, 8.601001, 0.09060013, -0.089149, 9.893817
256326046298923, -0.7896315, 4.8251266, 8.748159, 0.04003203, -0.15366888, 10.0205
256326055938194, -0.74416786, 4.820341, 8.921639, 0.049429297, -0.24879694, 10.164683
256326065577465, -0.7609176, 4.8239303, 9.046066, 0.018664837, -0.2990656, 10.275739
256326075216736, -0.87936234, 4.8502517, 9.085547, -0.08010769, -0.24418688, 10.33341
256326084855902, -1.0145568, 4.814359, 9.079565, -0.21502692, -0.21268511, 10.32252
256326094495173, -1.0755738, 4.800002, 8.99462, -0.2615291, -0.16721869, 10.247133
256326104134444, -1.0779666, 4.85743, 8.663215, -0.19920433, 0.032274246, 9.988355
256326113773715, -1.0396814, 4.935197, 8.166703, -0.072730124, 0.31008244, 9.593265
256326123412986, -0.98584294, 4.9495535, 7.8723865, 0.015107334, 0.4324541, 9.341156
256326133052152, -0.8877372, 4.880162, 7.874779, 0.07498503, 0.33952165, 9.300284
256326142691423, -0.80877405, 4.8885365, 8.008778, 0.12786376, 0.24190927, 9.413691
256326152330694, -0.83030945, 4.901697, 8.189436, 0.08566898, 0.16805482, 9.578483
256326161969965, -0.910469, 4.8119664, 8.568698, -0.07732499, -0.049595833, 9.869049
256326171609132, -0.9092726, 4.7569313, 8.883354, -0.14237857, -0.23493671, 10.114035
256326181248402, -0.89013004, 4.8502517, 9.163314, -0.12781155, -0.29625368, 10.400936
256326190887673, -0.849452, 4.8885365, 9.306884, -0.09451425, -0.35205793, 10.540615
256326200526944, -0.81236327, 4.944768, 9.069994, -0.016108155, -0.20134783, 10.360245
256326210166215, -0.75493556, 5.0165524, 8.780462, 0.095359325, -0.029958248, 10.140131
256326219805382, -0.66999036, 5.0847483, 8.499306, 0.23344553, 0.1275158, 9.923257
256326229444652, -0.66041905, 5.070391, 8.215756, 0.2681036, 0.24381709, 9.670179
256326239083923, -0.7405786, 4.941179, 8.093722, 0.1504327, 0.21873116, 9.507975
256326248723194, -0.8542377, 4.8562336, 8.128419, 0.004695058, 0.17437482, 9.505446
256326258362361, -0.9200403, 4.8562336, 8.258827, -0.072832644, 0.13546658, 9.623619
256326268001632, -0.9092726, 4.814359, 8.457432, -0.107602894, 3.4952164E-4, 9.773506
256326277640902, -0.9236295, 4.84068, 8.601001, -0.13876802, -0.037577152, 9.911702
256326287280173, -0.88295156, 4.8681974, 8.7469635, -0.10979819, -0.10318184, 10.048165
256326296919444, -0.79800636, 4.8789654, 8.827123, -0.04590988, -0.15896273, 10.11592
256326306558611, -0.78364944, 4.88734, 8.817552, -0.02885282, -0.15334272, 10.110642
256326316197882, -0.8817552, 4.8861437, 8.785249, -0.11815441, -0.091525555, 10.090101
256326325837152, -0.9176475, 4.8239303, 8.807981, -0.17859113, -0.13572645, 10.081795
256326335476423, -0.87338024, 4.8658047, 8.8187475, -0.12223053, -0.12477064, 10.108347
256326345115590, -0.82313097, 4.968696, 8.690732, -0.01412034, -0.0041422844, 10.044605
256326354754861, -0.73579293, 4.9926243, 8.510074, 0.10004926, 0.060875416, 9.893197
256326364394132, -0.6520442, 5.038088, 8.292327, 0.22448945, 0.16715622, 9.720692
256326374033402, -0.58504516, 5.087141, 8.07458, 0.32558727, 0.27237153, 9.55196
256326383672569, -0.5180461, 5.103891, 7.993224, 0.4063673, 0.2943895, 9.484613
256326393311840, -0.56111693, 5.0596237, 8.13799, 0.31795335, 0.20950818, 9.591484
256326402951111, -0.7298109, 4.910072, 8.386844, 0.06268847, 0.046700954, 9.745484
256326412590382, -0.7537391, 4.7772703, 8.68475, -0.05025077, -0.19210911, 9.938605
256326422229548, -0.9762716, 4.698307, 9.175279, -0.34345382, -0.3985362, 10.340993
256326431868819, -0.79920274, 5.0955157, 9.249456, -0.029750347, -0.17507696, 10.58886
256326441508090, -1.0731809, 4.2652063, 9.15494, -0.58768785, -0.66885376, 10.117503
256326451147361, -0.94636136, 5.4664035, 9.047262, 0.010086894, 0.27257776, 10.609228
256326460786632, -1.0588241, 4.191029, 8.390432, -0.49355602, -0.3805411, 9.417896
256326470425798, -0.84825563, 5.6590257, 8.32463, 0.2654965, 0.71939135, 10.0725155
256326480065069, -0.76331043, 4.3848476, 7.7706914, -0.067350626, -0.039435625, 8.954724
256326489704340, -0.84825563, 5.3814583, 8.206185, 0.18154132, 0.5460701, 9.833107
256326499343611, -0.74416786, 4.692325, 8.149954, 0.014023662, -0.006968498, 9.433621
256326508982777, -0.8925229, 4.847859, 8.611769, -0.12375343, -0.044508934, 9.921875
256326518622048, -0.6041877, 5.235496, 8.642876, 0.28471434, 0.12572384, 10.118197
256326528261319, -0.73340017, 4.3908296, 8.732606, -0.16042787, -0.5203793, 9.786682
256326537900590, -0.49651068, 5.663811, 8.986245, 0.48800683, 0.2717681, 10.619129
256326547539757, -0.66759753, 4.2687955, 8.675179, -0.15566051, -0.59780097, 9.671888
256326557179027, -0.654437, 5.7080784, 8.876176, 0.3720727, 0.4185853, 10.558565
256326566818298, -0.8279166, 4.2221355, 8.443074, -0.28363514, -0.46010184, 9.460721
256326576457465, -1.0109676, 5.306084, 8.885747, -0.11396015, 0.23736954, 10.395371
256326586096736, -0.9403793, 4.5930233, 8.59143, -0.2719506, -0.20631695, 9.781427
256326595736007, -1.0815558, 4.8646083, 8.721839, -0.31063253, 2.5081635E-4, 10.040327
256326605375277, -0.75493556, 5.1673007, 8.410771, 0.15317893, 0.25225306, 9.895703
256326615014444, -0.8327023, 4.476971, 8.32463, -0.18037605, -0.2053268, 9.484802
256326624653715, -0.5192425, 5.6614184, 8.400003, 0.56369567, 0.531682, 10.1134
256326634292986, -0.6843473, 4.2352962, 8.04108, -0.10159385, -0.32377982, 9.107683
256326643932257, -0.6628119, 5.7009, 8.411968, 0.44562292, 0.609231, 10.155347
256326653571423, -0.7860422, 4.2484565, 8.297112, -0.23968661, -0.39488792, 9.343229
256326663210694, -0.8961121, 5.473582, 8.928818, 0.04714012, 0.29325247, 10.507079
256326672849965, -0.80997044, 4.6672006, 8.732606, -0.16249466, -0.27216148, 9.929589
256326682489236, -0.97866446, 4.9674997, 8.99821, -0.23938882, -0.102129936, 10.321526
256326692128402, -0.72023964, 5.117051, 8.776874, 0.09322524, 0.024672031, 10.184654
256326701767673, -0.88295156, 4.4339004, 8.781659, -0.30988103, -0.45127368, 9.861895
256326711406944, -0.55393845, 5.611169, 8.768498, 0.44254196, 0.3456483, 10.409771
256326721046215, -0.7716853, 4.2711883, 8.32463, -0.20941365, -0.40678573, 9.37703
256326730685382, -0.7680961, 5.6554365, 8.480164, 0.2907518, 0.5995097, 10.200154
256326740324652, -0.92243314, 4.1144586, 8.160722, -0.3807931, -0.38787723, 9.1696005
256326749963923, -0.8961121, 5.473582, 8.543573, 0.10256839, 0.466475, 10.174852
256326759603194, -0.69272214, 4.666004, 8.082955, 0.03492737, -0.020117521, 9.358632
256326769242361, -0.81595254, 5.1720862, 8.415557, 0.069574475, 0.26193714, 9.907796
256326778881632, -0.5383851, 5.186443, 8.35454, 0.3255254, 0.19630432, 9.8408785
256326788520902, -0.74177504, 4.5415773, 8.492127, -0.12049055, -0.29599476, 9.653511
256326798160069, -0.5694918, 5.493921, 8.72782, 0.3584795, 0.2743044, 10.318847
256326807799340, -0.8985049, 4.0677986, 8.690732, -0.48333317, -0.69016075, 9.600687
256326817438611, -0.8327023, 5.515456, 9.075976, 0.07743931, 0.22331238, 10.650407
256326827077882, -0.9272188, 4.113262, 8.755338, -0.4971978, -0.6587415, 9.682635
256326836717048, -0.8745767, 5.541777, 9.104691, 0.042795897, 0.25982141, 10.691221
256326846356319, -0.7178468, 4.685147, 8.590233, -0.06211412, -0.21282148, 9.808611
256326855995590, -0.8147561, 5.3072805, 8.641679, 0.07451904, 0.2762804, 10.169944
256326865634861, -0.4642076, 5.227121, 8.189436, 0.42576146, 0.27200913, 9.7133875
256326875274027, -0.6257231, 4.7078786, 8.1344, 0.08180821, -0.033325195, 9.418934
256326884913298, -0.41754755, 5.568098, 8.199007, 0.59202623, 0.5065913, 9.889118
256326894552569, -0.7728817, 4.168297, 8.246863, -0.27809024, -0.45586324, 9.257302
256326904191840, -0.77766734, 5.562116, 8.82114, 0.16172802, 0.3454237, 10.450309
256326913831007, -0.9762716, 4.011567, 8.644072, -0.59363955, -0.6724713, 9.5373535
256326923470277, -0.9906286, 5.4628143, 9.046066, -0.10368872, 0.25439215, 10.61035
256326933109548, -0.8889336, 4.459025, 8.596215, -0.32833022, -0.33412337, 9.71332
256326942748715, -0.9942178, 5.130212, 8.839087, -0.2005235, 0.10220575, 10.265786
256326952387986, -0.7178468, 5.0189457, 8.507681, 0.060902476, 0.06910801, 9.903398
256326962027257, -0.84347, 4.6815577, 8.433503, -0.1650005, -0.11692786, 9.68047
256326971666527, -0.4941179, 5.5465627, 8.390432, 0.48490572, 0.4473629, 10.048513
256326981305694, -0.6472585, 4.386044, 8.323434, -0.07867026, -0.3687868, 9.42304
256326990944965, -0.4642076, 5.8301125, 8.650054, 0.569077, 0.53364563, 10.412518
256327000584236, -0.57547385, 4.3238306, 8.343773, -0.057548404, -0.46382952, 9.403553
256327010223402, -0.58504516, 5.7607207, 8.696713, 0.4156015, 0.50214195, 10.427663
256327019862673, -0.56829536, 4.625326, 8.322237, 0.063203216, -0.21175551, 9.535586
256327029501944, -0.7369894, 5.3419766, 8.660822, 0.12232041, 0.2410636, 10.198854
256327039141111, -0.5922236, 4.9974103, 8.415557, 0.16207719, 0.037587166, 9.804016
256327048780382, -0.92602235, 4.5966125, 8.611769, -0.3240986, -0.23526406, 9.797374
256327058419652, -0.82911307, 5.229514, 8.723035, -0.008682847, 0.16255379, 10.202944
256327068058923, -1.1389836, 4.024728, 8.73141, -0.7487364, -0.6490252, 9.630753
256327077698090, -0.97866446, 5.4759746, 8.924032, -0.07187486, 0.3187604, 10.510741
256327087337361, -1.038485, 4.061816, 8.599805, -0.62630033, -0.5877476, 9.52868
256327096976632, -0.8817552, 5.660222, 8.737391, 0.11101973, 0.5089345, 10.43486
256327106615902, -0.66999036, 4.56072, 8.237292, -0.06739354, -0.19240665, 9.437186
256327116255069, -0.66041905, 5.4903316, 8.462217, 0.2757814, 0.40562344, 10.096952
256327125894340, -0.37208393, 5.18405, 8.031509, 0.4706334, 0.270957, 9.551077
256327135533611, -0.60658056, 4.875376, 8.1738825, 0.11217153, 0.047686815, 9.535972
256327145172777, -0.45224348, 5.3718867, 8.298309, 0.41834342, 0.30704737, 9.882023
256327154812048, -0.7609176, 4.223332, 8.538788, -0.33853292, -0.5751791, 9.533153
256327164451319, -0.6257231, 5.5704913, 9.0029955, 0.21889639, 0.19752216, 10.601362
256327174090486, -0.7752745, 4.1036906, 8.766106, -0.42348886, -0.7599666, 9.67104
256327183729757, -0.7609176, 5.6937213, 9.078369, 0.13853633, 0.32043076, 10.737431
256327193369027, -0.7118647, 4.465007, 8.6345005, -0.21129262, -0.42542648, 9.735091
256327203008298, -0.8315059, 5.4341, 8.88814, 0.013421178, 0.24445868, 10.447964
256327212647465, -0.654437, 4.989035, 8.348558, 0.086701035, 0.08417845, 9.746926
256327222286736, -0.8757731, 4.8622155, 8.280363, -0.15330088, 0.10886955, 9.640392
256327231926007, -0.6412765, 5.3036914, 8.126026, 0.24569833, 0.42923093, 9.712263
256327241565173, -0.8554341, 4.2963133, 8.1942215, -0.33923417, -0.30514693, 9.280472
256327251204444, -0.6305088, 5.613562, 8.488539, 0.30069673, 0.48825884, 10.1801815
256327260843715, -0.7178468, 4.180261, 8.270791, -0.26315278, -0.50216436, 9.277632
256327270482986, -0.587438, 5.7140603, 8.782856, 0.32918513, 0.4266019, 10.4806385
256327280122152, -0.567099, 4.392026, 8.555537, -0.08625293, -0.51747036, 9.619432
256327289761423, -0.7262217, 5.444868, 9.048459, 0.07071757, 0.1315713, 10.584246
256327299400694, -0.66759753, 4.8442693, 8.7469635, -0.034744024, -0.20501757, 10.018921
256327309039861, -1.0037891, 4.837091, 8.925228, -0.37218308, -0.17545128, 10.192911
256327318679132, -0.6975078, 5.2534423, 8.707481, 0.09438729, 0.1498084, 10.191861
256327328318402, -0.8709874, 4.3669014, 8.5112705, -0.36557704, -0.38143206, 9.591195
256327337957673, -0.62931234, 5.631508, 8.599805, 0.30553758, 0.4641304, 10.283862
256327347596840, -0.7800602, 4.1814575, 8.183454, -0.33014488, -0.41126513, 9.207815
256327357236111, -0.63529444, 5.7631135, 8.370093, 0.37584782, 0.6675267, 10.153261
256327366875382, -0.5347959, 4.3992043, 7.954939, 0.013979435, -0.2273233, 9.103196
256327376514548, -0.5515456, 5.582455, 8.382058, 0.3738867, 0.4897418, 10.067139
256327386153819, -0.4354937, 4.9268217, 8.286345, 0.2476064, -0.019548893, 9.647023
256327395793090, -0.7286145, 4.981857, 8.737391, -0.06779325, -0.07742071, 10.083711
256327405432361, -0.5300102, 5.2666025, 8.809176, 0.2115444, 0.045433044, 10.27486
256327415071527, -0.8111669, 4.4243293, 8.98146, -0.3878402, -0.58683467, 10.020204
256327424710798, -0.63888365, 5.564509, 9.159725, 0.1733011, 0.1620202, 10.733883
256327434350069, -0.8243274, 4.1240296, 8.73141, -0.4681598, -0.68654823, 9.655783
256327443989236, -0.66759753, 5.7080784, 8.788837, 0.24599016, 0.46471548, 10.487852
256327453628507, -0.6053841, 4.3298125, 8.203793, -0.12971544, -0.36831832, 9.287814
256327463267777, -0.6903293, 5.4987063, 8.429914, 0.18608522, 0.47112036, 10.075673
256327472907048, -0.68075806, 4.7246284, 8.10449, -0.035228968, 0.01979208, 9.405672
256327482546215, -0.9284152, 4.944768, 8.5220375, -0.24259019, 0.07761145, 9.893076
256327492185486, -0.695115, 5.18405, 8.5423765, 0.06127596, 0.16304588, 10.014961
256327501824757, -0.88295156, 4.459025, 8.679964, -0.38989216, -0.39419198, 9.782477
256327511463923, -0.56590253, 5.595616, 8.82114, 0.31305933, 0.30875635, 10.45229
256327521103194, -0.701097, 4.2317066, 8.492127, -0.28238273, -0.5453701, 9.494102
256327530742465, -0.5419743, 5.8073807, 8.602198, 0.4531312, 0.56742716, 10.367735
256327540381736, -0.5515456, 4.3633122, 8.065009, -0.03727019, -0.2885487, 9.181636
256327550020902, -0.62093747, 5.6578293, 8.439486, 0.3369248, 0.5554137, 10.158716
256327559660173, -0.54675996, 4.7401814, 8.319844, 0.06058407, -0.13543272, 9.589893
256327569299444, -0.849452, 4.9926243, 8.900104, -0.20475388, -0.08904886, 10.237669
256327578938715, -0.695115, 5.026124, 8.932407, -0.058968544, -0.14248657, 10.271769
256327588577882, -0.9631111, 4.4004006, 9.030513, -0.5523459, -0.55977154, 10.060957
256327598217152, -0.7046863, 5.485546, 8.953942, 0.12932813, 0.21553564, 10.521297
256327607856423, -0.80757767, 4.1898327, 8.499306, -0.40442252, -0.52084994, 9.487373
256327617495590, -0.60059845, 5.828916, 8.389236, 0.4390757, 0.7007756, 10.199627
256327627134861, -0.60777694, 4.4004006, 7.732406, -0.026473403, -0.094109535, 8.917031
256327636774132, -0.6089734, 5.692525, 8.026724, 0.4315449, 0.7601788, 9.820381
256327646413402, -0.56111693, 4.692325, 7.8496547, 0.1115098, 0.057024002, 9.161558
256327656052569, -0.80877405, 5.0919266, 8.585447, -0.07711983, 0.10567856, 10.013722
256327665691840, -0.63529444, 5.0165524, 8.733803, 0.028742671, -0.087846756, 10.091589
256327675331111, -0.93679005, 4.4039903, 9.0951185, -0.5302812, -0.61190414, 10.116237
256327684970382, -0.70947194, 5.3503513, 9.206385, 0.018964887, -0.012417316, 10.671768
256327694609548, -0.91405827, 4.072584, 8.983852, -0.59838915, -0.8134401, 9.854506
256327704248819, -0.66400826, 5.7284174, 9.079565, 0.23651993, 0.34881687, 10.747864
256327713888090, -0.6364908, 4.362116, 8.422736, -0.16405368, -0.414639, 9.496147
256327723527257, -0.5300102, 5.743971, 8.52443, 0.4480859, 0.56280136, 10.267546
256327733166527, -0.45942193, 4.7174497, 8.031509, 0.19167423, -0.022399426, 9.323804
256327742805798, -0.6843473, 5.2689953, 8.380861, 0.14804292, 0.32291317, 9.91682
256327752445069, -0.50488555, 5.1146584, 8.29113, 0.26957905, 0.1713078, 9.7496395
256327762084236, -0.7393822, 4.636094, 8.457432, -0.1550343, -0.18270731, 9.670097
256327771723507, -0.45224348, 5.5094743, 8.544769, 0.42767334, 0.32871103, 10.1627245
256327781362777, -0.6831509, 4.2484565, 8.3377905, -0.25835872, -0.44749784, 9.368448
256327791002048, -0.5922236, 5.7260246, 8.7984085, 0.3279456, 0.44680738, 10.4996605
256327800641215, -0.7465607, 4.141976, 8.611769, -0.37884647, -0.63787174, 9.556437
256327810280486, -0.84825563, 5.538188, 8.883354, 0.017092824, 0.36870098, 10.496134
256327819919757, -0.8315059, 4.409972, 8.565108, -0.34966123, -0.36704493, 9.6562605
256327829559027, -0.95353985, 5.1254263, 9.075976, -0.2634405, -0.0012469292, 10.463423
256327839198194, -0.62931234, 4.995017, 8.804391, 0.032036304, -0.09964609, 10.141624
256327848837465, -0.7848458, 4.715057, 8.730213, -0.20425057, -0.22194052, 9.948536
256327858476736, -0.51565325, 5.5669017, 8.453842, 0.39169657, 0.47371912, 10.116617
256327868116007, -0.6831509, 4.3298125, 8.126026, -0.17069387, -0.2778051, 9.227133
256327877755173, -0.46660042, 5.7451673, 8.325827, 0.51209736, 0.63476944, 10.093508
256327887394444, -0.6161518, 4.213761, 8.037491, -0.16601288, -0.35576224, 9.087495
256327897033715, -0.6580262, 5.6530433, 8.537591, 0.27392292, 0.5350456, 10.243
256327906672986, -0.6149554, 4.475775, 8.428718, -0.1189791, -0.33295083, 9.556622
256327916312152, -0.8111669, 5.3072805, 9.022138, -0.056100845, 0.10939026, 10.498052
256327925951423, -0.6233303, 4.9603214, 8.825927, 0.005266428, -0.14388514, 10.142465
256327935590694, -0.8805587, 4.674379, 8.88455, -0.35087204, -0.28396082, 10.067606
256327945229965, -0.62093747, 5.3419766, 8.659625, 0.18493605, 0.22795105, 10.189466
256327954869132, -0.7968099, 4.249653, 8.453842, -0.37269014, -0.43908978, 9.47788
256327964508402, -0.5072784, 5.7188463, 8.62134, 0.43322575, 0.4970851, 10.337081
256327974147673, -0.6029913, 4.249653, 8.306684, -0.1747706, -0.46354818, 9.336954
256327983786944, -0.6029913, 5.7391853, 8.660822, 0.33448184, 0.5266137, 10.388575
256327993426111, -0.6269195, 4.5152564, 8.329415, -0.09282136, -0.2587695, 9.491267
256328003065382, -0.8171489, 5.377869, 8.823533, -0.016060233, 0.24999237, 10.36249
256328012704652, -0.69152576, 4.9316072, 8.629715, -0.034884572, -0.052514553, 9.963282
256328022343923, -0.92602235, 4.773681, 8.724232, -0.32148713, -0.13019323, 9.981856
256328031983194, -0.5982057, 5.367101, 8.502895, 0.22953153, 0.31343603, 10.065384
256328041622361, -0.762114, 4.368098, 8.353344, -0.26635677, -0.3425274, 9.447286
256328051261632, -0.47258246, 5.7152567, 8.495717, 0.46970975, 0.53608656, 10.225297
256328060900902, -0.6161518, 4.2257247, 8.151151, -0.15922654, -0.41569662, 9.191273
256328070540173, -0.61854464, 5.692525, 8.55793, 0.32101214, 0.5480261, 10.277267
256328080179340, -0.6867401, 4.3405805, 8.342576, -0.2137481, -0.38309884, 9.419044
256328089818611, -0.8709874, 5.2749777, 9.018549, -0.12807572, 0.09083271, 10.483015
256328099457882, -0.7286145, 4.8047876, 8.867801, -0.13575053, -0.24696779, 10.10818
256328109097152, -0.91884387, 4.853841, 9.017352, -0.3107159, -0.19460964, 10.275323
256328118736423, -0.6089734, 5.363512, 8.719446, 0.21437752, 0.21528244, 10.250587
256328128375590, -0.7513463, 4.3944187, 8.408379, -0.24369287, -0.3244748, 9.5085
256328138014861, -0.46301118, 5.6913285, 8.433503, 0.51485825, 0.5326009, 10.157798
256328147654132, -0.6041877, 4.249653, 8.006385, -0.1213727, -0.311383, 9.078278
256328157293402, -0.60658056, 5.773881, 8.398808, 0.40900457, 0.6655841, 10.180145
256328166932673, -0.63170516, 4.347759, 8.087741, -0.13503814, -0.27793336, 9.1988125
256328176571840, -0.75493556, 5.4113684, 8.921639, 0.038903356, 0.19322014, 10.459906
256328186211111, -0.6305088, 4.749753, 8.874979, -0.09823859, -0.33554506, 10.07972
256328195850382, -0.849452, 4.863412, 8.955139, -0.26451087, -0.19642353, 10.220583
256328205489652, -0.56350976, 5.279763, 8.69791, 0.20210433, 0.13881636, 10.187591
256328215128923, -0.721436, 4.5116673, 8.73141, -0.2404983, -0.402035, 9.843458
256328224768090, -0.45822555, 5.7810597, 8.787642, 0.48994374, 0.4446149, 10.50788
256328234407361, -0.715454, 4.2711883, 8.2660055, -0.25428557, -0.3657863, 9.321123
256328244046632, -0.7190432, 5.6949177, 8.475378, 0.27719438, 0.6164298, 10.213927
256328253685902, -0.75972116, 4.267599, 8.2049885, -0.29746097, -0.3384261, 9.26868
256328263325173, -0.80518484, 5.3982077, 8.736196, 0.026864052, 0.30339813, 10.296471
256328272964340, -0.62452674, 4.692325, 8.487342, -0.05447626, -0.20175123, 9.715927
256328282603611, -0.82313097, 4.924429, 8.739784, -0.18312597, -0.059485435, 10.063515
256328292242882, -0.54675996, 5.206782, 8.567501, 0.20277107, 0.12992907, 10.037611
256328301882152, -0.72741807, 4.4685965, 8.55793, -0.24773872, -0.36946106, 9.671493
256328311521423, -0.45942193, 5.709275, 8.645268, 0.46100533, 0.44876575, 10.350538
256328321160694, -0.64845496, 4.314259, 8.342576, -0.18841994, -0.4168713, 9.403332
256328330799861, -0.6364908, 5.7427745, 8.69791, 0.29147482, 0.51725674, 10.425243
256328340439132, -0.7286145, 4.2460637, 8.469396, -0.31726038, -0.50439525, 9.483435
256328350078402, -0.7968099, 5.5070815, 9.016156, 0.012540579, 0.24235725, 10.5922165
256328359717673, -0.59940207, 4.6636114, 8.626125, -0.06563079, -0.3019359, 9.819529
256328369356944, -0.7812566, 5.003392, 8.733803, -0.119505286, -0.01675415, 10.095002
256328378996215, -0.42951167, 5.258228, 8.3784685, 0.35250568, 0.21359253, 9.892538
256328388635382, -0.51445687, 4.6839504, 8.287541, 0.068270564, -0.15796542, 9.531936
256328398274652, -0.2428715, 5.797809, 8.374879, 0.7269106, 0.5399728, 10.148509
256328407913923, -0.5407779, 4.345366, 8.27797, -0.09344745, -0.4093156, 9.355383
256328417553194, -0.59940207, 5.7750773, 8.718249, 0.32586038, 0.49815845, 10.457741
256328427192465, -0.78843504, 4.2245283, 8.446664, -0.39988822, -0.48936963, 9.45595
256328436831736, -0.8865408, 5.538188, 8.919247, -0.060618162, 0.33591175, 10.530619
256328446470902, -0.7848458, 4.558327, 8.578269, -0.27343607, -0.29104018, 9.737637
256328456110173, -0.991825, 4.962714, 8.897711, -0.35474765, -0.055299282, 10.229985
256328465749444, -0.71306115, 5.022535, 8.578269, -0.025796652, 0.038799286, 9.965883
256328475388715, -0.90089774, 4.4745784, 8.560323, -0.39366442, -0.31400347, 9.6880865
256328485027986, -0.60059845, 5.5405807, 8.568698, 0.2734239, 0.3996749, 10.2101345
256328494667257, -0.80518484, 4.2687955, 8.333005, -0.35076165, -0.40185165, 9.382185
256328504306527, -0.6939186, 5.7355957, 8.644072, 0.24721277, 0.5495057, 10.379572
256328513945694, -0.76689965, 4.2041893, 8.3377905, -0.34239048, -0.4721837, 9.351038
256328523584965, -0.72741807, 5.5896335, 8.782856, 0.1426512, 0.37728786, 10.42828
256328533224236, -0.4881358, 4.6564326, 8.463413, 0.06914735, -0.28299737, 9.667738
256328542863507, -0.57427746, 5.2749777, 8.776874, 0.17015088, 0.07566023, 10.254464
256328552502777, -0.30987054, 5.2342997, 8.492127, 0.43965805, 0.08460331, 9.97044
256328562142048, -0.56111693, 4.74736, 8.483752, 0.02843988, -0.19703364, 9.735846
256328571781319, -0.36011982, 5.605187, 8.428718, 0.53121424, 0.42707634, 10.105766
256328581420590, -0.6412765, 4.29392, 8.189436, -0.16985452, -0.3753469, 9.25992
256328591059861, -0.7429714, 5.736792, 8.585447, 0.20204806, 0.59452724, 10.3333645
256328600699027, -1.0013963, 4.1371903, 8.463413, -0.6007766, -0.49182677, 9.441698
256328610338298, -1.0648061, 5.4460645, 8.997013, -0.23612976, 0.30399132, 10.563689
256328619977569, -0.9523434, 4.3609195, 8.623733, -0.48306, -0.40533662, 9.68998
256328629616840, -1.0468599, 5.072784, 8.892925, -0.33819592, 0.04951048, 10.285736
256328639256111, -0.6759724, 4.9495535, 8.565108, 0.012027383, -0.026597977, 9.915405
256328648895382, -0.7800602, 4.6971107, 8.560323, -0.18153107, -0.18119907, 9.792074
256328658534652, -0.44865423, 5.6386867, 8.405986, 0.49127257, 0.5029073, 10.107542
256328668173923, -0.64247286, 4.508078, 8.271988, -0.08367026, -0.2428267, 9.4390335
256328677813194, -0.41874397, 5.930611, 8.7577305, 0.57100546, 0.53820324, 10.556024
256328687452361, -0.5168497, 4.386044, 8.512466, -0.052999377, -0.51331615, 9.576027
256328697091632, -0.5024927, 5.73081, 8.902496, 0.40308917, 0.34041405, 10.586347
256328706730902, -0.4642076, 4.5188456, 8.475378, 0.048307657, -0.4095738, 9.607155
256328716370173, -0.67836523, 5.2642097, 8.868998, 0.07500517, 0.06439686, 10.335446
256328726009444, -0.5084748, 4.979464, 8.510074, 0.17408001, -0.05062437, 9.871275
256328735648715, -0.7788638, 4.7222357, 8.49452, -0.16737795, -0.13573885, 9.747645
256328745287986, -0.6843473, 5.4460645, 8.34138, 0.22568107, 0.463727, 9.971991
256328754927257, -1.0504491, 4.237689, 8.26481, -0.5598185, -0.28666854, 9.32593
256328764566527, -0.8805587, 5.6207404, 8.641679, 0.076551914, 0.5252538, 10.332714
256328774205798, -0.90089774, 4.1383867, 8.360522, -0.4597535, -0.47435856, 9.348787
256328783845069, -0.78364944, 5.6099725, 8.809176, 0.14018285, 0.39828873, 10.464664
256328793484340, -0.6987042, 4.409972, 8.4502535, -0.17884183, -0.38623, 9.547862
256328803123611, -0.8255238, 5.291727, 8.837891, -0.026878834, 0.15783978, 10.33279
256328812762882, -0.58624154, 4.938786, 8.447861, 0.11700094, -0.018577099, 9.802428
256328822402048, -0.73818576, 4.813163, 8.467003, -0.07213235, -0.06462288, 9.766893
256328832041319, -0.5276174, 5.4676, 8.281559, 0.39658475, 0.45268726, 9.919428
256328841680590, -0.8757731, 4.348955, 8.346166, -0.3581633, -0.30733585, 9.440134
256328851319861, -0.68195444, 5.6913285, 8.7266245, 0.27307618, 0.46594334, 10.426821
256328860959132, -0.7477571, 4.1718864, 8.4705925, -0.34209782, -0.5543306, 9.44936
256328870598402, -0.60777694, 5.6745787, 8.940782, 0.30061972, 0.33780193, 10.597327
256328880237673, -0.5084748, 4.418347, 8.642876, -0.059630513, -0.53208923, 9.705305
256328889876944, -0.567099, 5.453243, 9.036494, 0.22837353, 0.103889465, 10.56668
256328899516215, -0.43070808, 4.9674997, 8.534002, 0.23921299, -0.077338696, 9.880666
256328909155486, -0.7908279, 4.875376, 8.662018, -0.14347064, -0.06557894, 9.969974
256328918794757, -0.6735796, 5.334798, 8.537591, 0.15325165, 0.30484533, 10.084039
256328928434027, -0.9870393, 4.2664027, 8.56152, -0.53880894, -0.41234016, 9.5924835
256328938073298, -0.7680961, 5.6039906, 8.762517, 0.15766656, 0.44534206, 10.418887
256328947712569, -0.8255238, 4.121637, 8.500503, -0.41776627, -0.57065225, 9.456623
256328957351840, -0.68195444, 5.660222, 8.827123, 0.24435627, 0.43091297, 10.4964695
256328966991111, -0.6149554, 4.31067, 8.397611, -0.14333415, -0.44256783, 9.447937
256328976630382, -0.71665037, 5.3383875, 8.730213, 0.1091429, 0.22624207, 10.255024
256328986269652, -0.5910272, 4.7916274, 8.364112, 0.0651499, -0.07252574, 9.657011
256328995908923, -0.9068798, 4.889733, 8.665607, -0.22829974, -0.012719631, 9.988614
256329005548194, -0.7106683, 5.3072805, 8.630911, 0.115282774, 0.2502942, 10.153274
256329015187465, -0.9595219, 4.412365, 8.646464, -0.4513802, -0.35890484, 9.737476
256329024826736, -0.63888365, 5.672186, 8.711071, 0.30590832, 0.4743209, 10.399331
256329034466007, -0.6436693, 4.173083, 8.402397, -0.2203486, -0.546015, 9.38523
256329044105277, -0.48933223, 5.7355957, 8.696713, 0.47174263, 0.46022463, 10.408409
256329053744548, -0.45942193, 4.3669014, 8.172686, 0.041673183, -0.36926723, 9.270146
256329063383819, -0.5802595, 5.5405807, 8.483752, 0.34134114, 0.43791437, 10.134127
256329073023090, -0.5072784, 4.834698, 8.176275, 0.18060195, 0.013332844, 9.510537
256329082662361, -0.83988076, 5.0045886, 8.739784, -0.14082193, 0.015359879, 10.105201
256329092301632, -0.6843473, 5.2845488, 8.76132, 0.10676575, 0.15884066, 10.25275
256329101940902, -0.997807, 4.406383, 8.760123, -0.5267946, -0.3788581, 9.835169
256329111580173, -0.6987042, 5.534599, 8.921639, 0.17835772, 0.2885952, 10.516678
256329121219444, -0.81236327, 4.1001015, 8.65125, -0.45217055, -0.6395886, 9.576082
256329130858715, -0.65682983, 5.629115, 8.861818, 0.26152956, 0.37767553, 10.509004
256329140497986, -0.60777694, 4.2125645, 8.187042, -0.14930189, -0.41422057, 9.216772
256329150137257, -0.70588267, 5.456832, 8.429914, 0.21662664, 0.46668816, 10.053557
256329159776527, -0.62093747, 4.709075, 8.133204, 0.036243677, -0.0069167614, 9.418526
256329169415798, -0.89371926, 4.975875, 8.620144, -0.18203115, 0.07672024, 9.991294
256329179055069, -0.68075806, 5.186443, 8.629715, 0.0949595, 0.15508652, 10.089675
256329188694340, -0.9200403, 4.4985065, 8.82473, -0.42455673, -0.36849952, 9.931912
256329198333611, -0.61734825, 5.651847, 9.020942, 0.28363943, 0.31192398, 10.654771
256329207972882, -0.72382885, 4.2364926, 8.819944, -0.33337986, -0.64482594, 9.784492
256329217612152, -0.53599226, 5.81097, 8.860622, 0.4383732, 0.49150324, 10.589218
256329227251423, -0.5168497, 4.2795634, 8.248059, -0.0445441, -0.42893767, 9.296575
256329236890694, -0.6364908, 5.483153, 8.49811, 0.26707757, 0.4388523, 10.120475
256329246529965, -0.61734825, 4.5391846, 8.172686, -0.038507223, -0.15278983, 9.367672
256329256169236, -0.863809, 5.0165524, 8.553144, -0.135301, 0.13935852, 9.951407
256329265808507, -0.62093747, 5.1421757, 8.409575, 0.15494752, 0.20782375, 9.873261
256329275447882, -0.8315059, 4.506881, 8.645268, -0.3114946, -0.3125198, 9.774935
256329285087152, -0.54317075, 5.5310097, 8.860622, 0.32015598, 0.27134466, 10.450914
256329294726423, -0.7680961, 4.1718864, 8.73141, -0.3722129, -0.64164376, 9.67894
256329304365694, -0.62931234, 5.712864, 8.939586, 0.29207456, 0.40926886, 10.615847
256329314004965, -0.701097, 4.21735, 8.394022, -0.24559063, -0.46230078, 9.405485
256329323644236, -0.7860422, 5.515456, 8.780462, 0.09206128, 0.39762783, 10.390768
256329333283507, -0.6735796, 4.558327, 8.449057, -0.107967615, -0.23098588, 9.620479
256329342922777, -0.83988076, 5.127819, 8.793623, -0.10148704, 0.11372328, 10.212956
256329352562048, -0.56829536, 5.10748, 8.56152, 0.17225957, 0.103621006, 9.983413
256329362201319, -0.78843504, 4.564309, 8.630911, -0.2399019, -0.27127004, 9.788567
256329371840590, -0.5084748, 5.5597234, 8.641679, 0.3919103, 0.38497353, 10.273553
256329381479861, -0.71665037, 4.2508492, 8.476574, -0.28041106, -0.4713614, 9.493935
256329391119132, -0.6269195, 5.227121, 8.590233, 0.16333902, 0.20288849, 10.071747
256329400758507, -0.73340017, 4.843073, 8.495717, -0.067258, -0.008316517, 9.806417
256329410397777, -0.73100734, 4.9663033, 8.566305, -0.037515998, 0.049435616, 9.928558
256329420037048, -0.7513463, 4.932804, 8.585447, -0.07132554, 0.022122383, 9.929824
256329429676319, -0.7585248, 4.9340005, 8.57468, -0.0772568, 0.030783653, 9.921591
256329439315590, -0.70348984, 4.959125, 8.592627, -0.020256996, 0.019760609, 9.945866
256329448954861, -0.59940207, 4.9698925, 8.581859, 0.083781004, -0.005085945, 9.934806
256329458594132, -0.5383851, 4.9722853, 8.622537, 0.13896728, -0.042272568, 9.966971
256329468233402, -0.58983076, 4.9136615, 8.712267, 0.05959797, -0.110651016, 10.01897
256329477872673, -0.7118647, 4.871787, 8.737391, -0.07103956, -0.106520176, 10.028294
256329487512048, -0.7716853, 4.90409, 8.754142, -0.11587751, -0.06221056, 10.062967
256329497151319, -0.7573284, 4.9495535, 8.702696, -0.076569796, -0.0060534477, 10.040052
256329506790590, -0.65084773, 5.042874, 8.616554, 0.06695235, 0.068098545, 10.004503
256329516429861, -0.59342, 5.076373, 8.469396, 0.15194058, 0.14364767, 9.889827
256329526069132, -0.587438, 5.0799623, 8.349754, 0.1720308, 0.19846725, 9.787773
256329535708402, -0.587438, 4.995017, 8.328219, 0.13740277, 0.13630486, 9.727131
256329545347673, -0.6257231, 4.9471607, 8.335398, 0.08609164, 0.107620716, 9.712147
256329554986944, -0.6795616, 4.8765726, 8.443074, -0.0049654245, 0.02422905, 9.773824
256329564626319, -0.73818576, 4.8215375, 8.668, -0.10935831, -0.099114895, 9.945078
256329574265590, -0.7800602, 4.813163, 8.916854, -0.18736184, -0.2077837, 10.159086
256329583904861, -0.74177504, 4.875376, 8.961121, -0.13124096, -0.18952608, 10.225854
256329593544132, -0.73818576, 4.95075, 8.9312105, -0.09195566, -0.1118598, 10.237207
256329603183402, -0.6520442, 4.991428, 8.837891, 0.016617179, -0.06623936, 10.170701
256329612822673, -0.6221339, 5.0715876, 8.675179, 0.097147346, 0.06143856, 10.06745
256329622461944, -0.5946164, 5.0943193, 8.445468, 0.16209221, 0.1763382, 9.877967
256329632101319, -0.62931234, 5.028517, 8.255239, 0.13046217, 0.22561407, 9.683132
256329641740590, -0.7070791, 4.907679, 8.215756, 0.01918304, 0.17577362, 9.594408
256329651379861, -0.7645068, 4.8323054, 8.376076, -0.08734417, 0.060634136, 9.699638
256329661019132, -0.79920274, 4.8059845, 8.565108, -0.15560198, -0.034009933, 9.8525095
256329670658402, -0.8171489, 4.782056, 8.733803, -0.20489097, -0.1267848, 9.987846
256329680297673, -0.8350951, 4.8083773, 8.842676, -0.22642732, -0.14618349, 10.096442
256329689937048, -0.75972116, 4.8646083, 8.88814, -0.1412903, -0.14471865, 10.158725
256329699576319, -0.65682983, 4.9663033, 8.786445, 0.005735159, -0.057294846, 10.114044
256329709215590, -0.5395815, 5.0452666, 8.670393, 0.15908706, 0.015386105, 10.044703
256329718854861, -0.5515456, 5.0596237, 8.632108, 0.15434659, 0.048106194, 10.019539
256329728494132, -0.6412765, 4.995017, 8.717052, 0.03545785, -0.007247448, 10.067131
256329738133507, -0.65922266, 4.948357, 8.749356, -0.0061728954, -0.053189278, 10.073193
256329747772777, -0.5922236, 4.9471607, 8.672786, 0.06494248, -0.046040535, 10.001801
256329757412048, -0.52163535, 4.9567323, 8.597412, 0.14296079, -0.032634735, 9.936564
256329767051319, -0.47258246, 4.9663033, 8.5112705, 0.19572139, -0.0076184273, 9.863615
256329776690590, -0.47856453, 4.9770713, 8.415557, 0.20436299, 0.04593849, 9.786622
256329786329861, -0.54436713, 4.9866424, 8.319844, 0.16186202, 0.12663603, 9.712903
256329795969236, -0.64247286, 4.9974103, 8.30788, 0.07699561, 0.1776774, 9.714436
256329805608507, -0.72263247, 4.9722853, 8.421539, -0.02294755, 0.13553238, 9.8055725
256329815247777, -0.85184485, 4.863412, 8.665607, -0.21236765, -0.015152931, 9.971252
256329824887048, -0.96909314, 4.7569313, 8.963513, -0.39488202, -0.19275427, 10.184256
256329834526319, -0.99302137, 4.7449675, 9.211171, -0.44613832, -0.30937195, 10.394794
256329844165694, -0.8985049, 4.7712884, 9.21476, -0.33904344, -0.32385302, 10.405022
256329853804965, -0.7537391, 4.880162, 9.006584, -0.13175905, -0.1889267, 10.268866
256329863444236, -0.6125626, 4.9806604, 8.671589, 0.07842314, -0.009329796, 10.018604
256329873083507, -0.49172506, 5.040481, 8.347362, 0.25702167, 0.14530563, 9.759074
256329882722882, -0.4953143, 5.0751767, 8.115258, 0.2926426, 0.27821827, 9.575862
256329892362152, -0.51565325, 5.028517, 8.039884, 0.2606392, 0.27696705, 9.489307
256329902001423, -0.5024927, 5.032106, 8.085348, 0.25442755, 0.24265099, 9.530155
256329911640694, -0.50488555, 5.029713, 8.280363, 0.22403526, 0.14700317, 9.697709
256329921279965, -0.51445687, 4.9926243, 8.505288, 0.16430807, 0.016656876, 9.874393
256329930919340, -0.56590253, 4.912465, 8.725428, 0.058998823, -0.124370575, 10.0282955
256329940558611, -0.6831509, 4.918447, 8.85823, -0.060252547, -0.13012505, 10.154086
256329950197882, -0.7609176, 4.914858, 8.908479, -0.13932765, -0.12785101, 10.200983
256329959837152, -0.8422736, 4.900501, 8.903693, -0.2158401, -0.095556736, 10.195311
256329969476527, -0.91884387, 4.883751, 8.925228, -0.29264855, -0.085297585, 10.210882
256329979115798, -0.9379865, 4.831109, 8.933603, -0.3318243, -0.12419176, 10.193291
256329988755069, -0.9128618, 4.8215375, 8.82832, -0.2967968, -0.094965935, 10.0956745
256329998394340, -0.8350951, 4.822734, 8.630911, -0.19580829, -0.037415504, 9.920133
256330008033715, -0.6831509, 4.8825545, 8.457432, -0.009662509, 0.033370018, 9.789432
256330017672986, -0.51445687, 4.9734817, 8.380861, 0.18924975, 0.06950188, 9.756965
256330027312257, -0.39361933, 5.078766, 8.295917, 0.34926605, 0.13931346, 9.7277775
256330036951527, -0.35174492, 5.1469617, 8.202596, 0.4201517, 0.21579814, 9.6785555
256330046590902, -0.4019942, 5.0943193, 8.385647, 0.32569802, 0.11192274, 9.813978
256330056230173, -0.5276174, 5.0392847, 8.579466, 0.1572963, 0.023345947, 9.962667
256330065869444, -0.6963114, 5.040481, 8.744571, -0.023585439, 0.010397911, 10.11722
256330075508715, -0.7537391, 4.996214, 8.860622, -0.106565595, -0.05457878, 10.199341
256330085148090, -0.7752745, 4.968696, 8.868998, -0.13784778, -0.07152796, 10.194311
256330094787361, -0.76331043, 4.9459643, 8.825927, -0.1257813, -0.07496214, 10.144987
256330104426632, -0.74895346, 4.8729835, 8.68475, -0.11832321, -0.0742836, 9.985603
256330114065902, -0.72502524, 4.8299127, 8.550752, -0.093566656, -0.054682255, 9.846691
256330123705277, -0.701097, 4.8502517, 8.425129, -0.04550016, 0.011800289, 9.746643
256330133344548, -0.64606214, 4.9196434, 8.340183, 0.04361832, 0.08300352, 9.70413
256330142983819, -0.69152576, 4.9399824, 8.360522, 0.006575227, 0.105623245, 9.734924
256330152623194, -0.715454, 4.9495535, 8.475378, -0.028436542, 0.06610441, 9.840569
256330162262465, -0.7118647, 4.9770713, 8.544769, -0.022975087, 0.053322792, 9.914015
256330171901736, -0.66400826, 5.011767, 8.611769, 0.025921702, 0.030583858, 9.985973
256330181541007, -0.65922266, 5.0213385, 8.681161, 0.024479628, 0.003931999, 10.050392
256330191180382, -0.5982057, 5.0009995, 8.792427, 0.055812955, -0.0878067, 10.132316
256330200819652, -0.52283174, 5.022535, 8.7673025, 0.13104618, -0.086574554, 10.116331
256330210458923, -0.5180461, 5.048856, 8.627322, 0.16420197, -0.0011587143, 10.008149
256330220098194, -0.60059845, 5.0141597, 8.496913, 0.09380233, 0.06683159, 9.883661
256330229737569, -0.72382885, 4.981857, 8.446664, -0.023695588, 0.11305332, 9.8323765
256330239376840, -0.74177504, 4.9064827, 8.514859, -0.07925749, 0.025298595, 9.854933
256330249016111, -0.7728817, 4.8705907, 8.52802, -0.12265408, 0.0023636818, 9.850486
256330258655486, -0.7968099, 4.8454657, 8.553144, -0.15667188, -0.01922512, 9.861279
256330268294757, -0.77766734, 4.8263235, 8.5938225, -0.14542413, -0.058254242, 9.885719
256330277934027, -0.6687939, 4.8885365, 8.635697, -0.028147817, -0.071391106, 9.945575
256330287573402, -0.6041877, 4.9866424, 8.666803, 0.068923116, -0.027226925, 10.016968
256330297212673, -0.57906306, 5.0739803, 8.663215, 0.123966455, 0.034707546, 10.055612
256330306851944, -0.5814559, 5.1158547, 8.563912, 0.15143883, 0.11757088, 9.990692
256330316491215, -0.6999006, 5.026124, 8.623733, -0.0020035505, 0.061498165, 10.0058365
256330326130590, -0.7728817, 4.9172506, 8.793623, -0.13661897, -0.07681608, 10.103461
256330335769861, -0.8003992, 4.8861437, 8.8187475, -0.17655087, -0.10302544, 10.111556
256330345409132, -0.7968099, 4.8394837, 8.736196, -0.17977452, -0.09951496, 10.016706
256330355048507, -0.8063812, 4.831109, 8.622537, -0.17198265, -0.048859596, 9.91494
