timestamp_acc,device_acc_x,device_acc_y,device_acc_z,earth_acc_x,earth_acc_y,earth_acc_z
358425952089743, -1.7886349, 6.532406, 7.0695944, -0.033037186, 0.09756756, 9.789795
358425961729326, -1.7778672, 6.533602, 7.0672016, -0.025600195, 0.09137201, 9.786987
358425971369014, -1.7240287, 6.5312095, 7.048059, 0.022696972, 0.07354641, 9.762079
358425981008701, -1.6689938, 6.5515485, 7.092326, 0.06440318, 0.025475025, 9.798195
358425990648285, -1.6845472, 6.5886374, 7.2765737, 0.01765418, -0.062758446, 9.959523
358426000287972, -1.6845472, 6.570691, 7.237092, 0.013730645, -0.046363354, 9.918914
358426009927660, -1.6654046, 6.579066, 7.1892357, 0.046012282, -0.021591187, 9.886366
358426019567243, -1.6713866, 6.587441, 7.0935225, 0.073363066, 0.047677994, 9.823357
358426029206931, -1.698904, 6.539584, 7.129415, 0.021664381, 0.012424946, 9.822443
358426038846618, -1.7036897, 6.5084777, 7.216753, -0.01789248, -0.059105396, 9.86613
358426048486201, -1.7084754, 6.502496, 7.26102, -0.03647852, -0.08823156, 9.895184
358426058125889, -1.727618, 6.48096, 7.133004, -0.029637218, -0.0086865425, 9.791134
358426067765472, -1.6689938, 6.5084777, 7.024131, 0.06184411, 0.04317093, 9.720006
358426077405160, -1.6845472, 6.541977, 6.9355965, 0.090795875, 0.124931335, 9.68059
358426087044847, -1.7288144, 6.6053867, 6.930811, 0.089464664, 0.18520069, 9.726959
358426096684431, -1.7694924, 6.562316, 6.975078, 0.024027586, 0.15351963, 9.737692
358426106324118, -1.7994026, 6.538388, 7.048059, -0.03046918, 0.10874319, 9.780119
358426115963806, -1.8029919, 6.5635123, 7.160522, -0.051673174, 0.054706097, 9.879164
358426125603389, -1.7108682, 6.5694947, 7.2023964, 0.014031649, -0.018446922, 9.89744
358426135243076, -1.6115661, 6.59103, 7.176075, 0.11309707, -0.045097828, 9.875224
358426144882764, -1.5816557, 6.606583, 7.183254, 0.14337564, -0.05139208, 9.885569
358426154522347, -1.6235301, 6.661618, 7.2705917, 0.1134423, -0.054127216, 9.992933
358426164162035, -1.6881363, 6.690332, 7.3256264, 0.061548114, -0.032271862, 10.063316
358426173801722, -1.7670995, 6.6628146, 7.332805, -0.018829703, -0.008334637, 10.064062
358426183441306, -1.7682959, 6.6556363, 7.322037, -0.019120812, -0.0035419464, 10.051678
358426193080993, -1.7168503, 6.672386, 7.3304124, 0.032068968, -0.027157307, 10.0598955
358426202720681, -1.7024933, 6.6592255, 7.350751, 0.034144163, -0.05487299, 10.063456
358426212360264, -1.6857436, 6.5982084, 7.3340015, 0.021546483, -0.087555885, 10.0078745
358426221999951, -1.698904, 6.5347986, 7.328019, -0.021200776, -0.11206293, 9.963772
358426231639639, -1.698904, 6.492924, 7.27777, -0.029080153, -0.10432625, 9.899423
358426241279222, -1.7419748, 6.4905314, 7.253842, -0.059635043, -0.06733608, 9.887955
358426250918910, -1.7778672, 6.5001025, 7.213164, -0.07219219, -0.019879341, 9.870981
358426260558597, -1.7682959, 6.502496, 7.149754, -0.046804428, 0.016735077, 9.824755
358426270198181, -1.7766708, 6.519245, 7.066005, -0.01864183, 0.07898617, 9.776449
358426279837868, -1.7551354, 6.5431733, 7.025327, 0.0220114, 0.10662317, 9.758944
358426289477451, -1.7228323, 6.513263, 7.0301127, 0.034678698, 0.06683731, 9.7369175
358426299117139, -1.7359928, 6.5312095, 7.0408807, 0.030224204, 0.07412529, 9.758994
358426308756826, -1.7826529, 6.485746, 7.0325055, -0.02878213, 0.07945061, 9.730968
358426318396410, -1.8041883, 6.4642105, 7.0540414, -0.06263733, 0.06561279, 9.736138
358426328036097, -1.7910278, 6.4881387, 7.1210403, -0.05681765, 0.029645443, 9.79841
358426337675785, -1.7383857, 6.5611196, 7.2059855, 0.0016115904, -0.012273312, 9.899309
358426347315368, -1.6773686, 6.6185474, 7.24786, 0.07016575, -0.038919926, 9.957096
358426356955056, -1.6654046, 6.6149583, 7.2586274, 0.07490301, -0.051730156, 9.960452
358426366594743, -1.6713866, 6.582655, 7.292127, 0.043455124, -0.08573437, 9.964475
358426376234326, -1.6749759, 6.5407805, 7.3100734, 0.012561917, -0.116086006, 9.950422
358426385874014, -1.7168503, 6.518049, 7.251449, -0.018177152, -0.06875658, 9.900051
358426395513701, -1.7228323, 6.518049, 7.186843, -0.004921317, -0.023669243, 9.854097
358426405153285, -1.7371893, 6.515656, 7.1018977, 0.0054193735, 0.03652191, 9.7932205
358426414792972, -1.713261, 6.5001025, 7.0145597, 0.041095972, 0.069434166, 9.715151
358426424432556, -1.7001005, 6.5371914, 7.051648, 0.05959332, 0.057975292, 9.764427
358426434072243, -1.678565, 6.5611196, 7.1413794, 0.064584374, 0.0026698112, 9.841799
358426443711931, -1.666601, 6.587441, 7.183254, 0.07690287, -0.0155854225, 9.887615
358426453351514, -1.6953149, 6.582655, 7.1342006, 0.06336892, 0.02866888, 9.853804
358426462991201, -1.7635103, 6.526424, 7.1306114, -0.017865896, 0.03567791, 9.825895
358426472630889, -1.8568304, 6.48096, 7.152147, -0.11918938, 0.046347618, 9.827896
358426482270472, -1.9046868, 6.491728, 7.1976104, -0.16086793, 0.04988861, 9.876617
358426491910160, -1.9262222, 6.5144596, 7.24786, -0.17813528, 0.040585518, 9.9321
358426501549847, -1.861616, 6.5312095, 7.253842, -0.11734748, 0.013754368, 9.936126
358426511189431, -1.7766708, 6.587441, 7.27777, -0.023888707, -0.015447617, 9.975775
358426520829118, -1.7312071, 6.6364937, 7.2753773, 0.03796649, -0.010194302, 9.998486
358426530468701, -1.7048861, 6.613762, 7.24786, 0.053519845, -0.01919365, 9.95875
358426540108389, -1.7024933, 6.576673, 7.239485, 0.03716898, -0.037194252, 9.927662
358426549748076, -1.7156538, 6.602994, 7.223932, 0.04383385, -0.006029129, 9.936107
358426559387660, -1.7551354, 6.59103, 7.155736, 0.02230537, 0.051770687, 9.885523
358426569027347, -1.8065811, 6.5718875, 7.149754, -0.028406262, 0.07061958, 9.877583
358426578666931, -1.8496519, 6.5455666, 7.146165, -0.07604718, 0.07939577, 9.865152
358426588306618, -1.8460627, 6.532406, 7.1222367, -0.072925925, 0.082968235, 9.83841
358426597946306, -1.8161523, 6.550352, 7.0600233, -0.020394444, 0.11508131, 9.799784
358426607585889, -1.7407784, 6.562316, 7.082755, 0.04206252, 0.06370163, 9.810907
358426617225576, -1.698904, 6.538388, 7.160522, 0.04429865, -0.021567822, 9.844158
358426626865264, -1.6965113, 6.541977, 7.207182, 0.027229428, -0.050671577, 9.88007
358426636504847, -1.7001005, 6.5312095, 7.203593, 0.016907096, -0.05212879, 9.870956
358426646144535, -1.7084754, 6.5347986, 7.172486, 0.020110607, -0.02586937, 9.852205
358426655784118, -1.7228323, 6.552745, 7.155736, 0.021105886, 0.002087593, 9.854477
358426665423806, -1.7204394, 6.576673, 7.1509504, 0.037217617, 0.016379356, 9.866457
358426675063389, -1.7252251, 6.5838513, 7.125826, 0.0452168, 0.03709984, 9.853806
358426684703076, -1.7300107, 6.573084, 7.0672016, 0.052176714, 0.06648159, 9.804926
358426694342764, -1.6965113, 6.550352, 6.9906316, 0.0879482, 0.084552765, 9.728275
358426703982347, -1.7156538, 6.509674, 7.021738, 0.04389119, 0.050230026, 9.727265
358426713622035, -1.7611175, 6.4845495, 7.0672016, -0.018212795, 0.03128481, 9.751664
358426723261722, -1.7946169, 6.492924, 7.2083783, -0.07802677, -0.03399849, 9.865709
358426732901306, -1.7826529, 6.518049, 7.281359, -0.07502973, -0.07311773, 9.93328
358426742540993, -1.7419748, 6.5659056, 7.222735, 8.574724E-4, -0.02942419, 9.915272
358426752180576, -1.7467605, 6.599405, 7.152147, 0.034218907, 0.036542416, 9.887062
358426761820264, -1.7730815, 6.5682983, 7.0935225, 0.013744712, 0.07089186, 9.828488
358426771459951, -1.835295, 6.5407805, 7.1162543, -0.056308866, 0.07555294, 9.837801
358426781099535, -1.9130617, 6.515656, 7.194021, -0.1532458, 0.056293964, 9.891455
358426790739222, -1.8711873, 6.489335, 7.18445, -0.12942243, 0.024636745, 9.859604
358426800378806, -1.7730815, 6.4977098, 7.1306114, -0.029875994, 0.008616924, 9.808603
358426810018493, -1.6354942, 6.5551376, 7.082755, 0.1241287, -0.007249832, 9.787474
358426819658076, -1.5672989, 6.623333, 7.0432734, 0.22356892, 0.017746925, 9.791956
358426829297764, -1.6043876, 6.6257257, 7.0863442, 0.17638958, 0.014811516, 9.831543
358426838937451, -1.6905292, 6.580262, 7.159325, 0.06318021, -0.008948803, 9.86963
358426848577035, -1.7718852, 6.5635123, 7.2346992, -0.03252864, -0.01946783, 9.927673
358426858216722, -1.8161523, 6.5682983, 7.2705917, -0.069004655, -0.012216568, 9.964816
358426867856306, -1.8257236, 6.515656, 7.2622166, -0.10158408, -0.030502796, 9.925499
358426877495993, -1.8041883, 6.5072813, 7.2023964, -0.06926179, -0.009112358, 9.872662
358426887135576, -1.7623138, 6.503692, 7.125826, -0.014900804, 0.013432503, 9.8071785
358426896775264, -1.7336, 6.530013, 7.099505, 0.029232383, 0.027934551, 9.800397
358426906414951, -1.7359928, 6.5682983, 7.135397, 0.036886334, 0.027005672, 9.85231
358426916054535, -1.753939, 6.5491557, 7.160522, 0.0054397583, 0.010910034, 9.861069
358426925694222, -1.7802601, 6.5647087, 7.186843, -0.01444447, 0.017541409, 9.895199
358426935333806, -1.820938, 6.579066, 7.23111, -0.051629663, 0.021125793, 9.944133
358426944973493, -1.835295, 6.5778694, 7.243074, -0.06716955, 0.020442963, 9.95459
358426954613076, -1.7898313, 6.556334, 7.2323065, -0.040046453, -0.0071806908, 9.924395
358426964252764, -1.7587247, 6.5431733, 7.190432, -0.011683822, -0.0031375885, 9.879696
358426973892347, -1.7312071, 6.5276203, 7.216753, -0.003347516, -0.043245316, 9.883652
358426983532035, -1.7587247, 6.3517475, 7.2263246, -0.11783481, -0.131248, 9.778878
358426993171722, -1.6378871, 6.843473, 7.2502527, 0.22289145, 0.06725788, 10.100879
358427002811306, -1.8101703, 6.029913, 7.066005, -0.28194857, -0.17346811, 9.458088
358427012450993, -1.5696917, 7.243074, 7.21436, 0.4882077, 0.26911354, 10.327743
358427022090576, -1.7886349, 5.8672013, 7.025327, -0.33448052, -0.2471838, 9.316948
358427031730264, -1.6366907, 7.281359, 7.3268228, 0.43117738, 0.2596364, 10.446337
358427041369847, -1.7706888, 5.9952173, 7.0528445, -0.26180458, -0.20929956, 9.418505
358427051009535, -1.7898313, 6.9332037, 7.280163, 0.14016032, 0.18182278, 10.208863
358427060649118, -1.7395821, 6.3194447, 7.0337024, -0.06711924, -0.032751083, 9.6139965
358427070288806, -1.855634, 6.422336, 7.140183, -0.13980782, 0.018646717, 9.78019
358427079928389, -1.6103697, 6.832705, 7.0612197, 0.287606, 0.17030907, 9.951294
358427089568076, -1.8340986, 6.005985, 6.9894347, -0.2952137, -0.13204098, 9.3906
358427099207660, -1.6211374, 7.173682, 7.1425757, 0.42531264, 0.30976152, 10.238621
358427108847347, -1.8999012, 5.74756, 6.9882383, -0.47279298, -0.23916054, 9.230321
358427118487035, -1.7407784, 7.1856465, 7.3830543, 0.26873338, 0.2291317, 10.442635
358427128126618, -1.8508483, 5.9007006, 7.125826, -0.39816117, -0.24711752, 9.423465
358427137766306, -1.698904, 7.004988, 7.426125, 0.21452963, 0.091762066, 10.346449
358427147405889, -1.6414764, 6.38764, 7.225128, -0.0031113625, -0.15203142, 9.781399
358427157045576, -1.7611175, 6.62094, 7.4309106, -0.039277792, -0.081959724, 10.106857
358427166685160, -1.5936198, 6.897311, 7.3112698, 0.27345157, 0.044052124, 10.173027
358427176324847, -1.8329022, 6.1028943, 7.2155566, -0.31004977, -0.18417549, 9.619722
358427185964431, -1.5888343, 7.2358956, 7.304091, 0.44954848, 0.22381449, 10.391348
358427195604118, -1.8113668, 5.877969, 7.09113, -0.37895906, -0.23878288, 9.376305
358427205243701, -1.5804594, 7.30768, 7.342376, 0.47787452, 0.24962616, 10.465176
358427214883389, -1.7024933, 5.9581285, 7.0408807, -0.24174047, -0.23176289, 9.373346
358427224522972, -1.672583, 7.09113, 7.2729845, 0.30728507, 0.2261672, 10.287487
358427234162660, -1.6857436, 6.3050876, 7.04447, -0.04910326, -0.057036877, 9.602852
358427243802243, -1.8448663, 6.530013, 7.2215385, -0.11223471, 0.04113531, 9.90863
358427253441931, -1.719243, 6.666404, 7.109076, 0.09399879, 0.11869669, 9.895088
358427263081514, -1.9968106, 6.000003, 7.0803623, -0.46207798, -0.09252453, 9.48139
358427272721201, -1.7371893, 7.079166, 7.198807, 0.26780498, 0.30182266, 10.236818
358427282360785, -1.8879371, 5.77747, 7.021738, -0.46411216, -0.23010826, 9.272537
358427292000472, -1.5900307, 7.2729845, 7.3304124, 0.44865775, 0.2473011, 10.435373
358427301640056, -1.7156538, 5.895915, 7.004988, -0.2632537, -0.24409246, 9.308397
358427311279743, -1.6462619, 7.0803623, 7.2789664, 0.3070835, 0.20079565, 10.280587
358427320919326, -1.6713866, 6.2081785, 7.0085773, -0.075448275, -0.096877575, 9.509999
358427330559014, -1.7946169, 6.6041903, 7.2346992, -0.039297342, 0.045062542, 9.958578
358427340198597, -1.6737795, 6.6819572, 7.1066833, 0.13305259, 0.10704613, 9.89575
358427349838181, -1.8795621, 6.10768, 7.103094, -0.322209, -0.102807045, 9.548616
358427359477868, -1.591227, 7.097112, 7.2155566, 0.38004363, 0.2238326, 10.235756
358427369117451, -1.8508483, 5.8360944, 7.109076, -0.43189752, -0.27363014, 9.368202
358427378757139, -1.6163517, 7.2502527, 7.3746796, 0.39318514, 0.21884727, 10.457638
358427388396722, -1.7383857, 5.832505, 7.1078796, -0.34332418, -0.3303795, 9.345324
358427398036410, -1.558924, 7.143772, 7.4045897, 0.38596964, 0.10778856, 10.398609
358427407675993, -1.5158532, 6.2691956, 7.092326, 0.050540686, -0.19717073, 9.584377
358427417315681, -1.6211374, 6.7645097, 7.2705917, 0.1691426, 0.019753456, 10.060774
358427426955264, -1.5601203, 6.690332, 7.064809, 0.23325682, 0.07329512, 9.851206
358427436594951, -1.861616, 6.222535, 7.070791, -0.25641, -0.024101734, 9.597672
358427446234535, -1.6905292, 7.058827, 7.1808605, 0.27762604, 0.27380657, 10.202826
358427455874118, -1.9800607, 5.8133626, 7.1210403, -0.57321596, -0.2100606, 9.383621
358427465513806, -1.7324036, 7.2299137, 7.34118, 0.28979528, 0.28170538, 10.440424
358427475153389, -1.8400806, 5.837291, 7.038488, -0.4122541, -0.23403549, 9.315334
358427484793076, -1.6809579, 7.140183, 7.3028946, 0.31310368, 0.23154974, 10.343523
358427494432660, -1.7096717, 6.114858, 7.024131, -0.1575675, -0.14065075, 9.466166
358427504072347, -1.7647067, 6.6963143, 7.2825556, 0.019768, 0.04528761, 10.049278
358427513711931, -1.6462619, 6.5635123, 7.1617184, 0.081431985, -0.016241074, 9.8525715
358427523351618, -1.8484555, 6.2416778, 7.233503, -0.2755748, -0.12404013, 9.726643
358427532991201, -1.6139588, 7.0959153, 7.301698, 0.32766044, 0.18677092, 10.301914
358427542630785, -1.8101703, 5.9437714, 7.222735, -0.3914225, -0.3128624, 9.514301
358427552270472, -1.5086746, 7.3136625, 7.442875, 0.4858756, 0.15539837, 10.530999
358427561910056, -1.6642082, 5.8947186, 7.1042905, -0.2693081, -0.32964754, 9.370543
358427571549743, -1.5038891, 7.259824, 7.3136625, 0.48553216, 0.20342922, 10.400927
358427581189326, -1.5804594, 6.142376, 7.079166, -0.07731509, -0.2205019, 9.501928
358427590829014, -1.6833507, 6.792027, 7.2861447, 0.10563815, 0.05707264, 10.101425
358427600468597, -1.6510476, 6.5371914, 7.0061846, 0.07673597, 0.07222271, 9.7229805
358427610108181, -1.8400806, 6.2787666, 6.957132, -0.19394672, 0.072209835, 9.548176
358427619747868, -1.6067804, 7.0085773, 6.960721, 0.37631917, 0.31932116, 9.995497
358427629387451, -1.861616, 5.936593, 6.862615, -0.35845828, -0.044692993, 9.256012
358427639027139, -1.692922, 7.253842, 7.186843, 0.36517024, 0.3568287, 10.338001
358427648666722, -1.9357935, 5.7391853, 7.0875406, -0.5865793, -0.2630849, 9.300833
358427658306306, -1.82692, 7.1102724, 7.4979095, 0.092880964, 0.16043758, 10.491801
358427667945993, -1.896312, 5.9712887, 7.240681, -0.46553433, -0.25558853, 9.560215
358427677585576, -1.8939191, 6.778867, 7.457232, -0.11469841, 0.045724392, 10.253536
358427687225264, -1.7407784, 6.4666033, 7.2215385, -0.07711971, -0.057250977, 9.848282
358427696864847, -1.8436699, 6.398408, 7.26102, -0.20639205, -0.063613415, 9.849596
358427706504431, -1.6187445, 7.0600233, 7.1880393, 0.33130205, 0.22734928, 10.196605
358427716144118, -1.8867407, 5.9820566, 7.1485577, -0.42775214, -0.20276308, 9.498558
358427725783701, -1.6486548, 7.243074, 7.4344997, 0.33124757, 0.1766572, 10.502907
358427735423389, -1.8664017, 5.784649, 7.166504, -0.5152304, -0.32439947, 9.377297
358427745062972, -1.7240287, 7.172486, 7.344769, 0.2642597, 0.2392435, 10.4036255
358427754702556, -1.8065811, 5.946164, 6.926025, -0.3154881, -0.11983776, 9.299276
358427764342243, -1.7886349, 6.8853474, 7.131808, 0.118118644, 0.24502277, 10.069555
358427773981826, -1.672583, 6.463014, 6.9882383, 0.040694118, 0.0421443, 9.664375
358427783621514, -1.8077775, 6.4534426, 7.1772714, -0.13278389, -0.01627016, 9.818876
358427793261097, -1.5780666, 6.99781, 7.1270223, 0.3405522, 0.19816923, 10.104398
358427802900681, -1.8161523, 6.070591, 7.012167, -0.29216874, -0.12501669, 9.445633
358427812540368, -1.5529419, 7.2957163, 7.1856465, 0.4870305, 0.31210518, 10.341084
358427822179951, -1.7670995, 5.818148, 7.0002027, -0.36830962, -0.28387022, 9.260674
358427831819639, -1.6175481, 7.23111, 7.3375907, 0.36219132, 0.2126069, 10.419659
358427841459222, -1.7647067, 5.918647, 7.064809, -0.33909702, -0.26948833, 9.373819
358427851098806, -1.7838492, 6.884151, 7.34118, 0.040710688, 0.1035347, 10.2202835
358427860738493, -1.6917256, 6.330212, 7.1162543, -0.094160676, -0.106387615, 9.672354
358427870378076, -1.7766708, 6.452246, 7.2083783, -0.12935472, -0.050751686, 9.835114
358427880017660, -1.4967105, 6.897311, 7.094719, 0.348593, 0.13277054, 10.000447
358427889657347, -1.707279, 6.0574307, 7.0540414, -0.2327522, -0.21226501, 9.44815
358427899296931, -1.3998013, 7.3052874, 7.2993054, 0.5697863, 0.17957258, 10.404307
358427908936514, -1.5768701, 5.9497533, 7.170093, -0.21328723, -0.41455793, 9.438166
358427918576201, -1.4069797, 7.385447, 7.393822, 0.57011724, 0.17092419, 10.528
358427928215785, -1.6295122, 5.992824, 6.9355965, -0.19075894, -0.20763588, 9.305496
358427937855368, -1.6701902, 7.004988, 7.160522, 0.21891022, 0.24000454, 10.15022
358427947495056, -1.6618153, 6.352944, 6.9655066, -0.043837667, -0.0062217712, 9.572766
358427957134639, -1.8029919, 6.558727, 7.153343, -0.11130929, 0.06200266, 9.870247
358427966774326, -1.5553347, 6.876972, 7.0504518, 0.2768185, 0.1698947, 9.965701
358427976413910, -1.7216359, 6.1363935, 7.070791, -0.23785996, -0.16870975, 9.514746
358427986053493, -1.422533, 7.320841, 7.2957163, 0.53866446, 0.18466425, 10.417368
358427995693181, -1.6570296, 5.9497533, 7.0983086, -0.27365148, -0.325346, 9.399498
358428005332764, -1.5888343, 7.3340015, 7.3304124, 0.39958286, 0.27475834, 10.479111
358428014972347, -1.8628124, 5.8827543, 7.0432734, -0.4671662, -0.22882175, 9.349544
358428024612035, -1.8939191, 6.926025, 7.3340015, -0.05413401, 0.19588757, 10.261726
358428034251618, -1.8400806, 6.2237315, 7.0815587, -0.28833377, -0.06393099, 9.601145
358428043891201, -1.8975084, 6.5551376, 7.2083783, -0.2036792, 0.06841612, 9.923957
358428053530889, -1.666601, 6.7728844, 7.04447, 0.14158797, 0.16711903, 9.910909
358428063170472, -1.8077775, 6.1196437, 6.99781, -0.2955444, -0.085326195, 9.465348
358428072810056, -1.5314065, 7.1820574, 7.170093, 0.4267373, 0.23084068, 10.251925
358428082449743, -1.7670995, 5.861219, 7.085148, -0.42717564, -0.29827023, 9.349031
358428092089326, -1.591227, 7.3268228, 7.396215, 0.38076544, 0.19627428, 10.523062
358428101728910, -1.7383857, 5.930611, 7.1018977, -0.36756968, -0.2815609, 9.403015
358428111368597, -1.6809579, 7.0935225, 7.30768, 0.2099781, 0.182168, 10.318362
358428121008181, -1.6737795, 6.2416778, 6.98106, -0.120152, -0.076312065, 9.511835
358428130647764, -1.7443677, 6.652047, 7.1509504, -0.019525051, 0.074668884, 9.920819
358428140287451, -1.5768701, 6.7226353, 6.9762745, 0.20044732, 0.1320219, 9.812804
358428149927035, -1.8029919, 6.1328044, 6.995417, -0.286384, -0.08254528, 9.471489
358428159566618, -1.5158532, 7.115058, 7.1473613, 0.39752686, 0.20513868, 10.188551
358428169206306, -1.7395821, 5.861219, 7.0301127, -0.38717186, -0.28847694, 9.304268
358428178845889, -1.5086746, 7.2897344, 7.245467, 0.46337628, 0.23129797, 10.375206
358428188485472, -1.6402799, 5.899504, 6.923632, -0.25782824, -0.24441767, 9.236078
358428198125160, -1.4596218, 7.1976104, 7.237092, 0.45687342, 0.15450048, 10.299465
358428207764743, -1.4321043, 6.3194447, 6.99781, 0.102870345, -0.17968655, 9.534821
358428217404326, -1.5409778, 6.8255267, 7.2382884, 0.19222128, 0.0015187263, 10.065699
358428227044014, -1.4679967, 6.7609205, 7.0325055, 0.2769575, 0.054136276, 9.861113
358428236683597, -1.747957, 6.233303, 7.042077, -0.22181249, -0.08146095, 9.562658
358428246323181, -1.570888, 7.0863442, 7.166504, 0.3226906, 0.20359707, 10.192997
358428255962868, -1.8364913, 5.844469, 7.1186476, -0.5108284, -0.28996325, 9.373401
358428265602451, -1.6378871, 7.268199, 7.402197, 0.29736257, 0.19167948, 10.4965105
358428275242035, -1.8329022, 5.8396835, 7.109076, -0.50018775, -0.29251242, 9.362942
358428284881618, -1.6737795, 7.166504, 7.3806615, 0.22967052, 0.16811085, 10.418901
358428294521306, -1.68694, 6.1770716, 7.094719, -0.20138407, -0.1785984, 9.553249
358428304160889, -1.7790636, 6.778867, 7.3340015, -0.03832531, 0.048029423, 10.144057
358428313800472, -1.6821543, 6.600601, 7.1748786, -7.00593E-4, 6.737709E-4, 9.893252
358428323440160, -1.8544376, 6.2464633, 7.1449685, -0.30886233, -0.093325615, 9.664558
358428333079743, -1.5756737, 7.112665, 7.1509504, 0.3449366, 0.2537713, 10.199287
358428342719326, -1.7946169, 5.98086, 7.0325055, -0.35673237, -0.21015644, 9.395534
358428352359014, -1.5696917, 7.389036, 7.2789664, 0.4492879, 0.31704044, 10.475818
358428361998597, -1.7503498, 5.9318075, 6.9296145, -0.31784344, -0.19473553, 9.280663
358428371638181, -1.6486548, 7.2693954, 7.2263246, 0.34637964, 0.32645655, 10.37089
358428381277868, -1.7120646, 6.1842504, 7.062416, -0.1883918, -0.15374517, 9.539114
358428390917451, -1.7575282, 6.8781686, 7.389036, 0.024090052, 0.0494709, 10.246606
358428400557035, -1.6510476, 6.606583, 7.2418776, 0.018033147, -0.0635314, 9.940489
358428410196722, -1.7970098, 6.279963, 7.301698, -0.28205538, -0.20133829, 9.790909
358428419836306, -1.5206388, 7.003792, 7.2658057, 0.31589174, 0.06726599, 10.20064
358428429475889, -1.7120646, 5.9294147, 7.1066833, -0.34703445, -0.3159623, 9.400734
358428439115472, -1.430908, 7.304091, 7.26102, 0.53552175, 0.18338203, 10.382643
358428448755160, -1.6079768, 5.869594, 6.96431, -0.24516654, -0.31502295, 9.240129
358428458394743, -1.4703895, 7.2729845, 7.1880393, 0.5056064, 0.22911072, 10.315916
358428468034326, -1.5936198, 6.113662, 6.843473, -0.08477199, -0.11014938, 9.31291
358428477674014, -1.7012969, 6.8865438, 7.0636125, 0.15286875, 0.22717476, 10.006925
358428487313597, -1.6594225, 6.4869423, 6.9188466, 0.026899338, 0.07622337, 9.62798
358428496953181, -1.8927227, 6.3314085, 7.085148, -0.29000664, 0.014717579, 9.684221
358428506592868, -1.6737795, 6.9212394, 7.105487, 0.18418837, 0.19751596, 10.055851
358428516232451, -1.8915263, 5.8863435, 7.088737, -0.50616634, -0.23677397, 9.389614
358428525872035, -1.6522441, 7.2083783, 7.332805, 0.29420757, 0.19234562, 10.40851
358428535511618, -1.8592232, 5.7810597, 7.085148, -0.5290719, -0.3091507, 9.311347
358428545151306, -1.7120646, 7.196414, 7.342376, 0.24873018, 0.22090387, 10.417264
358428554790889, -1.7718852, 5.9820566, 7.042077, -0.339234, -0.21142149, 9.399769
358428564430472, -1.7515461, 6.930811, 7.3052874, 0.09552503, 0.1209116, 10.219957
358428574070160, -1.6761723, 6.498906, 7.1617184, -0.025614142, -0.06321907, 9.814829
358428583709743, -1.8388842, 6.4618177, 7.2933235, -0.21030414, -0.07449722, 9.913595
358428593349326, -1.6175481, 6.9523463, 7.268199, 0.22791815, 0.083408356, 10.184273
358428602989014, -1.8376877, 5.9916277, 7.223932, -0.42645824, -0.29221678, 9.549587
358428612628597, -1.5828521, 7.257431, 7.4033933, 0.37486458, 0.14472342, 10.479717
358428622268181, -1.7587247, 5.8097734, 7.123433, -0.42935395, -0.3679452, 9.341849
358428631907764, -1.5732809, 7.2825556, 7.3495545, 0.4158287, 0.19680929, 10.455389
358428641547451, -1.68694, 6.0311093, 7.0002027, -0.22287142, -0.20997667, 9.387711
358428651187035, -1.692922, 7.0372915, 7.251449, 0.21782267, 0.18615437, 10.241625
358428660826618, -1.6378871, 6.465407, 7.001399, 0.036223054, -0.002846241, 9.669666
358428670466306, -1.7946169, 6.5455666, 7.159325, -0.09409809, 0.027584553, 9.864655
358428680105889, -1.6139588, 6.940382, 7.1342006, 0.2614323, 0.15799952, 10.078555
358428689745472, -1.8197416, 6.0370917, 7.048059, -0.34760153, -0.16562366, 9.449064
358428699385056, -1.5672989, 7.239485, 7.183254, 0.4413277, 0.26084042, 10.305478
358428709024743, -1.7144574, 5.925825, 6.954739, -0.28665435, -0.22618055, 9.289232
358428718664326, -1.4117653, 7.4620175, 7.2502527, 0.6576786, 0.24483204, 10.476091
358428728303910, -1.5062819, 6.186643, 6.9726853, 0.010341883, -0.21404696, 9.440121
358428737943597, -1.5481563, 7.1772714, 7.1952176, 0.41174078, 0.19861174, 10.269966
358428747583181, -1.6845472, 6.3924255, 6.9702926, -0.03601086, -0.006966591, 9.60648
358428757222764, -1.9932213, 6.4295144, 7.170093, -0.32840812, 0.053361416, 9.829096
358428766862451, -1.9154545, 6.660422, 7.143772, -0.13739836, 0.14947176, 9.951002
358428776502035, -2.1511476, 5.855237, 7.103094, -0.71654844, -0.14408779, 9.42502
358428786141618, -1.8424734, 7.042077, 7.253842, 0.089824796, 0.2473731, 10.273001
358428795781201, -1.9190438, 5.757131, 7.103094, -0.5646851, -0.32542038, 9.319683
358428805420889, -1.5637096, 7.3136625, 7.350751, 0.43029165, 0.18979645, 10.47603
358428815060472, -1.5541383, 6.0598235, 6.9702926, -0.08224487, -0.26921558, 9.361759
358428824700056, -1.4715859, 7.2466636, 7.176075, 0.52161, 0.20901918, 10.288828
358428834339743, -1.5529419, 6.4869423, 6.963114, 0.13548434, -0.024172306, 9.641476
358428843979326, -1.8077775, 6.6771717, 7.1712894, -0.036705494, 0.0793314, 9.963556
358428853618910, -1.7455641, 6.7645097, 7.0576305, 0.09000647, 0.16660881, 9.928741
358428863258493, -2.0147567, 6.070591, 6.995417, -0.4611267, -0.034294605, 9.467491
358428872898181, -1.7443677, 7.125826, 7.1018977, 0.26150584, 0.33426905, 10.201817
358428882537764, -1.9082761, 5.797809, 6.916454, -0.4830401, -0.19776583, 9.209832
358428892177347, -1.6331015, 7.2873416, 7.1892357, 0.41432285, 0.30803823, 10.353307
358428901817035, -1.719243, 5.922236, 6.948757, -0.26535964, -0.2449727, 9.2835045
358428911456618, -1.5828521, 7.173682, 7.3698936, 0.35022056, 0.11221695, 10.399385
358428921096201, -1.5840486, 6.326623, 7.2119675, -0.032819867, -0.25523376, 9.720167
358428930735889, -1.7240287, 6.704689, 7.399804, -0.010391951, -0.09082174, 10.1328125
358428940375472, -1.6091732, 6.7573314, 7.173682, 0.17101657, 0.024908066, 9.984129
358428950015056, -1.8807586, 6.1627145, 7.1162543, -0.33237004, -0.12089491, 9.593348
358428959654639, -1.6773686, 7.1210403, 7.26102, 0.28167784, 0.20423508, 10.301657
358428969294326, -1.9369899, 5.844469, 7.18445, -0.55523777, -0.2936716, 9.44095
358428978933910, -1.7395821, 7.280163, 7.450053, 0.26969385, 0.20463848, 10.555359
358428988573493, -1.855634, 5.8767724, 7.0815587, -0.43135512, -0.25702095, 9.3742285
358428998213181, -1.6965113, 7.146165, 7.2849483, 0.28812933, 0.22243977, 10.338462
358429007852764, -1.6271194, 6.2321067, 6.99781, -0.04223728, -0.13338709, 9.509808
358429017492347, -1.7204394, 6.7573314, 7.2622166, 0.06772995, 0.03460312, 10.067544
358429027132035, -1.6319051, 6.7034926, 7.1653075, 0.13826251, 0.019637585, 9.945957
358429036771618, -1.8628124, 6.2117677, 7.146165, -0.29536092, -0.11648655, 9.644842
358429046411201, -1.625923, 7.064809, 7.1688967, 0.3184235, 0.21574354, 10.188243
358429056050785, -1.8640088, 5.861219, 6.95115, -0.41801083, -0.19248056, 9.27012
358429065690472, -1.6247265, 7.283752, 7.1210403, 0.45279312, 0.36574268, 10.298699
358429075330056, -1.835295, 5.849255, 6.820741, -0.3612424, -0.12323284, 9.16291
358429084969639, -1.7766708, 7.1389866, 7.216753, 0.23628032, 0.3036046, 10.298311
358429094609326, -1.8197416, 6.1244297, 7.04447, -0.27137697, -0.1195755, 9.505615
358429104248910, -1.8496519, 6.751349, 7.379465, -0.06356335, 0.03092575, 10.1712055
358429113888493, -1.6127625, 6.6711893, 7.253842, 0.12136614, -0.05972004, 9.985273
358429123528181, -1.7036897, 6.3792653, 7.2825556, -0.11466336, -0.18511438, 9.827808
358429133167764, -1.43689, 7.194021, 7.3268228, 0.50538564, 0.09139824, 10.355538
358429142807347, -1.7096717, 5.9916277, 7.2526455, -0.3054496, -0.37350702, 9.549379
358429152446931, -1.5409778, 7.332805, 7.4883385, 0.44461322, 0.12403774, 10.583326
358429162086618, -1.7706888, 5.8217373, 7.183254, -0.4318272, -0.3787899, 9.396655
358429171726201, -1.7096717, 7.1342006, 7.4344997, 0.2198267, 0.14992476, 10.441302
358429181365785, -1.7874385, 6.0346985, 7.115058, -0.31164634, -0.21461487, 9.491754
358429191005472, -1.8544376, 6.79442, 7.257431, -0.024263978, 0.14951801, 10.1118965
358429200645056, -1.7180467, 6.541977, 7.0061846, 0.031071067, 0.0961771, 9.737842
358429210284639, -1.8317057, 6.263213, 6.9930243, -0.20238149, 0.011490345, 9.562651
358429219924326, -1.5684953, 6.987042, 7.0097737, 0.376194, 0.24777508, 10.010643
358429229563910, -1.8305093, 5.9653068, 6.9858456, -0.35162973, -0.14532518, 9.35911
358429239203493, -1.605584, 7.292127, 7.314859, 0.41398752, 0.2411437, 10.441773
358429248843181, -1.7958134, 5.804988, 7.079166, -0.42718494, -0.31543922, 9.3142605
358429258482764, -1.6737795, 7.1976104, 7.34118, 0.30456185, 0.20896101, 10.409784
358429268122347, -1.7730815, 6.0550375, 7.058827, -0.2741344, -0.1750369, 9.461954
358429277761931, -1.8053846, 6.8195443, 7.37109, 0.002621293, 0.06535101, 10.2026615
358429287401618, -1.7228323, 6.474978, 7.2442703, -0.06815457, -0.089523315, 9.867132
358429297041201, -1.8783658, 6.361319, 7.268199, -0.2624427, -0.082136154, 9.835941
358429306680785, -1.558924, 6.9942207, 7.192825, 0.33746254, 0.1452632, 10.146482
358429316320472, -1.7240287, 6.007181, 7.1365933, -0.2807876, -0.27356768, 9.478175
358429325960056, -1.4404793, 7.3770723, 7.379465, 0.5783763, 0.16738176, 10.516186
358429335599639, -1.7108682, 5.916254, 7.115058, -0.31486535, -0.3149724, 9.399725
358429345239326, -1.6462619, 7.2346992, 7.3782687, 0.32819104, 0.19959927, 10.45669
358429354878910, -1.8101703, 5.9712887, 7.076773, -0.3640082, -0.21153021, 9.42531
358429364518493, -1.8400806, 6.8781686, 7.2466636, 0.02348888, 0.19391537, 10.157317
358429374158181, -1.7156538, 6.458228, 7.01097, -0.0155210495, 0.045672894, 9.685224
358429383797764, -1.8257236, 6.4343, 7.070791, -0.13365054, 0.047281742, 9.731878
358429393437347, -1.5062819, 6.9678993, 7.0432734, 0.40593743, 0.18968964, 10.011367
358429403077035, -1.6917256, 6.07418, 7.01097, -0.18427444, -0.18730974, 9.425618
358429412716618, -1.5481563, 7.2957163, 7.2418776, 0.47616458, 0.2674985, 10.381269
358429422356201, -1.8711873, 5.797809, 7.048059, -0.48964036, -0.26900673, 9.299408
358429431995889, -1.7156538, 7.1677003, 7.3363943, 0.26022923, 0.22307158, 10.393488
358429441635472, -1.7802601, 5.933004, 7.0672016, -0.34610355, -0.24849415, 9.387953
358429451275056, -1.7682959, 6.95115, 7.3232336, 0.104260445, 0.13867378, 10.249147
358429460914743, -1.7336, 6.428318, 7.088737, -0.06757891, -0.016884327, 9.724916
358429470554326, -1.8233309, 6.503692, 7.179664, -0.12679577, 0.016341686, 9.856661
358429480193910, -1.5816557, 6.926025, 7.1162543, 0.30108976, 0.16210222, 10.049658
358429489833597, -1.7635103, 6.1005015, 7.1138616, -0.26091123, -0.19730759, 9.530274
358429499473181, -1.5397813, 7.3028946, 7.348358, 0.46352613, 0.19127226, 10.461842
358429509112764, -1.7599211, 5.8875403, 7.1688967, -0.37716126, -0.34973383, 9.428095
358429518752347, -1.564906, 7.3052874, 7.4069824, 0.42574537, 0.17385674, 10.510379
358429528392035, -1.7024933, 6.0023956, 7.0265236, -0.23930275, -0.22163916, 9.391107
358429538031618, -1.68694, 7.051648, 7.233503, 0.24380863, 0.20614481, 10.236851
358429547671201, -1.6223338, 6.3972116, 6.9894347, 0.032857656, -0.03087616, 9.612827
358429557310889, -1.7599211, 6.5898337, 7.1389866, -0.026087523, 0.050973415, 9.873454
358429566950472, -1.6067804, 6.863812, 6.9942207, 0.280239, 0.20413351, 9.924343
358429576590160, -1.8855443, 6.0394845, 6.896115, -0.3442737, -0.03481579, 9.352397
358429586229743, -1.7371893, 7.0983086, 7.09113, 0.25852323, 0.3445711, 10.173613
358429595869326, -1.9740787, 5.669793, 7.0025954, -0.62785447, -0.2524314, 9.1990185
358429605508910, -1.7527425, 7.1581287, 7.3172517, 0.21476495, 0.24200535, 10.380194
358429615148597, -1.7826529, 5.885147, 7.058827, -0.37858975, -0.26450968, 9.350216
358429624788181, -1.5481563, 7.143772, 7.479964, 0.33464265, 0.018010616, 10.453125
358429634427868, -1.463211, 6.4642105, 7.3196445, 0.10172844, -0.2850032, 9.869784
358429644067451, -1.6462619, 6.754938, 7.52782, 0.041023493, -0.15401888, 10.246075
358429653707035, -1.5828521, 6.8410797, 7.359126, 0.18538737, -0.034190655, 10.169907
358429663346722, -1.8723837, 6.113662, 7.227521, -0.38860834, -0.17962313, 9.640356
358429672986306, -1.6713866, 7.1246295, 7.204789, 0.3094976, 0.26712036, 10.261371
358429682625889, -1.8915263, 5.8169518, 6.9523463, -0.47215605, -0.15913486, 9.246712
358429692265576, -1.6366907, 7.288538, 7.222735, 0.41207075, 0.31858158, 10.377771
358429701905160, -1.7455641, 5.930611, 6.9332037, -0.29467583, -0.17870712, 9.282763
358429711544743, -1.6378871, 7.1473613, 7.219146, 0.33399773, 0.24669409, 10.2815895
358429721184431, -1.5948163, 6.2811594, 6.987042, -0.0049768686, -0.10086346, 9.529164
358429730824014, -1.6821543, 6.6915283, 7.2502527, 0.053234696, 0.0015382767, 10.008472
358429740463597, -1.5720844, 6.759724, 7.172486, 0.19985437, 0.029044151, 9.978431
358429750103285, -1.8544376, 6.134001, 7.133004, -0.3383993, -0.13079119, 9.581911
358429759742868, -1.678565, 7.038488, 7.2011995, 0.24976754, 0.21771908, 10.203205
358429769382451, -1.9262222, 5.7631135, 7.042077, -0.5601289, -0.23369503, 9.281505
358429779022139, -1.7036897, 7.198807, 7.3196445, 0.28998923, 0.24763107, 10.399862
358429788661722, -1.8233309, 5.8193445, 7.04447, -0.43624532, -0.26650906, 9.303362
358429798301306, -1.6642082, 7.143772, 7.3028946, 0.28888988, 0.2069335, 10.34452
358429807940993, -1.6247265, 6.276374, 7.085148, -0.057775617, -0.14999247, 9.6024
358429817580576, -1.6965113, 6.8099732, 7.3495545, 0.0806123, 0.016402245, 10.161844
358429827220264, -1.5780666, 6.7704916, 7.2263246, 0.18667734, 0.012156963, 10.025698
358429836859847, -1.7934206, 6.3134627, 7.1892357, -0.21379244, -0.10581064, 9.731617
358429846499431, -1.5074782, 7.176075, 7.159325, 0.45445383, 0.25007153, 10.235008
358429856139118, -1.7240287, 5.9952173, 7.003792, -0.26302087, -0.20364428, 9.373228
358429865778701, -1.4859428, 7.4105716, 7.3136625, 0.5489806, 0.26393318, 10.499678
358429875418285, -1.7180467, 5.994021, 7.0372915, -0.27420557, -0.22587776, 9.3955965
358429885057972, -1.6414764, 7.1569324, 7.3340015, 0.28159344, 0.18485022, 10.372573
358429894697556, -1.7252251, 5.9904313, 7.1677003, -0.32393563, -0.30322218, 9.488979
358429904337139, -1.8951155, 6.664011, 7.4249287, -0.20154047, -0.0031676292, 10.153296
358429913976826, -1.747957, 6.546763, 7.2586274, -0.07924414, -0.037343025, 9.929523
358429923616410, -1.8711873, 6.1770716, 7.115058, -0.32043672, -0.08233786, 9.600634
358429933256097, -1.6247265, 6.9798636, 7.076773, 0.30002415, 0.25842714, 10.063904
358429942895681, -1.8424734, 5.8672013, 6.9738817, -0.40379345, -0.18623257, 9.287414
358429952535264, -1.6307086, 7.30768, 7.3136625, 0.39255774, 0.28793907, 10.455337
358429962174951, -1.7419748, 5.8731833, 7.109076, -0.37624228, -0.32264805, 9.371344
358429971814535, -1.5266209, 7.186843, 7.3746796, 0.38429463, 0.12653589, 10.402092
358429981454222, -1.5924234, 6.483353, 7.1545396, 0.039246082, -0.08545494, 9.785105
358429991093806, -1.6079768, 6.7178497, 7.155736, 0.14608932, 0.047704697, 9.944649
358430000733389, -1.672583, 6.5982084, 7.1617184, 0.030266523, 0.016320229, 9.88043
358430010373076, -1.7228323, 6.587441, 7.233503, -0.033527255, -0.0066690445, 9.934027
358430020012660, -1.7347964, 6.5288167, 7.216753, -0.066530704, -0.020827293, 9.884918
358430029652243, -1.713261, 6.5108705, 7.198807, -0.052101254, -0.03162861, 9.856259
358430039291931, -1.7252251, 6.538388, 7.237092, -0.057694912, -0.0341568, 9.90444
358430048931514, -1.7204394, 6.5635123, 7.243074, -0.04289329, -0.025539398, 9.924679
358430058571201, -1.692922, 6.597012, 7.1916285, 0.011208534, 0.010243416, 9.90484
358430068210785, -1.6689938, 6.6221366, 7.075577, 0.07594645, 0.08428717, 9.833063
358430077850368, -1.6127625, 6.593423, 7.105487, 0.09906101, 0.018750668, 9.826088
358430087490056, -1.6558332, 6.5898337, 7.2011995, 0.034581304, -0.020533085, 9.900675
358430097129639, -1.7359928, 6.580262, 7.2442703, -0.04940319, -0.00836134, 9.939339
358430106769326, -1.7754744, 6.526424, 7.263413, -0.114199996, -0.02812767, 9.924206
358430116408910, -1.7922242, 6.502496, 7.186843, -0.11877906, 0.016852379, 9.8555
358430126048493, -1.7850457, 6.5144596, 7.1246295, -0.08625734, 0.056669235, 9.8170395
358430135688181, -1.7611175, 6.5635123, 7.143772, -0.042813778, 0.056637287, 9.859497
358430145327764, -1.7371893, 6.558727, 7.207182, -0.039846063, -0.0010232925, 9.8983135
358430154967451, -1.7575282, 6.5276203, 7.2969127, -0.093741894, -0.065645695, 9.946384
358430164607035, -1.7946169, 6.5312095, 7.332805, -0.13050175, -0.06726456, 9.981274
358430174246618, -1.7635103, 6.5575304, 7.3196445, -0.08496368, -0.059888363, 9.983866
358430183886306, -1.7156538, 6.576673, 7.3112698, -0.0335536, -0.069637775, 9.982224
358430193525889, -1.7312071, 6.597012, 7.300502, -0.033090353, -0.045938015, 9.990585
358430203165576, -1.7359928, 6.6017976, 7.200003, -0.009782553, 0.020375252, 9.921539
358430212805160, -1.7324036, 6.59103, 7.066005, 0.022702813, 0.09776354, 9.816378
358430222444743, -1.6941184, 6.597012, 7.001399, 0.06937635, 0.114859104, 9.766893
358430232084431, -1.6546369, 6.6101727, 6.99781, 0.10937393, 0.103942394, 9.766207
358430241724014, -1.5900307, 6.6305118, 7.064809, 0.15384269, 0.035355568, 9.817256
358430251363701, -1.5828521, 6.6149583, 7.111469, 0.13835537, -0.008437157, 9.839556
358430261003285, -1.6307086, 6.597012, 7.1425757, 0.08115196, -0.013349056, 9.858469
358430270642868, -1.6618153, 6.5431733, 7.1138616, 0.037145615, -0.008508205, 9.8071575
358430280282556, -1.7347964, 6.4905314, 7.1066833, -0.04485047, 0.005056858, 9.779541
358430289922139, -1.8735801, 6.5001025, 7.1856465, -0.17214346, 0.032574654, 9.867344
358430299561826, -1.8628124, 6.4414787, 7.179664, -0.18756604, -0.0024456978, 9.822174
358430309201410, -1.82692, 6.4666033, 7.1162543, -0.124010205, 0.033778667, 9.786682
358430318840993, -1.7754744, 6.559923, 7.0731835, -0.024032593, 0.0862174, 9.808508
358430328480681, -1.7001005, 6.611369, 7.021738, 0.07273984, 0.10811615, 9.792262
358430338120264, -1.6510476, 6.626922, 7.031309, 0.11877823, 0.08474159, 9.801024
358430347759951, -1.6091732, 6.6628146, 7.1772714, 0.12132299, -0.006009102, 9.923759
358430357399535, -1.564906, 6.6735826, 7.381858, 0.11102271, -0.15465498, 10.071803
358430367039222, -1.570888, 6.6915283, 7.4476604, 0.0921514, -0.17936563, 10.132681
358430376678806, -1.6127625, 6.6795645, 7.422536, 0.056607127, -0.14180279, 10.11377
358430386318389, -1.6546369, 6.6281185, 7.368697, 0.00925827, -0.11029768, 10.047647
358430395958076, -1.6953149, 6.597012, 7.3495545, -0.037351012, -0.09136677, 10.020023
358430405597660, -1.6965113, 6.5898337, 7.2909307, -0.02666235, -0.05747366, 9.972851
358430415237347, -1.6845472, 6.6185474, 7.2299137, 0.010403395, -0.010206699, 9.945568
358430424876931, -1.6271194, 6.6305118, 7.1449685, 0.08588052, 0.020264149, 9.882004
358430434516618, -1.5816557, 6.643672, 7.1078796, 0.13235831, 0.025341988, 9.856155
358430444156201, -1.5541383, 6.6735826, 7.1677003, 0.14932537, -0.009370327, 9.914917
358430453795785, -1.5601203, 6.6855464, 7.210771, 0.13948989, -0.027235985, 9.955177
358430463435472, -1.570888, 6.6556363, 7.207182, 0.10338354, -0.03941059, 9.934606
358430473075056, -1.6570296, 6.6221366, 7.0133634, 0.063559294, 0.11056805, 9.786186
358430482714743, -1.6761723, 6.541977, 6.8422766, 0.040284276, 0.17858362, 9.611984
358430492354326, -1.678565, 6.471389, 6.8853474, -0.011291385, 0.1097455, 9.596474
358430501994014, -1.7001005, 6.483353, 6.946364, -0.041823626, 0.08790541, 9.65229
358430511633597, -1.6713866, 6.445068, 6.995417, -0.04845786, 0.019888401, 9.65741
358430521273181, -1.678565, 6.5108705, 7.0133634, -0.026232481, 0.05252266, 9.715597
358430530912868, -1.7228323, 6.5347986, 7.068398, -0.065627694, 0.054135323, 9.778894
358430540552451, -1.6893328, 6.4881387, 6.9655066, -0.03395605, 0.079630375, 9.667501
358430550192139, -1.7934206, 6.5575304, 7.066005, -0.112155795, 0.110096455, 9.804148
358430559831722, -1.8233309, 6.5694947, 7.1772714, -0.16134274, 0.06495142, 9.897764
358430569471410, -1.820938, 6.5718875, 7.3375907, -0.19932461, -0.030646801, 10.015243
358430579110993, -1.7706888, 6.5814586, 7.479964, -0.18732679, -0.13963318, 10.116631
358430588750681, -1.7359928, 6.613762, 7.475178, -0.14267969, -0.1352644, 10.128926
358430598390264, -1.7216359, 6.611369, 7.3459654, -0.09603608, -0.058492184, 10.031193
358430608029847, -1.713261, 6.5682983, 7.2287173, -0.078023314, -0.010938168, 9.915945
358430617669535, -1.727618, 6.5515485, 7.1677003, -0.08083749, 0.026309013, 9.862867
358430627309118, -1.713261, 6.567102, 7.2490563, -0.08097255, -0.024303436, 9.929942
358430636948806, -1.698904, 6.5886374, 7.3052874, -0.07114518, -0.054644108, 9.982765
358430646588389, -1.6438692, 6.6161547, 7.3136625, -0.010514975, -0.07320976, 9.997999
358430656228076, -1.6354942, 6.698707, 7.3172517, 0.039081216, -0.033189297, 10.054207
358430665867660, -1.5744773, 6.629315, 7.1952176, 0.0920409, -0.028879642, 9.9090185
358430675507347, -1.6510476, 6.5479593, 7.021738, 0.03466153, 0.07695198, 9.741632
358430685146931, -1.672583, 6.5407805, 7.0301127, 0.013613582, 0.07743645, 9.746571
358430694786618, -1.6546369, 6.518049, 7.1365933, -0.010814548, -0.012400627, 9.805788
358430704426201, -1.6307086, 6.599405, 7.237092, 0.019481778, -0.043704033, 9.928976
358430714065785, -1.550549, 6.6281185, 7.213164, 0.101600766, -0.053615093, 9.917293
358430723705472, -1.5302101, 6.6676, 7.1892357, 0.13653684, -0.024964333, 9.922916
358430733345056, -1.538585, 6.6939216, 7.1485577, 0.15042937, 0.020836353, 9.912348
358430742984743, -1.5720844, 6.678368, 7.1389866, 0.11753702, 0.036198616, 9.900609
358430752624326, -1.5720844, 6.6053867, 7.194021, 0.061177373, -0.03916931, 9.891979
358430762264014, -1.5924234, 6.5838513, 7.2562346, 0.015433669, -0.07959461, 9.926191
358430771903597, -1.6307086, 6.5575304, 7.2215385, -0.019284248, -0.052133083, 9.889791
358430781543285, -1.6103697, 6.5611196, 7.129415, 0.022585273, -0.0010566711, 9.821896
358430791182868, -1.6043876, 6.5898337, 7.0301127, 0.067252874, 0.07631445, 9.767914
358430800822556, -1.5493526, 6.649654, 7.09113, 0.12463641, 0.042056084, 9.843029
358430810462139, -1.5026926, 6.680761, 7.2119675, 0.1427468, -0.04049349, 9.943898
358430820101722, -1.5074782, 6.6831536, 7.2765737, 0.123054504, -0.07742882, 9.993219
358430829741410, -1.570888, 6.641279, 7.301698, 0.039788723, -0.08089113, 9.994046
358430839381232, -1.6331015, 6.6017976, 7.26102, -0.022557855, -0.04318142, 9.948406
358430849021024, -1.6761723, 6.541977, 7.192825, -0.06940949, -0.0104346275, 9.866045
358430858660607, -1.7120646, 6.506085, 7.1282187, -0.09768295, 0.029979229, 9.80109
358430868300294, -1.7024933, 6.526424, 7.1449685, -0.08198583, 0.024172783, 9.825271
358430877939878, -1.7419748, 6.5288167, 7.1772714, -0.12023747, 0.024531364, 9.856881
358430887579565, -1.7252251, 6.532406, 7.196414, -0.10814166, 0.0041828156, 9.870432
358430897219149, -1.7706888, 6.5539412, 7.152147, -0.12127626, 0.0681324, 9.860189
358430906858836, -1.7324036, 6.5958157, 7.1246295, -0.05926478, 0.08853626, 9.861795
358430916498419, -1.6677973, 6.629315, 7.1186476, 0.014109731, 0.07533312, 9.869074
358430926138003, -1.6582261, 6.6448684, 7.0731835, 0.04142642, 0.106402874, 9.84484
358430935777690, -1.6594225, 6.629315, 7.1018977, 0.020288706, 0.079769135, 9.855541
358430945417274, -1.6558332, 6.597012, 7.149754, -0.006158352, 0.02987194, 9.86815
