timestamp_acc,device_acc_x,device_acc_y,device_acc_z,earth_acc_x,earth_acc_y,earth_acc_z
358547689766729, 9.084352, -1.0253245, 4.1611185, 0.020371199, 0.0705955, 10.044215
358547699406312, 9.085547, -1.0408778, 4.113262, 0.048328876, 0.11047816, 10.026713
358547709045896, 9.093923, -1.012164, 4.115655, 0.017138243, 0.11189175, 10.0324335
358547718685479, 9.099904, -1.0025927, 4.1611185, -0.0033456087, 0.07687974, 10.055966
358547728325062, 9.072387, -0.97866446, 4.210171, -0.04018247, 0.019936085, 10.049353
358547737964646, 9.044869, -0.9762716, 4.213761, -0.04433304, -0.0012350082, 10.025796
358547747604229, 9.022138, -0.971486, 4.173083, -0.039295733, 0.02277422, 9.987759
358547757243812, 9.013762, -0.9726824, 4.15394, -0.033149123, 0.036901712, 9.9723015
358547766883396, 9.001799, -0.9834501, 4.1407795, -0.019677222, 0.042882204, 9.957077
358547776522979, 8.974281, -0.9834501, 4.1407795, -0.020486176, 0.031635523, 9.932248
358547786162562, 8.980264, -0.98584294, 4.2017965, -0.035187125, -0.024387598, 9.963448
358547795802146, 9.012567, -0.97866446, 4.2006, -0.04224062, -0.010000706, 9.991361
358547805441729, 9.019745, -0.9870393, 4.2245283, -0.040192485, -0.02954483, 10.008706
358547815081312, 8.997013, -0.99900347, 4.194618, -0.019740105, -0.016110897, 9.976895
358547824720896, 8.988638, -1.012164, 4.1491547, 0.004360199, 0.016933918, 9.951647
358547834360479, 8.979067, -1.0025927, 4.1168513, 0.002760291, 0.04666829, 9.928499
358547844000062, 8.977871, -1.0109676, 4.1276193, 0.008143902, 0.034816027, 9.932781
358547853639646, 8.983852, -1.038485, 4.1443686, 0.029829144, 0.015355825, 9.948001
358547863279229, 8.958728, -1.0516455, 4.1575294, 0.03870058, -0.0123384, 9.932179
358547872918812, 8.986245, -1.0683953, 4.1443686, 0.05911076, 0.0072562695, 9.953206
358547882558396, 9.0029955, -1.0576276, 4.162315, 0.045366526, 8.831024E-4, 9.974732
358547892197979, 9.017352, -1.0516455, 4.206582, 0.028446317, -0.030150652, 10.005608
358547901837562, 9.053245, -1.0229317, 4.210171, 0.0020202398, -0.011289835, 10.036585
358547911477146, 9.055637, -1.006182, 4.186243, -0.004973769, 0.01655078, 10.027029
358547921116729, 9.047262, -0.99302137, 4.17069, -0.0102136135, 0.03347087, 10.011617
358547930756312, 9.052048, -0.9810573, 4.1347976, -0.0056420565, 0.0789597, 9.999617
358547940395896, 9.059227, -1.0049855, 4.1443686, 0.0154156685, 0.06754756, 10.012522
358547950035479, 9.0436735, -1.026521, 4.1790648, 0.024806619, 0.025963783, 10.015242
358547959675062, 9.041281, -1.0289137, 4.2281175, 0.013480663, -0.01796031, 10.0339365
358547969314646, 9.0544405, -1.0408778, 4.281956, 0.0078344345, -0.063156605, 10.069629
358547978954229, 9.031709, -1.0348958, 4.3034916, -0.0052245855, -0.09056258, 10.057563
358547988593812, 9.014959, -1.0444671, 4.2460637, 0.01907587, -0.04646969, 10.019327
358547998233396, 9.029316, -1.0456635, 4.208975, 0.031390905, -0.0072205067, 10.016805
358548007872979, 9.005388, -1.0492527, 4.1718864, 0.044388294, 0.014006615, 9.980001
358548017512562, 9.040084, -1.0313065, 4.1838503, 0.024810672, 0.022292614, 10.014501
358548027152146, 9.066405, -1.0348958, 4.2592244, 0.00833714, -0.03890896, 10.07026
358548036791833, 9.059227, -1.0420742, 4.284349, 0.008720875, -0.06557584, 10.075059
358548046431417, 9.036494, -1.0253245, 4.2975097, -0.010778785, -0.08302474, 10.058384
358548056071000, 9.026923, -1.0145568, 4.2484565, -0.007995486, -0.031568527, 10.028109
358548065710583, 9.016156, -1.0432707, 4.211368, 0.030508518, -0.0063495636, 10.005706
358548075350167, 9.018549, -1.0336994, 4.182654, 0.028213024, 0.022114277, 9.9948015
358548084989750, 9.030513, -1.0408778, 4.1922255, 0.033328176, 0.017468214, 10.01034
358548094629333, 9.037691, -1.0504491, 4.2245283, 0.03515041, -0.019675493, 10.031368
358548104268917, 9.0233345, -1.0564312, 4.269992, 0.029895067, -0.067094326, 10.038131
358548113908500, 9.047262, -1.0456635, 4.26401, 0.019729257, -0.050101995, 10.0561075
358548123548083, 9.025727, -1.0480564, 4.2221355, 0.031981826, -0.023400784, 10.019334
358548133187667, 9.038888, -0.997807, 4.182654, -0.007217884, 0.03673792, 10.009512
358548142827250, 9.018549, -1.0001999, 4.1718864, -0.0013177395, 0.037495136, 9.986885
358548152466833, 9.016156, -1.0097711, 4.211368, 1.5807152E-4, -0.002305746, 10.0023155
358548162106417, 9.036494, -1.026521, 4.2352962, 0.010626912, -0.018158674, 10.032412
358548171746000, 9.012567, -1.0289137, 4.208975, 0.021193504, -0.009316921, 9.999998
358548181385583, 8.987442, -1.0348958, 4.1838503, 0.03345585, -0.0058128834, 9.967377
358548191025167, 8.967103, -1.0348958, 4.1718864, 0.0362792, -0.0041131973, 9.944005
358548200664750, 9.000603, -1.0001999, 4.2077785, -0.01110971, -0.01990199, 9.985797
358548210304333, 9.008977, -0.9906286, 4.2460637, -0.029884577, -0.04750061, 10.008443
358548219943917, 9.032906, -0.9822537, 4.281956, -0.04562211, -0.07294798, 10.0442
358548229583500, 9.064013, -1.0049855, 4.2664027, -0.01944232, -0.051225424, 10.068045
358548239223083, 9.06162, -1.0205388, 4.188636, 0.019878983, 0.013220787, 10.034866
358548248862667, 9.050852, -1.0348958, 4.0797625, 0.069506645, 0.10789323, 9.980827
358548258502250, 9.048459, -1.0013963, 4.054638, 0.0432325, 0.13572836, 9.964797
358548268141833, 9.071191, -0.971486, 4.0737805, 0.0078001022, 0.13056946, 9.990438
358548277781417, 9.06162, -0.94755775, 4.139583, -0.030816436, 0.07368493, 10.007028
358548287421000, 9.079565, -0.93559366, 4.17069, -0.050402164, 0.040390253, 10.035155
358548297060583, 9.128618, -0.9296116, 4.211368, -0.06566304, 0.026955843, 10.095861
358548306700167, 9.150154, -0.92602235, 4.273581, -0.08216816, -0.026500702, 10.140951
358548316339750, 9.15135, -0.91525465, 4.2652063, -0.082654, -0.025389194, 10.137525
358548325979333, 9.153743, -0.8925229, 4.2592244, -0.09815943, -0.010796785, 10.135031
358548335618917, 9.102298, -0.89371926, 4.219743, -0.087845504, 0.0015263557, 10.072193
358548345258500, 9.110672, -0.8961121, 4.145565, -0.058484852, 0.08042407, 10.049038
358548354898083, 9.067601, -0.90807617, 4.1347976, -0.04480374, 0.06857228, 10.006789
358548364537667, 9.026923, -0.9320044, 4.1168513, -0.018066406, 0.06341195, 9.964844
358548374177250, 9.053245, -0.96430755, 4.135994, 0.005924821, 0.04753375, 9.999764
358548383816833, 9.030513, -0.9954142, 4.194618, 0.020595193, -0.020805359, 10.006747
358548393456417, 9.02453, -1.0205388, 4.223332, 0.033076286, -0.059334278, 10.015766
358548403096000, 9.031709, -1.0133604, 4.2317066, 0.01678276, -0.067944765, 10.025024
358548412735583, 9.016156, -0.997807, 4.2364926, 3.244877E-4, -0.07510567, 10.011438
358548422375167, 8.992228, -1.0169497, 4.1982074, 0.025853515, -0.05700922, 9.975741
358548432014750, 8.963513, -1.026521, 4.130012, 0.052316666, -0.0100803375, 9.922323
358548441654333, 8.922835, -1.052842, 4.06062, 0.09416151, 0.03072691, 9.859223
358548451293917, 8.956335, -1.0552348, 4.037888, 0.10255349, 0.065069675, 9.880245
358548460933500, 8.956335, -1.0552348, 4.109673, 0.07853913, -0.0032467842, 9.9102335
358548470573083, 8.977871, -1.0480564, 4.176672, 0.054067373, -0.05415249, 9.956871
358548480212771, 8.99462, -1.0612168, 4.1778684, 0.06678629, -0.050743103, 9.973812
358548489852250, 8.985049, -1.0588241, 4.1467614, 0.072552204, -0.028738022, 9.951973
358548499491833, 9.018549, -1.0408778, 4.0881376, 0.07119542, 0.04203224, 9.956088
358548509131521, 9.031709, -1.0157533, 4.0594234, 0.05662483, 0.0789783, 9.953542
358548518771104, 9.0233345, -1.0073783, 4.0594234, 0.051271737, 0.07388973, 9.945161
358548528410583, 9.050852, -0.9942178, 4.098905, 0.030166388, 0.051344633, 9.985183
358548538050271, 9.066405, -0.9942178, 4.1228333, 0.024975061, 0.036048174, 10.009196
358548547689854, 9.075976, -1.0001999, 4.145565, 0.026441813, 0.018937826, 10.027881
358548557329333, 9.073584, -1.0001999, 4.119244, 0.03333044, 0.04069352, 10.014776
358548566968917, 9.049655, -0.9762716, 4.1515474, 0.0027749538, 0.009603262, 10.00423
358548576608604, 9.060423, -0.97866446, 4.1838503, -7.016659E-4, -0.010266304, 10.027641
358548586248187, 9.026923, -0.96430755, 4.188636, -0.015869379, -0.02559042, 9.997951
358548595887771, 9.018549, -0.9379865, 4.2077785, -0.043471873, -0.033499002, 9.995822
358548605527250, 9.041281, -0.94755775, 4.208975, -0.034210563, -0.02706337, 10.017795
358548615166833, 9.059227, -0.9499506, 4.2317066, -0.03554851, -0.037070513, 10.04374
358548624806417, 9.059227, -0.9738788, 4.2329035, -0.010861278, -0.040484905, 10.046579
358548634446000, 9.064013, -0.971486, 4.2053857, -0.006827116, -0.0122077465, 10.039184
358548644085583, 9.047262, -0.96789676, 4.1790648, -0.0039639473, 0.004428625, 10.012709
358548653725167, 9.019745, -0.971486, 4.1694937, 1.5211105E-4, 0.001544714, 9.9842005
358548663364750, 9.012567, -0.9559326, 4.1671004, -0.016860127, 0.0052866936, 9.975199
358548673004333, 9.018549, -0.9822537, 4.139583, 0.012637377, 0.026844978, 9.971676
358548682643917, 8.989835, -0.97507524, 4.119244, 0.008671641, 0.03424573, 9.93654
358548692283500, 9.019745, -0.9882358, 4.1371903, 0.015318513, 0.027899027, 9.972349
358548701923083, 9.035298, -0.96550393, 4.119244, -0.0031063557, 0.05454707, 9.976673
358548711562667, 9.031709, -0.971486, 4.130012, -9.660721E-4, 0.04185009, 9.978518
358548721202250, 9.05803, -0.9619147, 4.132405, -0.010950446, 0.052618742, 10.002353
358548730841833, 9.090333, -0.8865408, 4.188636, -0.09712362, 0.033173084, 10.047599
358548740481417, 9.15494, -0.9379865, 4.1371903, -0.029929876, 0.09509897, 10.089557
358548750121000, 9.060423, -0.73818576, 4.1718864, -0.23173207, 0.0776546, 9.999055
358548759760583, 9.001799, -1.416551, 4.078566, 0.4478817, -0.042603493, 9.97353
358548769400167, 9.1872425, -0.23808585, 4.0797625, -0.68462217, 0.36113858, 10.02534
358548779039750, 8.786445, -1.820938, 4.1958146, 0.7893801, -0.35784173, 9.86768
358548788679333, 9.287741, -0.040677983, 4.1036906, -0.86527896, 0.43870687, 10.107567
358548798318917, 8.760123, -1.8448663, 4.2125645, 0.7884625, -0.39155817, 9.854645
358548807958500, 9.267402, -0.26919255, 4.1575294, -0.6723524, 0.32445145, 10.133356
358548817598083, 8.879765, -1.416551, 4.2951164, 0.37973237, -0.29522634, 9.953568
358548827237667, 9.193225, -0.7812566, 4.1958146, -0.18712103, 0.10701823, 10.133318
358548836877250, 9.0436735, -0.82672024, 4.1790648, -0.13536584, 0.045150995, 9.995785
358548846516833, 9.029316, -1.3686945, 4.113262, 0.40208733, -0.052310944, 10.007817
358548856156417, 9.251849, -0.2117648, 4.1108694, -0.69749224, 0.35981107, 10.095784
358548865796000, 8.883354, -1.7826529, 4.156333, 0.78302443, -0.26264262, 9.934024
358548875435583, 9.335598, -0.0071784677, 4.121637, -0.90217865, 0.42119908, 10.15628
358548885075167, 8.812766, -1.7826529, 4.2628136, 0.75755715, -0.41212988, 9.91315
358548894714750, 9.335598, -0.15792629, 4.2185464, -0.7607325, 0.30904007, 10.21275
358548904354333, 8.898908, -1.4273187, 4.304688, 0.41670215, -0.30463028, 9.974553
358548913993917, 9.220742, -0.69152576, 4.1718864, -0.24127913, 0.144773, 10.140305
358548923633500, 9.055637, -0.8470592, 4.1718864, -0.09239268, 0.04289198, 10.005815
358548933273083, 9.05803, -1.3268201, 4.0941195, 0.39477563, -0.013475895, 10.020685
358548942912667, 9.238688, -0.30149564, 4.095316, -0.5892413, 0.32536006, 10.087755
358548952552146, 8.891729, -1.8125632, 4.213761, 0.8265054, -0.32669425, 9.96565
358548962191729, 9.326026, -0.051445685, 4.1790648, -0.84849095, 0.37462687, 10.17751
358548971831312, 8.797213, -1.8951155, 4.254439, 0.8946786, -0.42022967, 9.904829
358548981470896, 9.272188, -0.18185452, 4.206582, -0.7190908, 0.28611898, 10.153961
358548991110479, 8.82114, -1.5074782, 4.331009, 0.47953832, -0.37791157, 9.923199
358549000750062, 9.169296, -0.62093747, 4.2460637, -0.32315165, 0.09621596, 10.118149
358549010389646, 8.952746, -0.9343972, 4.2831526, -0.036797047, -0.12013984, 9.967667
358549020029229, 9.019745, -1.2729816, 4.26401, 0.29503882, -0.17313671, 10.051916
358549029668812, 9.116654, -0.37328035, 4.2687955, -0.5606046, 0.11648846, 10.05721
358549039308396, 8.809176, -1.7611175, 4.2460637, 0.7647023, -0.37931752, 9.899674
358549048947979, 9.225528, -0.07537391, 4.1467614, -0.81556976, 0.3676362, 10.075284
358549058587562, 8.711071, -1.8987048, 4.210171, 0.8953805, -0.4043944, 9.810615
358549068227146, 9.245867, -0.12562318, 4.121637, -0.7572663, 0.36296725, 10.088831
358549077866729, 8.770891, -1.5948163, 4.2855453, 0.5791837, -0.35791135, 9.867843
358549087506312, 9.157332, -0.5910272, 4.211368, -0.34511203, 0.12554812, 10.089937
358549097145896, 8.939586, -1.0253245, 4.121637, 0.08013439, -0.002794981, 9.896916
358549106785375, 9.016156, -1.2454642, 4.046263, 0.31987596, 0.03950095, 9.955434
358549116424958, 9.099904, -0.43908295, 4.1072803, -0.47174448, 0.24597359, 9.979366
358549126064542, 8.855837, -1.7228323, 4.17069, 0.73303664, -0.2825861, 9.908153
358549135704125, 9.260223, -0.040677983, 4.1575294, -0.85203254, 0.38153338, 10.107766
358549145343708, 8.79482, -1.8652053, 4.2053857, 0.8394098, -0.38407278, 9.882359
358549154983292, 9.314062, -0.06819545, 4.052245, -0.77394885, 0.5111823, 10.115176
358549164622875, 8.807981, -1.6283158, 4.1443686, 0.6402147, -0.24287581, 9.845755
358549174262458, 9.265009, -0.52163535, 4.0438704, -0.35253334, 0.35134506, 10.110275
358549183902042, 8.988638, -1.0648061, 4.1575294, 0.10911131, -0.017696142, 9.960034
358549193541625, 9.097511, -1.1497513, 4.174279, 0.19357347, -0.018208504, 10.073403
358549203181208, 9.150154, -0.47258246, 4.254439, -0.4796276, 0.1254077, 10.089754
358549212820792, 8.915657, -1.6797615, 4.2592244, 0.6634437, -0.317096, 9.99554
358549222460375, 9.263813, -0.08015956, 4.1635113, -0.81444156, 0.3694272, 10.117296
358549232099854, 8.790034, -1.8843478, 4.2125645, 0.87560284, -0.3858745, 9.881578
358549241739437, 9.29492, -0.058624156, 4.2257247, -0.8560443, 0.3197255, 10.169596
358549251379021, 8.790034, -1.6606189, 4.395615, 0.61512196, -0.46594834, 9.937218
358549261018604, 9.239884, -0.44027936, 4.3058844, -0.5144883, 0.12850046, 10.189638
358549270658187, 8.924032, -1.1030912, 4.345366, 0.104341626, -0.20132327, 9.984285
358549280297771, 9.093923, -1.0600204, 4.2963133, 0.08118403, -0.06883454, 10.112866
358549289937354, 9.114262, -0.51086766, 4.2927237, -0.44875276, 0.08823395, 10.077156
358549299576937, 8.897711, -1.6331015, 4.308277, 0.6271635, -0.29330754, 9.995908
358549309216521, 9.256635, -0.124426775, 4.258028, -0.8107455, 0.27599525, 10.153723
358549318856104, 8.792427, -1.902294, 4.284349, 0.86970365, -0.40833235, 9.9175625
358549328495583, 9.2997055, -0.07298109, 4.1958146, -0.84929657, 0.3861792, 10.159934
358549338135167, 8.801998, -1.7431713, 4.2795634, 0.7066027, -0.3620355, 9.909498
358549347774750, 9.254242, -0.4354937, 4.2245283, -0.5100479, 0.25194407, 10.166301
358549357414333, 8.9108715, -1.2059826, 4.3202415, 0.17960823, -0.19224238, 9.972628
358549367053917, 9.086744, -1.0301101, 4.21735, 0.051446915, 0.031746864, 10.0703745
358549376693500, 9.078369, -0.5814559, 4.194618, -0.36377084, 0.19539881, 10.008956
358549386333083, 8.839087, -1.591227, 4.240082, 0.5740987, -0.21677995, 9.912779
358549395972667, 9.1669035, -0.08853444, 4.2424746, -0.8524459, 0.33905172, 10.0596695
358549405612250, 8.738588, -1.8735801, 4.2364926, 0.8418071, -0.3007598, 9.849975
358549415251729, 9.230313, -0.05383851, 4.1407795, -0.88910437, 0.44630218, 10.067669
358549424891312, 8.742178, -1.7563318, 4.269992, 0.7152201, -0.28513575, 9.856488
358549434530896, 9.194421, -0.4127619, 4.24726, -0.5893, 0.23927999, 10.116443
358549444170479, 8.861818, -1.3375878, 4.2915273, 0.28305197, -0.16722178, 9.931269
358549453810062, 9.086744, -1.0588241, 4.1814575, 0.04068935, 0.09075022, 10.058068
358549463449646, 9.047262, -0.7609176, 4.1838503, -0.24793679, 0.14059615, 9.9927635
358549473089229, 8.913264, -1.6474584, 4.176672, 0.606701, -0.12149334, 9.961032
358549482728812, 9.189635, -0.26799613, 4.1288157, -0.70213115, 0.38392067, 10.046291
358549492368292, 8.742178, -1.9824536, 4.159922, 0.92403746, -0.2885666, 9.834817
358549502007875, 9.24826, -0.11964113, 4.0366917, -0.8056619, 0.5432944, 10.044663
358549511647458, 8.688339, -1.8592232, 4.1479583, 0.8120434, -0.25534797, 9.768567
358549521287042, 9.1681, -0.38524446, 4.1443686, -0.5862757, 0.3486979, 10.045545
358549530926625, 8.79482, -1.4033905, 4.2352962, 0.3485855, -0.16964388, 9.854228
358549540566208, 9.064013, -0.9499506, 4.1814575, -0.065722585, 0.111587286, 10.026292
358549550205792, 8.956335, -0.80877405, 4.2364926, -0.2179085, 0.05655527, 9.9381695
358549559845375, 8.9108715, -1.5876378, 4.2975097, 0.50855935, -0.22933793, 10.004078
358549569484854, 9.150154, -0.3278167, 4.3764725, -0.71243167, 0.13901854, 10.122225
358549579124437, 8.797213, -1.9657038, 4.371687, 0.8588791, -0.42753696, 9.972269
358549588764021, 9.267402, -0.14955142, 4.1790648, -0.81131864, 0.42728925, 10.1257515
358549598403604, 8.724232, -1.9800607, 4.2161536, 0.9201127, -0.32026148, 9.84173
358549608043187, 9.192028, -0.41874397, 4.132405, -0.5488292, 0.35937095, 10.065542
358549617682771, 8.805588, -1.544567, 4.1778684, 0.5098996, -0.14194107, 9.853858
358549627322250, 9.133404, -0.99661064, 4.15394, -0.0047695637, 0.16020346, 10.081756
358549636961833, 9.0341015, -1.0025927, 4.35733, -0.05982876, -0.06511402, 10.0796175
358549646601417, 8.9826565, -1.6271194, 4.412365, 0.5190656, -0.3075378, 10.121295
358549656241000, 9.220742, -0.42711884, 4.4231324, -0.6264195, 0.11431384, 10.215828
358549665880583, 8.859426, -1.995614, 4.371687, 0.8878293, -0.405617, 10.031488
358549675520167, 9.292527, -0.2009971, 4.223332, -0.77264255, 0.39685774, 10.172193
358549685159750, 8.733803, -2.0135603, 4.29392, 0.92354274, -0.4042039, 9.887122
358549694799333, 9.281759, -0.317049, 4.2927237, -0.67336047, 0.32180595, 10.204023
358549704438812, 8.790034, -1.5672989, 4.49731, 0.43063116, -0.44176888, 9.978292
358549714078396, 9.120243, -0.80757767, 4.4817567, -0.27805865, -0.068386555, 10.189954
358549723717979, 8.957532, -0.951147, 4.4805603, -0.14711213, -0.18462014, 10.057919
358549733357562, 8.943174, -1.4703895, 4.392026, 0.37195885, -0.24940228, 10.061398
358549742997146, 9.110672, -0.44865423, 4.3704906, -0.5962292, 0.11644888, 10.096423
358549752636729, 8.768498, -1.9680966, 4.3274198, 0.85969007, -0.3952663, 9.929311
358549762276208, 9.19801, -0.17228323, 4.1611185, -0.8136056, 0.39931774, 10.05617
358549771915792, 8.69791, -2.024328, 4.176672, 0.950526, -0.2956059, 9.808428
358549781555375, 9.243474, -0.3182454, 4.0570307, -0.6651106, 0.4533801, 10.067506
358549791194958, 8.7984085, -1.6438692, 4.191029, 0.57498753, -0.18074203, 9.864874
358549800834542, 9.158528, -0.75972116, 4.1515474, -0.25551867, 0.23261285, 10.078281
358549810474125, 8.973084, -1.0408778, 4.2017965, -0.006700039, 0.022109032, 9.962644
358549820113708, 9.020942, -1.375873, 4.156333, 0.32945728, -0.019410133, 10.021806
358549829753187, 9.144172, -0.4211368, 4.199404, -0.5886018, 0.27316284, 10.050232
358549839392771, 8.829515, -1.8233309, 4.237689, 0.7258378, -0.30585122, 9.930886
358549849032354, 9.245867, -0.101694964, 4.174279, -0.8742869, 0.43783045, 10.097769
358549858671937, 8.739784, -1.9202402, 4.274778, 0.7904943, -0.42775035, 9.876083
358549868311521, 9.250652, -0.13280165, 4.2053857, -0.8550737, 0.40426397, 10.118443
358549877951104, 8.770891, -1.5613167, 4.358526, 0.43372202, -0.35465956, 9.901974
358549887590583, 9.127422, -0.59700924, 4.2951164, -0.45186663, 0.14468575, 10.094016
358549897230167, 8.865408, -1.0097711, 4.2927237, -0.06844187, -0.088064194, 9.901017
358549906869750, 8.963513, -1.2394822, 4.2041893, 0.17922783, -0.033126116, 9.976116
358549916509333, 9.0233345, -0.45822555, 4.2364926, -0.56960195, 0.19918513, 9.960636
358549926148917, 8.76132, -1.8137596, 4.2221355, 0.70475197, -0.3115127, 9.863222
358549935788500, 9.172886, -0.17108682, 4.186243, -0.8340838, 0.37728143, 10.042793
358549945427979, 8.672786, -1.9944177, 4.2855453, 0.8417486, -0.46129584, 9.830537
358549955067562, 9.227921, -0.21535404, 4.21735, -0.80310863, 0.38132453, 10.10923
358549964707146, 8.742178, -1.7264216, 4.3441696, 0.5728948, -0.39135504, 9.889219
358549974346729, 9.160921, -0.6376872, 4.260421, -0.4207663, 0.18176174, 10.112874
358549983986312, 8.8905325, -1.1593226, 4.2664027, 0.065793395, -0.09679961, 9.928448
358549993625896, 8.969496, -1.2466606, 4.21735, 0.167683, -0.045196533, 9.988088
358550003265375, 9.026923, -0.57427746, 4.254439, -0.47717857, 0.14403987, 9.983334
358550012904958, 8.766106, -1.774278, 4.2915273, 0.654039, -0.32955813, 9.893105
358550022544542, 9.153743, -0.15553348, 4.2652063, -0.8647533, 0.3337226, 10.057238
358550032184125, 8.663215, -1.9932213, 4.342973, 0.8446671, -0.46975875, 9.846395
358550041823708, 9.180064, -0.18185452, 4.274778, -0.84994215, 0.32030034, 10.087388
358550051463292, 8.68475, -1.7682959, 4.4255257, 0.61250675, -0.45022893, 9.877204
358550061102771, 9.138189, -0.5838487, 4.406383, -0.50844073, 0.08212137, 10.1488085
358550070742354, 8.849854, -1.2394822, 4.4111686, 0.117203, -0.22091532, 9.962535
358550080381937, 9.029316, -1.1880364, 4.258028, 0.11272168, 0.0036325455, 10.052765
358550090021521, 9.0951185, -0.60777694, 4.269992, -0.43850315, 0.18950152, 10.054611
358550099661104, 8.935996, -1.7455641, 4.316652, 0.6286453, -0.23909545, 10.053862
358550109300687, 9.3308115, -0.23449662, 4.338187, -0.80616003, 0.3349626, 10.255574
358550118940167, 8.877372, -2.0470598, 4.3872404, 0.88709855, -0.4284606, 10.063576
358550128579750, 9.412168, -0.20458634, 4.2352962, -0.7983609, 0.4858346, 10.280811
358550138219333, 8.868998, -1.8939191, 4.322634, 0.7514353, -0.3399167, 10.012543
358550147858917, 9.293723, -0.587438, 4.174279, -0.4245646, 0.38388324, 10.188983
358550157498500, 8.952746, -1.3770695, 4.1982074, 0.2990986, -0.024276495, 9.979122
358550167138083, 9.140582, -1.2047862, 4.152744, 0.14637542, 0.15194583, 10.109528
358550176777562, 9.098708, -0.79800636, 4.1922255, -0.26118475, 0.20080781, 10.044376
358550186417146, 8.913264, -1.8257236, 4.249653, 0.6978805, -0.21393013, 10.015304
358550196056729, 9.245867, -0.3290131, 4.273581, -0.7347438, 0.31339598, 10.159711
358550205696312, 8.748159, -2.0781665, 4.273581, 0.9176669, -0.3893807, 9.905496
358550215335896, 9.245867, -0.21415763, 4.162315, -0.8159599, 0.44224882, 10.099278
358550224975479, 8.677571, -1.942972, 4.24726, 0.78556085, -0.36718512, 9.816448
358550234614958, 9.114262, -0.5180461, 4.1587257, -0.5296767, 0.31600952, 10.012628
358550244254542, 8.733803, -1.4488541, 4.1850467, 0.33149827, -0.15168, 9.785715
358550253894125, 8.975478, -1.1270195, 4.065406, 0.071668506, 0.14962149, 9.916117
358550263533708, 8.9348, -0.8542377, 4.132405, -0.2081492, 0.15698671, 9.87771
358550273173292, 8.801998, -1.7288144, 4.1443686, 0.61232793, -0.16863108, 9.860851
358550282812875, 9.075976, -0.3481557, 4.1431723, -0.6919549, 0.34868836, 9.952892
358550292452354, 8.712267, -2.0685952, 4.2257247, 0.9013126, -0.39004707, 9.852663
358550302091937, 9.245867, -0.20937198, 4.1850467, -0.8418642, 0.40219903, 10.108116
358550311731521, 8.740981, -1.9764715, 4.319045, 0.7979748, -0.41366053, 9.907445
358550321371104, 9.251849, -0.44985065, 4.267599, -0.62895, 0.26954603, 10.17562
358550331010687, 8.879765, -1.4931214, 4.3525443, 0.3423252, -0.24117112, 9.992444
358550340650271, 9.145369, -0.9762716, 4.28076, -0.11746228, 0.081273556, 10.143737
358550350289750, 9.0747795, -0.8063812, 4.2891345, -0.27411056, 0.09582877, 10.065496
358550359929333, 8.989835, -1.5876378, 4.2951164, 0.47385585, -0.15514565, 10.076563
358550369568917, 9.242277, -0.33140594, 4.377669, -0.7521371, 0.20425415, 10.202258
358550379208500, 8.857033, -2.0075781, 4.4518466, 0.8197572, -0.47182512, 10.06984
358550388848083, 9.347562, -0.18185452, 4.395615, -0.90083444, 0.28722477, 10.287731
358550398487667, 8.780462, -2.0063818, 4.5128636, 0.7920116, -0.5621767, 10.027198
358550408127146, 9.272188, -0.4019942, 4.375276, -0.6908007, 0.21568298, 10.234961
358550417766729, 8.841479, -1.5326029, 4.3800616, 0.37987852, -0.2773075, 9.974185
358550427406312, 9.105886, -0.9379865, 4.2352962, -0.14007854, 0.12507105, 10.084616
358550437045896, 8.968299, -0.9391829, 4.2915273, -0.16196299, 0.012748957, 9.985152
358550446685479, 8.922835, -1.5672989, 4.2891345, 0.4288385, -0.18448138, 10.012601
358550456325062, 9.115458, -0.4354937, 4.284349, -0.6549397, 0.20618987, 10.058101
358550465964542, 8.724232, -2.0374885, 4.3154554, 0.8567226, -0.43085337, 9.897835
358550475604125, 9.178867, -0.22851457, 4.188636, -0.8308834, 0.35796356, 10.051369
358550485243708, 8.688339, -2.0434706, 4.319045, 0.849561, -0.46547794, 9.868068
358550494883292, 9.199206, -0.37567315, 4.2568316, -0.71005785, 0.2806766, 10.114553
358550504522875, 8.715857, -1.6139588, 4.2951164, 0.4511583, -0.30392194, 9.834792
358550514162458, 9.02812, -0.86141616, 4.063013, -0.1787951, 0.25018215, 9.932901
358550523801937, 8.867801, -1.0001999, 4.054638, -0.05381906, 0.14370799, 9.800756
358550533441521, 8.889337, -1.4979069, 4.092923, 0.40891874, -0.02412033, 9.891829
358550543081104, 9.081959, -0.47258246, 4.1491547, -0.5867169, 0.29705143, 9.974383
358550552720687, 8.784052, -1.9992033, 4.2556353, 0.8274199, -0.35663915, 9.922451
358550562360271, 9.251849, -0.23808585, 4.2006, -0.82436967, 0.38856053, 10.1226425
358550571999854, 8.730213, -2.1176481, 4.2628136, 0.93055344, -0.42376208, 9.89076
358550581639437, 9.241081, -0.38883367, 4.165904, -0.67680943, 0.36621928, 10.114906
358550591278917, 8.774481, -1.7383857, 4.284349, 0.5613965, -0.31876826, 9.897089
358550600918500, 9.109476, -0.8530413, 4.1575294, -0.23883832, 0.18486953, 10.045103
358550610558083, 8.868998, -1.1306087, 4.1958146, 0.016430974, -0.01880622, 9.876317
358550620197667, 8.883354, -1.5098711, 4.121637, 0.4013468, -0.049371243, 9.900408
358550629837250, 9.016156, -0.55034924, 4.2017965, -0.5325179, 0.21062112, 9.9459095
358550639476833, 8.720642, -2.009971, 4.321438, 0.81614494, -0.4229617, 9.895426
358550649116417, 9.171689, -0.2656033, 4.3070807, -0.83344907, 0.27767062, 10.098003
358550658755896, 8.672786, -2.1379871, 4.4315076, 0.89945984, -0.5749569, 9.913974
358550668395479, 9.232706, -0.34217364, 4.2951164, -0.76062363, 0.2902634, 10.15604
358550678035062, 8.775677, -1.7766708, 4.377669, 0.56849, -0.38817453, 9.942795
358550687674646, 9.1669035, -0.7465607, 4.24726, -0.35586, 0.1933341, 10.122485
358550697314229, 8.919247, -1.119841, 4.29392, -0.016861081, -0.06090212, 9.9619665
358550706953812, 9.036494, -1.3052847, 4.2161536, 0.19048536, 0.0040404797, 10.054932
358550716593396, 9.183653, -0.50368917, 4.29392, -0.58259165, 0.23207688, 10.131025
358550726232875, 8.933603, -1.8329022, 4.3932223, 0.64683664, -0.34215856, 10.096223
358550735872458, 9.359526, -0.14955142, 4.3070807, -0.9238012, 0.3736801, 10.255779
358550745512042, 8.855837, -1.9980069, 4.3130627, 0.8261825, -0.36830807, 10.010103
358550755151625, 9.396614, -0.19262223, 4.193422, -0.8301279, 0.513319, 10.245275
358550764791208, 8.895318, -1.7443677, 4.2867417, 0.59525585, -0.24740982, 10.006504
358550774430792, 9.296116, -0.6041877, 4.188636, -0.4505341, 0.33664966, 10.198586
358550784070375, 9.0233345, -1.1796615, 4.278367, 0.062323928, -0.023861647, 10.055453
358550793709854, 9.119047, -1.314856, 4.2568316, 0.1995815, -0.0019590855, 10.147247
358550803349437, 9.170493, -0.66041905, 4.2711883, -0.43049407, 0.17923713, 10.127177
358550812989021, 8.882157, -1.8891335, 4.2592244, 0.7378422, -0.2735994, 9.999163
358550822628604, 9.220742, -0.27158538, 4.2424746, -0.789697, 0.35106516, 10.116698
358550832268187, 8.713464, -2.105684, 4.331009, 0.9107107, -0.45368338, 9.903574
358550841907852, 9.189635, -0.27038896, 4.258028, -0.8113153, 0.3190453, 10.094219
358550851547801, 8.635697, -1.869991, 4.365705, 0.662241, -0.45110655, 9.822905
358550861187384, 9.06162, -0.6664011, 4.274778, -0.441562, 0.16702509, 10.030348
358550870826864, 8.711071, -1.3914263, 4.3238306, 0.21645272, -0.2439177, 9.818756
358550880466447, 8.863015, -1.329213, 4.2221355, 0.19015014, -0.07521272, 9.904769
358550890106030, 8.91805, -0.75254273, 4.2364926, -0.35963202, 0.10713434, 9.894694
358550899745614, 8.732606, -1.8735801, 4.345366, 0.66342795, -0.39485598, 9.902265
358550909385197, 9.135797, -0.3074777, 4.3465624, -0.81370795, 0.22868562, 10.086401
358550919024780, 8.695518, -2.0949163, 4.412365, 0.8561933, -0.5399287, 9.92195
358550928664364, 9.266206, -0.20817557, 4.325027, -0.8946151, 0.33011055, 10.183441
358550938303947, 8.76491, -1.8783658, 4.4039903, 0.6758276, -0.4160149, 9.955764
358550947943426, 9.215957, -0.52163535, 4.2687955, -0.5719819, 0.2699778, 10.150297
358550957583009, 8.883354, -1.3184453, 4.2484565, 0.18827927, -0.07920265, 9.932773
358550967222593, 9.086744, -1.1270195, 4.1180477, 0.05559659, 0.17658329, 10.038085
358550976862176, 9.073584, -0.6939186, 4.1838503, -0.38242304, 0.22860217, 10.005876
358550986501759, 8.908479, -1.698904, 4.2556353, 0.5511956, -0.19394517, 10.000814
358550996141343, 9.26142, -0.23330021, 4.3130627, -0.85787964, 0.31552815, 10.178178
358551005780926, 8.834301, -2.0291135, 4.401597, 0.8249371, -0.4316671, 10.033414
358551015420509, 9.3200445, -0.16749759, 4.2951164, -0.9133502, 0.37911153, 10.215742
358551025060093, 8.770891, -1.896312, 4.3238306, 0.72021055, -0.35767174, 9.928414
358551034699572, 9.221938, -0.47258246, 4.202993, -0.59216636, 0.345999, 10.122364
358551044339155, 8.82473, -1.4129617, 4.253242, 0.2826023, -0.12846637, 9.892724
358551053978739, 9.032906, -1.1114662, 4.1958146, 0.017102718, 0.09681392, 10.021176
358551063618322, 9.019745, -0.81236327, 4.298706, -0.30094045, 0.083474636, 10.019834
358551073257905, 8.861818, -1.6737795, 4.375276, 0.49657822, -0.28436422, 10.007445
358551082897489, 9.158528, -0.33140594, 4.3944187, -0.7795755, 0.21079612, 10.131497
358551092537072, 8.754142, -2.0398812, 4.465007, 0.8149228, -0.5185938, 9.9899645
358551102176655, 9.245867, -0.18903299, 4.3070807, -0.88645476, 0.346555, 10.157107
358551111816239, 8.713464, -1.9214365, 4.3704906, 0.74484813, -0.4029975, 9.899513
358551121455822, 9.177671, -0.41994038, 4.2891345, -0.6582052, 0.2690258, 10.114202
358551131095301, 8.773284, -1.4620147, 4.436293, 0.29294312, -0.30497503, 9.930249
358551140734884, 9.055637, -1.0085747, 4.322634, -0.103330016, 0.035431385, 10.0843935
358551150374468, 8.957532, -0.8673982, 4.3465624, -0.2456975, 0.012998581, 9.991087
358551160014051, 8.906086, -1.6534405, 4.3238306, 0.51351976, -0.19569325, 10.022263
358551169653634, 9.175279, -0.38524446, 4.3405805, -0.6991519, 0.24618888, 10.130418
358551179293218, 8.766106, -2.0458634, 4.4135613, 0.84736824, -0.4713483, 9.978451
358551188932801, 9.29492, -0.2117648, 4.287938, -0.84716636, 0.39459085, 10.195756
358551198572384, 8.766106, -2.0147567, 4.392026, 0.8180386, -0.45087004, 9.966006
358551208211968, 9.303294, -0.41874397, 4.284349, -0.65953773, 0.32071686, 10.224697
358551217851551, 8.847462, -1.5804594, 4.368098, 0.41766012, -0.26775455, 9.980459
358551227491134, 9.139386, -0.9631111, 4.1922255, -0.11178768, 0.18548918, 10.098703
358551237130718, 9.012567, -0.9882358, 4.2017965, -0.09161425, 0.115804434, 9.991811
358551246770197, 8.958728, -1.6175481, 4.220939, 0.5047741, -0.09381819, 10.021378
358551256409780, 9.190832, -0.41874397, 4.304688, -0.667634, 0.24779034, 10.132619
358551266049364, 8.7673025, -2.0111675, 4.4051867, 0.8250798, -0.43926048, 9.972078
358551275688947, 9.227921, -0.20937198, 4.2927237, -0.86652184, 0.32838392, 10.137413
358551285328530, 8.679964, -2.050649, 4.362116, 0.86625504, -0.46253133, 9.879812
358551294968114, 9.171689, -0.38644084, 4.2448673, -0.6805652, 0.3113444, 10.086031
358551304607697, 8.737391, -1.6845472, 4.3334017, 0.5261189, -0.30570316, 9.8786545
358551314247280, 9.044869, -0.951147, 4.253242, -0.13812888, 0.10998416, 10.038588
358551323886864, 8.900104, -1.079163, 4.348955, -0.047545075, -0.07018232, 9.96407
358551333526447, 8.896515, -1.5672989, 4.359723, 0.41822934, -0.20969963, 10.019614
358551343166030, 9.062816, -0.52283174, 4.412365, -0.5940422, 0.09314394, 10.075483
358551352805614, 8.739784, -2.0207388, 4.4638104, 0.8094642, -0.5008161, 9.974306
358551362445197, 9.164511, -0.21655045, 4.308277, -0.84865755, 0.33471036, 10.087822
358551372084780, 8.628518, -2.0195422, 4.345366, 0.8545519, -0.42097235, 9.823677
358551381724364, 9.15135, -0.3385844, 4.278367, -0.72469664, 0.3144641, 10.076815
358551391363947, 8.748159, -1.6761723, 4.341777, 0.5230932, -0.2842753, 9.891232
358551401003426, 9.105886, -0.81954175, 4.2388854, -0.25243878, 0.20257711, 10.07235
358551410643009, 8.952746, -1.119841, 4.29392, 0.00857234, -0.004017353, 9.9921665
358551420282593, 9.016156, -1.4967105, 4.261617, 0.37454784, -0.07281327, 10.077055
358551429922176, 9.171689, -0.5192425, 4.342973, -0.57841575, 0.20277953, 10.142743
358551439561759, 8.859426, -1.9669002, 4.4004006, 0.770311, -0.39585567, 10.048461
358551449201343, 9.292527, -0.20578274, 4.240082, -0.8374567, 0.44888115, 10.171965
358551458840926, 8.750552, -2.0374885, 4.298706, 0.865229, -0.37177992, 9.91542
358551468480509, 9.265009, -0.25603202, 4.1671004, -0.77355367, 0.48232698, 10.121246
358551478120093, 8.76491, -1.7012969, 4.2963133, 0.5499402, -0.251657, 9.889925
358551487759676, 9.126225, -0.73818576, 4.1778684, -0.32164204, 0.2785442, 10.05517
358551497399259, 8.912068, -1.1353943, 4.23051, 0.02855885, 0.020627022, 9.930259
358551507038843, 8.99462, -1.3579268, 4.23051, 0.24071717, -0.008313417, 10.029276
358551516678426, 9.099904, -0.552742, 4.348955, -0.5589175, 0.16734362, 10.083987
358551526318009, 8.822337, -1.902294, 4.3968115, 0.7018434, -0.37913942, 10.007395
358551535957593, 9.223135, -0.2105684, 4.2999024, -0.86568254, 0.36894202, 10.134802
358551545597176, 8.658429, -2.0494525, 4.336991, 0.86031055, -0.4234674, 9.851837
358551555236759, 9.15135, -0.25842485, 4.2424746, -0.81143016, 0.3795929, 10.050378
358551564876343, 8.671589, -1.7718852, 4.29392, 0.6061212, -0.2942016, 9.814267
358551574515926, 9.064013, -0.66161543, 4.249653, -0.43271345, 0.22857141, 10.020685
358551584155509, 8.812766, -1.1952149, 4.3788652, 0.021261096, -0.1531558, 9.91181
358551593795093, 8.959925, -1.3172488, 4.3645086, 0.14638543, -0.11292124, 10.051376
358551603434676, 9.0436735, -0.66999036, 4.421936, -0.48427004, 0.059378386, 10.07732
358551613074259, 8.801998, -1.9250258, 4.4243293, 0.70044625, -0.4102037, 10.004834
358551622713843, 9.163314, -0.27876383, 4.341777, -0.82578945, 0.3022039, 10.105534
358551632353426, 8.693125, -2.1212373, 4.3322053, 0.89622796, -0.46238327, 9.890453
358551641993009, 9.18485, -0.25842485, 4.165904, -0.79913795, 0.4659109, 10.046257
358551651632593, 8.683554, -1.8544376, 4.321438, 0.6505194, -0.36173248, 9.847023
358551661272176, 9.12503, -0.63888365, 4.269992, -0.4704597, 0.24558401, 10.080948
358551670911759, 8.829515, -1.3411771, 4.3633122, 0.15690577, -0.17229748, 9.936966
358551680551343, 9.008977, -1.2801601, 4.325027, 0.115915895, -0.042742968, 10.074279
358551690190926, 9.079565, -0.72382885, 4.3800616, -0.4237888, 0.11992574, 10.0971985
358551699830509, 8.879765, -1.8257236, 4.3836513, 0.61400783, -0.3051021, 10.046383
358551709470093, 9.190832, -0.37328035, 4.377669, -0.7525816, 0.26737237, 10.155632
358551719109676, 8.9108715, -1.4273187, 4.35733, 0.23962641, -0.15779757, 10.017228
358551728749259, 8.988638, -1.0420742, 4.2484565, -0.081059456, 0.09013915, 9.9958105
358551738388843, 8.968299, -1.134198, 4.2520456, 0.0027725697, 0.04506588, 9.989728
358551748028426, 8.99462, -1.0863415, 4.3238306, -0.06579244, 0.0033929348, 10.03865
358551757668009, 8.99462, -1.1030912, 4.3561335, -0.058981657, -0.032250404, 10.054421
358551767307593, 9.019745, -1.1006985, 4.328616, -0.051373124, 0.0023736954, 10.06487
358551776947176, 9.0341015, -1.0923235, 4.28076, -0.04561746, 0.05209613, 10.056255
358551786586759, 9.008977, -1.0887343, 4.240082, -0.035314202, 0.07927728, 10.015876
358551796226343, 9.016156, -1.1030912, 4.220939, -0.015999079, 0.0950377, 10.015735
358551805865926, 9.017352, -1.1282159, 4.243671, 0.0027103424, 0.07018185, 10.029423
358551815505509, 9.0029955, -1.1485549, 4.28076, 0.013908267, 0.024847507, 10.034801
358551825145093, 9.0029955, -1.1485549, 4.3334017, -2.1469593E-4, -0.024660349, 10.057379
358551834784676, 8.983852, -1.134198, 4.3334017, -0.014080167, -0.029692173, 10.03859
358551844424259, 8.968299, -1.1569297, 4.325027, 0.00998199, -0.03427005, 10.023645
358551854063843, 8.958728, -1.1581261, 4.3645086, 4.2796135E-4, -0.07199669, 10.032139
358551863703426, 8.933603, -1.1521441, 4.3788652, -0.008595705, -0.09367466, 10.015104
358551873343009, 8.932407, -1.1700903, 4.377669, 0.010748029, -0.09682369, 10.015563
358551882982593, 8.913264, -1.1629118, 4.3669014, 0.008643508, -0.09261584, 9.992988
358551892622176, 8.895318, -1.166501, 4.3262234, 0.02673781, -0.060130358, 9.959885
358551902261759, 8.914461, -1.1485549, 4.321438, 0.011567831, -0.040290833, 9.972956
358551911901343, 8.925228, -1.166501, 4.316652, 0.030082703, -0.03617406, 9.982569
358551921540926, 8.916854, -1.1521441, 4.359723, 0.0033938885, -0.07352877, 9.991972
358551931180509, 8.949157, -1.1569297, 4.3561335, 0.008911848, -0.058471203, 10.0198965
358551940820093, 8.976674, -1.1880364, 4.3537407, 0.0404042, -0.05177951, 10.047033
358551950459676, 8.967103, -1.1641082, 4.4051867, 0.0023635626, -0.09626126, 10.057857
358551960099259, 8.995817, -1.1569297, 4.3740797, 0.0042994022, -0.053831816, 10.069404
358551969738843, 8.970692, -1.1593226, 4.314259, 0.022782445, -0.0139222145, 10.02145
358551979378426, 8.962317, -1.160519, 4.2628136, 0.039257884, 0.028953314, 9.991953
358551989018009, 8.967103, -1.1700903, 4.2352962, 0.05611539, 0.05224681, 9.985483
358551998657697, 8.965906, -1.154537, 4.269992, 0.03170359, 0.017774105, 9.997598
358552008297280, 8.967103, -1.1533405, 4.3334017, 0.013384938, -0.03928399, 10.025756
358552017936864, 8.963513, -1.1234303, 4.358526, -0.023108482, -0.054609776, 10.029951
358552027576447, 8.991031, -1.134198, 4.3274198, -0.0018677711, -0.018725872, 10.042473
358552037216030, 9.036494, -1.1066805, 4.3034916, -0.016446471, 0.030636072, 10.069845
358552046855614, 9.012567, -1.1126626, 4.3274198, -0.017933607, -0.0020534992, 10.059354
358552056495197, 9.0341015, -1.105484, 4.3238306, -0.020929098, 0.00549078, 10.076315
358552066134780, 9.047262, -1.1210374, 4.31067, -0.0017901659, 0.0154726505, 10.084209
358552075774364, 9.01137, -1.1330016, 4.3441696, 5.00679E-6, -0.032278538, 10.067733
358552085413947, 8.98146, -1.1210374, 4.3322053, -0.008987427, -0.033346176, 10.034448
358552095053530, 8.989835, -1.1126626, 4.31067, -0.011043906, -0.00617671, 10.031793
358552104693114, 8.969496, -1.0983056, 4.2915273, -0.017791033, 0.015191317, 10.003739
358552114332697, 8.946764, -1.1006985, 4.290331, -0.013843417, 0.009082079, 9.983126
358552123972280, 8.95155, -1.099502, 4.260421, -0.00476408, 0.038054466, 9.97441
358552133611864, 8.927621, -1.1174482, 4.274778, 0.0077433586, 0.010455847, 9.961159
358552143251447, 8.912068, -1.1246266, 4.2723846, 0.015705705, 0.0014708042, 9.946999
358552152891134, 8.916854, -1.0935199, 4.267599, -0.013064742, 0.012502909, 9.945761
358552162530718, 8.933603, -1.1162517, 4.26401, 0.008690119, 0.014089346, 9.961768
358552172170301, 8.945567, -1.119841, 4.2592244, 0.011801839, 0.019239187, 9.970843
358552181809884, 8.952746, -1.1377872, 4.3058844, 0.014208913, -0.025290966, 9.999302
358552191449468, 8.935996, -1.154537, 4.3274198, 0.021703482, -0.057242393, 9.995388
358552201089051, 8.891729, -1.180858, 4.321438, 0.044273973, -0.076421976, 9.956119
358552210728634, 8.876176, -1.1772687, 4.254439, 0.045585513, -0.014636755, 9.913144
358552220368218, 8.87139, -1.174876, 4.2652063, 0.04048133, -0.025501251, 9.913202
358552230007801, 8.847462, -1.2083755, 4.290331, 0.0534842, -0.060488462, 9.906471
358552239647384, 8.845069, -1.2191432, 4.304688, 0.056518435, -0.073779345, 9.911773
358552249286968, 8.892925, -1.2095718, 4.322634, 0.04208517, -0.0661695, 9.961234
358552258926551, 8.921639, -1.1928221, 4.3118663, 0.025759459, -0.0379045, 9.98041
358552268566239, 8.945567, -1.1784651, 4.328616, 0.0070956945, -0.034975767, 10.007378
358552278205822, 8.991031, -1.1712867, 4.322634, 0.003463149, -0.0033631325, 10.044686
358552287845405, 9.008977, -1.1653047, 4.2975097, 0.0068165064, 0.0335598, 10.049231
358552297484989, 8.988638, -1.166501, 4.2951164, 0.011636496, 0.03170061, 10.030115
358552307124572, 9.030513, -1.1353943, 4.2867417, -0.013930082, 0.07281494, 10.060315
358552316764155, 9.06162, -1.1318051, 4.2759743, -0.014688373, 0.096854925, 10.083069
358552326403739, 9.089137, -1.1365907, 4.3154554, -0.020412326, 0.070212126, 10.125318
358552336043322, 9.097511, -1.1413764, 4.347759, -0.023729801, 0.03987193, 10.14733
358552345682905, 9.114262, -1.1593226, 4.3728833, -0.011197567, 0.01692605, 10.175239
358552355322489, 9.097511, -1.1509477, 4.392026, -0.022234559, -0.007830858, 10.167534
358552364962176, 9.072387, -1.1581261, 4.362116, -0.0045484304, 0.004356146, 10.132989
358552374601759, 9.079565, -1.1353943, 4.3238306, -0.013647437, 0.045895815, 10.120318
358552384241343, 9.072387, -1.1425728, 4.322634, -0.0065914392, 0.041998863, 10.114201
358552393880926, 9.046066, -1.1294123, 4.334598, -0.019618392, 0.02107215, 10.0942955
358552403520509, 9.029316, -1.1186446, 4.3202415, -0.023332596, 0.02536416, 10.071902
358552413160093, 9.042477, -1.0983056, 4.3357944, -0.043912053, 0.019002438, 10.088086
358552422799676, 9.031709, -1.0863415, 4.2759743, -0.033351302, 0.06288552, 10.051407
358552432439259, 9.031709, -1.0887343, 4.2771707, -0.031021953, 0.06144929, 10.052192
358552442078843, 8.999406, -1.0839486, 4.31067, -0.042119503, 0.012480497, 10.037141
358552451718530, 8.988638, -1.0983056, 4.258028, -0.014011383, 0.05005145, 10.006498
358552461358114, 8.983852, -1.1126626, 4.2257247, 0.00880456, 0.07074118, 9.98996
358552470997697, 8.96471, -1.1126626, 4.2520456, 1.9657612E-4, 0.03670168, 9.9841175
358552480637280, 8.98146, -1.1222339, 4.2855453, -0.005573392, 0.00208354, 10.0145855
358552490276864, 8.99821, -1.134198, 4.382455, -0.021967411, -0.08168411, 10.072386
358552499916447, 8.99821, -1.1318051, 4.4255257, -0.036834, -0.11763096, 10.090533
358552509556030, 9.007781, -1.1413764, 4.362116, -0.010000825, -0.061048746, 10.073087
358552519195614, 9.010174, -1.146162, 4.3262234, 0.0052011013, -0.018612385, 10.060455
358552528835301, 8.997013, -1.1593226, 4.2975097, 0.025163054, -0.0025353432, 10.03784
358552538474884, 8.956335, -1.1940185, 4.2771707, 0.06375027, -0.0052199364, 9.996586
358552548114468, 8.969496, -1.2047862, 4.302295, 0.06569064, -0.01933527, 10.0204
358552557754051, 8.946764, -1.1928221, 4.336991, 0.040238142, -0.055198908, 10.013604
358552567393634, 8.961121, -1.1688938, 4.3525443, 0.0032798052, -0.05836177, 10.030414
358552577033218, 8.98146, -1.1784651, 4.382455, 0.0018770695, -0.08108163, 10.062541
358552586672801, 8.976674, -1.1964114, 4.342973, 0.028610587, -0.057682276, 10.043373
358552596312384, 8.975478, -1.1904292, 4.2664027, 0.042206287, 0.0037169456, 10.008832
358552605952072, 8.985049, -1.2239288, 4.2329035, 0.08197498, 0.022607803, 10.006967
358552615591655, 8.995817, -1.2167503, 4.208975, 0.07812059, 0.04476738, 10.005626
358552625231239, 9.048459, -1.1976078, 4.193422, 0.060292006, 0.08026409, 10.044081
358552634870822, 9.081959, -1.1724831, 4.1922255, 0.032613635, 0.09645271, 10.070803
358552644510405, 9.089137, -1.1700903, 4.2017965, 0.024703622, 0.08698034, 10.081094
358552654149989, 9.079565, -1.1760724, 4.2125645, 0.024575353, 0.06826782, 10.077801
358552663789572, 9.067601, -1.1593226, 4.2388854, 0.0017899275, 0.04406333, 10.076289
358552673429259, 9.022138, -1.154537, 4.2329035, -0.004871011, 0.027802229, 10.032377
358552683068843, 8.983852, -1.1521441, 4.1814575, 8.4781647E-4, 0.053687572, 9.975909
