timestamp_acc,device_acc_x,device_acc_y,device_acc_z,earth_acc_x,earth_acc_y,earth_acc_z
358400888823285, -1.7371893, 6.818348, 6.73101, 0.033203125, 0.14333439, 9.736145
358400898463076, -1.7766708, 6.759724, 6.5575304, 0.019705534, 0.23855448, 9.580937
358400908102972, -1.7910278, 6.7429743, 6.5946193, -0.010498881, 0.21169949, 9.597895
358400917742764, -1.8137596, 6.7836523, 6.823134, -0.06534135, 0.090026855, 9.790324
358400927382660, -1.841277, 6.7525454, 7.085148, -0.16860747, -0.08733511, 9.957432
358400937022451, -1.8532411, 6.7058854, 7.263413, -0.24675906, -0.22097588, 10.052404
358400946662347, -1.8747765, 6.7022963, 7.2382884, -0.25788903, -0.18888235, 10.036244
358400956302139, -1.8604196, 6.74776, 7.0839515, -0.17731857, -0.06448078, 9.956917
358400965942035, -1.8053846, 6.8099732, 6.983453, -0.06615496, 0.008408546, 9.9196415
358400975593076, -1.7084754, 6.8781686, 6.8721867, 0.07525396, 0.067352295, 9.871416
358400985221722, -1.6342978, 6.910472, 6.672386, 0.20097041, 0.17565393, 9.740383
358400994861514, -1.6402799, 6.9020967, 6.513263, 0.23300827, 0.27994537, 9.623898
358401004501410, -1.7204394, 6.832705, 6.5288167, 0.12386906, 0.2660594, 9.601306
358401014141201, -1.7898313, 6.7812595, 6.652047, 0.008752584, 0.19307661, 9.664436
358401023781097, -1.7886349, 6.759724, 6.780063, -0.03742087, 0.10139418, 9.739131
358401033420889, -1.6773686, 6.7645097, 7.133004, -0.040319204, -0.18026161, 9.970846
358401043060785, -1.6271194, 6.808777, 7.2909307, -0.028419256, -0.2770772, 10.103815
358401052700576, -1.5900307, 6.8099732, 7.18445, 0.028002739, -0.21852207, 10.023558
358401062340472, -1.591227, 6.8339014, 7.0229344, 0.08244407, -0.10009098, 9.926682
358401071980264, -1.6426728, 6.853044, 7.036095, 0.044775844, -0.061728954, 9.958082
358401081620160, -1.7228323, 6.835098, 7.0672016, -0.038416386, -0.049081802, 9.981392
358401091259951, -1.7611175, 6.7262244, 6.91765, -0.079859495, 0.01256609, 9.8077
358401100899743, -1.7958134, 6.7322063, 6.8662047, -0.08758974, 0.0695591, 9.781605
358401110539639, -1.7647067, 6.832705, 7.0396843, -0.05793941, -0.0058221817, 9.967638
358401120179431, -1.6462619, 6.8662047, 7.1712894, 0.022431731, -0.13335896, 10.063005
358401129819326, -1.5314065, 6.8913293, 7.1449685, 0.13492167, -0.15704203, 10.042078
358401139459118, -1.5278172, 6.923632, 6.948757, 0.20458257, -0.011798382, 9.925428
358401149099014, -1.558924, 6.8925257, 6.867401, 0.18492627, 0.042702675, 9.852022
358401158738806, -1.6307086, 6.8315086, 6.8255267, 0.10819399, 0.07080364, 9.792846
358401168378701, -1.7491534, 6.7441707, 6.8602223, -0.039477706, 0.0581522, 9.777581
358401178018493, -1.875973, 6.6484575, 6.882954, -0.19505346, 0.052770615, 9.74964
358401187658389, -1.9345971, 6.587441, 6.914061, -0.27705824, 0.027995586, 9.739803
358401197298181, -1.9417756, 6.5958157, 6.9009004, -0.26952517, 0.047798634, 9.7376995
358401206938076, -1.8376877, 6.6364937, 6.8614187, -0.14774263, 0.039927006, 9.719866
358401216577868, -1.7240287, 6.748956, 6.926025, -0.013099909, -4.6253204E-4, 9.82295
358401226217764, -1.6331015, 6.8518476, 7.0289164, 0.080681086, -0.05655098, 9.950418
358401235857556, -1.6163517, 6.908079, 7.0205417, 0.12234151, -0.027370453, 9.980303
358401245497347, -1.625923, 6.908079, 6.9655066, 0.12929845, 0.013604164, 9.943167
358401255137243, -1.6402799, 6.9152575, 6.8662047, 0.14684701, 0.09167099, 9.880591
358401264777035, -1.6331015, 6.9296145, 6.879365, 0.15658534, 0.0868988, 9.898493
358401274416931, -1.6570296, 6.893722, 6.9595246, 0.094655275, 0.027366638, 9.934507
358401284056722, -1.707279, 6.814759, 7.066005, -0.014274478, -0.058505535, 9.963963
358401293696618, -1.7611175, 6.735796, 7.164111, -0.12547243, -0.135458, 9.988138
358401303336410, -1.814956, 6.6556363, 7.166504, -0.2047044, -0.1480031, 9.944172
358401312976306, -1.8233309, 6.6364937, 7.0133634, -0.18055117, -0.051838398, 9.824436
358401322616097, -1.7754744, 6.6735826, 6.9344, -0.09151697, -0.0029263496, 9.786037
358401332255993, -1.7084754, 6.8099732, 6.9355965, 0.030632377, 0.03393507, 9.868893
358401341895785, -1.5924234, 6.9056864, 6.9475603, 0.17102551, 0.015505791, 9.922874
358401351535576, -1.5409778, 6.937989, 6.9344, 0.23299229, 0.014161587, 9.926819
358401361175472, -1.5948163, 6.914061, 6.910472, 0.180367, 0.044583797, 9.902917
358401370815264, -1.6630118, 6.769295, 6.8015985, 0.08079779, 0.07373285, 9.73852
358401380455160, -1.7898313, 6.68435, 6.823134, -0.07097423, 0.081334114, 9.717382
358401390094951, -1.8592232, 6.660422, 6.9009004, -0.16140223, 0.056812763, 9.767859
358401399734847, -1.8831514, 6.613762, 6.8889365, -0.19465268, 0.05373144, 9.73164
358401409374639, -1.8544376, 6.626922, 6.820741, -0.14563096, 0.088721275, 9.687542
358401419014431, -1.7874385, 6.6735826, 6.8482585, -0.071694136, 0.061611176, 9.727351
358401428654326, -1.6953149, 6.782456, 7.048059, 0.0035429, -0.057002068, 9.927118
358401438294118, -1.6426728, 6.853044, 7.190432, 0.040751457, -0.13568783, 10.067017
358401447934014, -1.6235301, 6.8650084, 7.194021, 0.057899, -0.13247395, 10.074583
358401457573806, -1.6474584, 6.863812, 7.1569324, 0.04776001, -0.0961709, 10.051678
358401467213701, -1.6737795, 6.849455, 7.079166, 0.040697694, -0.03661108, 9.991404
358401476853493, -1.6977077, 6.780063, 7.015756, 0.0056569576, -0.019112587, 9.903126
358401486493285, -1.7168503, 6.6939216, 6.9020967, -0.018630385, 0.017866611, 9.767008
358401496133181, -1.7850457, 6.68435, 6.8506513, -0.056862116, 0.08174753, 9.735935
358401505772972, -1.8197416, 6.7381887, 6.9116683, -0.07570565, 0.08953953, 9.82202
358401515412868, -1.7563318, 6.7561345, 6.9355965, -0.018951178, 0.04931736, 9.840212
358401525052660, -1.6474584, 6.79442, 6.8745794, 0.10721886, 0.05204439, 9.804277
358401534692451, -1.6378871, 6.8458657, 6.899704, 0.13207209, 0.060210705, 9.855627
358401544332347, -1.6809579, 6.823134, 6.9894347, 0.053327322, 0.013984203, 9.911103
358401553972139, -1.7228323, 6.7848487, 7.0815587, -0.027872086, -0.044314384, 9.957313
358401563612035, -1.7108682, 6.708278, 7.094719, -0.058600664, -0.10080814, 9.912088
358401573251826, -1.7168503, 6.708278, 7.0061846, -0.040926814, -0.039146423, 9.850481
358401582891618, -1.7228323, 6.818348, 6.8422766, 0.051630497, 0.12979126, 9.810976
358401592531514, -1.6845472, 6.875776, 6.8339014, 0.11214495, 0.14298868, 9.837844
358401602171306, -1.6570296, 6.869794, 6.873383, 0.11763275, 0.097630024, 9.856969
358401611811201, -1.6390835, 6.8458657, 6.920043, 0.10523045, 0.04501152, 9.87048
358401621450993, -1.6881363, 6.8781686, 6.9858456, 0.062464118, 0.0459795, 9.947614
358401631090785, -1.7012969, 6.8853474, 7.1306114, 0.016481876, -0.0328331, 10.057172
358401640730681, -1.7312071, 6.8446693, 7.2502527, -0.057266474, -0.11517191, 10.119101
358401650370472, -1.7252251, 6.8075805, 7.2550383, -0.07161474, -0.14156294, 10.096037
358401660010368, -1.7264216, 6.727421, 7.159325, -0.08250439, -0.12021303, 9.973636
358401669650160, -1.8221345, 6.6975107, 7.0097737, -0.13124263, 0.0092020035, 9.863895
358401679289951, -1.8783658, 6.6915283, 6.9535427, -0.16669059, 0.070812225, 9.829739
358401688929847, -1.9046868, 6.6939216, 6.8446693, -0.16150963, 0.15298939, 9.758915
358401698569639, -1.8388842, 6.759724, 6.8446693, -0.075873375, 0.14688396, 9.79273
358401708209431, -1.7838492, 6.835098, 6.8255267, 0.01210928, 0.17280865, 9.821328
358401717849326, -1.7336, 6.8279195, 6.7932234, 0.060714245, 0.16096354, 9.784895
358401727489118, -1.7419748, 6.8075805, 6.8578296, 0.026168108, 0.108864784, 9.81809
358401737129014, -1.7419748, 6.7633133, 6.954739, -0.030433297, 0.018517494, 9.856165
358401746768806, -1.6630118, 6.739385, 6.9583282, 0.020190239, -0.03818369, 9.828602
358401756408597, -1.5409778, 6.7202425, 6.815955, 0.15032649, -0.02031374, 9.693838
358401766048493, -1.524228, 6.7645097, 6.7932234, 0.18715155, 0.013339996, 9.705387
358401775688285, -1.5840486, 6.788438, 6.8853474, 0.12429547, -0.0041065216, 9.797176
358401785328076, -1.6271194, 6.7322063, 6.9738817, 0.032837868, -0.06856775, 9.828497
358401794967972, -1.7024933, 6.660422, 7.0002027, -0.074707866, -0.08184147, 9.810722
358401804607764, -1.7623138, 6.660422, 7.0815587, -0.14247918, -0.09927273, 9.878527
358401814247556, -1.7635103, 6.6759753, 7.1784678, -0.15687025, -0.15024614, 9.958004
358401823887451, -1.7300107, 6.678368, 7.1306114, -0.11253369, -0.13048601, 9.920156
358401833527243, -1.6833507, 6.735796, 7.064809, -0.027412534, -0.08162594, 9.904984
358401843167035, -1.5948163, 6.79442, 7.012167, 0.08613515, -0.060607433, 9.892773
358401852806931, -1.570888, 6.836294, 6.9451675, 0.1400007, -0.007446766, 9.870071
358401862446722, -1.5948163, 6.8171515, 6.884151, 0.12357223, 0.03258753, 9.817953
358401872086514, -1.6247265, 6.788438, 6.8446693, 0.09488249, 0.059897423, 9.775455
358401881726410, -1.6402799, 6.7561345, 6.808777, 0.072703004, 0.06818676, 9.73064
358401891366201, -1.678565, 6.739385, 6.8099732, 0.03241551, 0.07856703, 9.72653
358401901005993, -1.6941184, 6.7441707, 6.8315086, 0.01329875, 0.07345295, 9.747707
358401910645889, -1.5924234, 6.823134, 6.79442, 0.14179564, 0.08785057, 9.758448
358401920285681, -1.4871392, 6.926025, 6.7585278, 0.28470767, 0.1118145, 9.785988
358401929925472, -1.5146568, 6.792027, 6.734599, 0.19208491, 0.06393814, 9.681926
358401939565368, -1.3974084, 7.23111, 6.792027, 0.48781085, 0.19839191, 10.004801
358401949205160, -1.7108682, 6.350551, 6.7573314, -0.2008053, -0.08557701, 9.427113
358401958844951, -1.5661024, 7.389036, 7.0193453, 0.35405266, 0.22041655, 10.302805
358401968484743, -1.8568304, 6.013163, 6.930811, -0.53228843, -0.29077435, 9.342068
358401978124639, -1.7455641, 7.416554, 7.2346992, 0.1686163, 0.19089699, 10.503726
358401987764431, -1.8101703, 6.114858, 6.9248285, -0.43415713, -0.24740934, 9.400626
358401997404222, -1.7659031, 7.176075, 7.1952176, 0.06085944, 0.104118824, 10.313636
358402007044118, -1.7168503, 6.5347986, 7.045666, -0.17182148, -0.15583134, 9.759035
358402016683910, -1.8592232, 6.734599, 7.1425757, -0.21556461, -0.039073944, 9.988991
358402026323701, -1.6223338, 7.048059, 6.9762745, 0.18902946, 0.10628033, 10.046318
358402035963597, -1.8771694, 6.3290157, 6.9344, -0.36909783, -0.103477, 9.566565
358402045603389, -1.6498512, 7.411768, 7.1389866, 0.30073524, 0.20540762, 10.415796
358402055243181, -1.9142581, 6.0658054, 6.95115, -0.5299115, -0.2412467, 9.40414
358402064882972, -1.7635103, 7.483553, 7.159325, 0.24080586, 0.2921095, 10.498865
358402074522868, -1.8293129, 6.064609, 6.789634, -0.40337706, -0.1855321, 9.275122
358402084162660, -1.7647067, 7.159325, 6.9822564, 0.14684641, 0.2355504, 10.151108
358402093802451, -1.7108682, 6.4905314, 6.7836523, -0.08566487, -0.019219398, 9.542763
358402103442243, -1.8340986, 6.818348, 7.0504518, -0.09296358, 0.045957565, 9.97757
358402113082139, -1.6043876, 7.01097, 6.954739, 0.22020113, 0.08210659, 10.002046
358402122721931, -1.8305093, 6.3122663, 6.882954, -0.29465604, -0.1150136, 9.511597
358402132361722, -1.585245, 7.37109, 7.0145597, 0.3998387, 0.21957016, 10.2879505
358402142001514, -1.814956, 6.070591, 6.8709903, -0.41067302, -0.24504805, 9.334234
358402151641410, -1.6187445, 7.5062847, 7.153343, 0.3887477, 0.21984291, 10.485013
358402161281201, -1.7096717, 6.125626, 6.826723, -0.28247404, -0.23957539, 9.322727
358402170920993, -1.6115661, 7.3399835, 7.0672016, 0.3343296, 0.18054724, 10.308903
358402180560785, -1.5302101, 6.530013, 6.820741, 0.063387275, -0.12667274, 9.564783
358402190200681, -1.6845472, 6.920043, 7.031309, 0.074798346, 0.030398369, 10.007871
358402199840472, -1.5409778, 7.0169525, 6.975078, 0.257051, 0.038330555, 10.009815
358402209480264, -1.7790636, 6.393622, 6.99781, -0.2573545, -0.17117643, 9.639361
358402219120056, -1.5948163, 7.3495545, 7.0504518, 0.3592806, 0.20298195, 10.300387
358402228759951, -1.8484555, 5.99761, 6.9475603, -0.49278402, -0.30978537, 9.344405
358402238399743, -1.6438692, 7.4620175, 7.204789, 0.33910656, 0.19094467, 10.494835
358402248039535, -1.753939, 6.087341, 6.832705, -0.32579315, -0.245574, 9.308676
358402257679326, -1.6701902, 7.3495545, 7.0815587, 0.28925574, 0.22601128, 10.335338
358402267319222, -1.7312071, 6.3924255, 6.769295, -0.13833666, -0.04993725, 9.468997
358402276959014, -1.8843478, 6.8458657, 7.0205417, -0.11415827, 0.10675478, 9.983999
358402286598806, -1.6833507, 6.818348, 6.948757, 0.060112953, 0.030525684, 9.879484
358402296238597, -1.875973, 6.3948183, 7.0133634, -0.32331586, -0.13585186, 9.668364
358402305878389, -1.6402799, 7.320841, 7.051648, 0.31946266, 0.2047205, 10.289171
358402315518285, -1.8939191, 6.047859, 6.799206, -0.4501654, -0.16975307, 9.2823105
358402325158076, -1.6821543, 7.4584284, 6.948757, 0.39838147, 0.36044884, 10.317675
358402334797868, -1.8029919, 6.0215383, 6.664011, -0.3494711, -0.14580107, 9.152887
358402344437660, -1.7048861, 7.3112698, 6.9930243, 0.29200745, 0.26896334, 10.252126
358402354077451, -1.747957, 6.3696938, 6.823134, -0.17043948, -0.09800291, 9.494466
358402363717347, -1.8113668, 6.9990063, 7.159325, 0.0016868114, 0.0558424, 10.174477
358402373357139, -1.6606189, 6.853044, 7.0863442, 0.070789814, -0.056798458, 9.996494
358402382996931, -1.8628124, 6.422336, 7.1210403, -0.32077897, -0.19249916, 9.761441
358402392636722, -1.6247265, 7.2215385, 7.1246295, 0.27480626, 0.09480286, 10.269674
358402402276514, -1.8592232, 6.117251, 6.9212394, -0.41201878, -0.22701406, 9.410618
358402411916306, -1.6402799, 7.500303, 7.1509504, 0.39697814, 0.23291922, 10.481857
358402421556201, -1.7790636, 6.068198, 6.927222, -0.37029624, -0.30445433, 9.367213
358402431195993, -1.6845472, 7.3974113, 7.204789, 0.29271364, 0.16993952, 10.457237
358402440835785, -1.7084754, 6.343373, 6.856633, -0.15001345, -0.14572334, 9.493521
358402450475576, -1.7706888, 7.012167, 7.021738, 0.08412194, 0.13013077, 10.07902
358402460115368, -1.6378871, 6.7441707, 6.8446693, 0.11206305, 0.030847073, 9.746925
358402469755264, -1.8640088, 6.4666033, 6.9499536, -0.2441566, -0.06881952, 9.67104
358402479395056, -1.6582261, 7.149754, 7.0002027, 0.25390208, 0.15251923, 10.138235
358402489034847, -1.9274186, 6.064609, 6.8614187, -0.46548247, -0.19685745, 9.344414
358402498674639, -1.6761723, 7.446464, 6.9990063, 0.38022232, 0.32038736, 10.343996
358402508314431, -1.8101703, 6.023931, 6.666404, -0.33167887, -0.15460253, 9.158138
358402517954222, -1.6570296, 7.3842506, 6.954739, 0.3832804, 0.30768824, 10.266438
358402527594014, -1.7144574, 6.290731, 6.8075805, -0.15941036, -0.15749168, 9.423674
358402537233910, -1.7599211, 7.123433, 7.1365933, 0.11796832, 0.093677044, 10.234692
358402546873701, -1.6402799, 6.745367, 6.9523463, 0.082205296, -0.049010277, 9.824279
358402556513493, -1.814956, 6.550352, 6.987042, -0.16824925, -0.08381367, 9.746005
358402566153285, -1.5816557, 7.203593, 6.9212394, 0.3721522, 0.17594051, 10.105814
358402575793076, -1.8161523, 6.224928, 6.8398833, -0.28061438, -0.15962982, 9.41955
358402585432868, -1.5876378, 7.5110703, 7.1007013, 0.4711821, 0.23094177, 10.444203
358402595072660, -1.8101703, 6.0370917, 6.914061, -0.3966534, -0.3118496, 9.341993
358402604712451, -1.7264216, 7.3986077, 7.176075, 0.27490592, 0.19972897, 10.44512
358402614352347, -1.7982062, 6.196214, 6.859026, -0.28286612, -0.19843197, 9.410284
358402623992139, -1.8221345, 7.0600233, 7.109076, 0.05518222, 0.11756563, 10.182641
358402633631931, -1.7036897, 6.634101, 6.983453, -0.03002286, -0.09098673, 9.781274
358402643271722, -1.8460627, 6.6329045, 7.1138616, -0.18104398, -0.099799156, 9.8978615
358402652911514, -1.5828521, 7.1856465, 7.004988, 0.34160793, 0.124204636, 10.152668
358402662551306, -1.7826529, 6.270392, 6.7633133, -0.21276021, -0.09484291, 9.390623
358402672191097, -1.524228, 7.530213, 6.910472, 0.58599114, 0.332695, 10.311544
358402681830889, -1.753939, 6.0861444, 6.829116, -0.31402886, -0.25530624, 9.305401
358402691470681, -1.625923, 7.4656067, 7.1952176, 0.38576937, 0.16685247, 10.48682
358402701110576, -1.7252251, 6.135197, 6.8662047, -0.27220988, -0.26488352, 9.360424
358402710750368, -1.7862421, 7.071987, 7.036095, 0.091964364, 0.1498084, 10.133085
358402720390160, -1.6833507, 6.5431733, 6.789634, -0.016177535, -0.026088715, 9.578358
358402730029951, -1.7647067, 6.6388865, 6.893722, -0.06521165, 0.0021386147, 9.731812
358402739669743, -1.5134603, 7.1222367, 6.8135624, 0.4013313, 0.18419218, 9.962252
358402749309535, -1.7347964, 6.3218374, 6.7704916, -0.16086078, -0.104673386, 9.422201
358402758949326, -1.5074782, 7.5529447, 7.003792, 0.55480194, 0.2978382, 10.391151
358402768589118, -1.774278, 6.142376, 6.8853474, -0.31229532, -0.25485897, 9.387352
358402778228910, -1.6546369, 7.5182486, 7.172486, 0.37026346, 0.24075365, 10.512439
358402787868701, -1.7958134, 6.174679, 6.948757, -0.3271109, -0.26892138, 9.458198
358402797508493, -1.8580267, 7.1449685, 7.2287173, 0.009142518, 0.110108376, 10.331745
358402807148285, -1.8221345, 6.4366927, 6.9619174, -0.22665751, -0.11326599, 9.651699
358402816788076, -1.9704895, 6.5635123, 7.0289164, -0.3063414, -0.008966923, 9.811945
358402826427972, -1.7108682, 6.9188466, 6.856633, 0.13451135, 0.15757132, 9.88777
358402836067764, -1.855634, 6.2440705, 6.853044, -0.3149389, -0.122618675, 9.448904
358402845707556, -1.5696917, 7.4129643, 7.1210403, 0.42326748, 0.1818614, 10.388117
358402855347347, -1.8113668, 6.0215383, 6.95115, -0.4137025, -0.3304739, 9.358316
358402864987139, -1.6426728, 7.4847493, 7.170093, 0.3816929, 0.21665525, 10.485107
358402874626931, -1.7886349, 6.1064835, 6.853044, -0.3289373, -0.22607803, 9.343086
358402884266722, -1.8005991, 7.183254, 7.192825, 0.09801793, 0.13110971, 10.322365
358402893906514, -1.7850457, 6.418747, 6.896115, -0.17877424, -0.09013891, 9.586605
358402903546306, -1.8927227, 6.754938, 6.969096, -0.11520898, 0.10221386, 9.887173
358402913186097, -1.6247265, 7.0289164, 6.8374906, 0.27724767, 0.18882799, 9.93399
358402922825889, -1.8161523, 6.373283, 6.856633, -0.21714616, -0.072758675, 9.533002
358402932465681, -1.5565311, 7.426125, 7.1377897, 0.4404794, 0.17095709, 10.406486
358402942105472, -1.8245273, 6.087341, 7.0576305, -0.41395688, -0.355443, 9.481407
358402951745264, -1.6845472, 7.470392, 7.318448, 0.31281948, 0.1529913, 10.58692
358402961385056, -1.8496519, 6.0155563, 6.9738817, -0.44906008, -0.32521868, 9.377405
358402971024847, -1.8041883, 7.198807, 7.166504, 0.12558329, 0.1674447, 10.3146925
358402980664639, -1.7216359, 6.3864436, 6.882954, -0.13248491, -0.13465881, 9.544111
358402990304431, -1.7754744, 6.8339014, 7.015756, 0.008958459, 0.049284935, 9.953533
358402999944222, -1.550549, 6.9559355, 6.8303123, 0.30788696, 0.105855465, 9.865922
358403009584014, -1.7970098, 6.3625154, 6.792027, -0.18232226, -0.044303894, 9.47667
358403019223806, -1.5936198, 7.312466, 6.847062, 0.4568367, 0.2965212, 10.12904
358403028863597, -1.8687944, 6.009574, 6.7441707, -0.40324962, -0.15935183, 9.214294
358403038503389, -1.6713866, 7.4010005, 7.1007013, 0.3577993, 0.22139072, 10.383221
358403048143181, -1.8544376, 5.9904313, 6.8817577, -0.4422133, -0.27634907, 9.295745
358403057783076, -1.7922242, 7.223932, 7.153343, 0.1560936, 0.16023588, 10.320734
358403067422868, -1.7431713, 6.290731, 6.79442, -0.17097926, -0.1229887, 9.419751
358403077062660, -1.8245273, 6.8422766, 6.9762745, -0.0064576864, 0.09595108, 9.94006
358403086702451, -1.6630118, 6.9056864, 6.937989, 0.16794312, 0.066954136, 9.927593
358403096342243, -1.881955, 6.4498534, 7.02772, -0.2643516, -0.11505461, 9.718441
358403105982035, -1.6761723, 7.3172517, 7.133004, 0.3070253, 0.1662302, 10.349377
358403115621826, -1.9070797, 6.0693946, 6.9738817, -0.46680713, -0.2617569, 9.424602
358403125261618, -1.7084754, 7.4333034, 7.239485, 0.31703043, 0.17798519, 10.509561
358403134901410, -1.8664017, 6.0107703, 7.004988, -0.46674037, -0.32999563, 9.399784
358403144541201, -1.7288144, 7.3459654, 7.1066833, 0.2838453, 0.22835398, 10.359741
358403154180993, -1.6689938, 6.381658, 6.754938, -0.043884993, -0.08696604, 9.44091
358403163820785, -1.7228323, 7.042077, 6.954739, 0.17813528, 0.16120529, 10.04339
358403173460576, -1.625923, 6.903293, 6.8865438, 0.20458841, 0.07703781, 9.883106
358403183100368, -1.8723837, 6.4797635, 6.927222, -0.21924973, -0.045247078, 9.665891
358403192740160, -1.6761723, 7.2622166, 6.897311, 0.33457255, 0.29330826, 10.145161
358403202379847, -1.8987048, 6.07418, 6.739385, -0.39129043, -0.13858604, 9.260007
358403212019639, -1.7012969, 7.422536, 7.0504518, 0.3401333, 0.29526138, 10.367954
358403221659431, -1.8652053, 5.946164, 6.9128647, -0.46083438, -0.34244156, 9.289452
358403231299222, -1.7336, 7.3256264, 7.3136625, 0.2025547, 0.080555916, 10.493443
358403240939014, -1.7467605, 6.283552, 7.056434, -0.23898447, -0.30537033, 9.600889
358403250578806, -1.8257236, 6.9762745, 7.203593, -0.0114302635, 0.015450954, 10.192793
358403260218597, -1.7024933, 6.719046, 6.9128647, 0.048053384, 0.0060138702, 9.789253
358403269858389, -1.8771694, 6.4977098, 6.8817577, -0.19596553, -0.004948616, 9.646976
358403279498181, -1.6498512, 7.257431, 6.884151, 0.35943985, 0.2906289, 10.127692
358403289137972, -1.8795621, 6.1363935, 6.788438, -0.35165286, -0.13284016, 9.334328
358403298777764, -1.6462619, 7.4380894, 7.0372915, 0.4116813, 0.26772308, 10.359425
358403308417556, -1.8233309, 6.0119667, 6.79442, -0.3819623, -0.23890162, 9.242806
358403318057347, -1.7288144, 7.411768, 7.018149, 0.33088708, 0.30950356, 10.342739
358403327697139, -1.7156538, 6.250053, 6.6556363, -0.13291943, -0.07223034, 9.288771
358403337336931, -1.7575282, 7.094719, 6.948757, 0.17258811, 0.20018005, 10.081631
358403346976722, -1.6570296, 6.762117, 6.8662047, 0.10619545, 0.029829025, 9.77776
358403356616514, -1.8484555, 6.5886374, 6.9966135, -0.17522418, -0.036891937, 9.785064
358403366256306, -1.6534405, 7.1473613, 7.04447, 0.25071108, 0.11836767, 10.1669235
358403375896097, -1.9298115, 6.0753765, 6.9738817, -0.48982835, -0.25715828, 9.432037
358403385535889, -1.7252251, 7.3639116, 7.1545396, 0.26935172, 0.20283937, 10.40564
358403395175681, -1.948954, 5.918647, 6.9188466, -0.5638455, -0.29340315, 9.289524
358403404815472, -1.7467605, 7.359126, 7.140183, 0.25172675, 0.23034143, 10.395851
358403414455264, -1.727618, 6.189036, 6.77767, -0.19807506, -0.17406273, 9.335745
358403424095056, -1.7012969, 7.1102724, 6.9320073, 0.22530687, 0.20781612, 10.070211
358403433734847, -1.6319051, 6.6568327, 6.778867, 0.097608805, 0.02974987, 9.639457
358403443374639, -1.8448663, 6.613762, 7.0061846, -0.16093671, -0.02717781, 9.808433
358403453014431, -1.6402799, 7.1246295, 7.0301127, 0.25699687, 0.12716436, 10.138596
358403462654222, -1.8831514, 6.1794643, 6.9499536, -0.3906207, -0.20066786, 9.478452
358403472294014, -1.6271194, 7.4309106, 7.159325, 0.38474107, 0.20990944, 10.436944
358403481933806, -1.8101703, 6.0047884, 6.957132, -0.4171207, -0.33733273, 9.35137
358403491573597, -1.6354942, 7.4309106, 7.2346992, 0.35620022, 0.17195415, 10.491793
358403501213389, -1.707279, 6.15434, 6.91765, -0.24261057, -0.27616405, 9.407948
358403510853076, -1.7336, 7.105487, 7.1342006, 0.14159799, 0.11898756, 10.215474
358403520492868, -1.6654046, 6.5479593, 6.8279195, 0.008057833, -0.021052837, 9.605692
358403530132660, -1.7970098, 6.652047, 6.876972, -0.06660414, 0.072206974, 9.734582
358403539772451, -1.5361922, 7.0695944, 6.869794, 0.35369813, 0.17340279, 9.968849
358403549412243, -1.7168503, 6.2309103, 6.9320073, -0.22491717, -0.23546314, 9.471987
358403559052035, -1.4955142, 7.428518, 7.216753, 0.46239936, 0.12276459, 10.453329
358403568691826, -1.7419748, 6.0023956, 6.963114, -0.36536837, -0.35669994, 9.342775
358403578331618, -1.6199409, 7.4273214, 7.0803623, 0.39156044, 0.2845192, 10.377213
358403587971410, -1.7527425, 6.108876, 6.897311, -0.2973262, -0.24374914, 9.370996
358403597611201, -1.7694924, 7.21436, 7.2646093, 0.13101196, 0.13702059, 10.388297
358403607250993, -1.678565, 6.629315, 7.094719, -0.033420205, -0.12015915, 9.853165
358403616890785, -1.7682959, 6.8171515, 7.239485, -0.05858791, -0.065043926, 10.099648
358403626530576, -1.524228, 7.058827, 7.117451, 0.29347193, 0.017302036, 10.135187
358403636170368, -1.753939, 6.256035, 7.0193453, -0.27024817, -0.22461748, 9.558348
358403645810160, -1.5110675, 7.3268228, 7.1377897, 0.4331901, 0.13752222, 10.329914
358403655449951, -1.7718852, 5.9617176, 6.9415784, -0.4147514, -0.31337214, 9.30575
358403665089639, -1.6235301, 7.4273214, 7.2586274, 0.35841537, 0.17756128, 10.503744
358403674729431, -1.7551354, 6.005985, 7.0325055, -0.41066027, -0.35732841, 9.397453
358403684369222, -1.7443677, 7.1222367, 7.2299137, 0.106643915, 0.09991121, 10.29657
358403694009014, -1.7371893, 6.3541408, 6.8853474, -0.17064595, -0.082436085, 9.527067
358403703648806, -1.855634, 6.690332, 7.042077, -0.1417501, 0.0546546, 9.887959
358403713288597, -1.6654046, 6.910472, 6.9152575, 0.16016138, 0.15450811, 9.914608
358403722928389, -1.8592232, 6.235696, 6.8925257, -0.322348, -0.10019541, 9.472781
358403732568181, -1.5768701, 7.3052874, 7.0002027, 0.40518975, 0.27017546, 10.228364
358403742207972, -1.8293129, 6.013163, 6.7908306, -0.38065183, -0.17849255, 9.243546
358403751847764, -1.6618153, 7.4105716, 7.0528445, 0.37218285, 0.3414111, 10.352089
358403761487556, -1.7934206, 5.986842, 6.7573314, -0.35091186, -0.18674517, 9.195768
358403771127347, -1.719243, 7.198807, 7.07438, 0.21714127, 0.23195457, 10.2335
358403780767139, -1.6965113, 6.390033, 6.9056864, -0.111861944, -0.108189106, 9.559025
358403790406931, -1.7946169, 6.7728844, 7.2011995, -0.08411813, -0.039733887, 10.046951
358403800046618, -1.591227, 6.8458657, 7.0672016, 0.15587282, -0.018695354, 9.965871
358403809686410, -1.7886349, 6.2644095, 7.0348988, -0.28742123, -0.20353222, 9.58164
358403819326201, -1.5218352, 7.2562346, 7.1066833, 0.4096433, 0.1487031, 10.260796
358403828965993, -1.7826529, 6.020342, 6.923632, -0.36394417, -0.26724434, 9.335693
358403838605785, -1.5756737, 7.4823565, 7.1389866, 0.46428418, 0.2764268, 10.447084
358403848245576, -1.7252251, 6.0490556, 6.8985076, -0.29218686, -0.26368332, 9.327486
358403857885368, -1.6809579, 7.2993054, 7.2263246, 0.26635218, 0.18538666, 10.402882
358403867525160, -1.6881363, 6.3457656, 7.071987, -0.16535115, -0.23188782, 9.646265
358403877164951, -1.8400806, 6.869794, 7.237092, -0.08225703, 0.025722504, 10.146332
358403886804743, -1.6845472, 6.8195443, 6.9415784, 0.11158931, 0.10607052, 9.874496
358403896444535, -1.8795621, 6.3864436, 6.916454, -0.25713265, -0.005865574, 9.596384
358403906084326, -1.6498512, 7.312466, 7.0492554, 0.3643229, 0.27149963, 10.280064
358403915724118, -1.8915263, 6.050252, 6.9415784, -0.4432336, -0.1976533, 9.38794
358403925363910, -1.6761723, 7.4273214, 7.099505, 0.39836, 0.3116145, 10.398165
358403935003597, -1.8520447, 5.979664, 6.7573314, -0.38870513, -0.12872696, 9.20219
358403944643389, -1.753939, 7.2323065, 7.1066833, 0.22850561, 0.2447877, 10.284716
358403954283181, -1.7718852, 6.227321, 7.0408807, -0.27830052, -0.22809172, 9.558434
358403963922972, -1.8257236, 6.862615, 7.450053, -0.11314702, -0.1151948, 10.291063
358403973562764, -1.6630118, 6.707082, 7.2502527, -0.0012817383, -0.16024494, 10.014542
358403983202556, -1.7934206, 6.363712, 7.075577, -0.22891843, -0.15763474, 9.679861
358403992842347, -1.4608182, 7.237092, 6.930811, 0.5236993, 0.21856499, 10.110568
358404002482139, -1.625923, 6.192625, 6.771688, -0.09166551, -0.14187908, 9.317696
358404012121931, -1.3746766, 7.588837, 7.085148, 0.72279143, 0.2589717, 10.444616
358404021761722, -1.605584, 6.10768, 6.856633, -0.16105318, -0.25712776, 9.316814
358404031401514, -1.579263, 7.3866434, 7.092326, 0.4426937, 0.2536888, 10.3487835
358404041041306, -1.6307086, 6.2057858, 6.8446693, -0.12406695, -0.17928886, 9.379391
358404050680993, -1.7359928, 6.897311, 7.1820574, 0.038981915, 0.028158188, 10.107731
358404060320785, -1.6414764, 6.6652074, 7.056434, 0.040453434, -0.062452793, 9.844145
358404069960576, -1.8245273, 6.468996, 7.1066833, -0.21939373, -0.09567356, 9.778778
358404079600368, -1.5816557, 7.160522, 7.088737, 0.33263218, 0.15218592, 10.192698
358404089240160, -1.869991, 6.0251274, 6.9678993, -0.4345007, -0.22711372, 9.386707
358404098879951, -1.727618, 7.34118, 7.176075, 0.27986717, 0.2756071, 10.402853
358404108519743, -1.9357935, 5.8540406, 6.9415784, -0.5586244, -0.2614622, 9.264026
358404118159535, -1.8101703, 7.2323065, 7.280163, 0.1368351, 0.19434643, 10.417643
358404127799326, -1.8245273, 6.0622163, 6.99781, -0.37409174, -0.2384057, 9.426131
358404137439118, -1.7994026, 6.9188466, 7.220342, 0.023020744, 0.066364765, 10.160545
358404147078910, -1.6821543, 6.6077795, 7.001399, 0.021278143, -0.023947239, 9.772971
358404156718701, -1.9118652, 6.468996, 7.0779696, -0.25876832, -0.019508362, 9.774122
358404166358389, -1.7216359, 7.079166, 7.0695944, 0.20786393, 0.20907593, 10.147456
358404175998181, -1.9800607, 6.067002, 7.0289164, -0.49991536, -0.16021061, 9.479411
358404185637972, -1.7431713, 7.322037, 7.2490563, 0.26209486, 0.23876762, 10.44385
358404195277764, -1.869991, 5.881558, 6.9523463, -0.47528303, -0.2768259, 9.280203
358404204917556, -1.6354942, 7.318448, 7.1342006, 0.38077247, 0.25595713, 10.340253
358404214557347, -1.6558332, 6.1435723, 6.853044, -0.13481152, -0.18840742, 9.348572
358404224197139, -1.6546369, 7.042077, 7.216753, 0.21089351, 0.065764904, 10.215742
358404233836931, -1.5565311, 6.643672, 7.0636125, 0.132038, -0.10495329, 9.819742
358404243476722, -1.7778672, 6.597012, 7.1748786, -0.107943535, -0.07966566, 9.906677
358404253116514, -1.5948163, 7.0337024, 7.068398, 0.29157436, 0.1215868, 10.093508
358404262756306, -1.922633, 6.084948, 6.9415784, -0.4210968, -0.11108208, 9.419075
358404272396097, -1.666601, 7.292127, 6.9738817, 0.40665722, 0.3407874, 10.213039
358404282035785, -1.9118652, 5.9007006, 6.690332, -0.42546988, -0.07540178, 9.1130295
358404291675576, -1.8305093, 7.271788, 6.8255267, 0.31455517, 0.51693296, 10.121823
358404301315368, -1.9776679, 6.038288, 6.778867, -0.42749512, -0.019897461, 9.28127
358404310955160, -1.8951155, 7.064809, 7.3052874, 0.0053766966, 0.13477898, 10.336925
358404320594951, -1.7144574, 6.538388, 7.2023964, -0.077133656, -0.17428446, 9.875628
358404330234743, -1.7994026, 6.6652074, 7.2287173, -0.09090614, -0.07634497, 9.995153
358404339874535, -1.5984055, 7.0528445, 7.04447, 0.3246907, 0.1453619, 10.089376
358404349514326, -1.9094725, 6.1627145, 6.960721, -0.35175776, -0.113658905, 9.483675
358404359154118, -1.7012969, 7.3100734, 7.2693954, 0.31057906, 0.19984674, 10.442188
358404368793910, -1.9130617, 5.9234324, 7.203593, -0.53623116, -0.38760042, 9.497412
358404378433701, -1.6977077, 7.3986077, 7.4919276, 0.30654693, 0.120345116, 10.660307
358404388073493, -1.7371893, 6.1064835, 7.1270223, -0.2674018, -0.33526897, 9.535068
358404397713181, -1.6199409, 7.200003, 7.3172517, 0.31122828, 0.08504963, 10.387604
358404407352972, -1.5086746, 6.538388, 7.079166, 0.14617026, -0.17970276, 9.751284
358404416992764, -1.6450655, 6.6891356, 7.2825556, 0.05134809, -0.15752554, 10.022921
358404426632556, -1.4584254, 6.9619174, 7.194021, 0.35940015, -0.03625202, 10.11033
358404436272347, -1.7383857, 6.2464633, 7.1282187, -0.20837975, -0.25419426, 9.630356
358404445912139, -1.5409778, 7.2861447, 7.2287173, 0.4403175, 0.16202307, 10.368065
358404455551931, -1.8329022, 5.849255, 6.9942207, -0.44305205, -0.33677483, 9.283464
358404465191722, -1.6953149, 7.2562346, 7.196414, 0.3050326, 0.23181963, 10.352228
358404474831514, -1.8005991, 5.9114685, 6.8685975, -0.35919547, -0.22769499, 9.229538
358404484471306, -1.7264216, 7.0983086, 7.097112, 0.23645937, 0.22764349, 10.179773
358404494111097, -1.6414764, 6.3481584, 6.8374906, -0.002954483, -0.064548016, 9.473154
358404503750889, -1.8101703, 6.6999035, 6.984649, -0.0051066875, 0.122823715, 9.845591
358404513390681, -1.6426728, 6.8303123, 6.849455, 0.23331857, 0.19335222, 9.806871
358404523030368, -1.881955, 6.1387863, 6.8781686, -0.3202181, -0.082766056, 9.403524
358404532670160, -1.6522441, 7.1688967, 7.070791, 0.32851708, 0.23820782, 10.195805
358404542309951, -1.9058832, 5.8540406, 6.9499536, -0.49631178, -0.26792097, 9.267466
358404551949743, -1.8173488, 7.3292155, 7.1545396, 0.2389915, 0.36685038, 10.39307
358404561589535, -2.0087745, 5.875576, 6.8602223, -0.5361359, -0.15951824, 9.236197
358404571229326, -1.9585253, 7.064809, 7.2215385, -6.7460537E-4, 0.25489044, 10.287517
358404580869118, -1.9070797, 6.276374, 7.082755, -0.3004365, -0.12595606, 9.64827
358404590508910, -1.9465612, 6.7812595, 7.314859, -0.1458627, 0.032636642, 10.161664
358404600148701, -1.6546369, 6.8685975, 7.1581287, 0.17901933, 0.03615427, 10.055889
358404609788493, -1.7407784, 6.3541408, 7.1425757, -0.14447653, -0.19468832, 9.714064
358404619428285, -1.4967105, 7.301698, 7.200003, 0.5123024, 0.17030287, 10.349084
358404629068076, -1.8113668, 6.0227346, 7.0504518, -0.34787238, -0.26700068, 9.43774
358404638707868, -1.6271194, 7.442875, 7.328019, 0.44097853, 0.21861362, 10.559428
358404648347556, -1.7682959, 6.0107703, 6.9702926, -0.29997766, -0.24907875, 9.364251
358404657987347, -1.6905292, 7.2753773, 7.1677003, 0.34742475, 0.26823473, 10.342741
358404667627139, -1.6713866, 6.3278193, 6.882954, -0.03364849, -0.06935978, 9.497577
358404677266931, -1.7312071, 6.8889365, 7.2358956, 0.10168624, 0.03675413, 10.139084
358404686906722, -1.5481563, 6.8410797, 7.159325, 0.24824274, -0.038500786, 10.019481
358404696546514, -1.7694924, 6.4366927, 7.166504, -0.14326143, -0.14175701, 9.791847
358404706186306, -1.5433706, 7.233503, 7.1449685, 0.44372904, 0.18421412, 10.2725525
358404715826097, -1.8161523, 5.986842, 6.95115, -0.35281765, -0.22528839, 9.342588
358404725465889, -1.6127625, 7.4344997, 7.29452, 0.43923402, 0.22611189, 10.527998
358404735105681, -1.7383857, 6.0083776, 7.1210403, -0.3334943, -0.3605914, 9.465228
358404744745472, -1.6283158, 7.328019, 7.393822, 0.34195042, 0.11141443, 10.530458
358404754385264, -1.6462619, 6.3290157, 7.045666, -0.07703555, -0.18991852, 9.6107235
358404764025056, -1.7024933, 6.957132, 7.149754, 0.16088474, 0.107807636, 10.1183815
358404773664847, -1.5744773, 6.7585278, 6.9415784, 0.22095251, 0.06702566, 9.812691
358404783304535, -1.8029919, 6.3996043, 7.042077, -0.18055284, -0.074949265, 9.68289
358404792944326, -1.5732809, 7.1653075, 7.135397, 0.36950076, 0.1565938, 10.225933
358404802584118, -1.8520447, 5.9904313, 7.015756, -0.41423833, -0.25645494, 9.396746
358404812223910, -1.6402799, 7.3268228, 7.213164, 0.36848545, 0.22612858, 10.402677
358404821863701, -1.8400806, 5.875576, 6.9116683, -0.42769718, -0.26670074, 9.242588
358404831503493, -1.7288144, 7.253842, 7.192825, 0.2678268, 0.2422924, 10.354384
358404841143285, -1.7994026, 6.117251, 6.856633, -0.25832117, -0.13053417, 9.35886
358404850783076, -1.9190438, 6.823134, 7.092326, -0.066449046, 0.17138815, 10.0252285
358404860422868, -1.7922242, 6.5635123, 6.9583282, -0.054252863, 0.048509598, 9.73164
358404870062660, -1.9477576, 6.3696938, 6.9882383, -0.28477097, 1.01566315E-4, 9.649929
358404879702451, -1.6127625, 7.092326, 6.9044895, 0.3704703, 0.27739763, 10.017978
358404889342243, -1.8257236, 5.9988065, 6.8039913, -0.3215649, -0.1511321, 9.24592
358404898982035, -1.6091732, 7.353144, 7.131808, 0.44223213, 0.2643633, 10.356419
358404908621826, -1.82692, 6.1100726, 7.051648, -0.33459067, -0.23383045, 9.498934
358404918261514, -1.7443677, 6.8039913, 7.170093, 0.044842005, 0.01682043, 10.037185
358404927901306, -1.7587247, 6.6089764, 7.024131, -0.015706778, 0.021191597, 9.80354
358404937541097, -1.753939, 6.660422, 7.0600233, 0.006552458, 0.024323463, 9.863103
358404947180889, -1.7599211, 6.631708, 7.133004, -0.033461332, -0.031979084, 9.897196
358404956820681, -1.7886349, 6.65444, 7.153343, -0.05047548, -0.01702118, 9.932184
358404966460472, -1.7670995, 6.6676, 7.155736, -0.025793314, -0.020749569, 9.938963
358404976100264, -1.7659031, 6.6448684, 7.0803623, -0.015496969, 0.015509605, 9.869333
358404985740056, -1.7694924, 6.680761, 7.0145597, 0.015305877, 0.07966709, 9.846886
358404995379847, -1.7180467, 6.7130637, 7.0612197, 0.062023282, 0.042387962, 9.893032
358405005019639, -1.7060826, 6.7298136, 7.160522, 0.05206716, -0.014430046, 9.973528
358405014659431, -1.713261, 6.73101, 7.237092, 0.025363803, -0.057736874, 10.030617
358405024299222, -1.6797615, 6.721439, 7.245467, 0.046432734, -0.085858345, 10.024302
358405033939014, -1.6283158, 6.7011, 7.172486, 0.094494104, -0.07169962, 9.9492035
358405043578806, -1.6187445, 6.719046, 7.068398, 0.13486326, 7.5626373E-4, 9.884836
358405053218597, -1.6677973, 6.6927247, 7.092326, 0.071581244, -0.0024576187, 9.89293
358405062858389, -1.7419748, 6.6687965, 7.143772, -0.015192032, -0.009881973, 9.926755
358405072498076, -1.7778672, 6.6053867, 7.1509504, -0.08099401, -0.029582024, 9.895484
358405082137868, -1.8364913, 6.5886374, 7.1377897, -0.13394606, 0.0018849373, 9.884987
358405091777660, -1.8173488, 6.6053867, 7.1545396, -0.11099815, -0.009514809, 9.904995
358405101417451, -1.8017955, 6.617351, 7.1222367, -0.0812732, 0.009232998, 9.887133
358405111057243, -1.7551354, 6.634101, 7.025327, -0.0097254515, 0.05737257, 9.820572
358405120697035, -1.672583, 6.6652074, 7.004988, 0.08062208, 0.045873165, 9.812429
358405130336826, -1.6522441, 6.7118673, 7.112665, 0.09079933, -0.0064196587, 9.917702
358405139976618, -1.6474584, 6.7022963, 7.166504, 0.07650101, -0.049856186, 9.949137
358405149616410, -1.7371893, 6.652047, 7.1042905, -0.00898397, 0.0104756355, 9.886269
358405159256201, -1.7958134, 6.5946193, 7.064809, -0.07622385, 0.03575325, 9.829464
358405168895993, -1.8185452, 6.580262, 7.064809, -0.10083926, 0.039904118, 9.823784
358405178535785, -1.7934206, 6.6101727, 7.076773, -0.06628001, 0.03638029, 9.848133
358405188175576, -1.7060826, 6.586244, 7.1976104, -0.0344882, -0.09906626, 9.903732
358405197815368, -1.7001005, 6.63769, 7.2287173, -0.011939168, -0.09253788, 9.959663
358405207455160, -1.713261, 6.6221366, 7.225128, -0.028538823, -0.08949089, 9.94895
358405217094951, -1.7431713, 6.6101727, 7.207182, -0.049256563, -0.0671916, 9.933256
358405226734743, -1.7958134, 6.5659056, 7.159325, -0.100503325, -0.032785892, 9.878302
358405236374535, -1.8496519, 6.526424, 7.07438, -0.14365923, 0.027515411, 9.800045
358405246014326, -1.8484555, 6.546763, 7.001399, -0.110676885, 0.0863266, 9.7609825
358405255654118, -1.7766708, 6.5754766, 6.9523463, -0.022886753, 0.09569883, 9.732363
358405265293806, -1.7120646, 6.5946193, 6.96431, 0.03722298, 0.06522274, 9.742493
358405274933597, -1.6067804, 6.6771717, 7.0492554, 0.14120829, 0.0046525, 9.8406515
358405284573389, -1.5661024, 6.7202425, 7.0935225, 0.18227684, -0.022034168, 9.894377
358405294213181, -1.6139588, 6.6891356, 7.1138616, 0.12144148, -0.029750347, 9.896504
358405303852972, -1.6857436, 6.6281185, 7.0636125, 0.044872522, 0.01018858, 9.831897
358405313492764, -1.7467605, 6.582655, 7.0133634, -0.012670994, 0.05107212, 9.775837
358405323132556, -1.7994026, 6.5754766, 7.021738, -0.061141253, 0.070037365, 9.786261
358405332772347, -1.8077775, 6.5886374, 7.051648, -0.067840695, 0.063932896, 9.8181095
358405342412139, -1.7934206, 6.5778694, 7.012167, -0.050530314, 0.07607317, 9.7799225
358405352051931, -1.7838492, 6.570691, 6.966703, -0.033791423, 0.098649025, 9.740646
358405361691722, -1.7359928, 6.5647087, 6.937989, 0.008108497, 0.090304375, 9.70755
358405371331514, -1.698904, 6.6245294, 6.9882383, 0.055539727, 0.07165384, 9.777418
358405380971306, -1.6510476, 6.678368, 7.1389866, 0.070913315, -0.0134186745, 9.913954
358405390611097, -1.6211374, 6.7034926, 7.225128, 0.08622587, -0.07059622, 9.987741
358405400250889, -1.6019948, 6.7022963, 7.283752, 0.07043421, -0.10963249, 10.026127
358405409890681, -1.6103697, 6.727421, 7.338787, 0.057722688, -0.120705605, 10.084213
358405419530472, -1.6079768, 6.727421, 7.3698936, 0.050044417, -0.14239264, 10.106253
358405429170264, -1.5984055, 6.725028, 7.350751, 0.059141874, -0.1320858, 10.089275
358405438810056, -1.5936198, 6.7022963, 7.3340015, 0.057344913, -0.13145256, 10.061184
358405448449847, -1.6151553, 6.674779, 7.2753773, 0.042336702, -0.09411287, 10.004091
358405458089535, -1.6594225, 6.6484575, 7.2155566, 0.0098029375, -0.04297304, 9.950778
358405467729326, -1.713261, 6.623333, 7.129415, -0.023257017, 0.027498722, 9.880844
358405477369118, -1.7371893, 6.602994, 7.0731835, -0.037466526, 0.0649147, 9.83065
358405487008910, -1.7455641, 6.593423, 7.123433, -0.06233108, 0.03130102, 9.861981
358405496648701, -1.7635103, 6.593423, 7.2382884, -0.10718095, -0.03347349, 9.948038
358405506288493, -1.7898313, 6.5850477, 7.2550383, -0.13248682, -0.03547907, 9.959073
358405515928285, -1.7982062, 6.5108705, 7.207182, -0.1640234, -0.039542675, 9.876233
358405525568076, -1.8376877, 6.4869423, 7.1509504, -0.1843288, 0.0033831596, 9.826476
358405535207868, -1.8281165, 6.532406, 7.153343, -0.15453422, 0.020169258, 9.856997
358405544847660, -1.7838492, 6.5659056, 7.094719, -0.08120906, 0.052198887, 9.829494
358405554487451, -1.7371893, 6.5922265, 6.9858456, 0.002706647, 0.10933256, 9.760397
358405564127243, -1.6905292, 6.6245294, 7.0265236, 0.046476007, 0.075992584, 9.803387
358405573767035, -1.6797615, 6.650851, 7.1377897, 0.034452796, 0.013635635, 9.8996
358405583406826, -1.6378871, 6.6687965, 7.194021, 0.06249702, -0.03375721, 9.945071
358405593046618, -1.6534405, 6.629315, 7.1449685, 0.04301226, -0.0154566765, 9.885857
358405602686410, -1.7144574, 6.573084, 7.0815587, -0.017340899, 0.026295662, 9.812864
358405612326201, -1.7371893, 6.518049, 7.0193453, -0.04709232, 0.047762394, 9.734964
358405621965993, -1.7587247, 6.5443697, 7.015756, -0.048781157, 0.07586956, 9.753696
358405631605785, -1.7312071, 6.5635123, 7.0193453, -0.01565957, 0.07007456, 9.764366
358405641245576, -1.6881363, 6.599405, 7.031309, 0.034100413, 0.05926752, 9.789616
358405650885368, -1.6043876, 6.6364937, 7.062416, 0.10974836, 0.014875412, 9.822554
358405660525160, -1.5876378, 6.650851, 7.099505, 0.11658716, -0.009208679, 9.85615
358405670164951, -1.605584, 6.6185474, 7.117451, 0.077830315, -0.026659012, 9.850605
358405679804639, -1.6127625, 6.5838513, 7.1365933, 0.05232179, -0.051318645, 9.842444
358405689444431, -1.6630118, 6.587441, 7.1222367, 0.020050287, -0.011456966, 9.843056
358405699084222, -1.7060826, 6.597012, 7.0408807, 0.013218045, 0.069639206, 9.797972
358405708724014, -1.7347964, 6.5168524, 6.9822564, -0.03548336, 0.07799053, 9.706876
358405718363806, -1.8005991, 6.5443697, 6.943971, -0.0663501, 0.15249157, 9.708862
358405728003597, -1.7575282, 6.6329045, 7.152147, -0.03905964, 0.048590183, 9.911289
358405737643389, -1.7312071, 6.6460648, 7.312466, -0.058695793, -0.05458355, 10.031599
358405747283181, -1.6331015, 6.6735826, 7.2287173, 0.05330813, -0.034224033, 9.972666
358405756922972, -1.524228, 6.6963143, 7.1856465, 0.16594219, -0.05247307, 9.938165
358405766562764, -1.43689, 6.6831536, 7.1581287, 0.23460531, -0.089493275, 9.894691
358405776202556, -1.5086746, 6.641279, 7.2155566, 0.13675332, -0.10826254, 9.920511
358405785842347, -1.6163517, 6.626922, 7.2729845, 0.023678064, -0.09132385, 9.970762
358405795482139, -1.7144574, 6.5611196, 7.328019, -0.10377276, -0.1037426, 9.983286
358405805121931, -1.8077775, 6.5252275, 7.3663044, -0.20645714, -0.092635155, 10.002893
358405814761722, -1.8101703, 6.5144596, 7.359126, -0.20591807, -0.0892396, 9.991059
358405824401514, -1.7575282, 6.5718875, 7.233503, -0.09873569, -0.008294582, 9.929369
358405834041306, -1.7096717, 6.613762, 7.1078796, -0.0014519691, 0.06801844, 9.858101
358405843681097, -1.6797615, 6.5958157, 7.0289164, 0.03732264, 0.09054279, 9.783787
358405853320889, -1.6175481, 6.6149583, 6.96431, 0.114751816, 0.108428955, 9.73914
358405862960681, -1.5625132, 6.6460648, 6.9391856, 0.17946541, 0.11328983, 9.732365
358405872600472, -1.5314065, 6.643672, 6.987042, 0.18619728, 0.067523, 9.7602825
358405882240264, -1.5290136, 6.6245294, 7.099505, 0.15054595, -0.015145302, 9.828649
