timestamp_acc,device_acc_x,device_acc_y,device_acc_z,earth_acc_x,earth_acc_y,earth_acc_z
358254314398487, 7.216753, -0.031106694, 6.8805614, -0.02461505, -0.012313366, 9.971152
358254324037862, 7.240681, -0.078963146, 6.882954, 0.0259099, -0.022862911, 9.990375
358254333677341, 7.257431, -0.101694964, 6.869794, 0.05744481, -0.014157295, 9.993559
358254343316820, 7.2586274, -0.11724831, 6.897311, 0.06098199, -0.037944317, 10.013449
358254352956195, 7.2861447, -0.09930214, 6.8817577, 0.058579683, -0.0030798912, 10.022619
358254362595675, 7.3136625, -0.07298109, 6.879365, 0.039987326, 0.027318954, 10.0408325
358254372235154, 7.3268228, -0.033499517, 6.862615, 0.012940884, 0.06435108, 10.038656
358254381874529, 7.367501, -0.029910283, 6.8865438, 0.0138504505, 0.07565594, 10.084619
358254391514008, 7.3579297, -0.0071784677, 6.908079, -0.017413616, 0.06613445, 10.092377
358254401153487, 7.34118, 0.058624156, 6.954739, -0.09767175, 0.05466652, 10.111984
358254410792862, 7.344769, 0.051445685, 6.971489, -0.09519982, 0.043390274, 10.126152
358254420432341, 7.3100734, 0.0035892338, 6.983453, -0.06486869, -0.008368492, 10.109477
358254430071820, 7.3136625, 0.0023928226, 6.96431, -0.053980112, 0.0027441978, 10.09893
358254439711195, 7.27777, -0.0011964113, 6.9320073, -0.04856944, -0.0035128593, 10.050686
358254449350675, 7.2693954, -0.04546363, 6.9332037, -0.010138512, -0.033205032, 10.04561
358254458990154, 7.2622166, -0.08733802, 6.897311, 0.038613558, -0.039546967, 10.01585
358254468629633, 7.2418776, -0.083748795, 6.9020967, 0.027883053, -0.057775974, 10.004331
358254478269008, 7.283752, -0.10049855, 6.879365, 0.06461644, -0.026185513, 10.019178
358254487908487, 7.2705917, -0.11724831, 6.875776, 0.071825504, -0.042006016, 10.00723
358254497547966, 7.2849483, -0.12203395, 6.862615, 0.0853951, -0.027669907, 10.008636
358254507187341, 7.301698, -0.05742774, 6.916454, 0.009716272, -0.01846695, 10.057585
358254516826820, 7.3292155, -0.0023928226, 6.9212394, -0.0296731, 0.023207188, 10.080652
358254526466300, 7.3340015, 0.04546363, 6.9355965, -0.07565355, 0.041844368, 10.093794
358254536105675, 7.373483, 0.058624156, 6.8518476, -0.04309225, 0.124304295, 10.064899
358254545745154, 7.332805, 0.07776674, 6.936793, -0.10239792, 0.053828716, 10.093651
358254555384633, 7.322037, 0.0741775, 6.9762745, -0.1138525, 0.014466763, 10.113009
358254565024112, 7.280163, -0.0071784677, 6.9798636, -0.05593157, -0.056083202, 10.085289
358254574663487, 7.222735, -0.07537391, 6.983453, -0.014965534, -0.12920332, 10.046157
358254584302966, 7.2179494, -0.09212367, 6.943971, 0.014527082, -0.11536026, 10.015614
358254593942445, 7.2622166, -0.076570325, 6.8650084, 0.045919657, -0.030016422, 9.9935465
358254603581820, 7.29452, -0.015553347, 6.7872415, 0.02986598, 0.06823778, 9.963501
358254613221300, 7.2861447, -0.019142581, 6.7633133, 0.04098487, 0.07235861, 9.941015
358254622860779, 7.300502, 0.01794617, 6.7848487, 0.0055906773, 0.08500147, 9.966171
358254632500258, 7.320841, 0.02751746, 6.7381887, 0.020820618, 0.12795687, 9.948961
358254642139633, 7.314859, -0.0023928226, 6.7298136, 0.047412872, 0.1105957, 9.938968
358254651779112, 7.3028946, -0.05623133, 6.745367, 0.08468199, 0.06843138, 9.941004
358254661418591, 7.281359, -0.022731815, 6.79442, 0.03130889, 0.03822899, 9.958937
358254671057966, 7.298109, 0.0011964113, 6.855437, -0.0028867722, 0.02372408, 10.012934
358254680697445, 7.312466, 0.022731815, 6.899704, -0.03255081, 0.013938427, 10.053722
358254690336925, 7.314859, 0.061016977, 6.942775, -0.07161379, 0.0064139366, 10.08503
358254699976404, 7.335198, 0.05623133, 6.9906316, -0.077138424, -0.014064312, 10.132673
358254709615779, 7.351948, 0.08015956, 6.9726853, -0.08105421, 0.017578602, 10.132574
358254719255258, 7.3495545, 0.034695927, 6.98106, -0.0380435, -0.009021759, 10.136608
358254728894737, 7.359126, -0.008374879, 6.9475603, 0.02436781, -7.815361E-4, 10.120514
358254738534112, 7.3375907, -0.013160525, 6.8853474, 0.042754173, 0.02411127, 10.062107
358254748173591, 7.338787, 0.0035892338, 6.8853474, 0.029338837, 0.0321846, 10.063
358254757813070, 7.3375907, 0.04426722, 6.862615, -0.003117323, 0.06311035, 10.046576
358254767452550, 7.3375907, 0.009571291, 6.897311, 0.0115561485, 0.022185326, 10.070383
358254777091925, 7.365108, -0.011964113, 6.916454, 0.032796383, 0.01647091, 10.103512
358254786731404, 7.355537, -0.020338992, 6.926025, 0.02915001, -8.263588E-4, 10.103134
358254796370883, 7.353144, -0.0047856453, 6.926025, 0.005605459, 0.0026168823, 10.101414
358254806010362, 7.3375907, -0.05383851, 6.896115, 0.05113101, -0.011092663, 10.069599
358254815649737, 7.292127, -0.086141616, 6.927222, 0.05207324, -0.07433462, 10.057869
358254825289216, 7.259824, -0.022731815, 6.930811, -0.017768383, -0.06583166, 10.036784
358254834928695, 7.2897344, 0.010767702, 6.9224358, -0.034964323, -0.025322437, 10.05279
358254844568070, 7.2957163, -0.014356935, 6.8889365, 5.912781E-4, -0.011979103, 10.034189
358254854207550, 7.3304124, 0.013160525, 6.843473, 0.004092455, 0.04897213, 10.028252
358254863847029, 7.314859, 0.069391854, 6.8422766, -0.05013156, 0.06677103, 10.016075
358254873486508, 7.312466, 0.051445685, 6.849455, -0.03577447, 0.04742813, 10.019297
358254883125883, 7.298109, 0.025124637, 6.823134, -0.0073177814, 0.04150772, 9.990815
358254892765362, 7.3112698, 0.015553347, 6.795616, 0.015802383, 0.06225252, 9.981543
358254902404841, 7.2873416, 0.0023928226, 6.8015985, 0.0170722, 0.03636694, 9.968225
358254912044216, 7.259824, 0.047856454, 6.8015985, -0.0326097, 0.039961338, 9.948187
358254921683695, 7.2693954, 0.058624156, 6.8219376, -0.046141863, 0.03790903, 9.969093
358254931323175, 7.263413, 0.050249275, 6.8398833, -0.043835163, 0.018023014, 9.977047
358254940962654, 7.237092, 0.04546363, 6.853044, -0.053072453, -0.008426666, 9.966889
358254950602029, 7.233503, 0.020338992, 6.8374906, -0.024524212, -0.012999535, 9.953617
358254960241508, 7.2849483, 0.0035892338, 6.798009, 0.024933815, 0.03504181, 9.964014
358254969880987, 7.283752, -0.033499517, 6.780063, 0.06318569, 0.027983665, 9.950811
358254979520362, 7.300502, -0.023928227, 6.7728844, 0.06317878, 0.047076225, 9.958096
358254989159841, 7.304091, 0.0035892338, 6.7848487, 0.03788328, 0.056573868, 9.968918
358254998799320, 7.318448, 0.02632105, 6.800402, 0.01704669, 0.06612873, 9.990054
358255008438800, 7.350751, 0.051445685, 6.8195443, 0.0052871704, 0.09107065, 10.026668
358255018078175, 7.379465, 0.069391854, 6.8422766, -0.009435654, 0.102320194, 10.063177
358255027717654, 7.373483, 0.043070808, 6.876972, 0.0024876595, 0.06685972, 10.082579
358255037357133, 7.3459654, -0.021535404, 6.946364, 0.02861762, -0.020562649, 10.110115
358255046996612, 7.3698936, -0.078963146, 7.0265236, 0.05962491, -0.08465147, 10.18248
358255056635987, 7.3830543, -0.11365908, 7.0839515, 0.06975222, -0.12268305, 10.231563
358255066275466, 7.3842506, -0.11246266, 7.111469, 0.05655861, -0.13486147, 10.25141
358255075914945, 7.375876, -0.096909314, 7.1377897, 0.030611277, -0.14970398, 10.263412
358255085554320, 7.351948, -0.039481573, 7.1306114, -0.02805233, -0.12881613, 10.24114
358255095193800, 7.351948, -0.0047856453, 7.068398, -0.038930416, -0.06932497, 10.198385
358255104833279, 7.298109, 0.034695927, 7.003792, -0.06822944, -0.04067707, 10.114861
358255114472758, 7.26102, 0.059820566, 6.9990063, -0.10071921, -0.048410416, 10.084621
358255124112133, 7.2418776, 0.08853444, 6.928418, -0.10607839, -0.0043144226, 10.022192
358255133751612, 7.2622166, 0.0849452, 6.853044, -0.07002878, 0.05368662, 9.98516
358255143391091, 7.2418776, 0.033499517, 6.8243303, -0.021463633, 0.032982826, 9.95067
358255153030466, 7.26102, 0.011964113, 6.8111696, 0.0076839924, 0.04316759, 9.955535
358255162669945, 7.3136625, 0.031106694, 6.79442, 0.011394262, 0.09289408, 9.982285
358255172309425, 7.3232336, 0.08135597, 6.782456, -0.027066708, 0.12767887, 9.981034
358255181948904, 7.3340015, 0.10289137, 6.7812595, -0.04230666, 0.14499664, 9.988034
358255191588279, 7.29452, 0.05623133, 6.823134, -0.027263641, 0.07005739, 9.988129
358255201227758, 7.280163, -0.0035892338, 6.8398833, 0.015683651, 0.017907143, 9.989204
358255210867237, 7.2729845, -0.016749758, 6.814759, 0.033464193, 0.023646832, 9.966737
358255220506612, 7.23111, -0.06819545, 6.8315086, 0.058288574, -0.035490513, 9.947786
358255230146091, 7.2382884, -0.06819545, 6.9020967, 0.034498215, -0.07537413, 10.001476
358255239785570, 7.280163, -0.0035892338, 6.916454, -0.014493227, -0.02903223, 10.041767
358255249425050, 7.3256264, 0.039481573, 6.9092755, -0.03650856, 0.027850151, 10.069874
358255259064425, 7.3256264, 0.03708875, 6.863812, -0.018847704, 0.055739403, 10.038658
358255268703904, 7.332805, 0.029910283, 6.8315086, 0.0037295818, 0.07942009, 10.021681
358255278343383, 7.314859, -0.016749758, 6.815955, 0.044199467, 0.056616306, 9.997976
358255287982758, 7.2993054, -0.06460621, 6.818348, 0.08128691, 0.02237606, 9.988334
358255297622237, 7.283752, -0.1160519, 6.8662047, 0.1037128, -0.04208088, 10.0099325
358255307261716, 7.292127, -0.083748795, 6.9056864, 0.061487436, -0.046417236, 10.043141
358255316901195, 7.3196445, -0.059820566, 6.983453, 0.019271612, -0.064899445, 10.116562
358255326540570, 7.348358, -0.0023928226, 7.024131, -0.039183855, -0.03943062, 10.165318
358255336180050, 7.348358, 0.032303106, 7.0612197, -0.082427025, -0.04661846, 10.190744
358255345819529, 7.338787, -0.011964113, 7.0540414, -0.040133715, -0.06907749, 10.178953
358255355458904, 7.4237323, 0.040677983, 7.0959153, -0.07000971, -0.020764828, 10.26938
358255365098383, 7.2586274, -0.11724831, 6.788438, 0.124717236, -1.8119812E-4, 9.938248
358255374737862, 7.304091, -0.26679972, 6.99781, 0.19633603, -0.18137217, 10.115278
358255384377237, 7.3842506, 0.42831525, 6.7968125, -0.3083365, 0.3333764, 10.034993
358255394016716, 7.1581287, -0.67118675, 6.768099, 0.5821452, -0.3345809, 9.851173
358255403656195, 7.5673018, 0.8781659, 6.9535427, -0.6869197, 0.5661793, 10.275922
358255413295675, 7.058827, -0.77766734, 6.6281185, 0.67642045, -0.36083388, 9.683802
358255422935050, 7.588837, 0.8662018, 7.066005, -0.6973977, 0.5174508, 10.368946
358255432574529, 6.991828, -0.6364908, 6.640083, 0.51149774, -0.35737014, 9.643243
358255442214008, 7.5062847, 0.38644084, 7.1282187, -0.34950137, 0.1923275, 10.351135
358255451853383, 7.160522, -0.20578274, 6.6532435, 0.21691203, -0.029861927, 9.774105
358255461492862, 7.29452, -0.21894327, 6.9990063, 0.14521503, -0.1708045, 10.109095
358255471132341, 7.365108, 0.41635114, 6.829116, -0.30809402, 0.3173933, 10.042875
358255480771716, 7.1365933, -0.6520442, 6.8721867, 0.5090108, -0.40715122, 9.907482
358255490411195, 7.5230346, 0.8446664, 7.058827, -0.705762, 0.49699593, 10.314624
358255500050675, 7.0002027, -0.8279166, 6.7633133, 0.66485524, -0.49979663, 9.73339
358255509690154, 7.52782, 0.84107715, 7.1820574, -0.7401056, 0.4045701, 10.404135
358255519329529, 6.984649, -0.64845496, 6.7118673, 0.5101323, -0.38305712, 9.687519
358255528969008, 7.452446, 0.47377887, 7.207182, -0.4706266, 0.14928102, 10.366443
358255538608487, 7.1162543, -0.16390835, 6.74776, 0.1317606, -0.082588196, 9.806938
358255548247862, 7.344769, -0.062213387, 7.0504518, 0.022317886, -0.08586359, 10.18089
358255557887341, 7.3986077, 0.4426722, 6.8315086, -0.31581378, 0.33923817, 10.0692625
358255567526820, 7.1892357, -0.5599205, 6.890133, 0.46749258, -0.32234, 9.957416
358255577166195, 7.57448, 0.81595254, 7.003792, -0.6322131, 0.52325916, 10.315917
358255586805675, 7.070791, -0.8805587, 6.7334027, 0.75281024, -0.448704, 9.76433
358255596445154, 7.5661054, 0.7860422, 7.1246295, -0.66002226, 0.43822145, 10.392137
358255606084529, 7.055238, -0.73579293, 6.6568327, 0.6396644, -0.35404754, 9.700344
358255615724008, 7.493124, 0.5180461, 7.1569324, -0.46867585, 0.22990608, 10.361682
358255625363487, 7.099505, -0.2009971, 6.698707, 0.19146395, -0.08447552, 9.76075
358255635002862, 7.2873416, 0.047856454, 7.058827, -0.090344906, -0.07154226, 10.145018
358255644642341, 7.29452, 0.45104706, 6.77767, -0.32913995, 0.31399584, 9.957075
358255654281820, 7.1581287, -0.51445687, 6.832705, 0.4430549, -0.2966516, 9.894697
358255663921195, 7.4847493, 0.7848458, 6.8913293, -0.59099245, 0.52318525, 10.173735
358255673560675, 7.0301127, -0.8853444, 6.6484575, 0.783216, -0.43328428, 9.675078
358255683200154, 7.5230346, 0.8243274, 7.0205417, -0.6582663, 0.48768044, 10.290404
358255692839529, 6.99781, -0.7848458, 6.582655, 0.7035463, -0.36952877, 9.606516
358255702479008, 7.483553, 0.5084748, 7.1306114, -0.4326923, 0.22049999, 10.337886
358255712118487, 7.1342006, -0.27876383, 6.6676, 0.2962296, -0.076293945, 9.764111
358255721757862, 7.38784, 0.0526421, 7.0612197, -0.045710564, -0.008155346, 10.219667
358255731397341, 7.3806615, 0.33379877, 6.7908306, -0.19694328, 0.3018341, 10.028513
358255741036820, 7.222735, -0.45104706, 6.9702926, 0.35916233, -0.3017459, 10.036747
358255750676195, 7.5290165, 0.7896315, 7.056434, -0.6328387, 0.4478836, 10.319971
358255760315675, 7.076773, -0.8578269, 6.8925257, 0.67874765, -0.55026674, 9.877247
358255769955154, 7.5661054, 0.802792, 7.2490563, -0.6921382, 0.36588573, 10.479805
358255779594529, 7.003792, -0.85064846, 6.792027, 0.6722474, -0.5390935, 9.755297
358255789234008, 7.4476604, 0.56350976, 7.3663044, -0.58367014, 0.11373758, 10.473493
358255798873487, 7.051648, -0.32662028, 6.704689, 0.29370332, -0.17399001, 9.729786
358255808512862, 7.372287, 0.014356935, 7.0815587, -0.022334099, -0.037888527, 10.222395
358255818152341, 7.227521, 0.1794617, 6.8255267, -0.12306404, 0.122059345, 9.941179
358255827791820, 7.1880393, -0.49172506, 6.987042, 0.38021183, -0.3524313, 10.022957
358255837431195, 7.4823565, 0.6903293, 6.9822564, -0.5421332, 0.42773485, 10.234121
358255847070675, 7.1018977, -0.8458628, 6.7322063, 0.74732995, -0.41014147, 9.785108
358255856710154, 7.605587, 0.8327023, 7.0325055, -0.63936424, 0.52271414, 10.359173
358255866349529, 7.0695944, -0.7860422, 6.6041903, 0.73306584, -0.31960654, 9.6733055
358255875989008, 7.588837, 0.7501499, 7.1078796, -0.5953777, 0.4486313, 10.398048
358255885628487, 7.099505, -0.27158538, 6.6305118, 0.29199147, -0.062491894, 9.713457
358255895267862, 7.3627152, 0.21894327, 7.076773, -0.20062542, 0.068347454, 10.21241
358255904907341, 7.2215385, 0.20937198, 6.778867, -0.12931132, 0.16216326, 9.904771
358255914546820, 7.1748786, -0.45822555, 6.971489, 0.3446455, -0.3389356, 10.002842
358255924186195, 7.3842506, 0.5479564, 6.9822564, -0.428334, 0.31218815, 10.163581
358255933825675, 7.0301127, -0.8961121, 6.7908306, 0.742126, -0.5397289, 9.772349
358255943465154, 7.5110703, 0.7513463, 7.103094, -0.6169479, 0.4248581, 10.337965
358255953104529, 6.971489, -0.8279166, 6.6676, 0.68777966, -0.46838212, 9.646325
358255962744008, 7.5230346, 0.6879365, 7.1653075, -0.5784724, 0.36935377, 10.389412
358255972383383, 7.068398, -0.41635114, 6.6795645, 0.37228227, -0.19485998, 9.725
358255982022862, 7.4309106, 0.28115666, 7.099505, -0.24238276, 0.13887882, 10.277277
358255991662341, 7.2622166, 0.15314065, 6.7334027, -0.05341196, 0.19470644, 9.902585
358256001301716, 7.2323065, -0.31345975, 7.0133634, 0.21437454, -0.2512746, 10.073862
358256010941195, 7.463214, 0.6975078, 6.984649, -0.5179889, 0.46941328, 10.22168
358256020580675, 7.0672016, -0.7190432, 6.875776, 0.56113553, -0.4797058, 9.858685
358256030220050, 7.5326056, 0.91166544, 7.1246295, -0.73119664, 0.5439553, 10.368275
358256039859529, 7.001399, -0.7429714, 6.74776, 0.59326863, -0.45248938, 9.7235365
358256049499008, 7.548159, 0.7860422, 7.200003, -0.65512896, 0.42589283, 10.431781
358256059138383, 7.058827, -0.4977071, 6.7322063, 0.42132998, -0.27318668, 9.75424
358256068777862, 7.420143, 0.2428715, 7.153343, -0.23122811, 0.07736778, 10.306715
358256078417237, 7.170093, -0.040677983, 6.7932234, 0.0538826, -0.0040545464, 9.877087
358256088056716, 7.2287173, -0.3469593, 7.051648, 0.23662782, -0.29004908, 10.097544
358256097696195, 7.422536, 0.48454657, 6.9009004, -0.33179212, 0.36420393, 10.13452
358256107335570, 7.0839515, -0.7429714, 6.843473, 0.6066606, -0.45105743, 9.848656
358256116975050, 7.524231, 0.9451649, 7.0612197, -0.7415025, 0.574522, 10.319317
358256126614529, 6.9990063, -0.721436, 6.707082, 0.60407805, -0.3973906, 9.693745
358256136253904, 7.4943204, 0.8458628, 7.173682, -0.7156873, 0.44810152, 10.374442
358256145893383, 7.021738, -0.48095736, 6.6628146, 0.42409945, -0.22964025, 9.679702
358256155532758, 7.411768, 0.43070808, 7.115058, -0.37712026, 0.2047944, 10.274225
358256165172237, 7.164111, 0.0071784677, 6.7034926, 0.04808569, 0.08410549, 9.81081
358256174811716, 7.2155566, -0.26679972, 7.007381, 0.18156862, -0.21925116, 10.057723
358256184451091, 7.318448, 0.5204389, 6.843473, -0.38618064, 0.36702204, 10.018973
358256194090570, 7.0935225, -0.70947194, 6.876972, 0.5631802, -0.43434954, 9.879693
358256203730050, 7.499106, 0.79441714, 7.103094, -0.65194917, 0.44452906, 10.329521
358256213369425, 7.031309, -0.8781659, 6.79442, 0.70806813, -0.5118809, 9.778099
358256223008904, 7.570891, 0.8039884, 7.2155566, -0.6762922, 0.42188835, 10.459143
358256232648279, 7.0731835, -0.6041877, 6.7130637, 0.5304785, -0.30106497, 9.751315
358256242287758, 7.4715886, 0.39601216, 7.1952176, -0.35225415, 0.167449, 10.373066
358256251927237, 7.1820574, -0.02871387, 6.741778, 0.076414585, 0.054087162, 9.850157
358256261566612, 7.288538, -0.078963146, 7.0636125, 0.037442923, -0.10829878, 10.14941
358256271206091, 7.3830543, 0.5587241, 6.88774, -0.4160049, 0.3784876, 10.096848
358256280845570, 7.071987, -0.6197411, 6.9738817, 0.44403172, -0.46852684, 9.930531
358256290484945, 7.500303, 0.8315059, 7.0672016, -0.67164147, 0.46895027, 10.306321
358256300124425, 6.99781, -0.85902333, 6.734599, 0.7154722, -0.48121262, 9.711779
358256309763800, 7.5673018, 0.8039884, 7.056434, -0.61831355, 0.50152826, 10.347456
358256319403279, 7.0492554, -0.64247286, 6.5491557, 0.6278012, -0.22701907, 9.620319
358256329042758, 7.489535, 0.44865423, 7.0600233, -0.3458631, 0.2677946, 10.2930565
358256338682133, 7.1808605, -0.09092726, 6.587441, 0.18321753, 0.10148859, 9.74287
358256348321612, 7.2550383, -0.047856454, 6.9882383, 0.022579193, -0.08425903, 10.073021
358256357960987, 7.29452, 0.4749753, 6.818348, -0.35565257, 0.30381966, 9.985325
358256367600466, 7.071987, -0.58265233, 6.942775, 0.43284392, -0.4538629, 9.907637
358256377239945, 7.432107, 0.8530413, 7.051648, -0.71351695, 0.4220686, 10.2470665
358256386879320, 6.960721, -0.7812566, 6.792027, 0.614717, -0.5202129, 9.723432
358256396518800, 7.503892, 0.8805587, 7.1306114, -0.7403891, 0.44095945, 10.353105
358256406158175, 7.0002027, -0.64606214, 6.6628146, 0.56216884, -0.35267544, 9.662967
358256415797654, 7.4620175, 0.51206404, 7.131808, -0.43313718, 0.22870827, 10.323114
358256425437133, 7.1677003, -0.22372891, 6.6281185, 0.28185177, -0.009613037, 9.7610655
358256435076508, 7.365108, -0.09930214, 7.01097, 0.10101962, -0.06337404, 10.168293
358256444715987, 7.393822, 0.32422748, 6.799206, -0.17136073, 0.30938816, 10.043797
358256454355362, 7.216753, -0.5407779, 6.936793, 0.43944716, -0.34497118, 10.009043
358256463994841, 7.5349984, 0.81595254, 7.0504518, -0.6188991, 0.50688934, 10.32041
358256473634320, 7.07438, -0.77647096, 6.8745794, 0.6002042, -0.5158558, 9.863228
358256483273695, 7.5673018, 0.9726824, 7.24786, -0.8160584, 0.48991966, 10.480251
358256492913175, 7.0133634, -0.59940207, 6.8398833, 0.44969988, -0.42205167, 9.79542
358256502552550, 7.483553, 0.68195444, 7.3256264, -0.6473849, 0.23630619, 10.471794
358256512192029, 7.1222367, -0.18185452, 6.799206, 0.15587497, -0.10648012, 9.846466
358256521831508, 7.332805, 0.043070808, 7.1413794, -0.08735919, -0.07782841, 10.23511
358256531470883, 7.27777, 0.27158538, 6.8015985, -0.17480373, 0.22086334, 9.961029
358256541110362, 7.164111, -0.56111693, 6.9152575, 0.45728564, -0.34359264, 9.956554
358256550749841, 7.469196, 0.69152576, 6.91765, -0.50774646, 0.4716425, 10.180407
358256560389216, 7.0348988, -0.8470592, 6.661618, 0.7486899, -0.40334558, 9.688202
358256570028695, 7.5996046, 0.849452, 6.9475603, -0.6141863, 0.6020398, 10.295848
358256579668070, 7.0803623, -0.6939186, 6.538388, 0.6675236, -0.24057484, 9.6363945
358256589307550, 7.499106, 0.6891329, 7.0731835, -0.56876135, 0.3911705, 10.308487
358256598947029, 7.105487, -0.33260235, 6.617351, 0.3371725, -0.0810318, 9.709152
358256608586404, 7.338787, 0.049052864, 7.0803623, -0.07937741, -0.032452106, 10.197272
358256618225883, 7.253842, 0.23928227, 6.8255267, -0.17672682, 0.17716646, 9.959953
358256627865258, 7.131808, -0.4869394, 7.0839515, 0.30817914, -0.43012738, 10.049984
358256637504737, 7.420143, 0.7082755, 7.115058, -0.6243725, 0.3431263, 10.279916
358256647144216, 7.018149, -0.82672024, 6.923632, 0.6050811, -0.5707896, 9.858126
358256656783591, 7.5517483, 0.8865408, 7.146165, -0.7414384, 0.4904828, 10.396741
358256666423070, 7.0265236, -0.7692925, 6.728617, 0.63428545, -0.40713835, 9.729853
358256676062445, 7.5326056, 0.6448657, 7.219146, -0.575505, 0.32430363, 10.432434
358256685701925, 7.097112, -0.44506502, 6.71426, 0.3857677, -0.19090366, 9.770523
358256695341404, 7.391429, 0.06819545, 7.1186476, -0.10125089, 5.722046E-4, 10.261713
358256704980779, 7.3196445, 0.13878371, 6.771688, -0.051393747, 0.21134949, 9.970201
358256714620258, 7.23111, -0.44985065, 6.9822564, 0.33633494, -0.28090048, 10.052422
358256724259633, 7.4787674, 0.7178468, 6.943971, -0.5530865, 0.50150585, 10.2033615
358256733899112, 7.099505, -0.6987042, 6.800402, 0.5677111, -0.38581347, 9.83186
358256743538591, 7.5864444, 0.997807, 7.1078796, -0.82133317, 0.61628103, 10.393139
358256753177966, 7.0408807, -0.74895346, 6.6532435, 0.6351018, -0.35234094, 9.688812
358256762817445, 7.554141, 0.7429714, 7.109076, -0.6165824, 0.4574132, 10.371432
358256772456820, 7.09113, -0.4127619, 6.602994, 0.38951373, -0.11679602, 9.689617
358256782096300, 7.4129643, 0.20697916, 7.0337024, -0.18619776, 0.1335764, 10.218384
358256791735779, 7.2179494, 0.041874398, 6.7262244, -0.0010826588, 0.12083769, 9.865498
358256801375154, 7.179664, -0.46061835, 6.9726853, 0.32048178, -0.3176036, 10.00872
358256811014633, 7.4033933, 0.6125626, 7.0205417, -0.5331657, 0.34341335, 10.201531
358256820654008, 7.004988, -0.75613195, 6.8889365, 0.5320065, -0.5209012, 9.825716
358256830293487, 7.515856, 0.971486, 7.173682, -0.8614559, 0.514503, 10.386855
358256839932966, 6.975078, -0.74177504, 6.7836523, 0.54949594, -0.46401024, 9.731527
358256849572341, 7.4715886, 0.84825563, 7.281359, -0.81127703, 0.35176134, 10.429788
358256859211820, 7.0061846, -0.47258246, 6.721439, 0.36559606, -0.2602086, 9.710115
358256868851300, 7.391429, 0.22013968, 7.112665, -0.23606634, 0.08106756, 10.257164
358256878490675, 7.239485, 0.058624156, 6.735796, -0.011163235, 0.13582706, 9.887667
358256888130154, 7.2969127, -0.31465617, 6.9798636, 0.24054337, -0.1771102, 10.098179
358256897769529, 7.4356966, 0.6843473, 6.928418, -0.5515456, 0.4462657, 10.1615715
358256907409008, 7.135397, -0.6723832, 6.838687, 0.5554042, -0.36790967, 9.883816
358256917048487, 7.554141, 0.98584294, 7.055238, -0.81206477, 0.57990074, 10.33526
358256926687862, 7.0372915, -0.7920243, 6.6891356, 0.6756978, -0.38673306, 9.710262
358256936327341, 7.5254273, 0.78364944, 7.1210403, -0.6632817, 0.4447503, 10.359423
358256945966716, 6.9798636, -0.5946164, 6.735796, 0.46490097, -0.35186863, 9.700674
358256955606195, 7.3842506, 0.23928227, 7.220342, -0.29405665, 0.010755539, 10.326239
358256965245675, 7.155736, -0.09332009, 6.8195443, 0.057860613, -0.044751644, 9.885044
358256974885050, 7.251449, -0.33260235, 7.0600233, 0.20092249, -0.2635498, 10.120685
358256984524529, 7.3698936, 0.59342, 6.9152575, -0.5003264, 0.37860394, 10.104187
358256994163904, 7.111469, -0.6759724, 6.91765, 0.497375, -0.42742705, 9.922385
358257003803383, 7.564909, 0.9092726, 7.056434, -0.74714303, 0.5820427, 10.341707
358257013442862, 7.045666, -0.81834537, 6.73101, 0.66303706, -0.4296677, 9.746452
358257023082237, 7.594819, 0.90329057, 7.1102724, -0.7568197, 0.5528774, 10.400707
358257032721716, 7.058827, -0.53240305, 6.674779, 0.44174862, -0.24200678, 9.716453
358257042361195, 7.428518, 0.3900301, 7.1748786, -0.4030888, 0.14784527, 10.326159
358257052000570, 7.149754, -0.059820566, 6.7537417, 0.040302515, 0.008481026, 9.8353405
358257061640050, 7.2299137, -0.2009971, 7.0408807, 0.0782938, -0.19518423, 10.091671
358257071279425, 7.335198, 0.40677986, 6.8685975, -0.32387853, 0.30180168, 10.047499
358257080918904, 7.066005, -0.7920243, 6.896115, 0.5745499, -0.51455116, 9.875083
358257090558383, 7.509874, 0.8063812, 7.0229344, -0.6614115, 0.5094147, 10.279743
358257100197758, 7.0085773, -0.85184485, 6.6891356, 0.68149424, -0.44863462, 9.691473
358257109837237, 7.548159, 0.84347, 7.1138616, -0.72070193, 0.5081177, 10.368973
358257119476716, 7.025327, -0.57427746, 6.647261, 0.46759987, -0.262825, 9.673849
358257129116091, 7.4584284, 0.58265233, 7.1425757, -0.55449367, 0.29498196, 10.32422
358257138755570, 7.1892357, -0.019142581, 6.6771717, 0.04191065, 0.105588436, 9.811074
358257148394945, 7.3232336, -0.1471586, 7.018149, 0.064896345, -0.089577675, 10.143648
358257158034425, 7.3902326, 0.39481574, 6.855437, -0.30766964, 0.34473658, 10.077448
358257167673904, 7.18445, -0.73579293, 6.9942207, 0.5176306, -0.46551895, 10.029566
358257177313279, 7.503892, 0.74177504, 7.1545396, -0.6714051, 0.40878248, 10.364756
358257186952758, 7.0097737, -0.9595219, 6.946364, 0.6665468, -0.6438947, 9.871712
358257196592237, 7.548159, 0.7728817, 7.3363943, -0.7620058, 0.34781504, 10.521079
358257206231612, 7.038488, -0.7082755, 6.8410797, 0.49858093, -0.4313717, 9.818743
358257215871091, 7.507481, 0.5479564, 7.3268228, -0.5959172, 0.1860938, 10.485949
358257225510570, 7.1617184, -0.16869399, 6.7728844, 0.10970569, -0.032170773, 9.857868
358257235149945, 7.338787, -0.07298109, 7.105487, -0.036810875, -0.09252739, 10.214752
358257244789425, 7.375876, 0.36370903, 6.806384, -0.29306126, 0.33351898, 10.033224
358257254428904, 7.166504, -0.6149554, 6.890133, 0.44814444, -0.3385098, 9.94462
358257264068279, 7.513463, 0.7585248, 6.9559355, -0.6292753, 0.5225458, 10.2344265
358257273707758, 6.9882383, -0.84347, 6.6125655, 0.6681199, -0.4151373, 9.625706
358257283347133, 7.62114, 0.87936234, 7.007381, -0.72305727, 0.6182928, 10.346659
358257292986612, 7.0229344, -0.701097, 6.6364937, 0.5519438, -0.33258963, 9.666486
358257302626091, 7.513463, 0.587438, 7.1880393, -0.5804708, 0.29748917, 10.394213
358257312265466, 7.09113, -0.28953153, 6.728617, 0.19167566, -0.12982702, 9.776945
358257321904945, 7.3100734, -0.03589234, 7.1545396, -0.10885024, -0.12726545, 10.22731
358257331544425, 7.30768, 0.28713873, 6.893722, -0.27549243, 0.20855665, 10.044334
358257341183800, 7.1677003, -0.5802595, 7.025327, 0.34011602, -0.4319768, 10.038205
358257350823279, 7.4775705, 0.7477571, 7.0468626, -0.6666002, 0.44027376, 10.270993
358257360462758, 7.0600233, -0.80997044, 6.814759, 0.5944412, -0.47161365, 9.816575
358257370102133, 7.5828547, 0.9068798, 7.1246295, -0.80242443, 0.5415435, 10.399294
358257379741612, 7.025327, -0.7513463, 6.652047, 0.59750223, -0.35552788, 9.679157
358257389381091, 7.5385876, 0.60059845, 7.1712894, -0.5764282, 0.3216443, 10.401091
358257399020466, 7.092326, -0.35413775, 6.650851, 0.2806034, -0.10667038, 9.724721
358257408659945, 7.379465, 0.040677983, 7.0863442, -0.12307453, -0.0070581436, 10.23031
358257418299425, 7.2957163, 0.21894327, 6.7202425, -0.17244911, 0.25910568, 9.916662
358257427938800, 7.204789, -0.45942193, 6.9224358, 0.3046217, -0.2661667, 9.993824
358257437578279, 7.5110703, 0.71665037, 6.8889365, -0.5909376, 0.5366254, 10.185778
358257447217758, 7.064809, -0.83748794, 6.7704916, 0.63539815, -0.44841146, 9.790182
358257456857133, 7.5900335, 0.81236327, 6.9535427, -0.6617732, 0.58560944, 10.287828
358257466496612, 7.0408807, -0.81954175, 6.6245294, 0.6674192, -0.3810017, 9.671578
358257476136091, 7.487142, 0.57427746, 7.2263246, -0.5804255, 0.26372194, 10.401943
358257485775466, 7.1078796, -0.45822555, 6.715457, 0.34177446, -0.21319675, 9.7809515
358257495414945, 7.3902326, 0.13998012, 7.149754, -0.23026896, 0.015406609, 10.281092
358257505054425, 7.34118, 0.21655045, 6.7573314, -0.15289736, 0.26577616, 9.975336
358257514693800, 7.2490563, -0.40438703, 7.076773, 0.19610572, -0.3310361, 10.131387
358257524333279, 7.48116, 0.65084773, 7.0205417, -0.5658951, 0.43662405, 10.255169
358257533972758, 7.0959153, -0.8470592, 6.926025, 0.55142045, -0.58225894, 9.919489
358257543612133, 7.5864444, 0.81236327, 7.1342006, -0.696264, 0.51314926, 10.409744
358257553251612, 7.0265236, -0.8853444, 6.727421, 0.66985965, -0.5054295, 9.7319
358257562891091, 7.536195, 0.6652047, 7.1880393, -0.63295007, 0.33697462, 10.411075
358257572530466, 7.1413794, -0.465404, 6.652047, 0.38726568, -0.17753243, 9.761359
358257582169945, 7.4392858, 0.1794617, 7.09113, -0.21929717, 0.075051785, 10.276458
358257591809425, 7.304091, 0.104087785, 6.649654, -0.0317533, 0.22612715, 9.875542
358257601448800, 7.257431, -0.32662028, 6.969096, 0.19051242, -0.22861195, 10.062641
358257611088279, 7.475178, 0.67477596, 6.8805614, -0.546463, 0.47637463, 10.156288
358257620727758, 7.117451, -0.7501499, 6.8542404, 0.54285717, -0.48171806, 9.883051
358257630367237, 7.584051, 0.87936234, 7.042077, -0.76195335, 0.53488016, 10.34482
358257640006612, 7.0396843, -0.8362915, 6.6759753, 0.63207865, -0.47566557, 9.705639
358257649646091, 7.556534, 0.70229346, 7.18445, -0.6679714, 0.3486557, 10.423194
358257659285570, 7.125826, -0.50009996, 6.7118673, 0.3649919, -0.27116966, 9.791319
358257668924945, 7.4416785, 0.29910284, 7.1653075, -0.36708593, 0.0708828, 10.328112
358257678564425, 7.259824, 0.06580263, 6.7118673, -0.056812763, 0.11655283, 9.88644
358257688203904, 7.2490563, -0.31345975, 6.984649, 0.15305114, -0.26293564, 10.06677
358257697843279, 7.4787674, 0.47018966, 6.77767, -0.3497498, 0.40987158, 10.089576
358257707482758, 7.109076, -0.83030945, 6.74776, 0.63381124, -0.47293782, 9.804859
358257717122237, 7.5720873, 0.79441714, 6.863812, -0.6417831, 0.5668254, 10.215006
358257726761716, 7.0695944, -0.8913264, 6.552745, 0.74309945, -0.40746117, 9.6433325
358257736401091, 7.598408, 0.72502524, 6.9858456, -0.6160326, 0.4713688, 10.318033
358257746040570, 7.149754, -0.5096712, 6.5144596, 0.45485616, -0.1476016, 9.674103
358257755680050, 7.5026956, 0.43429732, 7.024131, -0.41867876, 0.24549913, 10.275307
358257765319425, 7.240681, 0.076570325, 6.631708, -0.061232567, 0.14176655, 9.817793
358257774958904, 7.271788, -0.20338993, 6.9655066, 0.06401873, -0.19687033, 10.069544
358257784598383, 7.4033933, 0.5766702, 6.836294, -0.5008855, 0.3727789, 10.074118
358257794237862, 7.075577, -0.6999006, 6.8913293, 0.4475808, -0.52131987, 9.8778515
358257803877237, 7.556534, 0.8171489, 6.995417, -0.7163534, 0.4807639, 10.293712
358257813516716, 7.0169525, -0.8554341, 6.664011, 0.6648824, -0.50391793, 9.678968
358257823156195, 7.5720873, 0.80159557, 7.0432734, -0.70388186, 0.43860435, 10.339195
358257832795675, 7.085148, -0.5886344, 6.519245, 0.5165913, -0.23262286, 9.629403
358257842435050, 7.487142, 0.39960137, 6.96431, -0.34879923, 0.24038792, 10.224438
358257852074529, 7.281359, -0.1591227, 6.5001025, 0.2292862, 0.10039973, 9.7586975
358257861714008, 7.3579297, -0.25244278, 6.8506513, 0.19567132, -0.12134647, 10.053917
358257871353383, 7.5589266, 0.39960137, 6.6652074, -0.2084465, 0.46471977, 10.072866
358257880992862, 7.2658057, -0.7118647, 6.780063, 0.5583186, -0.39106178, 9.939985
358257890632341, 7.6426754, 0.7956135, 6.9822564, -0.63037014, 0.53492737, 10.349487
358257900271820, 7.111469, -0.83030945, 6.7501526, 0.6065576, -0.5181036, 9.807682
358257909911195, 7.6546397, 0.8470592, 7.243074, -0.77896595, 0.42178488, 10.535107
358257919550675, 7.1377897, -0.5694918, 6.765706, 0.39894843, -0.3725295, 9.836117
358257929190154, 7.536195, 0.50009996, 7.301698, -0.56706333, 0.10402489, 10.489363
358257938829633, 7.2119675, -0.16031912, 6.786045, 0.07187605, -0.1264081, 9.902901
358257948469008, 7.3172517, -0.12921242, 7.117451, -0.04512644, -0.25817347, 10.205308
358257958108487, 7.4141607, 0.35413775, 6.818348, -0.30450773, 0.23807907, 10.0715275
358257967747966, 7.200003, -0.6795616, 6.818348, 0.51043963, -0.43331313, 9.916824
358257977387445, 7.623533, 0.7680961, 6.829116, -0.5777736, 0.56195927, 10.232079
358257987026820, 7.105487, -0.8745767, 6.521638, 0.7489674, -0.40047336, 9.646929
358257996666300, 7.678568, 0.78843504, 6.9296145, -0.61526036, 0.525815, 10.341497
358258006305779, 7.18445, -0.64606214, 6.4737816, 0.6053736, -0.22461152, 9.670918
358258015945258, 7.615158, 0.5982057, 7.1018977, -0.5441294, 0.27807665, 10.412109
358258025584633, 7.308877, -0.07058827, 6.631708, 0.093800545, 0.04279375, 9.868818
358258035224112, 7.3842506, 0.09212367, 7.117451, -0.20774245, -0.12771797, 10.253502
358258044863591, 7.4979095, 0.4833502, 6.7848487, -0.3526492, 0.36350155, 10.110884
358258054503070, 7.2466636, -0.526421, 6.8039913, 0.37061453, -0.38035178, 9.939996
358258064142550, 7.5936227, 0.7860422, 7.1282187, -0.6820154, 0.40371752, 10.414621
358258073781925, 7.004988, -0.92482597, 6.8279195, 0.58107615, -0.7767441, 9.777763
358258083421404, 7.7156568, 0.7573284, 6.9942207, -0.53758454, 0.5282798, 10.414219
358258093060883, 7.152147, -0.76689965, 6.4618177, 0.6732037, -0.39656305, 9.637736
358258102700362, 7.5553374, 0.4989035, 7.07438, -0.43853903, 0.22090864, 10.350737
358258112339737, 7.253842, -0.23928227, 6.4199433, 0.31654477, 0.0067641735, 9.68457
358258121979216, 7.409375, 0.038285162, 6.8410797, -0.026608944, -0.0019874573, 10.0846405
358258131618695, 7.4536424, 0.276371, 6.5850477, -0.09742856, 0.31163192, 9.944317
358258141258175, 7.2670026, -0.5599205, 6.7645097, 0.46275854, -0.35101295, 9.926937
358258150897654, 7.585248, 0.8255238, 6.906883, -0.6657301, 0.45013285, 10.260443
358258160537029, 7.0097737, -0.7369894, 6.823134, 0.51379347, -0.6360645, 9.775821
358258170176508, 7.605587, 0.9559326, 7.105487, -0.85475826, 0.37341356, 10.41041
358258179815987, 7.1976104, -0.70229346, 6.4845495, 0.67076707, -0.29587507, 9.685594
358258189455466, 7.570891, 0.62452674, 7.1509504, -0.59064317, 0.16101885, 10.414881
358258199094945, 7.338787, -0.2321038, 6.5001025, 0.3114519, 0.009880066, 9.801323
358258208734320, 7.450053, 0.14237295, 6.9128647, -0.122374296, 5.8841705E-4, 10.163478
358258218373800, 7.4859457, 0.34217364, 6.587441, -0.15771055, 0.33372116, 9.970688
358258228013279, 7.2670026, -0.45583272, 6.8865438, 0.34673786, -0.38960195, 10.008475
358258237652758, 7.6163545, 0.81236327, 6.9344, -0.63657427, 0.45325375, 10.302624
358258247292237, 7.190432, -0.782453, 6.7836523, 0.6156421, -0.5488486, 9.881914
358258256931612, 7.726424, 0.8925229, 7.1688967, -0.7533119, 0.41231394, 10.542762
358258266571091, 7.153343, -0.72023964, 6.7369924, 0.5702009, -0.5075681, 9.823105
358258276210570, 7.63789, 0.6652047, 7.2346992, -0.600687, 0.23520947, 10.5216255
358258285850050, 7.2861447, -0.28115666, 6.546763, 0.33074093, -0.08761191, 9.793365
358258295489529, 7.4715886, 0.15553348, 7.0779696, -0.17704701, -0.050252438, 10.291386
358258305128904, 7.428518, 0.22971097, 6.65444, -0.06507659, 0.22580576, 9.973064
358258314768383, 7.2909307, -0.42831525, 6.8518476, 0.3172269, -0.36075497, 10.002908
358258324407862, 7.615158, 0.70348984, 6.7740808, -0.41621637, 0.53834796, 10.193657
358258334047341, 7.283752, -0.37208393, 6.7334027, 0.32950497, -0.2615354, 9.91732
358258343686820, 7.409375, 0.09571291, 6.7872415, -0.019812822, 0.05198145, 10.048461
358258353326300, 7.3926253, 0.009571291, 6.7058854, 0.07190132, 0.04649496, 9.98061
358258362965675, 7.3340015, -0.034695927, 6.820741, 0.038283348, -0.08100796, 10.015152
358258372605154, 7.332805, -0.078963146, 6.849455, 0.06255579, -0.124736786, 10.033535
358258382244633, 7.322037, -0.09332009, 6.814759, 0.08368325, -0.115950584, 10.002071
358258391884112, 7.355537, -0.059820566, 6.7908306, 0.07919407, -0.05790329, 10.010656
358258401523591, 7.3232336, -0.032303106, 6.795616, 0.040776014, -0.061521053, 9.990282
358258411163070, 7.353144, 0.0634098, 6.782456, -0.026216745, 0.022380829, 10.003663
358258420802445, 7.399804, 0.11964113, 6.7812595, -0.05698967, 0.07950449, 10.037298
358258430441925, 7.3543406, 0.1052842, 6.8339014, -0.078831434, 0.015708447, 10.039579
358258440081404, 7.3663044, 0.101694964, 6.88774, -0.08994961, -0.013279915, 10.084913
358258449720883, 7.399804, 0.09451649, 6.8781686, -0.066690445, 0.010660648, 10.1030035
358258459360362, 7.402197, 0.0741775, 6.903293, -0.055007935, -0.013765335, 10.121772
358258468999841, 7.3770723, 0.06460621, 6.882954, -0.046026707, -0.018854141, 10.089497
358258478639216, 7.3627152, 0.03589234, 6.896115, -0.029946804, -0.04992485, 10.087809
358258488278695, 7.355537, 0.02871387, 6.8913293, -0.020009995, -0.051986217, 10.0792885
358258497918175, 7.3603225, 0.06580263, 6.8614187, -0.039036036, -0.01088953, 10.062609
358258507557654, 7.3567333, 0.08255238, 6.826723, -0.04315996, 0.017368317, 10.036449
358258517197133, 7.3698936, 0.13519448, 6.786045, -0.06984615, 0.07680464, 10.018644
358258526836612, 7.4153576, 0.15074782, 6.739385, -0.05155754, 0.1421156, 10.020315
358258536476091, 7.344769, 0.13878371, 6.7764735, -0.07310176, 0.06885815, 9.993769
358258546115570, 7.298109, 0.14117654, 6.814759, -0.10184717, 0.013177872, 9.985626
358258555754945, 7.2993054, 0.14476576, 6.8243303, -0.10610342, 0.005417347, 9.993048
358258565394425, 7.314859, 0.09810573, 6.884151, -0.07693839, -0.048114777, 10.044903
358258575033904, 7.3172517, 0.07178468, 6.8925257, -0.0559597, -0.06470251, 10.05221
358258584673383, 7.359126, 0.076570325, 6.8925257, -0.045196295, -0.03699732, 10.08296
358258594312862, 7.396215, 0.02871387, 6.8853474, 0.012069225, -0.030018806, 10.105038
358258603952341, 7.405786, 0.0059820567, 6.884151, 0.035408974, -0.0317111, 10.111132
358258613591820, 7.4392858, 0.025124637, 6.8745794, 0.030270815, 0.009170055, 10.129288
358258623231300, 7.4679995, 0.05503492, 6.836294, 0.02491355, 0.06729174, 10.124416
358258632870675, 7.469196, 0.10767702, 6.8051877, -0.010631323, 0.11284113, 10.104366
358258642510154, 7.4153576, 0.1363909, 6.8315086, -0.0631752, 0.076985836, 10.082943
358258652149633, 7.347162, 0.15074782, 6.9188466, -0.12865567, -0.018302917, 10.092425
358258661789112, 7.3292155, 0.1591227, 6.946364, -0.15109706, -0.046615124, 10.098005
358258671428591, 7.3340015, 0.11964113, 6.9535427, -0.1129508, -0.068468094, 10.106245
358258681068070, 7.32443, 0.09332009, 6.914061, -0.07655668, -0.061012268, 10.072271
358258690707550, 7.344769, 0.069391854, 6.8721867, -0.031983137, -0.032862663, 10.058592
358258700347029, 7.3627152, 0.05623133, 6.8398833, -0.0016393661, -0.0067915916, 10.049713
358258709986508, 7.4141607, 0.062213387, 6.782456, 0.027753115, 0.06473446, 10.048403
358258719625883, 7.4105716, 0.05623133, 6.7501526, 0.04471469, 0.081059456, 10.023758
358258729265362, 7.4153576, 0.0059820567, 6.7968125, 0.07623243, 0.029733658, 10.058704
358258738904841, 7.38784, 0.041874398, 6.7908306, 0.037853956, 0.032795906, 10.034679
358258748544320, 7.3830543, 0.062213387, 6.8099732, 0.011214495, 0.026555061, 10.044315
358258758183800, 7.3698936, 0.049052864, 6.814759, 0.017096281, 0.0069522858, 10.037846
358258767823279, 7.348358, 0.0741775, 6.814759, -0.012252331, 0.0040950775, 10.022207
358258777462758, 7.3340015, 0.10767702, 6.8315086, -0.052110672, -2.7036667E-4, 10.023272
358258787102237, 7.3268228, 0.104087785, 6.8662047, -0.06119013, -0.028683186, 10.041582
358258796741716, 7.332805, 0.05383851, 6.882954, -0.020916462, -0.058940887, 10.057041
358258806381195, 7.3340015, 0.01794617, 6.88774, 0.009977579, -0.076514244, 10.060961
358258816020675, 7.3639116, 0.031106694, 6.8781686, 0.011329174, -0.044312477, 10.076471
358258825660154, 7.391429, 0.043070808, 6.862615, 0.013133764, -0.0110569, 10.086142
358258835299529, 7.3974113, 0.05503492, 6.838687, 0.010174036, 0.0135502815, 10.074327
358258844939008, 7.416554, 0.07178468, 6.820741, 0.0017797947, 0.04149866, 10.076269
358258854578487, 7.4177504, 0.059820566, 6.8219376, 0.012189865, 0.035699368, 10.077897
358258864217966, 7.426125, 0.046660043, 6.806384, 0.027201414, 0.041875362, 10.073426
358258873857445, 7.4249287, 0.039481573, 6.8446693, 0.019788027, 0.013069153, 10.098518
358258883496925, 7.365108, 0.06580263, 6.916454, -0.048338175, -0.05594015, 10.103514
358258893136404, 7.373483, 0.062213387, 6.869794, -0.025406599, -0.020664215, 10.077953
358258902775883, 7.3603225, 0.039481573, 6.8913293, -0.015950918, -0.05370474, 10.082816
358258912415362, 7.375876, 0.08255238, 6.899704, -0.051807404, -0.030041695, 10.100132
358258922054841, 7.3950186, 0.111266255, 6.882954, -0.06481671, 0.006061077, 10.102947
358258931694320, 7.396215, 0.1268196, 6.867401, -0.07119417, 0.025398731, 10.093344
358258941333800, 7.385447, 0.09930214, 6.859026, -0.045707226, 0.012221336, 10.079618
358258950973279, 7.3950186, 0.047856454, 6.863812, 0.0026202202, -0.009496689, 10.08962
358258960612758, 7.381858, 0.0, 6.8075805, 0.060502052, -0.0045046806, 10.041479
358258970252237, 7.350751, 0.016749758, 6.77767, 0.045911312, 0.003150463, 9.998426
358258979891716, 7.3627152, 0.033499517, 6.7561345, 0.04055643, 0.025893688, 9.992685
358258989531091, 7.328019, 0.06819545, 6.762117, -0.0032014847, 0.018443584, 9.971479
358258999170570, 7.331609, 0.11844472, 6.7812595, -0.052654505, 0.027040958, 9.987417
358259008810050, 7.347162, 0.086141616, 6.814759, -0.031574726, -0.0015525818, 10.021385
358259018449529, 7.3770723, 0.11724831, 6.8099732, -0.044118643, 0.03373003, 10.040298
358259028089008, 7.4105716, 0.1591227, 6.9009004, -0.10214019, 0.01590252, 10.126877
358259037728487, 7.4033933, 0.16630118, 6.8865438, -0.10371947, 0.024861813, 10.111922
358259047367966, 7.4010005, 0.148355, 6.8865438, -0.087162256, 0.014723301, 10.110069
358259057007445, 7.416554, 0.06819545, 6.8578296, -0.0017366409, 0.0040535927, 10.101473
358259066646925, 7.389036, 0.032303106, 6.8315086, 0.03122449, -0.010938168, 10.063167
358259076286404, 7.353144, 0.05383851, 6.8315086, -3.0374527E-4, -0.022526264, 10.036964
358259085925883, 7.361519, 0.02751746, 6.859026, 0.014551878, -0.047470093, 10.061634
358259095565362, 7.3698936, 0.09212367, 6.838687, -0.036621094, 0.0013413429, 10.054358
358259105204841, 7.375876, 0.083748795, 6.8614187, -0.03472662, -0.013753414, 10.074137
358259114844320, 7.375876, 0.039481573, 6.8949184, -0.006108284, -0.058450222, 10.096611
358259124483800, 7.3926253, 0.020338992, 6.8853474, 0.019330502, -0.050760746, 10.102296
358259134123279, 7.3663044, 0.008374879, 6.8602223, 0.029531479, -0.061169147, 10.065812
358259143762758, 7.353144, 0.03589234, 6.802795, 0.020883799, -0.01858902, 10.017348
358259153402237, 7.372287, 0.039481573, 6.762117, 0.039212465, 0.018321991, 10.003826
358259163041716, 7.393822, 0.07776674, 6.7322063, 0.023067951, 0.06964779, 9.999594
358259172681195, 7.4010005, 0.08733802, 6.6915283, 0.031412363, 0.10561657, 9.977316
358259182320675, 7.3603225, 0.062213387, 6.7537417, 0.016648054, 0.029028893, 9.9895
358259191960154, 7.4105716, 0.032303106, 6.769295, 0.05398369, 0.03474903, 10.036775
358259201599633, 7.4010005, 0.015553347, 6.7322063, 0.074848175, 0.045271873, 10.004499
358259211239112, 7.4273214, 0.062213387, 6.7465634, 0.03695321, 0.07352114, 10.033859
358259220878591, 7.4380894, 0.06699903, 6.765706, 0.028246403, 0.06994438, 10.054787
358259230518070, 7.4189467, 0.086141616, 6.832705, -0.017347813, 0.022581577, 10.08629
358259240157550, 7.379465, 0.08733802, 6.8614187, -0.03995204, -0.020180702, 10.076765
358259249797029, 7.367501, 0.02871387, 6.829116, 0.019371748, -0.0343709, 10.045703
358259259436508, 7.3746796, -0.009571291, 6.8446693, 0.04872918, -0.058802128, 10.0612955
358259269075987, 7.320841, -0.021535404, 6.863812, 0.034516573, -0.10826826, 10.034649
358259278715466, 7.3459654, 0.046660043, 6.8781686, -0.022773981, -0.071315765, 10.06325
358259288354945, 7.3232336, 0.07776674, 6.8243303, -0.03990698, -0.031554222, 10.010231
358259297994425, 7.3663044, 0.07178468, 6.853044, -0.026224613, -0.022301674, 10.061344
358259307633904, 7.3698936, 0.05623133, 6.73101, 0.029658318, 0.05245638, 9.9810505
