timestamp_acc,device_acc_x,device_acc_y,device_acc_z,earth_acc_x,earth_acc_y,earth_acc_z
1134241141729722, 7.3603225, -0.38165522, 7.0815587, 0.0075015426, -0.08406353, 10.220634
1134241151368993, 7.389036, -0.39720857, 7.111469, 0.021942317, -0.08494997, 10.262598
1134241161008368, 7.353144, -0.40079778, 7.07438, 0.03443235, -0.07781124, 10.211218
1134241170647639, 7.3256264, -0.40677986, 6.9990063, 0.048905104, -0.041269302, 10.139639
1134241180287014, 7.3304124, -0.3912265, 6.8817577, 0.04148087, 0.047768116, 10.061938
1134241189926285, 7.320841, -0.3696911, 6.8051877, 0.025535524, 0.094741344, 10.0016165
1134241199565660, 7.283752, -0.3481557, 6.782456, 0.0058586, 0.086845875, 9.958332
1134241209204930, 7.204789, -0.3278167, 6.799206, -0.019809902, 0.01777935, 9.9118595
1134241218844305, 7.2287173, -0.29312077, 6.8518476, -0.06213361, -0.005247593, 9.964146
1134241228483576, 7.2382884, -0.2955136, 6.9116683, -0.07053831, -0.047007084, 10.012199
1134241238122951, 7.2418776, -0.31226337, 6.927222, -0.055383682, -0.056643486, 10.026089
1134241247762222, 7.2705917, -0.3481557, 6.923632, -0.015845358, -0.038124084, 10.04578
1134241257401597, 7.351948, -0.38285163, 6.8781686, 0.028734207, 0.048419952, 10.074907
1134241267040868, 7.351948, -0.38524446, 6.7932234, 0.038935542, 0.10934734, 10.0166855
1134241276680243, 7.2933235, -0.37447673, 6.7405815, 0.034590423, 0.10834408, 9.937571
1134241286319618, 7.263413, -0.3804588, 6.7429743, 0.03983608, 0.08383942, 9.917711
1134241295958889, 7.300502, -0.36490545, 6.8051877, 0.019970119, 0.06553173, 9.986811
1134241305598264, 7.2933235, -0.34576288, 6.8709903, -0.009324908, 0.010949612, 10.026087
1134241315237535, 7.2466636, -0.33379877, 6.928418, -0.029007554, -0.06288624, 10.031137
1134241324876910, 7.2346992, -0.34097722, 6.9355965, -0.022662163, -0.07679939, 10.027622
1134241334516180, 7.2550383, -0.3493521, 6.9188466, -0.013255119, -0.051709652, 10.031212
1134241344155555, 7.271788, -0.34217364, 6.8889365, -0.018056631, -0.018136978, 10.022614
1134241353794826, 7.32443, -0.32063824, 6.875776, -0.035203665, 0.029759884, 10.051083
1134241363434201, 7.3663044, -0.3397808, 6.843473, -0.009804666, 0.08192682, 10.06003
1134241373073472, 7.3304124, -0.34217364, 6.786045, -0.0037184954, 0.0986557, 9.994633
1134241382712847, 7.318448, -0.32303107, 6.8039913, -0.023105264, 0.07868862, 9.99758
1134241392352118, 7.3064837, -0.33379877, 6.8781686, -0.018804908, 0.015864372, 10.040155
1134241401991493, 7.3052874, -0.3182454, 6.95115, -0.039764285, -0.03678274, 10.088808
1134241411630764, 7.3160553, -0.30987054, 7.01097, -0.05357021, -0.0715065, 10.137377
1134241421270139, 7.320841, -0.3278167, 7.055238, -0.039010912, -0.09996796, 10.171875
1134241430909514, 7.3375907, -0.317049, 7.0408807, -0.04966849, -0.07687521, 10.173809
1134241440548785, 7.34118, -0.33140594, 6.9990063, -0.030168146, -0.04273653, 10.148207
1134241450188160, 7.318448, -0.36610186, 6.9344, 0.009939462, -0.012993813, 10.088574
1134241459827430, 7.2765737, -0.37447673, 6.862615, 0.022548616, 0.009596348, 10.009178
1134241469466805, 7.271788, -0.3924229, 6.802795, 0.044354558, 0.04650736, 9.965279
1134241479106076, 7.2550383, -0.4211368, 6.786045, 0.07181075, 0.043021202, 9.942654
1134241488745451, 7.2346992, -0.42951167, 6.765706, 0.078540504, 0.04094076, 9.914246
1134241498384722, 7.2705917, -0.41994038, 6.7405815, 0.07002264, 0.081857204, 9.922787
1134241508024097, 7.338787, -0.40438703, 6.7669024, 0.052872717, 0.10966778, 9.989869
1134241517663368, 7.3639116, -0.41994038, 6.812366, 0.06545907, 0.09407234, 10.039859
1134241527302743, 7.347162, -0.4139583, 6.812366, 0.062408447, 0.08527565, 10.027428
1134241536942014, 7.32443, -0.40677986, 6.814759, 0.05811104, 0.07254362, 10.012243
1134241546581389, 7.342376, -0.3792624, 6.8817577, 0.03156817, 0.041414738, 10.070263
1134241556220660, 7.2861447, -0.34217364, 6.906883, -0.0035705566, -0.009345531, 10.045393
1134241565860035, 7.237092, -0.3469593, 6.930811, -7.609427E-4, -0.06065178, 10.026382
1134241575499410, 7.2562346, -0.31944183, 6.9858456, -0.030659795, -0.08236027, 10.0771675
1134241585138680, 7.2729845, -0.27038896, 7.0133634, -0.08468819, -0.08544302, 10.106543
1134241594778055, 7.2909307, -0.2620141, 7.0815587, -0.09958476, -0.122027874, 10.166119
1134241604417326, 7.2849483, -0.26081768, 7.1449685, -0.10632652, -0.17178822, 10.205305
1134241614056701, 7.268199, -0.2644069, 7.0959153, -0.09905627, -0.14841032, 10.159567
1134241623695972, 7.26102, -0.2632105, 6.9930243, -0.09334102, -0.076215744, 10.08363
1134241633335347, 7.2789664, -0.2943172, 6.903293, -0.0489527, -0.002172947, 10.036087
1134241642974618, 7.281359, -0.30029923, 6.826723, -0.03719473, 0.054557323, 9.985397
1134241652613993, 7.322037, -0.2883351, 6.786045, -0.0428029, 0.11098337, 9.986574
1134241662253264, 7.332805, -0.32662028, 6.800402, -0.0037221313, 0.10341978, 10.005573
1134241671892639, 7.350751, -0.34097722, 6.8255267, 0.008569777, 0.09135485, 10.036393
1134241681531910, 7.288538, -0.3684947, 6.802795, 0.03399694, 0.06026125, 9.976563
1134241691171285, 7.223932, -0.36131623, 6.778867, 0.026705265, 0.033861637, 9.912968
1134241700810555, 7.220342, -0.3589234, 6.7669024, 0.01746142, 0.035090923, 9.9021015
1134241710449930, 7.2526455, -0.35533416, 6.7932234, 0.01243788, 0.03850794, 9.94351
1134241720089201, 7.2969127, -0.36610186, 6.808777, 0.017962307, 0.05435562, 9.986748
1134241729728576, 7.271788, -0.38285163, 6.8374906, 0.03238201, 0.015740871, 9.988768
1134241739367847, 7.2658057, -0.41754755, 6.9248285, 0.061192095, -0.053468227, 10.045543
1134241749007222, 7.2765737, -0.4019942, 6.936793, 0.046707302, -0.05175352, 10.061031
1134241758646493, 7.3292155, -0.4031906, 6.9451675, 0.049136877, -0.018325329, 10.105076
1134241768285868, 7.373483, -0.4127619, 6.9415784, 0.06344545, 0.019690514, 10.135075
1134241777925139, 7.3974113, -0.38404804, 6.9535427, 0.034697413, 0.028691769, 10.159671
1134241787564514, 7.3974113, -0.37567315, 7.004988, 0.023133516, -0.006468773, 10.19471
1134241797203889, 7.368697, -0.35653058, 7.042077, -0.0021867156, -0.051653862, 10.198676
1134241806843160, 7.328019, -0.33738798, 7.04447, -0.024937928, -0.08095074, 10.170108
1134241816482535, 7.2897344, -0.30867413, 7.0085773, -0.05319667, -0.08114338, 10.116632
1134241826121805, 7.243074, -0.30388847, 6.954739, -0.055255234, -0.07368803, 10.045616
1134241835761180, 7.251449, -0.30029923, 6.890133, -0.054649234, -0.023735523, 10.0072
1134241845400451, 7.2670026, -0.29072794, 6.8685975, -0.062546134, -0.0012421608, 10.003378
1134241855039826, 7.2897344, -0.30388847, 6.799206, -0.04107672, 0.062287807, 9.972774
1134241864679097, 7.3136625, -0.31585258, 6.7968125, -0.02574581, 0.07792854, 9.988962
1134241874318472, 7.3172517, -0.31465617, 6.782456, -0.025773644, 0.09083223, 9.981682
1134241883957743, 7.308877, -0.37088752, 6.7381887, 0.036198676, 0.11158466, 9.947195
1134241893597118, 7.320841, -0.36729828, 6.7369924, 0.03454268, 0.11809015, 9.954976
1134241903236389, 7.3028946, -0.35653058, 6.789634, 0.016795754, 0.06704521, 9.977662
1134241912875764, 7.2646093, -0.37567315, 6.8374906, 0.028624058, 0.0033826828, 9.983292
1134241922515035, 7.2622166, -0.3924229, 6.9092755, 0.039429486, -0.05135584, 10.031336
1134241932154410, 7.2825556, -0.37088752, 6.9726853, 0.008458376, -0.08203554, 10.088841
1134241941793680, 7.2957163, -0.36729828, 6.9678993, 0.00567019, -0.069262505, 10.095007
1134241951433055, 7.281359, -0.36131623, 6.9092755, 0.003778696, -0.035130978, 10.044183
1134241961072326, 7.2502527, -0.3792624, 6.8243303, 0.028499901, 0.00476408, 9.963968
1134241970711701, 7.259824, -0.37567315, 6.792027, 0.028402269, 0.034954548, 9.948658
1134241980350972, 7.328019, -0.36490545, 6.800402, 0.017410338, 0.07467699, 10.003631
1134241989990347, 7.32443, -0.35653058, 6.8015985, 0.008298039, 0.07198143, 10.001545
1134241999629618, 7.27777, -0.36251262, 6.8171515, 0.011578143, 0.02780199, 9.9784775
1134242009268993, 7.292127, -0.357727, 6.9044895, 2.1103024E-4, -0.025871277, 10.048602
1134242018908264, 7.3172517, -0.36490545, 6.916454, 0.0065172017, -0.016405106, 10.075334
1134242028547639, 7.308877, -0.34337005, 6.8889365, -0.012301236, -4.2915344E-6, 10.049621
1134242038186910, 7.298109, -0.32422748, 6.875776, -0.029414088, 0.0038747787, 10.032095
1134242047826285, 7.3172517, -0.31585258, 6.867401, -0.036952198, 0.023460388, 10.039982
1134242057465555, 7.3232336, -0.32063824, 6.856633, -0.029031724, 0.036637306, 10.037122
1134242067104930, 7.3232336, -0.32303107, 6.8817577, -0.027536511, 0.01880598, 10.054432
1134242076744201, 7.3112698, -0.33379877, 6.903293, -0.017609805, -0.0051088333, 10.060877
1134242086383576, 7.2957163, -0.34456646, 6.882954, -0.005719006, -0.0017633438, 10.035997
1134242096022847, 7.2299137, -0.3493521, 6.838687, 0.0023127496, -0.014553547, 9.957968
1134242105662222, 7.24786, -0.33140594, 6.8398833, -0.0148380995, -0.0029654503, 9.971212
1134242115301493, 7.245467, -0.3290131, 6.8243303, -0.016280442, 0.006904602, 9.958725
1134242124940764, 7.2729845, -0.34337005, 6.8398833, -0.004055381, 0.011325359, 9.989899
1134242134580139, 7.3363943, -0.317049, 6.873383, -0.033225268, 0.03075695, 10.05806
1134242144219410, 7.3830543, -0.33020952, 6.910472, -0.021856964, 0.035016537, 10.117878
1134242153858785, 7.368697, -0.34456646, 6.9655066, -0.012586921, -0.015604496, 10.145655
1134242163498055, 7.3375907, -0.38285163, 6.9595246, 0.025834262, -0.034766674, 10.120273
1134242173137430, 7.32443, -0.35653058, 6.914061, 0.0042106807, -0.005405903, 10.078619
1134242182776701, 7.192825, -0.25603202, 6.9092755, -0.096479714, -0.085907936, 9.976156
1134242192416076, 7.359126, -0.4331009, 6.8985076, 0.083027035, 0.026646137, 10.095846
1134242202055347, 7.153343, -0.552742, 6.7334027, 0.2123352, -0.0012712479, 9.837148
1134242211694722, 7.353144, 0.014356935, 6.8458657, -0.36012146, 0.08136797, 10.039846
1134242221333993, 7.117451, -0.8925229, 6.6556363, 0.55404735, 0.0077753067, 9.769605
1134242230973368, 7.3698936, 0.33379877, 6.991828, -0.69961166, -0.016882896, 10.140152
1134242240612639, 7.2693954, -1.0552348, 6.8422766, 0.6949507, -0.030322552, 10.014515
1134242250252014, 7.3866434, 0.33260235, 7.036095, -0.7003492, -0.028525352, 10.182753
1134242259891285, 7.37109, -0.9092726, 6.855437, 0.5497985, 0.03721237, 10.09223
1134242269530555, 7.237092, 0.0047856453, 6.9092755, -0.36007622, -0.039928436, 9.999119
1134242279169930, 7.373483, -0.45702913, 6.879365, 0.11156416, 0.04763508, 10.093963
1134242288809201, 7.149754, -0.44506502, 6.710671, 0.10682815, 0.013719559, 9.815222
1134242298448576, 7.4010005, 0.021535404, 6.8422766, -0.3676481, 0.12085438, 10.071854
1134242308087847, 7.1748786, -0.8877372, 6.715457, 0.547178, -0.017620564, 9.852138
1134242317727222, 7.4416785, 0.31944183, 7.031309, -0.6855866, 0.049865246, 10.219952
1134242327366493, 7.2861447, -1.0803595, 6.855437, 0.72727406, -0.059740067, 10.035915
1134242337005868, 7.3842506, 0.317049, 7.07438, -0.6787708, -0.040459633, 10.208435
1134242346645139, 7.365108, -0.9320044, 6.879365, 0.57922477, 0.01032114, 10.104628
1134242356284514, 7.2705917, 0.02632105, 6.9451675, -0.38278994, -0.04350519, 10.047344
1134242365923785, 7.4177504, -0.5288138, 6.876972, 0.16996154, 0.07290316, 10.127251
1134242375563055, 7.190432, -0.41994038, 6.745367, 0.073602915, 0.01883459, 9.867769
1134242385202430, 7.4249287, -0.025124637, 6.9009004, -0.3270144, 0.09085226, 10.131013
1134242394841701, 7.123433, -0.8709874, 6.7262244, 0.52197766, -0.048032284, 9.821877
1134242404481076, 7.3663044, 0.32542387, 7.0468626, -0.68324625, -0.011372089, 10.176427
1134242414120347, 7.164111, -1.0504491, 6.8709903, 0.6870833, -0.13934326, 9.957256
1134242423759722, 7.2705917, 0.35294133, 7.0325055, -0.7215407, -0.05765581, 10.095457
1134242433398993, 7.225128, -0.9738788, 6.815955, 0.61733574, -0.05484152, 9.961126
1134242443038264, 7.198807, 0.078963146, 6.9212394, -0.4282297, -0.059894085, 9.977255
1134242452677639, 7.3830543, -0.5802595, 6.9092755, 0.2243281, 0.023723602, 10.125877
1134242462316910, 7.23111, -0.4031906, 6.843473, 0.051910996, -0.022474766, 9.964006
1134242471956285, 7.5062847, -0.11964113, 6.9930243, -0.234757, 0.080687046, 10.256676
1134242481595555, 7.253842, -0.8673982, 6.7645097, 0.52062625, 0.014637947, 9.942732
1134242491234930, 7.475178, 0.25722843, 6.9678993, -0.6037851, 0.10119295, 10.203982
1134242500874201, 7.233503, -1.0707881, 6.695118, 0.7286727, 0.032728672, 9.887503
1134242510513576, 7.2969127, 0.36729828, 6.8745794, -0.7030076, 0.05725622, 10.007107
1134242520152847, 7.257431, -0.951147, 6.6771717, 0.6144778, 0.06695557, 9.888252
1134242529792118, 7.237092, 0.17826529, 6.8315086, -0.5122962, 0.0345459, 9.94048
1134242539431493, 7.3770723, -0.56470615, 6.8721867, 0.22349435, 0.03072548, 10.095353
1134242549070764, 7.159325, -0.28115666, 6.897311, -0.07256502, -0.109752655, 9.944373
1134242558710139, 7.411768, -0.11006984, 7.021738, -0.24622881, -0.011110306, 10.207374
1134242568349410, 7.1748786, -0.7860422, 6.849455, 0.4375534, -0.11158085, 9.940216
1134242577988680, 7.446464, 0.26679972, 7.02772, -0.61451733, 0.051137447, 10.223972
1134242587628055, 7.2442703, -1.052842, 6.7369924, 0.7109503, -0.012238026, 9.923175
1134242597267326, 7.3842506, 0.3792624, 6.896115, -0.70758075, 0.1246357, 10.085196
1134242606906701, 7.2658057, -1.0145568, 6.6532435, 0.6997813, 0.065898895, 9.878911
1134242616545972, 7.251449, 0.18903299, 6.823134, -0.5261562, 0.057422638, 9.94456
1134242626185243, 7.402197, -0.65682983, 6.8685975, 0.3265165, 0.03221941, 10.114046
1134242635824618, 7.203593, -0.2727818, 6.9583282, -0.077352464, -0.11509514, 10.018247
1134242645463889, 7.411768, -0.16390835, 7.1042905, -0.19405556, -0.061104774, 10.265999
1134242655103264, 7.1425757, -0.70229346, 6.927222, 0.3489439, -0.18269873, 9.966989
1134242664742535, 7.4105716, 0.276371, 7.0959153, -0.63052475, 1.3160706E-4, 10.244385
1134242674381805, 7.159325, -1.0001999, 6.802795, 0.6527879, -0.12100744, 9.904221
1134242684021180, 7.3543406, 0.41874397, 6.987042, -0.7519644, 0.04777193, 10.124857
1134242693660451, 7.314859, -1.0277174, 6.721439, 0.71149427, 0.039527416, 9.961592
1134242703299826, 7.3232336, 0.20219351, 6.838687, -0.5207852, 0.1147542, 10.007691
1134242712939097, 7.391429, -0.7106683, 6.7872415, 0.38777083, 0.089202404, 10.052195
1134242722578368, 7.219146, -0.21774685, 6.7848487, -0.115669966, 0.019732475, 9.908777
1134242732217743, 7.4069824, -0.2117648, 6.8985076, -0.122612774, 0.06743288, 10.123145
1134242741857014, 7.0959153, -0.6975078, 6.7178497, 0.36362863, -0.06522846, 9.789358
1134242751496389, 7.368697, 0.2009971, 6.9451675, -0.5371807, 0.038724422, 10.113525
1134242761135660, 7.166504, -1.0145568, 6.769295, 0.683229, -0.08647251, 9.8862095
1134242770774930, 7.348358, 0.39840496, 7.0432734, -0.7390093, -0.03373003, 10.159603
1134242780414305, 7.259824, -1.0612168, 6.798009, 0.72204596, -0.023068905, 9.976085
1134242790053576, 7.3052874, 0.2321038, 6.873383, -0.55726296, 0.048337936, 10.017566
1134242799692847, 7.379465, -0.73459655, 6.778867, 0.41555262, 0.095565796, 10.038294
1134242809332222, 7.243074, -0.14596218, 6.8374906, -0.18003643, 0.004848957, 9.960033
1134242818971493, 7.4775705, -0.2632105, 6.9296145, -0.07022959, 0.09095049, 10.197535
1134242828610868, 7.21436, -0.6472585, 6.8339014, 0.31580445, -0.045146465, 9.953209
1134242838250139, 7.4129643, 0.17706887, 7.055238, -0.5240371, -0.019341946, 10.22178
1134242847889410, 7.135397, -0.99302137, 6.8650084, 0.66098297, -0.13623905, 9.928389
1134242857528785, 7.3639116, 0.4235296, 7.103094, -0.7767092, -0.067539215, 10.210421
1134242867168055, 7.2358956, -1.0037891, 6.8398833, 0.6761733, -0.04949236, 9.984494
1134242876807326, 7.268199, 0.33020952, 6.9475603, -0.67211896, -0.027449131, 10.037521
1134242886446701, 7.3435726, -0.73459655, 6.818348, 0.41072592, 0.05913782, 10.039192
1134242896085972, 7.2059855, -0.058624156, 6.8015985, -0.26440012, 0.017848015, 9.905613
1134242905725347, 7.393822, -0.2847459, 6.8458657, -0.04409808, 0.09785509, 10.079884
1134242915364618, 7.183254, -0.56470615, 6.745367, 0.23915094, 0.0061540604, 9.867156
1134242925003889, 7.4859457, 0.14356937, 6.927222, -0.48146126, 0.12956524, 10.188122
1134242934643264, 7.2179494, -1.006182, 6.7322063, 0.67291534, 0.0014204979, 9.898535
1134242944282535, 7.409375, 0.36251262, 7.068398, -0.70538473, -0.006714821, 10.222275
1134242953921805, 7.227521, -1.0959128, 6.8398833, 0.7477713, -0.076851845, 9.982837
1134242963561180, 7.29452, 0.24526432, 6.9942207, -0.6008517, -0.03883505, 10.090925
1134242973200451, 7.361519, -0.89491564, 6.906883, 0.54356796, -0.023406506, 10.11938
1134242982839722, 7.220342, -0.09212367, 6.9188466, -0.25140586, -0.05811596, 9.997284
1134242992479097, 7.3770723, -0.40677986, 6.936793, 0.056267977, 0.012408733, 10.134222
1134243002118368, 7.1569324, -0.56350976, 6.849455, 0.21680921, -0.08641958, 9.919666
1134243011757639, 7.4476604, 0.08135597, 7.0205417, -0.43617213, 0.040020943, 10.225968
1134243021397014, 7.166504, -0.9499506, 6.792027, 0.6105292, -0.06275177, 9.90031
1134243031036285, 7.3830543, 0.34337005, 7.055238, -0.70387876, 0.0068073273, 10.193541
1134243040675555, 7.216753, -1.0815558, 6.808777, 0.7430488, -0.060874462, 9.952633
1134243050314930, 7.2670026, 0.32662028, 6.9056864, -0.67829126, 0.014522076, 10.007208
1134243059954201, 7.2861447, -0.85902333, 6.71426, 0.5187115, 0.08030176, 9.931344
1134243069593472, 7.210771, -0.0047856453, 6.775277, -0.3291201, 0.04386139, 9.888851
1134243079232847, 7.4129643, -0.4438686, 6.802795, 0.101956904, 0.13149452, 10.069727
1134243088872118, 7.207182, -0.4869394, 6.73101, 0.14790282, 0.0396204, 9.872367
1134243098511493, 7.4620175, 0.041874398, 6.9583282, -0.39406478, 0.086910725, 10.195045
1134243108150764, 7.18445, -0.95353985, 6.8075805, 0.6117105, -0.047311306, 9.924328
1134243117790035, 7.4129643, 0.34097722, 7.143772, -0.71084285, -0.05419016, 10.275871
1134243127429410, 7.237092, -1.0935199, 6.9499536, 0.7297925, -0.1329217, 10.0659275
1134243137068680, 7.2909307, 0.30269206, 7.1222367, -0.67420614, -0.11927271, 10.173828
1134243146707951, 7.2909307, -0.9176475, 6.920043, 0.5577564, -0.05591488, 10.07832
1134243156347326, 7.245467, 0.083748795, 6.9726853, -0.4429844, -0.057691574, 10.046024
1134243165986597, 7.379465, -0.44027936, 6.9391856, 0.09178072, 0.024546623, 10.138719
1134243175625868, 7.1186476, -0.39840496, 6.798009, 0.053725243, -0.051841736, 9.85095
1134243185265243, 7.4344997, 0.0, 6.9906316, -0.3509971, 0.052165985, 10.198765
1134243194904514, 7.1880393, -0.8877372, 6.8039913, 0.540397, -0.044704437, 9.922514
1134243204543785, 7.372287, 0.2943172, 7.02772, -0.6436024, 0.005297661, 10.169161
1134243214183160, 7.153343, -1.1162517, 6.799206, 0.7651354, -0.08682299, 9.902149
1134243223822430, 7.2789664, 0.31345975, 6.946364, -0.6564466, -0.001897335, 10.045031
1134243233461701, 7.3064837, -0.9762716, 6.725028, 0.6339483, 0.07624912, 9.957716
1134243243101076, 7.239485, 0.049052864, 6.849455, -0.3902261, 0.035604477, 9.958616
1134243252740347, 7.408179, -0.53599226, 6.847062, 0.18497884, 0.090209484, 10.099916
1134243262379618, 7.2215385, -0.38285163, 6.754938, 0.038136005, 0.040740013, 9.895618
1134243272018889, 7.457232, -0.0741775, 6.8721867, -0.27467483, 0.14510393, 10.136383
1134243281658264, 7.176075, -0.8865408, 6.6676, 0.53983665, 0.025444508, 9.820734
1134243291297535, 7.459625, 0.25244278, 6.9355965, -0.6015495, 0.12943411, 10.170233
1134243300936805, 7.192825, -1.119841, 6.74776, 0.7743566, -0.047640324, 9.895511
1134243310576180, 7.2897344, 0.33260235, 7.0205417, -0.6920545, -0.03622389, 10.102406
1134243320215451, 7.2466636, -0.9942178, 6.8614187, 0.6297552, -0.06849623, 10.009016
1134243329854722, 7.204789, 0.12801601, 7.021738, -0.4921376, -0.11168909, 10.048656
1134243339494097, 7.3028946, -0.56470615, 7.0528445, 0.19585663, -0.124763966, 10.165622
1134243349133368, 7.1677003, -0.32063824, 7.0133634, -0.05305773, -0.1671896, 10.031712
1134243358772639, 7.515856, -0.08973085, 7.111469, -0.27882296, 0.022363663, 10.343641
1134243368412014, 7.2550383, -0.8279166, 6.8339014, 0.47790658, -0.022062778, 9.989714
1134243378051285, 7.4356966, 0.25244278, 7.038488, -0.6180683, 0.038091183, 10.223021
1134243387690555, 7.220342, -1.099502, 6.7848487, 0.75453115, -0.02087164, 9.940155
1134243397329930, 7.3435726, 0.31226337, 7.012167, -0.6813368, -0.0032148361, 10.135672
1134243406969201, 7.2562346, -1.0767702, 6.8315086, 0.71508986, -0.03236389, 9.998475
1134243416608472, 7.239485, 0.09571291, 6.9523463, -0.45392543, -0.046248913, 10.027275
1134243426247847, 7.34118, -0.6771688, 6.879365, 0.31926745, 0.008731365, 10.078447
1134243435887118, 7.164111, -0.32542387, 6.806384, -0.030433, -0.030306816, 9.887133
1134243445526389, 7.402197, -0.19381863, 6.829116, -0.16003513, 0.121011734, 10.071079
1134243455165764, 7.176075, -0.7704889, 6.63769, 0.4243585, 0.06428957, 9.796143
1134243464805035, 7.4452677, 0.25244278, 6.8446693, -0.59433395, 0.18606281, 10.097395
1134243474444305, 7.1916285, -1.0492527, 6.6592255, 0.7123761, 0.016322136, 9.83148
1134243484083576, 7.3459654, 0.4223332, 6.963114, -0.78533083, 0.049797058, 10.099867
1134243493722951, 7.2502527, -0.9762716, 6.762117, 0.6206461, -0.014974117, 9.942841
1134243503362222, 7.240681, 0.24526432, 6.936793, -0.60944355, -0.021312714, 10.011734
1134243513001493, 7.3100734, -0.62931234, 6.9128647, 0.26530474, -0.044183254, 10.077131
1134243522640868, 7.099505, -0.16271193, 6.8721867, -0.19582602, -0.11265278, 9.879543
1134243532280139, 7.344769, -0.148355, 6.903293, -0.20120901, 0.036699295, 10.0787525
1134243541919410, 7.149754, -0.6652047, 6.719046, 0.3264953, -0.011631012, 9.828547
1134243551558785, 7.496713, 0.29072794, 6.9619174, -0.6353764, 0.12990189, 10.21435
1134243561198055, 7.2825556, -0.99302137, 6.800402, 0.6440866, -0.0015416145, 9.992614
1134243570837326, 7.457232, 0.40438703, 7.1210403, -0.7699929, -0.0012764931, 10.290296
1134243580476701, 7.27777, -1.0564312, 6.940382, 0.6937306, -0.115131855, 10.087437
1134243590115972, 7.2490563, 0.20937198, 7.0145597, -0.5596295, -0.087973595, 10.073519
1134243599755243, 7.32443, -0.7322037, 6.9009004, 0.37536263, -0.021989822, 10.08288
1134243609394514, 7.1545396, -0.17706887, 6.9009004, -0.1744808, -0.09190464, 9.939938
1134243619033889, 7.375876, -0.28713873, 6.9451675, -0.067442775, 0.019139767, 10.1349125
1134243628673160, 7.149754, -0.6999006, 6.780063, 0.35351342, -0.048839092, 9.871715
1134243638312430, 7.4344997, 0.13399807, 7.001399, -0.4869334, 0.053070545, 10.201441
1134243647951805, 7.207182, -1.0851451, 6.792027, 0.7427313, -0.047389984, 9.934725
1134243657591076, 7.4213395, 0.31944183, 6.9990063, -0.6795049, 0.06343222, 10.183254
1134243667230347, 7.2646093, -1.1330016, 6.7202425, 0.7963947, 0.03807497, 9.928958
1134243676869722, 7.422536, 0.2428715, 6.9344, -0.60010314, 0.11031151, 10.142321
1134243686508993, 7.3926253, -0.7920243, 6.8865438, 0.44036102, 0.02849245, 10.124622
1134243696148264, 7.135397, -0.16031912, 6.920043, -0.20792612, -0.11878157, 9.938274
1134243705787639, 7.422536, -0.3397808, 7.0229344, -0.02655816, -0.009086132, 10.224007
1134243715426910, 7.155736, -0.61016977, 6.928418, 0.24640894, -0.14280844, 9.974905
1134243725066180, 7.37109, 0.12921242, 7.071987, -0.50148267, -0.03406334, 10.203432
1134243734705451, 7.152147, -1.0301101, 6.789634, 0.6698399, -0.08766031, 9.892274
1134243744344826, 7.4177504, 0.3792624, 7.012167, -0.73425454, 0.052767754, 10.1880045
1134243753984097, 7.2897344, -1.0588241, 6.778867, 0.7122551, 0.024515629, 9.985312
1134243763623368, 7.318448, 0.25603202, 6.977471, -0.6268548, 0.0046110153, 10.095414
1134243773262743, 7.344769, -0.8530413, 6.890133, 0.485866, -0.012023449, 10.095099
1134243782902014, 7.2155566, -0.062213387, 6.927222, -0.3011495, -0.05898571, 9.998016
1134243792541285, 7.391429, -0.3804588, 6.9678993, 0.014347076, 0.0015068054, 10.165106
1134243802180660, 7.140183, -0.6221339, 6.7704916, 0.26264423, -0.05547905, 9.855799
1134243811819930, 7.432107, 0.049052864, 6.8602223, -0.40299195, 0.13730097, 10.105446
1134243821459201, 7.190432, -0.997807, 6.587441, 0.660159, 0.08280277, 9.780064
1134243831098576, 7.3926253, 0.30269206, 6.8602223, -0.65252763, 0.13017654, 10.067892
1134243840737847, 7.2011995, -1.154537, 6.6795645, 0.7965672, 0.025658607, 9.857567
1134243850377118, 7.308877, 0.29072794, 6.923632, -0.65067095, 3.9577484E-4, 10.050748
1134243860016389, 7.3292155, -0.86859465, 6.8805614, 0.49392626, -0.0046811104, 10.078194
1134243869655764, 7.1748786, -0.03708875, 6.923632, -0.3316669, -0.097630024, 9.964809
1134243879295035, 7.350751, -0.39601216, 6.8985076, 0.030771017, 0.021078587, 10.088528
1134243888934305, 7.133004, -0.45822555, 6.771688, 0.100679636, -0.040273666, 9.845492
1134243898573680, 7.4273214, 0.08853444, 6.899704, -0.4479879, 0.10822725, 10.12751
1134243908212951, 7.1449685, -0.91166544, 6.7537417, 0.563924, -0.051281452, 9.857692
1134243917852222, 7.411768, 0.36131623, 7.1042905, -0.72533244, -0.028759003, 10.247383
1134243927491597, 7.222735, -1.1174482, 6.920043, 0.76135606, -0.1437645, 10.035101
1134243937130868, 7.2765737, 0.29910284, 7.183254, -0.6854476, -0.14461136, 10.205213
1134243946770139, 7.263413, -0.93559366, 7.0492554, 0.57297695, -0.17634916, 10.147173
1134243956409514, 7.192825, 0.02871387, 7.070791, -0.3915723, -0.16618347, 10.077336
1134243966048785, 7.381858, -0.44865423, 7.024131, 0.08249551, -0.03968191, 10.199173
1134243975688055, 7.1892357, -0.43788654, 6.823134, 0.08568132, -0.03127575, 9.920871
1134243985327430, 7.493124, 0.040677983, 6.914061, -0.3882844, 0.15335226, 10.187175
1134243994966701, 7.257431, -0.8925229, 6.640083, 0.56144834, 0.10142946, 9.860633
1134244004605972, 7.495517, 0.34456646, 6.896115, -0.690668, 0.18851614, 10.16589
1134244014245347, 7.2586274, -1.1174482, 6.6819572, 0.77434623, 0.04815197, 9.898634
1134244023884618, 7.3340015, 0.29790643, 6.88774, -0.6360519, 0.06536913, 10.0453205
1134244033523889, 7.318448, -0.9810573, 6.759724, 0.6520992, 0.033255577, 9.989479
1134244043163160, 7.237092, 0.03708875, 6.9009004, -0.37741256, -0.02367258, 9.992813
1134244052802535, 7.3806615, -0.54436713, 6.9152575, 0.19665426, 0.011431694, 10.12682
1134244062441805, 7.1569324, -0.39840496, 6.8506513, 0.053081393, -0.080705166, 9.9147625
1134244072081076, 7.402197, -0.009571291, 7.0289164, -0.3449193, -0.012829781, 10.20192
1134244081720451, 7.1653075, -0.8386843, 6.826723, 0.49682146, -0.08201599, 9.9194565
1134244091359722, 7.4440713, 0.32303107, 7.02772, -0.6819358, 0.039059162, 10.219629
1134244100998993, 7.219146, -1.0839486, 6.7334027, 0.73766375, -0.0043325424, 9.903814
1134244110638368, 7.3459654, 0.37088752, 6.8542404, -0.71024454, 0.08252287, 10.028465
1134244120277639, 7.2825556, -0.971486, 6.6329045, 0.64387965, 0.12150955, 9.876513
1134244129916910, 7.23111, 0.08853444, 6.820741, -0.42760837, 0.020104885, 9.931567
1134244139556285, 7.3770723, -0.587438, 6.8985076, 0.23441637, 0.016124249, 10.114369
1134244149195555, 7.1856465, -0.3505485, 6.9188466, -3.8784742E-4, -0.106048584, 9.980762
1134244158834826, 7.4344997, -0.09930214, 7.1222367, -0.26249874, -0.05731201, 10.292508
1134244168474201, 7.173682, -0.85902333, 6.9798636, 0.50929385, -0.1885395, 10.031113
1134244178113472, 7.466803, 0.2644069, 7.222735, -0.6196766, -0.09021187, 10.372986
1134244187752743, 7.2765737, -1.0540384, 6.95115, 0.7133882, -0.09348488, 10.092588
1134244197392118, 7.3974113, 0.37567315, 7.0875406, -0.73371494, -0.035163403, 10.2252865
1134244207031389, 7.3100734, -0.99302137, 6.820741, 0.657776, 0.016217709, 10.025611
1134244216670660, 7.2526455, 0.20817557, 6.9212394, -0.5618977, -0.023343563, 10.011568
1134244226310035, 7.368697, -0.56350976, 6.8853474, 0.21249777, 0.033438206, 10.098366
1134244235949305, 7.173682, -0.26799613, 6.8578296, -0.07783681, -0.06345844, 9.927401
1134244245588576, 7.432107, -0.13399807, 6.9655066, -0.21823269, 0.042800903, 10.184448
1134244255227951, 7.1784678, -0.7728817, 6.7812595, 0.42729247, -0.042834282, 9.895899
1134244264867222, 7.408179, 0.22731815, 6.9619174, -0.57669914, 0.07012415, 10.152023
1134244274506493, 7.207182, -1.1006985, 6.6927247, 0.76109886, -0.009694099, 9.867533
1134244284145868, 7.3806615, 0.36490545, 6.890133, -0.69549835, 0.11734581, 10.0788765
1134244293785139, 7.298109, -1.0205388, 6.6855464, 0.6955477, 0.08372307, 9.925202
1134244303424410, 7.298109, 0.16271193, 6.826723, -0.5043125, 0.08080721, 9.981592
1134244313063785, 7.38784, -0.67477596, 6.832705, 0.3314249, 0.05650091, 10.080095
1134244322703055, 7.1976104, -0.22971097, 6.906883, -0.11725679, -0.08763409, 9.977073
1134244332342326, 7.4129643, -0.19980069, 7.056434, -0.15660793, -0.040275574, 10.235189
1134244341981701, 7.155736, -0.76331043, 6.8889365, 0.4137466, -0.15061903, 9.952425
1134244351620972, 7.4548388, 0.20338993, 7.112665, -0.55623657, -0.007420063, 10.290605
1134244361260243, 7.2155566, -1.0636097, 6.8039913, 0.7279264, -0.080532074, 9.9475355
1134244370899618, 7.3770723, 0.38644084, 6.98106, -0.7323467, 0.078561306, 10.13722
1134244380538889, 7.2466636, -1.032503, 6.748956, 0.7048129, -0.024172783, 9.931328
1134244390178160, 7.271788, 0.26081768, 6.8913293, -0.5923701, 0.046146393, 10.004214
1134244399817535, 7.3603225, -0.6520442, 6.820741, 0.3138377, 0.035811424, 10.0509815
1134244409456805, 7.194021, -0.11485548, 6.8518476, -0.22344673, -0.037107468, 9.932958
1134244419096076, 7.4356966, -0.17228323, 6.954739, -0.17051548, 0.04434204, 10.181189
1134244428735451, 7.173682, -0.63170516, 6.7728844, 0.30021417, -0.052966595, 9.881285
1134244438374722, 7.450053, 0.25244278, 6.943971, -0.584381, 0.12043476, 10.170042
1134244448014097, 7.223932, -0.95353985, 6.695118, 0.63625497, 0.008275509, 9.874926
1134244457653368, 7.411768, 0.43908295, 6.9212394, -0.77115655, 0.13255548, 10.120197
1134244467292639, 7.2873416, -1.018146, 6.741778, 0.6971973, -0.0044198036, 9.955273
1134244476932014, 7.30768, 0.29790643, 6.969096, -0.64656746, 0.0049934387, 10.081724
1134244486571285, 7.314859, -0.7369894, 6.8865438, 0.39880663, -0.050822258, 10.065445
1134244496210555, 7.131808, -0.15433706, 6.9451675, -0.1987198, -0.14883852, 9.952902
1134244505849930, 7.389036, -0.3062813, 7.0205417, -0.045832276, -0.047911644, 10.196827
1134244515489201, 7.1976104, -0.64965135, 6.8721867, 0.30407685, -0.107702255, 9.967474
1134244525128472, 7.4919276, 0.10887343, 7.0372915, -0.44989365, 0.06461954, 10.269262
1134244534767847, 7.2346992, -1.0911272, 6.8195443, 0.7448419, -0.09934473, 9.973614
1134244544407118, 7.436893, 0.33020952, 7.066005, -0.6713843, 0.03169632, 10.241734
1134244554046389, 7.2418776, -1.0707881, 6.7561345, 0.72896606, -0.046698093, 9.934946
1134244563685764, 7.2215385, 0.27517462, 6.8315086, -0.60501903, 0.040984154, 9.926133
1134244573325035, 7.2897344, -0.83030945, 6.6975107, 0.49836147, 0.050905228, 9.921458
1134244582964410, 7.190432, -0.06819545, 6.7812595, -0.2658881, 0.019525528, 9.880352
1134244592603680, 7.4452677, -0.31585258, 6.847062, -0.02168256, 0.11395025, 10.119316
1134244602242951, 7.2263246, -0.5778667, 6.751349, 0.23651141, 0.0025892258, 9.903458
1134244611882326, 7.52782, 0.104087785, 7.0133634, -0.45250964, 0.10101223, 10.278677
1134244621521597, 7.29452, -0.97507524, 6.8721867, 0.6165371, -0.075644016, 10.049971
1134244631160868, 7.4943204, 0.32303107, 7.170093, -0.6853081, -0.0065045357, 10.354214
1134244640800243, 7.2957163, -1.1306087, 6.936793, 0.77191687, -0.14650965, 10.099878
1134244650439514, 7.308877, 0.276371, 7.0504518, -0.64661515, -0.051964283, 10.13825
1134244660078889, 7.2957163, -0.863809, 6.9020967, 0.5010968, -0.066366196, 10.067625
1134244669718160, 7.155736, -0.0741775, 6.9786673, -0.2887333, -0.13971806, 9.990444
1134244679357430, 7.381858, -0.42711884, 7.01097, 0.060298502, -0.04422474, 10.189327
1134244688996805, 7.1653075, -0.5706882, 6.88774, 0.20509446, -0.11906004, 9.95249
1134244698636076, 7.4536424, 0.038285162, 7.0265236, -0.4067455, 0.039721012, 10.235394
1134244708275347, 7.153343, -1.012164, 6.7932234, 0.64617795, -0.11291599, 9.895069
1134244717914722, 7.409375, 0.30388847, 6.98106, -0.66010594, 0.052380085, 10.163067
1134244727553993, 7.268199, -1.1162517, 6.666404, 0.76994175, 0.034965515, 9.895435
1134244737193368, 7.3399835, 0.3278167, 6.8398833, -0.664006, 0.13158035, 10.01542
1134244746832639, 7.3028946, -0.86859465, 6.7058854, 0.52452785, 0.066675186, 9.938614
1134244756471910, 7.172486, 0.046660043, 6.7932234, -0.3877915, 0.0054683685, 9.871384
1134244766111285, 7.426125, -0.39960137, 6.903293, 0.04729432, 0.053942204, 10.146788
1134244775750555, 7.2215385, -0.44745782, 6.8614187, 0.09534103, -0.061110973, 9.970813
1134244785389826, 7.448857, 0.039481573, 7.04447, -0.39970514, 0.010034084, 10.244595
1134244795029201, 7.149754, -0.9128618, 6.832705, 0.55310094, -0.1426816, 9.9152355
1134244804668472, 7.4141607, 0.33499518, 7.071987, -0.68892884, 0.004655361, 10.22841
1134244814307847, 7.2586274, -1.0719845, 6.8111696, 0.7214223, -0.043699265, 9.985314
1134244823947118, 7.375876, 0.357727, 6.960721, -0.6977977, 0.04091835, 10.12396
1134244833586493, 7.318448, -0.8913264, 6.7130637, 0.55494744, 0.08054638, 9.955145
1134244843225764, 7.2287173, 0.09092726, 6.806384, -0.4210552, 0.030689716, 9.920244
1134244852865035, 7.4344997, -0.4534399, 6.8422766, 0.1128172, 0.10217714, 10.112913
1134244862504410, 7.2095747, -0.38883367, 6.812366, 0.04676795, -0.029345512, 9.926452
1134244872143680, 7.463214, -0.0047856453, 6.9894347, -0.34732366, 0.042526245, 10.219069
1134244881782951, 7.153343, -0.8805587, 6.814759, 0.53844047, -0.09378481, 9.903935
1134244891422326, 7.4512496, 0.30269206, 7.0803623, -0.6659456, -0.014135838, 10.261608
1134244901061597, 7.245467, -1.0959128, 6.823134, 0.7564436, -0.054986, 9.983875
1134244910700972, 7.3268228, 0.35294133, 6.9786673, -0.69815385, -0.013085365, 10.10055
1134244920340243, 7.2765737, -0.9667004, 6.7537417, 0.6361619, 0.02746582, 9.954427
1134244929979618, 7.2825556, 0.08973085, 6.8817577, -0.42597866, 0.016520023, 10.01102
1134244939618889, 7.422536, -0.5383851, 6.884151, 0.19957453, 0.055482388, 10.135706
1134244949258160, 7.207182, -0.3397808, 6.8339014, -0.0013290048, -0.03859949, 9.937789
1134244958897535, 7.483553, -0.043070808, 7.01097, -0.3065303, 0.05312395, 10.249991
1134244968536805, 7.2179494, -0.849452, 6.8458657, 0.49935603, -0.092505455, 9.971376
1134244978176180, 7.4392858, 0.28115666, 7.094719, -0.6391698, -0.013270378, 10.263935
1134244987815451, 7.204789, -1.0923235, 6.812366, 0.74483967, -0.08131838, 9.947315
1134244997454722, 7.3340015, 0.35174492, 6.963114, -0.70283496, 0.0107584, 10.09466
1134245007094097, 7.280163, -1.0169497, 6.728617, 0.6759329, 0.027430058, 9.942413
1134245016733368, 7.280163, 0.11844472, 6.7932234, -0.47373927, 0.063017845, 9.946571
1134245026372743, 7.3770723, -0.63170516, 6.780063, 0.28353575, 0.09758186, 10.034918
1134245036012014, 7.183254, -0.37208393, 6.823134, 0.014452726, -0.05317402, 9.914116
1134245045651389, 7.4344997, -0.16271193, 7.015756, -0.20346832, -0.0048499107, 10.221432
1134245055290660, 7.179664, -0.81595254, 6.8781686, 0.4502834, -0.12843466, 9.965103
1134245064929930, 7.4380894, 0.23090738, 7.117451, -0.60036856, -0.042028904, 10.279805
1134245074569305, 7.170093, -1.119841, 6.8398833, 0.749199, -0.15044689, 9.943056
1134245084208576, 7.348358, 0.3469593, 7.0133634, -0.71875834, -0.00977087, 10.138506
1134245093847951, 7.3064837, -1.0420742, 6.7465634, 0.6863545, 0.031160831, 9.975704
1134245103487222, 7.3028946, 0.12921242, 6.8410797, -0.47696328, 0.06390047, 9.995887
1134245113126597, 7.3974113, -0.6771688, 6.8075805, 0.31976295, 0.08128929, 10.070478
1134245122765868, 7.2215385, -0.2727818, 6.829116, -0.08903083, -0.022417545, 9.942506
1134245132405139, 7.436893, -0.17228323, 6.991828, -0.19624722, 0.018093586, 10.20705
1134245142044514, 7.200003, -0.7501499, 6.8458657, 0.38379145, -0.09298706, 9.955536
1134245151683785, 7.4859457, 0.25244278, 7.0695944, -0.624463, 0.031243324, 10.28063
1134245161323160, 7.2358956, -0.66161543, 6.896115, 0.30545694, -0.08772373, 10.012558
1134245170962430, 7.320841, -0.24646074, 6.91765, -0.11165124, -0.010893345, 10.07456
1134245180601805, 7.2933235, -0.3397808, 6.8279195, -0.0122510195, 0.02836752, 9.996377
1134245190241076, 7.3232336, -0.31106696, 6.802795, -0.037573397, 0.06810093, 9.999924
1134245199880451, 7.2993054, -0.32662028, 6.8446693, -0.02673757, 0.018368244, 10.011744
1134245209519722, 7.29452, -0.3397808, 6.853044, -0.016299844, 0.0067420006, 10.014459
1134245219158993, 7.3052874, -0.3493521, 6.882954, -0.00857535, -0.00817585, 10.043118
1134245228798368, 7.342376, -0.37208393, 6.9523463, 0.0061009824, -0.03468561, 10.118441
1134245238437639, 7.355537, -0.3684947, 6.9942207, -0.0010654926, -0.055841923, 10.156561
1134245248077014, 7.331609, -0.39601216, 7.0002027, 0.024678946, -0.077353, 10.1442375
1134245257716285, 7.312466, -0.38404804, 6.936793, 0.017473578, -0.042331696, 10.08646
1134245267355660, 7.301698, -0.37567315, 6.88774, 0.012688458, -0.013559818, 10.044728
1134245276994930, 7.312466, -0.37208393, 6.867401, 0.012290418, 0.006887436, 10.038507
1134245286634305, 7.347162, -0.37088752, 6.8578296, 0.012741268, 0.037647247, 10.057167
1134245296273576, 7.379465, -0.38165522, 6.9056864, 0.02129817, 0.024152279, 10.113833
1134245305912951, 7.37109, -0.38524446, 6.977471, 0.02022326, -0.03360367, 10.157014
1134245315552222, 7.3256264, -0.4019942, 6.98106, 0.037264228, -0.06744385, 10.126977
1134245325191493, 7.271788, -0.38524446, 6.9451675, 0.022271216, -0.07717848, 10.062614
1134245334830868, 7.2658057, -0.3804588, 6.88774, 0.01748252, -0.043583393, 10.018754
1134245344470139, 7.29452, -0.3481557, 6.798009, -0.0103392005, 0.03982687, 9.9770975
1134245354109514, 7.2969127, -0.35294133, 6.707082, 4.5973063E-4, 0.10724783, 9.916801
1134245363748785, 7.32443, -0.3469593, 6.6939216, -0.0057752132, 0.12923574, 9.927714
1134245373388160, 7.34118, -0.34337005, 6.725028, -0.0109188855, 0.11650944, 9.96108
1134245383027430, 7.2969127, -0.36251262, 6.725028, 0.008900434, 0.08492422, 9.929504
1134245392666805, 7.2586274, -0.35294133, 6.707082, 0.0025680363, 0.073207855, 9.888975
1134245402306076, 7.240681, -0.34217364, 6.68435, -0.0061466694, 0.07822466, 9.859966
1134245411945451, 7.216753, -0.35174492, 6.715457, 0.0014641583, 0.03959322, 9.864128
1134245421584722, 7.2658057, -0.36370903, 6.792027, 0.009361923, 0.017587662, 9.9526615
1134245431224097, 7.372287, -0.34456646, 6.893722, -0.016367555, 0.022907734, 10.099107
1134245440863368, 7.402197, -0.36370903, 7.024131, -0.005468309, -0.048860073, 10.210817
1134245450502743, 7.396215, -0.38285163, 7.129415, 0.00728631, -0.12602997, 10.279261
1134245460142014, 7.3782687, -0.37328035, 7.153343, -0.0030998588, -0.15025806, 10.2823105
1134245469781389, 7.332805, -0.36729828, 7.105487, -0.0069289804, -0.14634228, 10.216234
1134245479420660, 7.2658057, -0.36370903, 7.0325055, -0.0058855414, -0.13606405, 10.117401
1134245489060035, 7.274181, -0.36370903, 6.969096, -0.0011927485, -0.08384895, 10.080043
1134245498699305, 7.318448, -0.34337005, 6.9332037, -0.019516885, -0.028725624, 10.086908
1134245508338680, 7.3639116, -0.3397808, 6.916454, -0.020943046, 0.012434483, 10.108382
1134245517977951, 7.3950186, -0.33499518, 6.946364, -0.027285457, 0.012415409, 10.151335
1134245527617326, 7.368697, -0.33379877, 6.908079, -0.024409294, 0.018270016, 10.105926
1134245537256597, 7.318448, -0.3290131, 6.789634, -0.020311892, 0.0673666, 9.988099
1134245546895972, 7.3136625, -0.30987054, 6.7178497, -0.033920974, 0.113443375, 9.934845
1134245556535243, 7.288538, -0.30987054, 6.6532435, -0.02944842, 0.14307976, 9.872339
1134245566174618, 7.268199, -0.34217364, 6.602994, 0.0033430755, 0.15567589, 9.824411
1134245575813889, 7.2562346, -0.37447673, 6.6364937, 0.03138596, 0.11803961, 9.839783
1134245585453264, 7.29452, -0.40079778, 6.7202425, 0.05268997, 0.08112764, 9.925874
1134245595092535, 7.2849483, -0.41994038, 6.8099732, 0.063056886, 0.0071353912, 9.980909
1134245604731910, 7.2861447, -0.43788654, 6.897311, 0.074855626, -0.05445957, 10.04211
1134245614371180, 7.3028946, -0.4319045, 6.9762745, 0.06823823, -0.09083271, 10.108131
1134245624010555, 7.3770723, -0.42831525, 7.025327, 0.062031984, -0.075800896, 10.1956005
1134245633649826, 7.3806615, -0.39361933, 7.0229344, 0.031553745, -0.060475826, 10.195393
1134245643289201, 7.3782687, -0.36490545, 7.0193453, 0.0031408668, -0.057528973, 10.190186
1134245652928472, 7.350751, -0.3589234, 7.012167, -0.002804637, -0.06763649, 10.165052
1134245662567847, 7.3435726, -0.3397808, 7.0193453, -0.02275908, -0.07694769, 10.164068
1134245672207118, 7.3399835, -0.32183465, 7.031309, -0.041731298, -0.086945534, 10.16902
1134245681846493, 7.320841, -0.3074777, 6.975078, -0.05367434, -0.058384895, 10.116061
1134245691485764, 7.292127, -0.31944183, 6.9415784, -0.039444387, -0.054735184, 10.072642
1134245701125139, 7.280163, -0.3062813, 6.8949184, -0.047917515, -0.029481888, 10.031517
1134245710764410, 7.314859, -0.29192436, 6.853044, -0.057525843, 0.024420261, 10.027597
1134245720403785, 7.372287, -0.30029923, 6.799206, -0.043897122, 0.100084305, 10.032848
1134245730043055, 7.389036, -0.31226337, 6.7573314, -0.027650476, 0.13603258, 10.016866
1134245739682430, 7.3543406, -0.3182454, 6.778867, -0.020630598, 0.09692097, 10.006538
1134245749321701, 7.3340015, -0.33020952, 6.812366, -0.011571407, 0.054177284, 10.015081
1134245758961076, 7.2873416, -0.33499518, 6.8422766, -0.011265039, -4.9591064E-5, 10.001709
1134245768600347, 7.243074, -0.33738798, 6.8949184, -0.016198099, -0.06860018, 10.005543
1134245778239722, 7.219146, -0.3469593, 6.9188466, -0.0102415085, -0.10261536, 10.004812
1134245787878993, 7.240681, -0.3684947, 6.9009004, 0.012943327, -0.07548666, 10.008987
1134245797518368, 7.26102, -0.38285163, 6.8805614, 0.028788447, -0.048553467, 10.010391
1134245807157743, 7.318448, -0.3924229, 6.856633, 0.042419136, 0.007998943, 10.036196
1134245816797014, 7.3770723, -0.39481574, 6.8458657, 0.048648953, 0.055541515, 10.071619
1134245826436389, 7.3902326, -0.38883367, 6.8075805, 0.045670748, 0.09334946, 10.054803
1134245836075660, 7.37109, -0.37328035, 6.8051877, 0.029781163, 0.0832715, 10.038677
1134245845715035, 7.335198, -0.36131623, 6.8051877, 0.016878188, 0.05914402, 10.0121155
1134245855354305, 7.298109, -0.3589234, 6.849455, 0.009182811, 0.0015220642, 10.015297
1134245864993680, 7.2909307, -0.36490545, 6.890133, 0.010822654, -0.033850193, 10.038103
1134245874632951, 7.2897344, -0.36251262, 6.9248285, 0.0044122934, -0.059597015, 10.060882
1134245884272326, 7.27777, -0.34337005, 6.903293, -0.013822049, -0.050396442, 10.03676
1134245893911597, 7.281359, -0.34097722, 6.8949184, -0.01590687, -0.040723324, 10.0335655
1134245903550972, 7.2909307, -0.32542387, 6.890133, -0.02996692, -0.02893734, 10.036722
1134245913190243, 7.361519, -0.31944183, 6.927222, -0.035770774, -0.006720543, 10.113311
1134245922829618, 7.385447, -0.31345975, 6.927222, -0.0373556, 0.0120368, 10.130546
1134245932468889, 7.385447, -0.33020952, 6.930811, -0.020888567, 0.008431435, 10.133583
1134245942108264, 7.351948, -0.33020952, 6.897311, -0.016873837, 0.010485172, 10.086263
1134245951747639, 7.342376, -0.34217364, 6.876972, -0.003772527, 0.016126156, 10.065786
1134245961386910, 7.3292155, -0.3278167, 6.8650084, -0.017629504, 0.016622066, 10.047518
1134245971026285, 7.3052874, -0.32303107, 6.838687, -0.025176138, 0.016058922, 10.011908
1134245980665555, 7.2562346, -0.33379877, 6.8171515, -0.013564765, -0.0024385452, 9.961813
1134245990304930, 7.2825556, -0.34456646, 6.818348, -0.0068359077, 0.010892391, 9.982187
1134245999944201, 7.3172517, -0.33379877, 6.826723, -0.017897516, 0.029031754, 10.012821
1134246009583576, 7.3256264, -0.35413775, 6.818348, 0.001975298, 0.039192677, 10.013918
1134246019222847, 7.3112698, -0.3792624, 6.8195443, 0.026647419, 0.028131962, 10.005157
1134246028862222, 7.3256264, -0.38883367, 6.829116, 0.03602898, 0.031567097, 10.022501
1134246038501597, 7.335198, -0.38644084, 6.855437, 0.03211811, 0.018991947, 10.047393
1134246048140868, 7.342376, -0.40917268, 6.829116, 0.0573529, 0.042158604, 10.035419
1134246057780243, 7.292127, -0.39960137, 6.843473, 0.045310497, -7.3099136E-4, 10.008289
1134246067419514, 7.259824, -0.38285163, 6.8709903, 0.02328676, -0.04201746, 10.00299
1134246077058889, 7.2765737, -0.36131623, 6.9056864, -0.0023425817, -0.05313921, 10.038164
1134246086698160, 7.2765737, -0.3469593, 6.9296145, -0.019148171, -0.068614006, 10.054023
1134246096337535, 7.2705917, -0.34576288, 6.9320073, -0.020493507, -0.0744071, 10.051261
1134246105976805, 7.283752, -0.3385844, 6.9595246, -0.028806627, -0.083990574, 10.079424
1134246115616180, 7.314859, -0.3182454, 6.9056864, -0.04273665, -0.020961285, 10.064526
1134246125255555, 7.3256264, -0.32183465, 6.8315086, -0.028523743, 0.042456627, 10.02174
1134246134894826, 7.308877, -0.34097722, 6.780063, -0.0059478283, 0.066678524, 9.975004
