timestamp_acc,device_acc_x,device_acc_y,device_acc_z,earth_acc_x,earth_acc_y,earth_acc_z
1133954615565774, -0.05742774, 6.7369924, 6.9882383, 0.18607545, 0.09539795, 9.704746
1133954625204628, -0.07537391, 6.725028, 7.066005, 0.13921809, 0.05408001, 9.75386
1133954634843586, -0.13519448, 6.759724, 7.1473613, 0.0737226, 0.06153202, 9.838074
1133954644482441, -0.2105684, 6.7573314, 7.2418776, -0.02434063, 0.05342436, 9.906928
1133954654121399, -0.2117648, 6.77767, 7.2753773, -0.028544903, 0.047510624, 9.945335
1133954663760357, -0.16510476, 6.7872415, 7.271788, 0.014769316, 0.03662634, 9.94843
1133954673399211, -0.08733802, 6.8051877, 7.2705917, 0.08760309, 0.0050959587, 9.958515
1133954683038170, 0.05383851, 6.814759, 7.222735, 0.22662711, -0.0298028, 9.927713
1133954692677024, 0.09212367, 6.8099732, 7.281359, 0.23474765, -0.08279228, 9.966969
1133954702315982, -0.0011964113, 6.7836523, 7.300502, 0.13928986, -0.057614803, 9.964565
1133954711954836, -0.16630118, 6.695118, 7.2083783, 0.0020632744, 0.038235664, 9.839285
1133954721593795, -0.34576288, 6.65444, 7.1413794, -0.13627696, 0.15195656, 9.765182
1133954731232753, -0.40677986, 6.617351, 7.1425757, -0.20333862, 0.16213512, 9.741846
1133954740871607, -0.3804588, 6.5958157, 7.1772714, -0.19882369, 0.1162014, 9.75242
1133954750510566, -0.2727818, 6.5922265, 7.143772, -0.09461522, 0.07283449, 9.72374
1133954760149420, -0.16031912, 6.660422, 7.070791, 0.05509901, 0.09288955, 9.714491
1133954769788378, -0.101694964, 6.6855464, 7.0169525, 0.13033128, 0.10641575, 9.691036
1133954779427336, -0.069391854, 6.71426, 6.9248285, 0.19759631, 0.15854883, 9.6423645
1133954789066191, -0.033499517, 6.762117, 6.8889365, 0.2534287, 0.18879604, 9.648054
1133954798705149, 0.06699903, 6.799206, 6.977471, 0.31209636, 0.10646701, 9.737045
1133954808344003, 0.1471586, 6.823134, 7.240681, 0.28918648, -0.073117256, 9.945618
1133954817982961, 0.16271193, 6.798009, 7.515856, 0.18543673, -0.24047947, 10.130907
1133954827621816, 0.12562318, 6.7812595, 7.752745, 0.06790781, -0.3355279, 10.295103
1133954837260774, 0.025124637, 6.7669024, 7.874779, -0.04964614, -0.34064007, 10.377151
1133954846899732, -0.0526421, 6.7465634, 7.96451, -0.13919902, -0.34526825, 10.431381
1133954856538586, -0.16390835, 6.710671, 7.995617, -0.25839257, -0.32455778, 10.431576
1133954866177545, -0.26679972, 6.634101, 8.094919, -0.39724445, -0.35775566, 10.455832
1133954875816399, -0.27038896, 6.593423, 8.216953, -0.44455194, -0.44493675, 10.519936
1133954885455357, -0.18664017, 6.5682983, 8.135597, -0.34654832, -0.45541525, 10.442119
1133954895094316, -0.17826529, 6.6245294, 7.9154572, -0.24319983, -0.30656195, 10.315886
1133954904733170, -0.22851457, 6.6257257, 7.670193, -0.20840454, -0.15307951, 10.134962
1133954914372128, -0.20458634, 6.623333, 7.3782687, -0.09919524, -0.017650604, 9.916607
1133954924011086, -0.17587246, 6.634101, 7.1377897, 0.015142441, 0.11061764, 9.745657
1133954933649941, -0.17108682, 6.6628146, 6.96431, 0.07900047, 0.20554352, 9.637193
1133954943288899, -0.20458634, 6.68435, 6.8913293, 0.07314491, 0.26033092, 9.598942
1133954952927753, -0.27038896, 6.6915283, 6.8410797, 0.025052309, 0.30103898, 9.568636
1133954962566711, -0.26919255, 6.762117, 6.789634, 0.073414326, 0.37289286, 9.5788
1133954972205670, -0.2009971, 6.843473, 6.754938, 0.18094516, 0.3876958, 9.608313
1133954981844524, -0.086141616, 6.849455, 6.780063, 0.27008057, 0.31349087, 9.629149
1133954991483482, 0.0023928226, 6.829116, 6.788438, 0.33339143, 0.24311471, 9.620264
1133955001122336, 0.033499517, 6.79442, 6.7334027, 0.36726308, 0.2270701, 9.556021
1133955010761295, 0.008374879, 6.765706, 6.6927247, 0.34760404, 0.24647689, 9.507146
1133955020400253, -0.019142581, 6.719046, 6.6939216, 0.30507064, 0.23289752, 9.476667
1133955030039107, -0.11964113, 6.6735826, 6.847062, 0.14277816, 0.17263246, 9.559451
1133955039678066, -0.14476576, 6.664011, 7.066005, 0.035568476, 0.056859493, 9.713594
1133955049316920, -0.13878371, 6.664011, 7.179664, -0.0031034946, -0.011379242, 9.796721
1133955058955878, -0.16630118, 6.7130637, 7.24786, -0.030719042, -0.0053281784, 9.880455
1133955068594836, -0.16630118, 6.7441707, 7.367501, -0.063886404, -0.053840637, 9.9892235
1133955078233691, -0.1698904, 6.741778, 7.4512496, -0.102253675, -0.09800959, 10.048954
1133955087872649, -0.15672988, 6.7429743, 7.4787674, -0.099669695, -0.11758852, 10.06978
1133955097511607, -0.18424734, 6.7441707, 7.475178, -0.12089038, -0.09972429, 10.068342
1133955107150461, -0.17228323, 6.7094746, 7.5122666, -0.13251376, -0.13991642, 10.07193
1133955116789420, -0.19860429, 6.698707, 7.5146594, -0.15987206, -0.13368368, 10.066718
1133955126428274, -0.2428715, 6.674779, 7.495517, -0.19542956, -0.10833168, 10.037157
1133955136067232, -0.3074777, 6.6592255, 7.440482, -0.23177242, -0.04586792, 9.987231
1133955145706191, -0.31465617, 6.6460648, 7.3866434, -0.21233153, -0.011025906, 9.939138
1133955155345045, -0.31944183, 6.643672, 7.3902326, -0.21370149, -0.011305332, 9.9403305
1133955164984003, -0.3493521, 6.6448684, 7.3782687, -0.23411036, 0.011453152, 9.932787
1133955174622857, -0.3696911, 6.6245294, 7.385447, -0.25173354, 0.012372971, 9.924835
1133955184261816, -0.34456646, 6.6017976, 7.4010005, -0.23975039, -0.019535065, 9.920656
1133955193900774, -0.30029923, 6.611369, 7.3698936, -0.18207908, -0.021310806, 9.903643
1133955203539628, -0.19501504, 6.6424756, 7.4105716, -0.093538284, -0.08369303, 9.952957
1133955213178586, -0.10049855, 6.6831536, 7.344769, 0.025100231, -0.07509041, 9.930458
1133955222817441, -0.0526421, 6.739385, 7.2155566, 0.13465357, 0.00897789, 9.872595
1133955232456399, -0.05503492, 6.7669024, 7.1581287, 0.15832925, 0.055841923, 9.849091
1133955242095357, -0.049052864, 6.778867, 7.1162543, 0.17364979, 0.07735014, 9.826515
1133955251734211, -0.031106694, 6.814759, 7.0289164, 0.22378993, 0.13229465, 9.786725
1133955261373170, 0.034695927, 6.8506513, 6.9092755, 0.31786633, 0.1710093, 9.723191
1133955271012128, 0.046660043, 6.862615, 6.884151, 0.3460343, 0.17842674, 9.712757
1133955280650982, 0.025124637, 6.8303123, 6.9786673, 0.2628367, 0.1125288, 9.760834
1133955290289941, 0.019142581, 6.8111696, 7.056434, 0.21978235, 0.061659098, 9.804772
1133955299928795, 0.014356935, 6.8243303, 7.079166, 0.21080613, 0.059333086, 9.83048
1133955309567753, 0.034695927, 6.8458657, 7.1629148, 0.20579171, 0.01698494, 9.90615
1133955319206711, 0.041874398, 6.832705, 7.283752, 0.1650095, -0.050884724, 9.985531
1133955328845566, 0.05742774, 6.8255267, 7.348358, 0.1502397, -0.10020065, 10.027805
1133955338484524, 0.096909314, 6.8374906, 7.3627152, 0.18824601, -0.10820198, 10.046049
1133955348123378, 0.0849452, 6.8219376, 7.3902326, 0.16404486, -0.12360859, 10.055815
1133955357762336, 0.0047856453, 6.799206, 7.483553, 0.055342913, -0.14335918, 10.109854
1133955367401295, -0.08853444, 6.7573314, 7.587641, -0.06742668, -0.17375803, 10.1590805
1133955377040149, -0.18783657, 6.6999035, 7.57448, -0.17043734, -0.14707994, 10.111679
1133955386679107, -0.32422748, 6.6352973, 7.560123, -0.29864788, -0.10613251, 10.05919
1133955396317961, -0.3684947, 6.5922265, 7.48116, -0.3199575, -0.067260265, 9.972668
1133955405956920, -0.36131623, 6.59103, 7.322037, -0.25510168, 0.012728691, 9.854908
1133955415595878, -0.36370903, 6.5659056, 7.094719, -0.1874268, 0.12186575, 9.671011
1133955425234732, -0.37806597, 6.5814586, 6.8949184, -0.123031616, 0.24640894, 9.535335
1133955434873691, -0.3493521, 6.6281185, 6.788438, -0.046777725, 0.3026197, 9.489106
1133955444512649, -0.28713873, 6.661618, 6.780063, 0.02064681, 0.29329705, 9.504863
1133955454151503, -0.27038896, 6.6831536, 6.8614187, 0.0116992, 0.24336576, 9.579006
1133955463790461, -0.27158538, 6.6759753, 6.9583282, -0.024374247, 0.18562794, 9.644982
1133955473429316, -0.30388847, 6.660422, 7.1007013, -0.10800362, 0.11147356, 9.739067
1133955483068274, -0.25722843, 6.6759753, 7.301698, -0.12800622, -0.015423775, 9.896111
1133955492707128, -0.18544376, 6.6676, 7.416554, -0.104593754, -0.11823845, 9.973547
1133955502346086, -0.16390835, 6.695118, 7.4177504, -0.06757593, -0.106054306, 9.992931
1133955511985045, -0.1160519, 6.7202425, 7.4380894, -0.017223597, -0.120731354, 10.024242
1133955521623899, -0.021535404, 6.759724, 7.3974113, 0.09570193, -0.11724806, 10.019638
1133955531262857, 0.0035892338, 6.7740808, 7.385447, 0.1205678, -0.10841894, 10.020317
1133955540901711, -0.0035892338, 6.7740808, 7.422536, 0.10142636, -0.12606668, 10.047689
1133955550540670, -0.025124637, 6.7848487, 7.3986077, 0.081199884, -0.0943737, 10.037863
1133955560179628, -0.013160525, 6.8171515, 7.3064837, 0.13087058, -0.02951765, 9.992019
1133955569818482, 0.025124637, 6.8410797, 7.2095747, 0.20728636, 0.021650791, 9.936577
1133955579457441, 0.029910283, 6.818348, 7.1485577, 0.21139312, 0.03864336, 9.87656
1133955589096399, 0.033499517, 6.8099732, 7.0863442, 0.2329979, 0.06693363, 9.8251915
1133955598735253, -0.0047856453, 6.798009, 7.07438, 0.19716954, 0.083667755, 9.808871
1133955608374211, -0.10289137, 6.7669024, 7.152147, 0.07366681, 0.06959438, 9.846039
1133955618013066, -0.1794617, 6.6939216, 7.268199, -0.058492422, -0.0017347336, 9.882515
1133955627652024, -0.23090738, 6.6819572, 7.38784, -0.14638591, -0.049561024, 9.96284
1133955637290878, -0.25124636, 6.680761, 7.3926253, -0.16613412, -0.04110098, 9.965808
1133955646929836, -0.27996024, 6.6759753, 7.3399835, -0.1709528, 0.004825592, 9.924371
1133955656568795, -0.24526432, 6.920043, 7.3399835, -0.04311371, 0.13484335, 10.089721
1133955666207649, -0.42951167, 6.195018, 6.9212394, -0.3394022, 0.046044588, 9.292414
1133955675846607, -0.17108682, 7.2873416, 7.472785, 0.13109136, 0.23413181, 10.435762
1133955685485461, -0.32542387, 5.9342003, 6.873383, -0.34916878, -0.13950706, 9.0786915
1133955695124420, -0.07776674, 7.3986077, 7.6953177, 0.17142987, 0.120859146, 10.6733
1133955704763378, -0.11006984, 6.047859, 7.3974113, -0.3282776, -0.48060346, 9.537909
1133955714402232, -0.20338993, 7.1569324, 7.735996, -0.035954475, 0.040646553, 10.54067
1133955724041191, -0.15792629, 6.45105, 7.564909, -0.24428725, -0.30561447, 9.935579
1133955733680045, -0.37088752, 6.708278, 7.314859, -0.20738888, 0.10305691, 9.929354
1133955743319003, -0.05503492, 6.9966135, 7.4739814, 0.10102177, -0.012578964, 10.237465
1133955752957857, -0.21535404, 6.2883377, 6.7429743, -0.05394888, 0.070636034, 9.222223
1133955762596816, 0.1591227, 7.446464, 7.1569324, 0.5702541, 0.2923727, 10.309517
1133955772235774, 0.010767702, 6.131608, 6.439086, 0.1608007, 0.0030395985, 8.890034
1133955781874628, 0.1591227, 7.5924263, 7.012167, 0.6713953, 0.44904256, 10.304773
1133955791513586, 0.013160525, 6.1507506, 6.5479593, 0.111242294, -0.059127808, 8.982863
1133955801152441, -0.11246266, 7.2873416, 6.906883, 0.37783432, 0.47392464, 10.022758
1133955810791399, -0.06460621, 6.503692, 6.910472, 0.061029196, -0.0071821213, 9.489628
1133955820430357, -0.3062813, 6.768099, 6.91765, -0.012998581, 0.28802347, 9.678415
1133955830069211, -0.06699903, 6.9152575, 7.3770723, 0.06683731, -0.013451576, 10.111471
1133955839708170, -0.27517462, 6.2464633, 6.9894347, -0.23649836, -0.05560136, 9.374819
1133955849347024, 0.09451649, 7.3435726, 7.7036924, 0.2757566, -0.00944376, 10.639912
1133955858985982, -0.08255238, 6.0370917, 7.1712894, -0.23681164, -0.37176704, 9.3641
1133955868624836, 0.08733802, 7.4847493, 7.9908314, 0.2298913, -0.05437708, 10.946537
1133955878263795, -0.013160525, 6.105287, 7.7108707, -0.3553245, -0.640476, 9.807945
1133955887902753, -0.049052864, 7.3028946, 8.055437, 0.026703596, -0.09929514, 10.872634
1133955897541607, -0.104087785, 6.385247, 7.7826557, -0.3221705, -0.45812702, 10.051781
1133955907180566, -0.4235296, 6.741778, 7.560123, -0.32762122, 0.06051588, 10.13289
1133955916819420, -0.21415763, 6.79442, 7.611569, -0.1632545, -0.07535744, 10.203608
1133955926458378, -0.44865423, 6.227321, 6.914061, -0.3266034, 0.11648178, 9.309393
1133955936097232, -0.14117654, 7.203593, 7.2586274, 0.21098852, 0.30117798, 10.22077
1133955945736191, -0.36011982, 5.892326, 6.448657, -0.24370503, 0.08880186, 8.738828
1133955955375045, -0.13399807, 7.4177504, 7.0193453, 0.38144636, 0.5382261, 10.192007
1133955965014003, -0.22612174, 5.9724855, 6.546763, -0.13653827, 0.0013480186, 8.863588
1133955974652961, -0.17108682, 7.2442703, 7.0612197, 0.2562518, 0.4267044, 10.105532
1133955984291816, -0.021535404, 6.3565335, 7.007381, 0.023564339, -0.14849854, 9.459744
1133955993930774, -0.10767702, 6.923632, 7.1449685, 0.1485014, 0.16013885, 9.94742
1133956003569628, 0.10887343, 6.91765, 7.4907312, 0.19658518, -0.15090752, 10.19389
1133956013208586, -0.1902294, 6.3972116, 7.097112, -0.11658764, -0.06319785, 9.555727
1133956022847441, 0.059820566, 7.3028946, 7.685746, 0.2587731, 0.009892464, 10.599032
1133956032486399, -0.22851457, 6.0490556, 7.068398, -0.2905407, -0.21303439, 9.299233
1133956042125253, -0.041874398, 7.466803, 7.7587276, 0.2175467, 0.12475395, 10.765215
1133956051764211, -0.13280165, 6.0119667, 7.1916285, -0.27605844, -0.35626936, 9.363642
1133956061403170, -0.06460621, 7.353144, 7.59123, 0.20982432, 0.16575146, 10.565424
1133956071042024, 0.013160525, 6.346962, 7.342376, -0.07734847, -0.33252192, 9.699384
1133956080680982, -0.12562318, 6.9762745, 7.368697, 0.0712769, 0.11015892, 10.14715
1133956090319836, 0.09212367, 6.8542404, 7.5086775, 0.13475132, -0.17271924, 10.164711
1133956099958795, -0.23330021, 6.4343, 7.038488, -0.1267457, 0.033649683, 9.538226
1133956109597649, -0.029910283, 7.2382884, 7.5469627, 0.19465256, 0.10188675, 10.454763
1133956119236607, -0.3696911, 5.9904313, 6.876972, -0.36621118, -0.065356255, 9.120104
1133956128875461, -0.21655045, 7.373483, 7.475178, 0.13279867, 0.3262787, 10.496159
1133956138514420, -0.29312077, 5.919843, 6.829116, -0.31156802, -0.123793125, 9.036309
1133956148153274, -0.16630118, 7.2993054, 7.292127, 0.21810389, 0.35100603, 10.310764
1133956157792232, -0.049052864, 6.2105713, 7.075577, -0.09773135, -0.23493886, 9.411304
1133956167431191, -0.15194423, 6.948757, 7.2490563, 0.091290474, 0.15651035, 10.041132
1133956177070045, 0.08135597, 6.745367, 7.446464, 0.09681368, -0.21271276, 10.044989
1133956186709003, -0.19381863, 6.4618177, 7.0779696, -0.09952116, -0.007379055, 9.585423
1133956196347857, 0.02871387, 7.243074, 7.548159, 0.23779821, 0.050056934, 10.458423
1133956205986816, -0.32063824, 6.0921264, 6.936793, -0.31368065, -0.0682981, 9.232162
1133956215625670, -0.13040884, 7.459625, 7.556534, 0.19529033, 0.26438808, 10.613961
1133956225264628, -0.26919255, 5.948557, 6.835098, -0.29554987, -0.13924289, 9.059227
1133956234903482, -0.18903299, 7.350751, 7.280163, 0.20735884, 0.38717604, 10.3381405
1133956244542441, -0.11724831, 6.212964, 7.0612197, -0.14414668, -0.20399165, 9.402824
1133956254181295, -0.20697916, 7.004988, 7.2023964, 0.070372105, 0.23712826, 10.046194
1133956263820253, -0.015553347, 6.690332, 7.2957163, 0.04733944, -0.116280794, 9.898106
1133956273459107, -0.26799613, 6.521638, 7.0265236, -0.12808466, 0.08377743, 9.58917
1133956283098066, 0.043070808, 7.194021, 7.5433736, 0.21414256, 0.014773846, 10.421719
1133956292736920, -0.18185452, 6.1160545, 6.9583282, -0.20817852, -0.16895938, 9.2620535
1133956302375878, 0.111266255, 7.517052, 7.5756764, 0.39370966, 0.14334011, 10.664604
1133956312014836, -0.0741775, 6.0251274, 6.977471, -0.16385245, -0.2918551, 9.213074
1133956321653691, 0.0059820567, 7.463214, 7.539784, 0.30169177, 0.19834518, 10.602716
1133956331292649, -0.033499517, 6.233303, 7.1545396, -0.104993105, -0.28503847, 9.484219
1133956340931503, -0.14117654, 7.115058, 7.367501, 0.1055069, 0.1845398, 10.241038
1133956350570461, 0.07058827, 6.7202425, 7.5469627, 0.040403128, -0.27287984, 10.101842
1133956360209316, -0.18185452, 6.6053867, 7.3112698, -0.1274538, -0.062803745, 9.853867
1133956369848274, 0.09810573, 7.170093, 7.643872, 0.21570635, -0.08436251, 10.47831
1133956379487128, -0.25603202, 6.1627145, 6.9020967, -0.22087789, -0.058852434, 9.253717
1133956389126086, -0.047856454, 7.459625, 7.5266237, 0.27821946, 0.22051954, 10.591144
1133956398764941, -0.23928227, 5.9724855, 6.806384, -0.25830078, -0.13701057, 9.053686
1133956408403899, -0.20219351, 7.426125, 7.304091, 0.23371887, 0.39974928, 10.40786
1133956418042753, -0.2656033, 6.105287, 6.786045, -0.21011019, -0.04074812, 9.129604
1133956427681711, -0.3361916, 7.0636125, 6.98106, 0.10356474, 0.43964076, 9.926674
1133956437320566, -0.14596218, 6.5575304, 6.995417, 0.011292696, 0.027019024, 9.589449
1133956446959524, -0.39601216, 6.539584, 6.8662047, -0.13453007, 0.24068284, 9.486398
1133956456598378, -0.058624156, 7.02772, 7.3770723, 0.14937997, 0.032384872, 10.187743
1133956466237336, -0.30269206, 6.1435723, 6.9499536, -0.27471352, -0.0841918, 9.276551
1133956475876191, -0.029910283, 7.4237323, 7.7012997, 0.22323895, 0.072034836, 10.694283
1133956485515149, -0.28594232, 5.942575, 7.23111, -0.45117426, -0.36079025, 9.346186
1133956495154003, -0.124426775, 7.428518, 7.867601, 0.105627775, 0.062024593, 10.820467
1133956504792961, -0.1160519, 6.1244297, 7.2550383, -0.2326076, -0.36095166, 9.485425
1133956514431816, -0.15433706, 7.1808605, 7.4739814, 0.12658119, 0.15360832, 10.36385
1133956524070774, 0.008374879, 6.586244, 7.3543406, 0.027017355, -0.22958851, 9.86973
1133956533709628, -0.17826529, 6.73101, 7.070791, 0.05603385, 0.12287164, 9.762999
1133956543348586, 0.12203395, 7.1306114, 7.3196445, 0.3634696, 0.036157608, 10.212948
1133956552987441, -0.16390835, 6.309873, 6.739385, -0.007721901, 0.04086399, 9.233578
1133956562626399, 0.08853444, 7.501499, 7.372287, 0.47256303, 0.23607588, 10.504851
1133956572265253, -0.11964113, 6.050252, 6.7561345, -0.09133983, -0.14774585, 9.068354
1133956581904211, 0.008374879, 7.5254273, 7.4548388, 0.39287472, 0.25565577, 10.582393
1133956591543066, -0.14117654, 6.0981083, 7.0540414, -0.19665074, -0.27120233, 9.319557
1133956601182024, -0.34456646, 7.1581287, 7.4380894, -0.02492547, 0.26015186, 10.325426
1133956610820878, -0.317049, 6.413961, 7.389036, -0.31568456, -0.16085649, 9.783238
1133956620459836, -0.53240305, 6.6089764, 7.257431, -0.33075094, 0.15691423, 9.823355
1133956630098691, -0.20219351, 6.8685975, 7.628319, -0.09432411, -0.09540081, 10.26605
1133956639737649, -0.36490545, 6.128019, 7.097112, -0.3494749, -0.13063288, 9.376331
1133956649376503, 0.022731815, 7.351948, 7.670193, 0.28599215, 0.029980183, 10.620773
1133956659015461, -0.19262223, 5.9676995, 6.9248285, -0.21230364, -0.23782897, 9.137952
1133956668654316, -0.07178468, 7.4620175, 7.463214, 0.332124, 0.26310968, 10.545467
1133956678293274, -0.16271193, 6.0634127, 6.8506513, -0.119108915, -0.16352725, 9.147783
1133956687932128, -0.20697916, 7.263413, 7.2083783, 0.2323277, 0.36740685, 10.226034
1133956697571086, -0.11724831, 6.458228, 7.105487, -0.0054347515, -0.10609889, 9.602037
1133956707209941, -0.3397808, 6.786045, 7.0935225, -0.04059577, 0.22291183, 9.820009
1133956716848899, -0.08255238, 6.946364, 7.3639116, 0.14448833, 0.017226696, 10.12249
1133956726487753, -0.38285163, 6.250053, 6.812366, -0.18612981, 0.09623766, 9.25063
1133956736126711, -0.10049855, 7.2933235, 7.4380894, 0.260602, 0.1909461, 10.412659
1133956745765566, -0.37567315, 5.866005, 6.7405815, -0.3205676, -0.10169506, 8.937197
1133956755404524, -0.19501504, 7.365108, 7.3292155, 0.24110198, 0.35299206, 10.38352
1133956765043378, -0.25124636, 5.9246287, 6.838687, -0.2341075, -0.19312358, 9.046541
1133956774682336, -0.21894327, 7.1880393, 7.463214, 0.093575, 0.18529654, 10.3620615
1133956784321191, -0.046660043, 6.361319, 7.556534, -0.14031267, -0.4529655, 9.866352
1133956793960149, -0.2955136, 6.7932234, 7.688139, -0.21727753, -0.12304497, 10.260621
1133956803599003, -0.16390835, 6.8410797, 8.04467, -0.20589614, -0.36428738, 10.553143
1133956813237857, -0.5024927, 6.2668023, 7.647461, -0.5776048, -0.28556252, 9.878958
1133956822876816, -0.1591227, 7.342376, 8.196614, -0.042198896, -0.1404705, 11.00449
1133956832515670, -0.32063824, 6.0693946, 7.3866434, -0.419497, -0.34855986, 9.550152
1133956842154628, -0.046660043, 7.521838, 7.751549, 0.28470182, 0.13913393, 10.796589
1133956851793482, -0.06460621, 6.0957155, 6.9391856, -0.041170597, -0.24183273, 9.233311
1133956861432441, -0.014356935, 7.4344997, 7.051648, 0.5325389, 0.4333942, 10.223812
1133956871071295, 0.06819545, 6.465407, 6.63769, 0.3197205, 0.045381784, 9.260712
1133956880710253, -0.13998012, 6.954739, 6.463014, 0.42100763, 0.5372343, 9.470621
1133956890349107, 0.046660043, 6.927222, 6.5754766, 0.51572585, 0.3490293, 9.530881
1133956899988066, -0.2847459, 6.4055862, 6.1675005, 0.17179966, 0.45681977, 8.88327
1133956909626920, -0.061016977, 7.281359, 6.8518476, 0.47685218, 0.46356297, 9.976345
1133956919265878, -0.32063824, 5.985646, 6.515656, -0.16389155, 0.051579475, 8.851837
1133956928904732, -0.083748795, 7.4189467, 7.3112698, 0.34723186, 0.3130126, 10.405953
1133956938543691, -0.15433706, 5.9449677, 6.91765, -0.19266844, -0.28126693, 9.116146
1133956948182545, -0.06580263, 7.320841, 7.469196, 0.27765775, 0.19722462, 10.453321
1133956957821503, 0.046660043, 6.290731, 7.524231, -0.09626007, -0.5020497, 9.794294
1133956967460357, -0.08733802, 6.923632, 7.9477606, -0.08783817, -0.27983856, 10.53685
1133956977099316, 0.025124637, 6.7848487, 8.226524, -0.16457772, -0.58273816, 10.646307
1133956986738170, -0.4139583, 6.364908, 7.7814593, -0.5269191, -0.34138918, 10.041929
1133956996377128, -0.27756742, 7.164111, 8.22772, -0.24340129, -0.18741322, 10.908829
1133957006015982, -0.58983076, 5.985646, 7.517052, -0.7586875, -0.31601477, 9.592
1133957015654941, -0.36370903, 7.4213395, 7.958528, -0.10983205, 0.14285707, 10.886425
1133957025293795, -0.45583272, 5.9318075, 7.186843, -0.5677793, -0.26249337, 9.308788
1133957034932753, -0.3900301, 7.332805, 7.426125, 0.011712313, 0.36646795, 10.437195
1133957044571607, -0.3385844, 6.2285175, 6.9092755, -0.23694062, -0.01671958, 9.305414
1133957054210566, -0.47736812, 6.937989, 6.8051877, 0.0015799999, 0.5241101, 9.715938
1133957063849420, -0.23090738, 6.6855464, 6.8243303, 0.08167982, 0.2124331, 9.553509
1133957073488378, -0.41874397, 6.407979, 6.4211397, -0.041324615, 0.38471985, 9.072974
1133957083127232, -0.09571291, 7.1545396, 6.884151, 0.3671863, 0.36746383, 9.915557
1133957092766191, -0.30508488, 6.0514483, 6.3481584, -0.08014846, 0.15322852, 8.773958
1133957102405045, -0.040677983, 7.440482, 7.1042905, 0.4521277, 0.4012065, 10.269762
1133957112044003, -0.086141616, 6.0011992, 6.6915283, -0.048249483, -0.17523193, 8.986952
1133957121682857, 0.029910283, 7.436893, 7.408179, 0.39579582, 0.19475174, 10.487842
1133957131321711, 0.1052842, 6.330212, 7.4010005, -0.018297195, -0.47470713, 9.727889
1133957140960670, 0.0023928226, 7.123433, 7.682157, 0.13689923, -0.10185671, 10.475197
1133957150599524, 0.21415763, 6.843473, 7.881958, 0.09950948, -0.50460744, 10.427835
1133957160238482, -0.0059820567, 6.7022963, 7.6271224, -0.05578637, -0.32416582, 10.148183
1133957169877336, 0.23569304, 7.3304124, 7.969296, 0.28030014, -0.28615332, 10.823109
1133957179516295, -0.14117654, 6.2309103, 7.2382884, -0.2373395, -0.31507444, 9.543658
1133957189155149, -0.038285162, 7.5553374, 7.6594253, 0.2302165, 0.13374043, 10.755486
1133957198794107, -0.2943172, 6.0825553, 6.8135624, -0.29227304, -0.10400343, 9.133043
1133957208432961, -0.22492532, 7.507481, 7.125826, 0.26804733, 0.50248694, 10.337597
1133957218071920, -0.18903299, 6.2691956, 6.748956, -0.099635124, -0.028839827, 9.212829
1133957227710774, -0.2656033, 7.155736, 6.908079, 0.18534327, 0.4331324, 9.938546
1133957237349732, -0.078963146, 6.698707, 6.9583282, 0.10334778, 0.03148842, 9.658445
1133957246988586, -0.38883367, 6.5551376, 6.593423, -0.046978712, 0.34421468, 9.299116
1133957256627545, -0.13280165, 7.064809, 6.99781, 0.22862267, 0.260638, 9.938728
1133957266266399, -0.33260235, 6.1184473, 6.472585, -0.13367987, 0.14026213, 8.910828
1133957275905357, -0.038285162, 7.416554, 7.3292155, 0.3604498, 0.26643276, 10.417448
1133957285544211, -0.062213387, 5.985646, 7.216753, -0.22909117, -0.48192835, 9.361015
1133957295183170, 0.111266255, 7.432107, 8.035098, 0.22217488, -0.19466352, 10.941853
1133957304822024, 0.013160525, 6.166304, 7.6402826, -0.25449085, -0.643172, 9.793823
1133957314460982, -0.23449662, 7.1425757, 7.7814593, -0.069690466, -0.014537334, 10.564914
1133957324099836, -0.14117654, 6.587441, 7.6199436, -0.1740191, -0.306247, 10.067461
1133957333738795, -0.44745782, 6.62094, 7.1617184, -0.2558651, 0.13158011, 9.759329
1133957343377649, -0.16031912, 7.0815587, 7.283752, 0.12989855, 0.16054583, 10.157982
1133957353016607, -0.40438703, 6.1591253, 6.556334, -0.2044959, 0.15887094, 9.000935
1133957362655461, -0.11006984, 7.440482, 7.1282187, 0.37031388, 0.4045136, 10.289976
1133957372294420, -0.30508488, 5.9952173, 6.550352, -0.19698334, 0.0029354095, 8.882793
1133957381933274, -0.23090738, 7.450053, 7.1485577, 0.26809, 0.48756075, 10.312561
1133957391572232, -0.30508488, 6.0729837, 6.8171515, -0.25629592, -0.093924046, 9.130896
1133957401211086, -0.37088752, 7.0983086, 7.1473613, 0.03426671, 0.38214517, 10.07279
1133957410850045, -0.21655045, 6.4821568, 7.3052874, -0.16674519, -0.1426115, 9.766491
1133957420488899, -0.30987054, 6.593423, 7.301698, -0.19134212, -0.019931316, 9.84109
1133957430127857, 0.02751746, 6.9906316, 7.9238324, 0.027941227, -0.3180766, 10.561953
1133957439766711, -0.18664017, 6.1878395, 7.5469627, -0.345649, -0.44081807, 9.745104
1133957449405670, 0.061016977, 7.391429, 8.236095, 0.13099813, -0.25427723, 11.062929
1133957459044524, -0.20458634, 5.9952173, 7.513463, -0.435956, -0.51294756, 9.590801
1133957468683482, -0.0849452, 7.5110703, 7.9573317, 0.1589365, 0.04600048, 10.941441
1133957478322336, -0.1698904, 6.1471615, 7.3100734, -0.27315092, -0.35732985, 9.542082
1133957487961295, -0.20937198, 7.2526455, 7.3627152, 0.148803, 0.27576685, 10.332283
1133957497600149, -0.08255238, 6.5312095, 7.0636125, 0.041687727, -0.06521106, 9.620402
1133957507239107, -0.2644069, 6.7645097, 6.7202425, 0.13114405, 0.36941004, 9.530818
1133957516877961, 0.0035892338, 7.0193453, 6.9248285, 0.37510967, 0.23186612, 9.850383
1133957526516920, -0.2536392, 6.263213, 6.384051, 0.050682306, 0.24384618, 8.943504
1133957536155774, 0.0023928226, 7.351948, 7.0205417, 0.49127626, 0.36325455, 10.147207
1133957545794732, -0.2883351, 5.9497533, 6.4869423, -0.15494633, 0.02410984, 8.805597
1133957555433586, -0.1591227, 7.4129643, 7.1820574, 0.33050108, 0.41496277, 10.309118
1133957565072545, -0.276371, 6.0023956, 6.8039913, -0.23799038, -0.11588359, 9.073552
1133957574711399, -0.2656033, 7.1856465, 7.3304124, 0.10221815, 0.27831078, 10.26407
1133957584350357, -0.09092726, 6.439086, 7.487142, -0.14904785, -0.3253851, 9.869108
1133957593989211, -0.22253251, 6.798009, 7.479964, -0.083973885, -0.028800488, 10.10962
1133957603628170, 0.0035892338, 6.9535427, 7.8903327, 0.0015897751, -0.29658604, 10.512905
1133957613267024, -0.29192436, 6.2584276, 7.4344997, -0.3637066, -0.27482843, 9.7116995
1133957622905982, -0.046660043, 7.3256264, 7.9968133, 0.08572388, -0.10937977, 10.844201
1133957632544941, -0.3361916, 5.986842, 7.2490563, -0.46572232, -0.30257726, 9.391254
1133957642183795, -0.18664017, 7.459625, 7.7611203, 0.115136385, 0.17586327, 10.76437
1133957651822753, -0.23928227, 6.023931, 7.1007013, -0.31693769, -0.27149892, 9.305418
1133957661461607, -0.17826529, 7.2849483, 7.300502, 0.21970439, 0.31254053, 10.30794
1133957671100566, -0.08853444, 6.431907, 7.062416, 2.8896332E-4, -0.10726094, 9.552145
1133957680739420, -0.2847459, 6.836294, 6.943971, 0.07229233, 0.3078618, 9.743444
1133957690378378, -0.09810573, 6.8745794, 7.2023964, 0.13956237, 0.074261904, 9.9558525
1133957700017232, -0.37328035, 6.3218374, 6.8051877, -0.1724863, 0.1341381, 9.293428
1133957709656191, -0.05503492, 7.3028946, 7.5457664, 0.23150158, 0.1171999, 10.497932
1133957719295045, -0.2644069, 5.9760747, 6.969096, -0.29625297, -0.21986413, 9.176907
1133957728934003, -0.032303106, 7.4787674, 7.6019974, 0.3070562, 0.1730504, 10.658291
1133957738572857, -0.12921242, 6.0287166, 7.042077, -0.19404864, -0.3114934, 9.263817
1133957748211816, -0.14476576, 7.2969127, 7.38784, 0.211694, 0.25275612, 10.379662
1133957757850670, -0.09930214, 6.3194447, 7.1222367, -0.07677102, -0.20350385, 9.519674
1133957767489628, -0.27756742, 6.8721867, 7.0863442, 0.029019117, 0.24356842, 9.872189
1133957777128482, -0.029910283, 6.8709903, 7.301698, 0.14240694, -0.025167465, 10.025232
1133957786767441, -0.26679972, 6.4163537, 6.9212394, -0.09882021, 0.063819885, 9.440895
1133957796406295, 0.020338992, 7.3363943, 7.587641, 0.27626538, 0.05716324, 10.550631
1133957806045253, -0.27876383, 6.053841, 6.9655066, -0.2905209, -0.15738893, 9.226907
1133957815684211, -0.11006984, 7.475178, 7.54457, 0.253865, 0.24147129, 10.615469
1133957825323066, -0.23330021, 5.992824, 6.9822564, -0.28010893, -0.22970867, 9.19723
1133957834962024, -0.18544376, 7.301698, 7.4620175, 0.15513778, 0.24223137, 10.437822
1133957844600878, -0.11006984, 6.263213, 7.3100734, -0.17638946, -0.32737327, 9.619711
1133957854239836, -0.28235307, 6.9056864, 7.3842506, -0.06953883, 0.112464905, 10.113255
1133957863878691, -0.07178468, 6.7609205, 7.5493555, -0.023150206, -0.18565655, 10.132767
1133957873517649, -0.34576288, 6.384051, 7.0899334, -0.2311635, 0.0069379807, 9.544073
1133957883156503, -0.0849452, 7.2299137, 7.57448, 0.16379237, 0.08620167, 10.46983
1133957892795461, -0.3182454, 6.0514483, 7.0025954, -0.31870055, -0.15044928, 9.253834
1133957902434316, -0.034695927, 7.4739814, 7.722835, 0.25858736, 0.107590675, 10.743619
1133957912073274, -0.16630118, 5.9964137, 7.0839515, -0.24900293, -0.31850338, 9.273809
1133957921712232, -0.1698904, 7.365108, 7.4273214, 0.22165108, 0.28989506, 10.454933
1133957931351086, -0.14117654, 6.2380886, 7.070791, -0.12975216, -0.19150949, 9.42742
1133957940990045, -0.25244278, 6.9678993, 7.179664, 0.07132292, 0.23572731, 10.005114
1133957950628899, -0.0011964113, 6.7465634, 7.350751, 0.10066962, -0.13619304, 9.976019
1133957960267857, -0.25722843, 6.491728, 7.02772, -0.09516978, 0.042315006, 9.570095
1133957969906711, -0.021535404, 7.2287173, 7.5230346, 0.22568822, 0.05943489, 10.430552
1133957979545670, -0.30388847, 6.0825553, 6.9248285, -0.27217817, -0.11659908, 9.217126
1133957989184524, -0.08733802, 7.507481, 7.5517483, 0.28468657, 0.2402196, 10.64237
1133957998823482, -0.23569304, 6.0155563, 6.8949184, -0.23293614, -0.1741941, 9.148649
1133958008462441, -0.12921242, 7.432107, 7.408179, 0.28283978, 0.3039689, 10.486259
1133958018101295, -0.05383851, 6.257231, 7.0875406, -0.05469179, -0.25203466, 9.451061
1133958027740253, -0.1471586, 7.0863442, 7.183254, 0.20316958, 0.2375238, 10.086594
1133958037379107, 0.015553347, 6.71426, 7.257431, 0.13533688, -0.11974859, 9.885302
1133958047018066, -0.32063824, 6.48096, 6.9738817, -0.12626219, 0.10197544, 9.524408
1133958056656920, -0.1268196, 7.09113, 7.456035, 0.11132169, 0.07857561, 10.289515
1133958066295878, -0.4546363, 6.0454664, 6.8889365, -0.38726997, -0.025983095, 9.168487
1133958075934836, -0.2117648, 7.3603225, 7.5900335, 0.124415874, 0.21817493, 10.571883
1133958085573691, -0.35174492, 5.892326, 7.045666, -0.42291975, -0.25701833, 9.178219
1133958095212649, -0.16630118, 7.3902326, 7.6343007, 0.1604867, 0.18398571, 10.623846
1133958104851503, -0.058624156, 6.2057858, 7.3459654, -0.1612494, -0.40267134, 9.606783
1133958114490461, -0.14955142, 7.111469, 7.5924263, 0.08330035, 0.049932957, 10.403406
1133958124129316, -0.069391854, 6.6125655, 7.6103725, -0.08649802, -0.29822445, 10.077311
1133958133768274, -0.4103691, 6.570691, 7.288538, -0.24724388, 0.05724764, 9.81839
1133958143407232, -0.16510476, 7.1066833, 7.6666036, 0.042574644, 0.0102825165, 10.455004
1133958153046086, -0.38883367, 6.1292152, 7.025327, -0.3260002, -0.080056906, 9.325289
1133958162685045, -0.051445685, 7.432107, 7.60439, 0.30018973, 0.16300297, 10.627744
1133958172323899, -0.20338993, 5.9653068, 6.862615, -0.1829691, -0.20947051, 9.090896
1133958181962857, -0.12801601, 7.4249287, 7.3340015, 0.3224504, 0.35646963, 10.426048
1133958191601816, -0.18664017, 6.1005015, 6.8482585, -0.112469435, -0.13279223, 9.1716585
1133958201240670, -0.2440679, 7.1222367, 7.143772, 0.17541432, 0.33667946, 10.083411
1133958210879628, -0.078963146, 6.5922265, 7.2562346, 0.03453374, -0.13507867, 9.8029175
1133958220518482, -0.29671, 6.6101727, 7.0432734, -0.048760176, 0.123009205, 9.6629505
1133958230157441, -0.02751746, 7.0301127, 7.4380894, 0.2040093, -0.014138222, 10.232626
1133958239796399, -0.3696911, 6.1244297, 6.9451675, -0.2768457, -0.0558362, 9.262878
1133958249435253, -0.09571291, 7.3603225, 7.685746, 0.22111249, 0.09656906, 10.639359
1133958259074211, -0.29910284, 5.948557, 7.117451, -0.35713434, -0.28628707, 9.269487
1133958268713066, -0.19142582, 7.4333034, 7.763513, 0.14995599, 0.16378832, 10.747719
1133958278352024, -0.2620141, 6.053841, 7.2670026, -0.32827377, -0.3350978, 9.450234
1133958287990982, -0.3278167, 7.1485577, 7.4237323, 0.042600393, 0.26450586, 10.307733
1133958297629836, -0.14356937, 6.5347986, 7.3112698, -0.03388858, -0.14979577, 9.80588
1133958307268795, -0.3062813, 6.6939216, 7.1138616, -0.028627157, 0.14897585, 9.771715
1133958316907649, 0.023928227, 7.045666, 7.4010005, 0.28568268, 0.014035702, 10.214449
1133958326546607, -0.23928227, 6.2213387, 6.863812, -0.09020114, -0.03152013, 9.266342
1133958336185566, 0.022731815, 7.385447, 7.456035, 0.40110922, 0.16358852, 10.485713
1133958345824420, -0.24765715, 5.953343, 6.8410797, -0.21887207, -0.17840266, 9.067759
1133958355463378, -0.111266255, 7.4452677, 7.542177, 0.27167177, 0.23467255, 10.592447
1133958365102232, -0.17108682, 6.040681, 7.066005, -0.19684744, -0.29484868, 9.290955
1133958374741191, -0.22612174, 7.204789, 7.3746796, 0.15164971, 0.25917053, 10.308048
1133958384380149, -0.040677983, 6.5204415, 7.3100734, 0.032408476, -0.2187016, 9.793168
1133958394019003, -0.22372891, 6.8458657, 7.2442703, 0.04800701, 0.121664524, 9.968866
1133958403657961, 0.06580263, 7.0672016, 7.588837, 0.2507174, -0.10863638, 10.366554
1133958413296816, -0.23090738, 6.3194447, 7.143772, -0.14984846, -0.13353014, 9.538444
1133958422935774, 0.05383851, 7.4141607, 7.743174, 0.32872176, 0.024072647, 10.715446
1133958432574732, -0.16510476, 6.0490556, 6.9930243, -0.1544826, -0.24675703, 9.243158
1133958442213586, 0.014356935, 7.5326056, 7.5326056, 0.4183359, 0.23128271, 10.641993
1133958451852545, -0.04426722, 6.096912, 7.003792, -0.05367136, -0.30274773, 9.280779
1133958461491503, -0.047856454, 7.3136625, 7.3232336, 0.3509519, 0.23720026, 10.3412895
1133958471130357, 0.0059820567, 6.4869423, 7.1473613, 0.096957445, -0.18093276, 9.65003
1133958480769316, -0.27158538, 6.8219376, 7.079166, 0.05043578, 0.2104516, 9.832617
1133958490408274, -0.09212367, 6.9523463, 7.3567333, 0.14872932, 0.023049355, 10.1213875
1133958500047128, -0.42592242, 6.326623, 7.079166, -0.29044342, 0.009028912, 9.499353
1133958509686086, -0.1471586, 7.331609, 7.8520474, 0.084903, 1.7881393E-4, 10.743444
1133958519324941, -0.40079778, 5.960521, 7.259824, -0.49301577, -0.31707764, 9.3834915
1133958528963899, -0.2428715, 7.4237323, 7.6941214, 0.12767625, 0.1900096, 10.691954
1133958538602857, -0.41156548, 5.925825, 6.836294, -0.34707308, -0.12784648, 9.048918
1133958548241711, -0.47377887, 7.111469, 7.007381, 0.052563906, 0.5136845, 9.981693
1133958557880670, -0.34456646, 6.1734824, 6.669993, -0.13781762, 0.05607128, 9.093805
1133958567519628, -0.5096712, 6.7118673, 6.587441, -0.011068106, 0.51049113, 9.404393
1133958577158482, -0.2739782, 6.741778, 6.8913293, 0.07202768, 0.21358418, 9.641901
1133958586797441, -0.57906306, 6.209375, 6.579066, -0.2822168, 0.26173615, 9.05691
1133958596436399, -0.357727, 7.1880393, 7.2765737, 0.062888384, 0.30510283, 10.229729
1133958606075253, -0.64606214, 5.8911295, 6.8410797, -0.5733657, -0.015672445, 9.032949
1133958615714211, -0.44506502, 7.3232336, 7.6678, -0.06741381, 0.24619389, 10.609327
1133958625353170, -0.53359944, 5.858826, 7.1748786, -0.6099725, -0.253201, 9.254906
1133958634992024, -0.40797627, 7.2765737, 7.670193, -0.056251526, 0.20555115, 10.578346
1133958644630982, -0.2428715, 6.4402823, 7.5314093, -0.23967838, -0.2736261, 9.905859
1133958654269941, -0.10887343, 6.775277, 7.7814593, -0.077986, -0.29728365, 10.3137245
1133958663908795, -0.0059820567, 6.7262244, 7.786245, -0.017369509, -0.36055875, 10.282871
1133958673547753, 0.09810573, 6.788438, 7.7300134, 0.12093973, -0.35307264, 10.281361
1133958683186711, 0.10767702, 6.7429743, 7.6402826, 0.14615679, -0.32280135, 10.184677
1133958692825566, 0.029910283, 6.73101, 7.568498, 0.089808464, -0.23528099, 10.125519
1133958702464524, -0.05503492, 6.727421, 7.500303, 0.035829067, -0.15010643, 10.074322
1133958712103482, -0.050249275, 6.792027, 7.4010005, 0.10399556, -0.057207584, 10.044643
1133958721742336, 0.013160525, 6.875776, 7.318448, 0.21131754, 0.0025382042, 10.039497
1133958731381295, 0.08853444, 6.936793, 7.2789664, 0.31381154, 0.02342081, 10.050436
1133958741020253, 0.10767702, 6.9523463, 7.3268228, 0.31421518, -0.007156849, 10.096052
1133958750659107, 0.08973085, 6.8913293, 7.440482, 0.22898293, -0.09695625, 10.138906
1133958760298066, 0.008374879, 6.8099732, 7.503892, 0.09958553, -0.13906908, 10.131878
1133958769937024, -0.033499517, 6.741778, 7.648658, -0.015140057, -0.24162865, 10.19294
1133958779575878, -0.07776674, 6.7094746, 7.6737823, -0.07160854, -0.25539255, 10.190176
1133958789214836, -0.15553348, 6.674779, 7.520642, -0.095891714, -0.14637232, 10.055163
1133958798853795, -0.27517462, 6.661618, 7.3064837, -0.12424183, 0.015171528, 9.890497
1133958808492649, -0.3804588, 6.6364937, 7.1066833, -0.14918399, 0.17323685, 9.728335
1133958818131607, -0.4749753, 6.6053867, 6.8853474, -0.1654129, 0.31749964, 9.546547
1133958827770566, -0.51086766, 6.582655, 6.6831536, -0.1337905, 0.4119308, 9.384523
1133958837409524, -0.49651068, 6.552745, 6.556334, -0.09456372, 0.44648242, 9.271582
1133958847048378, -0.4354937, 6.530013, 6.6089764, -0.07120347, 0.36910272, 9.293438
1133958856687336, -0.35653058, 6.5407805, 6.7585278, -0.053218126, 0.23878264, 9.408867
1133958866326295, -0.25842485, 6.5754766, 6.98106, -0.03139758, 0.07846022, 9.593317
1133958875965149, -0.2620141, 6.599405, 7.198807, -0.09641671, -0.022586346, 9.769024
1133958885604107, -0.27876383, 6.647261, 7.4105716, -0.15698028, -0.09660673, 9.957228
1133958895243066, -0.27517462, 6.678368, 7.609176, -0.20138311, -0.18154335, 10.124346
1133958904881920, -0.28115666, 6.6963143, 7.7850485, -0.24910784, -0.25707388, 10.266378
1133958914520878, -0.29671, 6.708278, 7.9597244, -0.31040764, -0.32905722, 10.403923
1133958924159836, -0.28235307, 6.708278, 7.960921, -0.3057983, -0.3312645, 10.404505
1133958933798795, -0.26919255, 6.7334027, 7.810173, -0.21861982, -0.23164463, 10.310602
1133958943437649, -0.30508488, 6.7369924, 7.6259255, -0.1740706, -0.10296059, 10.178112
1133958953076607, -0.23449662, 6.7645097, 7.3902326, -0.02447033, -0.002527237, 10.021403
1133958962715566, -0.14596218, 6.789634, 7.109076, 0.16090703, 0.12527323, 9.829436
1133958972354420, -0.0849452, 6.7609205, 6.8458657, 0.28452253, 0.21505976, 9.615402
1133958981993378, -0.010767702, 6.7561345, 6.7704916, 0.34868407, 0.19012356, 9.556532
1133958991632336, 0.076570325, 6.7968125, 6.927222, 0.36837387, 0.073343515, 9.697826
1133959001271295, 0.11006984, 6.818348, 7.0372915, 0.3652475, 0.009833336, 9.792444
1133959010910149, 0.07178468, 6.836294, 7.1413794, 0.29581714, -0.019762993, 9.881876
1133959020549107, 0.05383851, 6.8745794, 7.2753773, 0.24399495, -0.06599426, 10.006496
1133959030188066, 0.10887343, 6.9128647, 7.34118, 0.2791965, -0.10957384, 10.079807
1133959039826920, 0.14356937, 6.975078, 7.2933235, 0.3485663, -0.05941248, 10.086618
1133959049465878, 0.1698904, 7.0061846, 7.207182, 0.40872884, -0.0035881996, 10.044497
1133959059104836, 0.1471586, 6.9655066, 7.207182, 0.37322092, -0.015079975, 10.0171795
1133959068743795, 0.051445685, 6.903293, 7.1880393, 0.26950383, 8.158684E-4, 9.962601
1133959078382649, -0.06819545, 6.8685975, 7.170093, 0.16277075, 0.05064535, 9.927912
1133959088021607, -0.16869399, 6.832705, 7.1808605, 0.0635972, 0.07384157, 9.913101
1133959097660566, -0.26919255, 6.7561345, 7.2346992, -0.067619085, 0.050065994, 9.9021015
1133959107299524, -0.32303107, 6.7166533, 7.240681, -0.123371124, 0.051003456, 9.880659
1133959116938378, -0.35174492, 6.669993, 7.2011995, -0.15203238, 0.062123775, 9.820531
1133959126577336, -0.44745782, 6.6149583, 7.2287173, -0.25553656, 0.06471157, 9.805242
1133959136216295, -0.56470615, 6.538388, 7.2466636, -0.36842275, 0.07131863, 9.76948
1133959145855253, -0.62452674, 6.4965134, 7.2287173, -0.42901516, 0.090247154, 9.729177
1133959155494107, -0.59342, 6.521638, 7.2083783, -0.36209178, 0.095525265, 9.731617
1133959165133066, -0.5072784, 6.5551376, 7.3052874, -0.31176805, 0.011532307, 9.82329
1133959174772024, -0.38524446, 6.586244, 7.3902326, -0.22097158, -0.090343475, 9.903816
1133959184410982, -0.3182454, 6.6352973, 7.361519, -0.13215113, -0.084489346, 9.914424
1133959194049836, -0.30269206, 6.6855464, 7.26102, -0.062582254, -0.0041651726, 9.874544
1133959203688795, -0.32662028, 6.7178497, 7.1210403, -0.021350622, 0.10582352, 9.794579
1133959213327753, -0.33260235, 6.7501526, 7.0265236, 0.012660265, 0.17263508, 9.74768
1133959222966711, -0.34576288, 6.7968125, 7.0396843, 0.018564224, 0.20011473, 9.789433
1133959232605566, -0.35413775, 6.754938, 7.0528445, -0.016984224, 0.16828537, 9.770803
1133959242244524, -0.34217364, 6.7226353, 7.1210403, -0.047897577, 0.09986973, 9.79836
1133959251883482, -0.2644069, 6.7429743, 7.2299137, -0.010480404, 0.0070290565, 9.889851
1133959261522441, -0.16510476, 6.7369924, 7.3567333, 0.030714273, -0.120613575, 9.975988
1133959271161295, -0.13878371, 6.7178497, 7.432107, 0.022794247, -0.18504953, 10.017494
1133959280800253, -0.16390835, 6.721439, 7.3842506, 0.026507616, -0.13124943, 9.985682
1133959290439211, -0.17347965, 6.734599, 7.2825556, 0.057853222, -0.05684519, 9.920382
1133959300078170, -0.15074782, 6.7848487, 7.2789664, 0.09870219, -0.036170006, 9.951342
1133959309717024, -0.12203395, 6.8111696, 7.2442703, 0.14153242, -0.01562643, 9.943145
1133959319355982, -0.13040884, 6.8195443, 7.225128, 0.14452195, 0.0040135384, 9.935026
1133959328994941, -0.14476576, 6.8099732, 7.2622166, 0.11223078, -0.018165112, 9.956081
1133959338633899, -0.17706887, 6.8051877, 7.245467, 0.08902192, 0.005680084, 9.941366
1133959348272753, -0.2440679, 6.7633133, 7.2263246, 0.02299571, 0.02580309, 9.900534
1133959357911711, -0.317049, 6.728617, 7.207182, -0.045424223, 0.052957058, 9.864756
1133959367550670, -0.34456646, 6.6915283, 7.1617184, -0.06664133, 0.07284641, 9.806924
1133959377189628, -0.31944183, 6.6831536, 7.09113, -0.026356459, 0.08906889, 9.748953
1133959386828586, -0.33020952, 6.678368, 7.071987, -0.032593966, 0.1009779, 9.7319765
1133959396467441, -0.33140594, 6.6652074, 7.0779696, -0.040828228, 0.09027481, 9.727417
1133959406106399, -0.33738798, 6.669993, 7.119844, -0.059487104, 0.070888996, 9.761468
1133959415745357, -0.30508488, 6.6915283, 7.2011995, -0.051051617, 0.020371914, 9.834831
1133959425384316, -0.31585258, 6.710671, 7.32443, -0.09411454, -0.029736519, 9.93833
1133959435023170, -0.27876383, 6.73101, 7.5050883, -0.11772132, -0.137959, 10.083536
1133959444662128, -0.25842485, 6.7465634, 7.5433736, -0.10221481, -0.15882635, 10.121744
1133959454301086, -0.2727818, 6.739385, 7.489535, -0.0941689, -0.12039995, 10.077872
1133959463940045, -0.23688944, 6.751349, 7.4237323, -0.036250353, -0.09348297, 10.0368595
1133959473579003, -0.19142582, 6.762117, 7.280163, 0.05617714, -0.032052994, 9.937778
1133959483217857, -0.21894327, 6.7633133, 7.155736, 0.07596898, 0.052011013, 9.848168
1133959492856816, -0.25244278, 6.739385, 7.133004, 0.040498972, 0.06762266, 9.816137
1133959502495774, -0.2656033, 6.7369924, 7.186843, 0.0040388107, 0.040452957, 9.854273
1133959512134732, -0.27996024, 6.7178497, 7.233503, -0.034813404, 0.00921917, 9.875736
1133959521773691, -0.29790643, 6.7166533, 7.2909307, -0.07067418, -0.014582157, 9.917391
1133959531412545, -0.29790643, 6.6999035, 7.320841, -0.08736014, -0.040519714, 9.927883
1133959541051503, -0.28235307, 6.7094746, 7.314859, -0.06724, -0.039046764, 9.929647
1133959550690461, -0.25603202, 6.7322063, 7.233503, -0.008116245, 0.006641388, 9.884918
1133959560329420, -0.24765715, 6.7429743, 7.1162543, 0.04400301, 0.0739975, 9.806258
1133959569968274, -0.22851457, 6.775277, 7.0540414, 0.09774709, 0.117055416, 9.782271
1133959579607232, -0.17587246, 6.7932234, 7.0097737, 0.16157818, 0.12180376, 9.76088
1133959589246191, -0.15553348, 6.8111696, 7.076773, 0.15553021, 0.080919266, 9.821721
1133959598885149, -0.16031912, 6.8051877, 7.1712894, 0.11340833, 0.02638483, 9.886866
1133959608524107, -0.148355, 6.748956, 7.259824, 0.06566715, -0.062515736, 9.912983
