timestamp_acc,device_acc_x,device_acc_y,device_acc_z,earth_acc_x,earth_acc_y,earth_acc_z
265370035485308, -0.24646074, 4.9363933, 8.602198, 0.008621097, 0.1055007, 9.920448
265370045125516, -0.28235307, 4.9232326, 8.567501, -0.028152704, 0.100316525, 9.884795
265370054765725, -0.31106696, 4.8993044, 8.577073, -0.04646957, 0.06365585, 9.882305
265370064405933, -0.29072794, 4.895715, 8.598608, -0.022943377, 0.055487156, 9.898739
265370074046141, -0.33140594, 4.928018, 8.65125, -0.058357954, 0.047687054, 9.961609
265370083686350, -0.32422748, 4.8681974, 8.752945, -0.024688601, -0.048879623, 10.020754
265370093326454, -0.31226337, 4.8382874, 8.734999, -0.009566903, -0.062111855, 9.990134
265370102966662, -0.30029923, 4.8418765, 8.782856, 0.0080628395, -0.07872486, 10.033257
265370112606870, -0.3074777, 4.831109, 8.718249, -0.007583499, -0.059209824, 9.971883
265370122247079, -0.2847459, 4.779663, 8.666803, 0.016429186, -0.074265, 9.901209
265370131887287, -0.28594232, 4.7952166, 8.629715, 0.0065022707, -0.04352188, 9.8765335
265370141527391, -0.24646074, 4.8490553, 8.609376, 0.033052564, 0.020587921, 9.884024
265370151167600, -0.21774685, 4.8729835, 8.603394, 0.055454254, 0.05061531, 9.889698
265370160807808, -0.2321038, 4.9088755, 8.615358, 0.035026193, 0.072033405, 9.918111
265370170448016, -0.25722843, 4.9459643, 8.617751, 0.003679514, 0.095852375, 9.939072
265370180088225, -0.28115666, 4.9543395, 8.636893, -0.018785834, 0.08843851, 9.960536
265370189728329, -0.29790643, 4.9292145, 8.657232, -0.026718974, 0.05076027, 9.966459
265370199368537, -0.31585258, 4.8646083, 8.690732, -0.026846647, -0.024208069, 9.96452
265370209008745, -0.31465617, 4.8263235, 8.656036, -0.022043586, -0.041031837, 9.915504
265370218648954, -0.29072794, 4.7952166, 8.672786, 0.011483073, -0.06944847, 9.914175
265370228289162, -0.25722843, 4.834698, 8.687142, 0.038344383, -0.03504896, 9.94506
265370237929370, -0.22612174, 4.8287163, 8.699107, 0.07112503, -0.037846565, 9.951664
265370247569475, -0.23090738, 4.8622155, 8.725428, 0.06355131, -0.021315098, 9.991149
265370257209683, -0.21894327, 4.9052863, 8.695518, 0.062357306, 0.032503128, 9.985833
265370266849891, -0.25124636, 4.922036, 8.664411, 0.021486402, 0.053027153, 9.967865
265370276490100, -0.27517462, 4.9316072, 8.598608, -0.012869716, 0.08526087, 9.915902
265370286130308, -0.2943172, 4.924429, 8.541181, -0.037460566, 0.099956036, 9.862909
265370295770412, -0.33020952, 4.914858, 8.510074, -0.07608807, 0.09763861, 9.832135
265370305410620, -0.35413775, 4.8909297, 8.58784, -0.08356559, 0.033956528, 9.888856
265370315050829, -0.33020952, 4.8993044, 8.656036, -0.052134752, 0.01504755, 9.951696
265370324691037, -0.32303107, 4.8705907, 8.730213, -0.030064702, -0.038136005, 10.002062
265370334331245, -0.31106696, 4.837091, 8.76132, -0.007904172, -0.07856417, 10.012426
265370343971350, -0.2656033, 4.8215375, 8.750552, 0.040111423, -0.07367277, 9.9941435
265370353611558, -0.2632105, 4.8442693, 8.687142, 0.028943777, -0.024079323, 9.949938
265370363251766, -0.27996024, 4.847859, 8.6345005, 0.0064845085, -0.0015511513, 9.906294
265370372891975, -0.2847459, 4.8789654, 8.580662, -0.006679654, 0.04451084, 9.874773
265370382532183, -0.28594232, 4.8969116, 8.581859, -0.010317564, 0.057991505, 9.88465
265370392172391, -0.2620141, 4.907679, 8.585447, 0.010207176, 0.07193422, 9.892349
265370401812495, -0.2428715, 4.898108, 8.658429, 0.037340045, 0.035660267, 9.950687
265370411452704, -0.2548356, 4.898108, 8.715857, 0.033290863, 0.0058918, 10.00107
265370421092912, -0.24765715, 4.907679, 8.730213, 0.034523487, 0.01198864, 10.018081
265370430733120, -0.2739782, 4.8765726, 8.708678, 0.011183143, -0.009886742, 9.984833
265370440373329, -0.25962126, 4.847859, 8.63809, 0.020628095, 9.059906E-4, 9.908852
265370450013433, -0.2943172, 4.846662, 8.575876, -0.019704938, 0.020481586, 9.85503
265370459653641, -0.30867413, 4.8490553, 8.595019, -0.030625701, 0.008442879, 9.873296
265370469293850, -0.3278167, 4.85743, 8.622537, -0.0458467, -0.00258255, 9.901925
265370478934058, -0.30388847, 4.9052863, 8.675179, -0.023370504, 0.019312382, 9.970556
265370488574266, -0.29192436, 4.910072, 8.706285, -0.008892179, 0.01311636, 9.99966
265370498214475, -0.29790643, 4.9112687, 8.729017, -0.012859583, 0.0031437874, 10.020223
265370507854579, -0.27996024, 4.8825545, 8.663215, 0.0010143518, 0.013205528, 9.948309
265370517494787, -0.2727818, 4.863412, 8.605786, 0.0036046505, 0.025632858, 9.888685
265370527134995, -0.29910284, 4.843073, 8.578269, -0.018548489, 0.010460854, 9.85551
265370536775204, -0.29910284, 4.855037, 8.60459, -0.017154098, 0.008228302, 9.884304
265370546415412, -0.31106696, 4.8705907, 8.611769, -0.027872324, 0.01447916, 9.898535
265370556055516, -0.32063824, 4.8681974, 8.672786, -0.027460694, -0.017338753, 9.950795
265370565695725, -0.2835495, 4.8729835, 8.715857, 0.013404965, -0.022490025, 9.989588
265370575335933, -0.24047868, 4.8729835, 8.718249, 0.053911567, -0.011727333, 9.990427
265370584976141, -0.2117648, 4.8861437, 8.7015, 0.0747776, 0.014159203, 9.981461
265370594616350, -0.25722843, 4.8658047, 8.677571, 0.029974699, -0.004331112, 9.951962
265370604256454, -0.2632105, 4.853841, 8.639286, 0.0204885, 7.791519E-4, 9.912914
265370613896662, -0.2835495, 4.87418, 8.640483, -0.003265977, 0.011223793, 9.924506
265370623536870, -0.31106696, 4.867001, 8.599805, -0.034292698, 0.017567158, 9.886335
265370633177079, -0.33738798, 4.834698, 8.599805, -0.05269611, -0.01731205, 9.871257
265370642817287, -0.30149564, 4.8681974, 8.596215, -0.022468686, 0.021511555, 9.883531
265370652457391, -0.29910284, 4.880162, 8.624929, -0.018479109, 0.018671513, 9.914341
265370662097600, -0.25603202, 4.883751, 8.6548395, 0.026655912, 0.018624306, 9.940914
265370671737808, -0.19860429, 4.9064827, 8.689535, 0.0816654, 0.03564787, 9.980638
265370681378016, -0.22851457, 4.910072, 8.679964, 0.050672054, 0.035970688, 9.974917
265370691018225, -0.25603202, 4.901697, 8.666803, 0.020612597, 0.027310371, 9.960145
265370700658433, -0.30149564, 4.912465, 8.641679, -0.029233694, 0.03626871, 9.944832
265370710298537, -0.3493521, 4.900501, 8.622537, -0.07616639, 0.023889542, 9.923645
265370719938745, -0.35294133, 4.8789654, 8.58784, -0.078979254, 0.01786375, 9.882979
265370729578954, -0.32422748, 4.846662, 8.578269, -0.04617679, 0.0022034645, 9.857983
265370739219162, -0.24047868, 4.8239303, 8.601001, 0.043014526, -0.007762432, 9.86425
265370748859266, -0.1591227, 4.8490553, 8.636893, 0.12135041, 0.016859055, 9.905533
265370758499475, -0.17228323, 4.8586264, 8.678768, 0.110787034, 0.0042157173, 9.947092
265370768139683, -0.19381863, 4.875376, 8.738588, 0.094074726, -0.013311863, 10.008036
265370777779891, -0.23330021, 4.918447, 8.736196, 0.04738581, 0.015278816, 10.02817
265370787420100, -0.30388847, 4.948357, 8.713464, -0.030076504, 0.035153866, 10.025015
265370797060204, -0.37447673, 4.922036, 8.647661, -0.1022743, 0.027779102, 9.956781
265370806700412, -0.40677986, 4.875376, 8.62134, -0.12864494, -0.010047436, 9.911894
265370816340620, -0.37447673, 4.8179483, 8.562716, -0.093942165, -0.026666164, 9.831755
265370825980829, -0.35413775, 4.7832522, 8.563912, -0.067585826, -0.052965164, 9.815199
265370835621037, -0.28953153, 4.802395, 8.580662, -0.007996559, -0.026747704, 9.837368
265370845261141, -0.29312077, 4.814359, 8.627322, -0.0076003075, -0.039384842, 9.883979
265370854901350, -0.31226337, 4.855037, 8.657232, -0.031027198, -0.020225525, 9.930519
265370864541558, -0.31585258, 4.8909297, 8.738588, -0.031097054, -0.026224613, 10.019093
265370874181766, -0.28235307, 4.8933225, 8.755338, 0.0038471222, -0.020711899, 10.033934
265370883821975, -0.2428715, 4.9028935, 8.712267, 0.03416598, 0.015913963, 9.999977
265370893462079, -0.19860429, 4.9028935, 8.647661, 0.06859803, 0.05627489, 9.942434
265370903102287, -0.18783657, 4.922036, 8.565108, 0.06380987, 0.111438274, 9.879589
265370912742495, -0.20219351, 4.942375, 8.514859, 0.038380742, 0.14643812, 9.8462105
265370922382704, -0.22372891, 4.9375896, 8.489735, 0.014555573, 0.14323187, 9.822664
265370932022808, -0.28115666, 4.9340005, 8.529217, -0.035042882, 0.10802603, 9.856879
265370941663016, -0.34097722, 4.9399824, 8.592627, -0.08357382, 0.067117214, 9.916724
265370951303225, -0.36251262, 4.9196434, 8.646464, -0.08790147, 0.018204212, 9.954275
265370960943433, -0.3493521, 4.8598228, 8.693125, -0.056423426, -0.05096197, 9.965167
265370970583641, -0.26081768, 4.8059845, 8.742178, 0.045044422, -0.09811878, 9.978955
265370980223745, -0.18903299, 4.779663, 8.756535, 0.122127295, -0.110973835, 9.976501
265370989863954, -0.16510476, 4.7449675, 8.763713, 0.14935839, -0.13624096, 9.965127
265370999504162, -0.148355, 4.7545385, 8.744571, 0.15718317, -0.11410141, 9.952761
265371009144370, -0.22851457, 4.8299127, 8.677571, 0.05437839, -0.03445053, 9.9335985
265371018784475, -0.30987054, 4.8658047, 8.620144, -0.038291335, 0.0050082207, 9.903408
265371028424683, -0.37447673, 4.9136615, 8.598608, -0.11198211, 0.043296337, 9.909891
265371038064891, -0.3804588, 4.9674997, 8.605786, -0.12474728, 0.082734585, 9.942734
265371047705100, -0.34217364, 4.9567323, 8.598608, -0.085488915, 0.08366871, 9.930157
265371057345204, -0.29671, 4.9268217, 8.599805, -0.0354203, 0.06583023, 9.915275
265371066985412, -0.25244278, 4.924429, 8.628518, 0.011469126, 0.057935238, 9.937886
265371076625620, -0.2548356, 4.9088755, 8.513663, -0.0012893677, 0.096853256, 9.830316
265371086265829, -0.3062813, 4.941179, 8.657232, -0.036804438, 0.04046297, 9.972651
265371095906037, -0.34456646, 4.6169515, 8.465807, -0.043643475, -0.15406704, 9.647758
265371105546141, -0.2416751, 5.373083, 8.745767, -0.03693378, 0.38275337, 10.26007
265371115186350, -0.44147578, 4.321438, 8.555537, -0.06814706, -0.47264838, 9.583262
265371124826558, -0.12801601, 5.621937, 8.822337, 0.040858865, 0.5782733, 10.446059
265371134466766, -0.49172506, 4.152744, 8.60459, -0.07731998, -0.6428156, 9.544992
265371144106870, -0.040677983, 5.4664035, 8.644072, 0.12806547, 0.5597973, 10.211436
265371153747079, -0.3469593, 4.362116, 8.610572, 0.028452396, -0.43303585, 9.648942
265371163387287, -0.08973085, 5.0620165, 8.595019, 0.13893044, 0.22022438, 9.971891
265371173027495, -0.25722843, 4.807181, 8.763713, 0.04851961, -0.10782051, 9.998192
265371182667600, -0.20578274, 4.618148, 8.577073, 0.10653496, -0.17267036, 9.741388
265371192307808, -0.11485548, 5.3240304, 8.7780695, 0.090231895, 0.3555317, 10.260529
265371201948016, -0.36729828, 4.269992, 8.523234, 0.0070979595, -0.47717667, 9.528143
265371211588225, -0.086141616, 5.602794, 8.79123, 0.06354153, 0.5885062, 10.408366
265371221228329, -0.5180461, 4.17069, 8.541181, -0.12062538, -0.6038437, 9.499245
265371230868537, -0.14117654, 5.581259, 8.609376, -0.009925008, 0.6390009, 10.241257
265371240508745, -0.4977071, 4.432704, 8.538788, -0.14585137, -0.3771932, 9.625172
265371250148954, -0.21415763, 5.2570314, 8.566305, -0.013224006, 0.36421442, 10.046442
265371259789058, -0.3912265, 4.892126, 8.679964, -0.10441017, -0.04117155, 9.970715
265371269429266, -0.30149564, 4.712664, 8.445468, -0.016042233, -0.062107325, 9.675842
265371279069475, -0.19262223, 5.2749777, 8.690732, 0.021421194, 0.3255353, 10.162918
265371288709579, -0.33020952, 4.28076, 8.475378, 0.0388937, -0.44867587, 9.490162
265371298349787, -0.050249275, 5.5669017, 8.819944, 0.1154567, 0.54368305, 10.4151535
265371307989995, -0.4235296, 4.162315, 8.656036, 0.001599431, -0.6613374, 9.591343
265371317630204, -0.07298109, 5.548956, 8.752945, 0.08429885, 0.55367804, 10.34875
265371327270308, -0.4438686, 4.3441696, 8.676374, -0.043799877, -0.5113771, 9.699736
265371336910516, -0.16151553, 5.2666025, 8.609376, 0.03586316, 0.36788034, 10.087017
265371346550725, -0.40079778, 4.770092, 8.668, -0.08940506, -0.13836336, 9.900581
265371356190933, -0.2943172, 4.770092, 8.423932, -0.018918991, -0.0039515495, 9.685178
265371365831037, -0.28713873, 5.2366924, 8.629715, -0.07127857, 0.29646683, 10.093781
265371375471245, -0.41994038, 4.3704906, 8.429914, -0.06451726, -0.37572098, 9.497141
265371385111454, -0.15194423, 5.615955, 8.770891, 0.011406064, 0.5856271, 10.399399
265371394751558, -0.5180461, 4.188636, 8.571091, -0.11075246, -0.61625147, 9.533342
265371404391766, -0.1160519, 5.595616, 8.7015, 0.04476559, 0.61107063, 10.327878
265371414031975, -0.465404, 4.3262234, 8.610572, -0.0692327, -0.5057225, 9.634012
265371423672183, -0.13280165, 5.2953167, 8.606983, 0.07103157, 0.39546347, 10.098353
265371433312287, -0.36610186, 4.698307, 8.688339, -0.030744076, -0.20476174, 9.8819275
265371442952495, -0.2620141, 4.820341, 8.483752, 0.018027306, 0.017156601, 9.761035
265371452592704, -0.30149564, 5.188836, 8.703893, -0.05752039, 0.21742678, 10.135192
265371462232808, -0.40677986, 4.3728833, 8.493324, -0.036385298, -0.40067077, 9.553129
265371471873016, -0.14237295, 5.5477595, 8.793623, 0.052490592, 0.5133681, 10.385539
265371481513225, -0.4546363, 4.174279, 8.578269, -0.045184374, -0.623518, 9.53033
265371491153433, -0.03589234, 5.5908303, 8.707481, 0.13707817, 0.62345076, 10.328184
265371500793537, -0.3900301, 4.2448673, 8.548359, 0.009836674, -0.52521324, 9.537793
265371510433745, -0.041874398, 5.306084, 8.566305, 0.15218472, 0.43852997, 10.065904
265371520073954, -0.3062813, 4.633701, 8.670393, 0.032693982, -0.23944521, 9.832715
265371529714058, -0.22013968, 4.82752, 8.571091, 0.065318465, -0.0072078705, 9.839344
265371539354266, -0.27038896, 5.157729, 8.819944, -0.012261391, 0.15016222, 10.219785
265371548994475, -0.38524446, 4.4578285, 8.586644, -0.025506258, -0.35914588, 9.675819
265371558634579, -0.20219351, 5.5369916, 8.835498, -0.02315104, 0.48695278, 10.417653
265371568274787, -0.55752766, 4.162315, 8.536395, -0.1460272, -0.6233969, 9.491879
265371577914995, -0.18065812, 5.5980086, 8.629715, -0.033096075, 0.6399903, 10.267991
265371587555100, -0.51445687, 4.2125645, 8.421539, -0.13631272, -0.5259299, 9.414749
265371597195308, -0.101694964, 5.352744, 8.4909315, 0.06957555, 0.50353336, 10.024957
265371606835516, -0.40558344, 4.6002016, 8.656036, -0.065036416, -0.27366638, 9.806845
265371616475725, -0.22013968, 4.965107, 8.642876, 0.049737453, 0.08520079, 9.969469
265371626115829, -0.25124636, 5.1182475, 8.815159, 0.014510989, 0.12679529, 10.195603
265371635756037, -0.3062813, 4.4602213, 8.550752, 0.04818642, -0.32132506, 9.643503
265371645396245, -0.106480606, 5.49751, 8.810373, 0.08084273, 0.48652935, 10.373689
265371655036350, -0.41515473, 4.1850467, 8.545966, 0.002254486, -0.58551335, 9.506716
265371664676558, -0.0634098, 5.6099725, 8.715857, 0.08465314, 0.6276312, 10.346055
265371674316766, -0.46181476, 4.2221355, 8.529217, -0.057300925, -0.54882073, 9.512243
265371683956870, -0.101694964, 5.4496536, 8.609376, 0.070628285, 0.53947496, 10.175185
265371693597079, -0.44985065, 4.601398, 8.647661, -0.10735214, -0.2887299, 9.801142
265371703237287, -0.25842485, 5.0344987, 8.534002, -0.019322038, 0.1776557, 9.910107
265371712877391, -0.38165522, 5.0476594, 8.682357, -0.12029183, 0.09505463, 10.049096
265371722517600, -0.41754755, 4.4913282, 8.446664, -0.088621855, -0.27509522, 9.571258
265371732157808, -0.23688944, 5.3886366, 8.736196, -0.02910769, 0.39134312, 10.259662
265371741797912, -0.46899325, 4.1790648, 8.560323, -0.06776738, -0.6015067, 9.518261
265371751438120, -0.10049855, 5.613562, 8.809176, 0.07215953, 0.5883784, 10.4294
265371761078329, -0.43788654, 4.21735, 8.602198, -0.030130267, -0.5886946, 9.57226
265371770718433, -0.03589234, 5.4759746, 8.635697, 0.13331425, 0.557837, 10.209501
265371780358641, -0.3505485, 4.5128636, 8.612965, 6.352663E-4, -0.31365204, 9.724897
265371789998850, -0.08255238, 5.0596237, 8.535198, 0.14628303, 0.24718046, 9.918352
265371799638954, -0.18544376, 4.9603214, 8.676374, 0.080165625, 0.06966066, 9.995368
265371809279162, -0.23808585, 4.5272202, 8.445468, 0.07643688, -0.20174813, 9.5828905
265371818919370, -0.14237295, 5.3718867, 8.788837, 0.057061672, 0.37697887, 10.294451
265371828559475, -0.48215377, 4.1778684, 8.612965, -0.07133782, -0.6294012, 9.563942
265371838199683, -0.16869399, 5.6039906, 8.867801, -0.005411625, 0.5295, 10.478104
265371847839787, -0.5587241, 4.1898327, 8.639286, -0.12965941, -0.6475632, 9.595207
265371857479995, -0.1794617, 5.5070815, 8.642876, -0.032328844, 0.55062675, 10.234999
265371867120204, -0.4941179, 4.4255257, 8.595019, -0.11049938, -0.41323686, 9.670617
265371876760308, -0.19381863, 5.0979085, 8.526823, 0.023755431, 0.25523806, 9.93314
265371886400516, -0.33738798, 4.883751, 8.690732, -0.04575026, -0.03600502, 9.974483
265371896040725, -0.3278167, 4.5523453, 8.5112705, 0.0069218874, -0.22922754, 9.655075
265371905680829, -0.21655045, 5.2941203, 8.811569, 0.0015200377, 0.29082918, 10.27783
265371915321037, -0.44626144, 4.2053857, 8.617751, -0.022883058, -0.5975046, 9.580842
265371924961245, -0.05742774, 5.5573306, 8.810373, 0.11487055, 0.55570316, 10.4013405
265371934601350, -0.41156548, 4.1001015, 8.580662, 0.021703959, -0.6581371, 9.496017
265371944241558, -0.0071784677, 5.4903316, 8.65125, 0.16125304, 0.583982, 10.2284355
265371953881766, -0.3589234, 4.389633, 8.628518, 0.015181899, -0.43050337, 9.677989
265371963521870, -0.022731815, 5.1720862, 8.605786, 0.19049054, 0.3300023, 10.033212
265371973162079, -0.2213361, 4.910072, 8.713464, 0.06004095, 0.01091814, 10.003924
265371982802183, -0.23569304, 4.749753, 8.493324, 0.044960618, -0.031620502, 9.733923
265371992442391, -0.19980069, 5.430511, 8.659625, -0.018551707, 0.47469664, 10.212433
265372002082600, -0.47138608, 4.3645086, 8.382058, -0.12572753, -0.36325264, 9.45422
265372011722704, -0.20578274, 5.690132, 8.635697, -0.07013178, 0.69913673, 10.319956
265372021362912, -0.5910272, 4.206582, 8.484949, -0.1832323, -0.59170604, 9.468649
265372031003120, -0.20458634, 5.5716877, 8.608179, -0.053060293, 0.5984583, 10.238425
265372040643225, -0.55034924, 4.354937, 8.5938225, -0.14582753, -0.5091491, 9.635437
265372050283433, -0.23928227, 5.215157, 8.644072, -0.0033540726, 0.27044106, 10.094648
265372059923641, -0.43788654, 4.7976093, 8.784052, -0.09281373, -0.1868515, 10.01623
265372069563745, -0.36370903, 4.6971107, 8.608179, -0.022369027, -0.1765461, 9.811433
265372079203954, -0.23569304, 5.2223353, 8.786445, 0.024891615, 0.21945477, 10.221602
265372088844058, -0.39601216, 4.2771707, 8.513663, 0.020131707, -0.49128127, 9.52322
265372098484266, -0.07537391, 5.5477595, 8.768498, 0.10977256, 0.5426588, 10.361629
265372108124475, -0.46061835, 4.1240296, 8.559127, -0.015823841, -0.6502261, 9.489751
265372117764579, -0.111266255, 5.54417, 8.665607, 0.06527901, 0.5902605, 10.270845
265372127404787, -0.45702913, 4.316652, 8.609376, -0.04774201, -0.50694156, 9.628315
265372137044995, -0.13519448, 5.2929235, 8.610572, 0.07878673, 0.3875289, 10.10044
265372146685100, -0.39720857, 4.7676992, 8.7015, -0.06358993, -0.16185331, 9.928474
265372156325308, -0.26679972, 4.8083773, 8.520842, 0.03148973, -0.011603832, 9.787505
265372165965412, -0.20697916, 5.2103715, 8.69791, 0.03734827, 0.26281118, 10.137751
265372175605620, -0.36610186, 4.3501515, 8.49811, 0.018203735, -0.41501474, 9.544798
265372185245829, -0.11365908, 5.564509, 8.805588, 0.08054912, 0.5359726, 10.402948
265372194885933, -0.4426722, 4.1778684, 8.612965, -0.009670734, -0.62742996, 9.562425
265372204526141, -0.076570325, 5.6350975, 8.725428, 0.08484757, 0.64289856, 10.366909
265372214166245, -0.46181476, 4.316652, 8.57468, -0.05392933, -0.50901127, 9.59739
265372223806454, -0.12323037, 5.337191, 8.518449, 0.063075304, 0.47195292, 10.041816
265372233446662, -0.38524446, 4.7007003, 8.560323, -0.05531609, -0.15149689, 9.772314
265372243086766, -0.2727818, 4.863412, 8.445468, 0.0010772943, 0.06020546, 9.749332
265372252726975, -0.2883351, 5.174479, 8.695518, -0.042057514, 0.20909119, 10.120519
265372262367079, -0.41754755, 4.362116, 8.525627, -0.027014375, -0.4307394, 9.57614
265372272007287, -0.17706887, 5.5310097, 8.877372, 0.023462057, 0.46119738, 10.450738
265372281647495, -0.51206404, 4.1922255, 8.703893, -0.054019332, -0.6741264, 9.650769
265372291287600, -0.1363909, 5.619544, 8.772088, 0.032491207, 0.5978575, 10.40139
265372300927808, -0.5419743, 4.254439, 8.565108, -0.11027539, -0.5744834, 9.561008
265372310568016, -0.17826529, 5.3982077, 8.5112705, 0.0052865744, 0.5180125, 10.067064
265372320208120, -0.44506502, 4.6875396, 8.563912, -0.107818365, -0.18373561, 9.770688
265372329848329, -0.25603202, 4.9363933, 8.437093, 0.009237647, 0.13792682, 9.777472
265372339488433, -0.29312077, 5.119444, 8.657232, -0.032458544, 0.17985773, 10.060264
265372349128641, -0.33379877, 4.4446683, 8.489735, 0.036396265, -0.32316756, 9.583128
265372358768850, -0.1052842, 5.491528, 8.830712, 0.10257864, 0.4655547, 10.388561
265372368408954, -0.40438703, 4.1204405, 8.645268, 0.053040147, -0.681545, 9.561113
265372378049162, -0.03589234, 5.5836515, 8.825927, 0.15520799, 0.5545783, 10.428028
265372387689266, -0.42592242, 4.21735, 8.676374, 0.018281579, -0.62353086, 9.636276
265372397329475, -0.12801601, 5.4017973, 8.669196, 0.070155025, 0.4652505, 10.204382
265372406969683, -0.47377887, 4.5738807, 8.675179, -0.10151076, -0.32382917, 9.812667
265372416609787, -0.30388847, 5.022535, 8.536395, -0.0476228, 0.15462303, 9.907678
265372426249995, -0.36490545, 5.0883374, 8.658429, -0.10425866, 0.13658953, 10.048046
265372435890100, -0.41874397, 4.487739, 8.403593, -0.069930434, -0.26340914, 9.532118
265372445530308, -0.2117648, 5.4676, 8.702696, -0.027727485, 0.4744873, 10.268909
265372455170516, -0.50009996, 4.1611185, 8.568698, -0.054467797, -0.64137936, 9.516998
265372464810620, -0.09810573, 5.5908303, 8.82832, 0.0876205, 0.5453925, 10.435569
265372474450829, -0.4426722, 4.2017965, 8.627322, -0.009968519, -0.61862946, 9.586394
265372484091037, -0.0741775, 5.447261, 8.662018, 0.11616051, 0.50900936, 10.2194
265372493731141, -0.39601216, 4.551149, 8.653643, -0.028159976, -0.31438732, 9.780373
265372503371350, -0.21296121, 5.069195, 8.534002, 0.036467195, 0.215096, 9.92591
265372513011454, -0.33140594, 5.0309095, 8.645268, -0.052451253, 0.10872078, 10.007297
265372522651662, -0.36131623, 4.5738807, 8.432307, -0.028942227, -0.19076896, 9.597786
265372532291870, -0.18664017, 5.465207, 8.703893, 0.008206248, 0.48272133, 10.267813
265372541931975, -0.45583272, 4.2257247, 8.547162, -0.032987714, -0.5653987, 9.528785
265372551572183, -0.086141616, 5.6099725, 8.806784, 0.082684994, 0.5758395, 10.42594
265372561212287, -0.4546363, 4.191029, 8.608179, -0.011422396, -0.61330247, 9.56535
265372570852495, -0.096909314, 5.456832, 8.678768, 0.07621741, 0.51705503, 10.238861
265372580492704, -0.45702913, 4.4410787, 8.683554, -0.047780037, -0.43747115, 9.754101
265372590132808, -0.22851457, 5.0368915, 8.652447, 0.0359962, 0.13105536, 10.013433
265372599773016, -0.38883367, 4.9064827, 8.762517, -0.07103586, -0.06908655, 10.049707
265372609413120, -0.35174492, 4.5535417, 8.535198, 9.2947483E-4, -0.25033188, 9.677055
265372619053329, -0.19860429, 5.352744, 8.740981, 0.020091891, 0.36842012, 10.244994
265372628693537, -0.4438686, 4.2077785, 8.516056, -0.022010326, -0.552341, 9.493159
265372638333641, -0.10289137, 5.601598, 8.754142, 0.055369496, 0.60452557, 10.375692
265372647973850, -0.485743, 4.202993, 8.535198, -0.05698991, -0.57303905, 9.508895
265372657613954, -0.11844472, 5.5716877, 8.6141615, 0.032439232, 0.6392555, 10.239717
265372667254162, -0.49172506, 4.499703, 8.617751, -0.1029768, -0.3747394, 9.726446
265372676894370, -0.23688944, 5.2307105, 8.583055, -0.011101246, 0.32409525, 10.048886
265372686534475, -0.3804588, 4.942375, 8.719446, -0.06923747, -0.019218445, 10.029726
265372696174683, -0.30388847, 4.6803613, 8.483752, 0.024091005, -0.109200716, 9.693279
265372705814787, -0.19501504, 5.3623157, 8.707481, 0.019331813, 0.38968992, 10.22059
265372715454995, -0.41156548, 4.2484565, 8.488539, 0.0030833483, -0.5010052, 9.488048
265372725095204, -0.05383851, 5.56092, 8.780462, 0.12795448, 0.56650686, 10.377185
265372734735308, -0.47018966, 4.1036906, 8.626125, -0.027805448, -0.69701195, 9.538596
265372744375516, -0.11485548, 5.495117, 8.729017, 0.074159145, 0.5117092, 10.302326
265372754015725, -0.47018966, 4.3788652, 8.664411, -0.07297778, -0.48592663, 9.707016
265372763655829, -0.25722843, 5.1457653, 8.635697, -0.005282879, 0.22810078, 10.053274
265372773296037, -0.40677986, 4.8155556, 8.7577305, -0.0736748, -0.13619852, 10.001446
265372782936141, -0.2739782, 4.743771, 8.536395, 0.04104805, -0.065460205, 9.769466
265372792576350, -0.21296121, 5.3036914, 8.770891, 0.027132869, 0.31383038, 10.247135
265372802216558, -0.4223332, 4.269992, 8.495717, -0.02044475, -0.48189545, 9.505565
265372811856662, -0.096909314, 5.5908303, 8.72782, 0.078125834, 0.60204506, 10.347611
265372821496870, -0.46779683, 4.159922, 8.512466, -0.047180295, -0.599864, 9.466985
265372831137079, -0.111266255, 5.554938, 8.627322, 0.059287906, 0.61366653, 10.243062
265372840777183, -0.5168497, 4.365705, 8.609376, -0.11933577, -0.47152996, 9.654599
265372850417391, -0.22971097, 5.278567, 8.648857, -6.082058E-4, 0.35120916, 10.128939
265372860057495, -0.43429732, 4.7892346, 8.7780695, -0.09141016, -0.1804769, 10.006947
265372869697704, -0.29910284, 4.7676992, 8.592627, 0.01624608, -0.07844615, 9.830932
265372879337912, -0.20578274, 5.218746, 8.739784, 0.04413414, 0.25958776, 10.178023
265372888978016, -0.34576288, 4.287938, 8.508878, 0.053346515, -0.4547279, 9.523516
265372898618225, -0.09930214, 5.4987063, 8.788837, 0.098778725, 0.50216436, 10.355064
265372908258329, -0.47138608, 4.1467614, 8.599805, -0.032192588, -0.64504266, 9.537157
265372917898537, -0.1052842, 5.5776696, 8.732606, 0.06894517, 0.58598995, 10.345615
265372927538745, -0.46899325, 4.3357944, 8.650054, -0.056701303, -0.5045345, 9.673921
265372937178850, -0.14356937, 5.3443694, 8.657232, 0.06267607, 0.41637516, 10.166283
265372946819058, -0.42711884, 4.718646, 8.730213, -0.08253026, -0.20779538, 9.930491
265372956459266, -0.3062813, 4.853841, 8.514859, -0.020079851, 0.02972269, 9.805872
265372966099370, -0.2620141, 5.2079782, 8.65125, -0.025072932, 0.27674818, 10.097455
265372975739579, -0.38285163, 4.3848476, 8.394022, -0.018252611, -0.33181548, 9.472202
265372985379683, -0.15314065, 5.535795, 8.723035, 0.03160274, 0.53960466, 10.318316
265372995019891, -0.48095736, 4.1371903, 8.563912, -0.035961986, -0.6438427, 9.50118
265373004660100, -0.08255238, 5.602794, 8.785249, 0.09108353, 0.59656715, 10.402622
265373014300204, -0.45224348, 4.290331, 8.690732, -0.025503397, -0.5715833, 9.685708
265373023940412, -0.14476576, 5.3623157, 8.717052, 0.075226665, 0.39817667, 10.227325
265373033580620, -0.4103691, 4.6600223, 8.776874, -0.047661543, -0.2785859, 9.941723
265373043220725, -0.25004998, 4.853841, 8.57468, 0.047881484, 0.0082530975, 9.85622
265373052860933, -0.2440679, 5.069195, 8.687142, 0.033041835, 0.14055824, 10.0599165
265373062501141, -0.31585258, 4.3669014, 8.452646, 0.047978997, -0.36263466, 9.512257
265373072141245, -0.1160519, 5.4999027, 8.784052, 0.09053874, 0.49435282, 10.352263
265373081781454, -0.49651068, 4.2006, 8.611769, -0.09201193, -0.6125252, 9.574469
265373091421558, -0.16510476, 5.649454, 8.751749, 0.012084842, 0.6181364, 10.399734
265373101061766, -0.5922236, 4.2664027, 8.578269, -0.19114482, -0.5593567, 9.58072
265373110701975, -0.19621146, 5.45085, 8.57468, -0.0029132366, 0.5325651, 10.148487
265373120342079, -0.38883367, 4.651647, 8.590233, -0.04638195, -0.20774627, 9.774241
265373129982287, -0.19860429, 4.9531426, 8.488539, 0.07037115, 0.14485359, 9.828653
265373139622495, -0.2644069, 5.0799623, 8.677571, 0.011707187, 0.14718771, 10.057553
265373149262600, -0.33020952, 4.469793, 8.510074, 0.028443933, -0.30913782, 9.613173
265373158902808, -0.16390835, 5.5226345, 8.79123, 0.05076027, 0.49628496, 10.371267
265373168543016, -0.51565325, 4.211368, 8.62134, -0.10671699, -0.62146544, 9.588088
265373178183120, -0.17467605, 5.6614184, 8.809176, 0.026037574, 0.59613705, 10.455989
265373187823329, -0.5180461, 4.269992, 8.5938225, -0.1261242, -0.54631567, 9.5937805
265373197463433, -0.13519448, 5.4221363, 8.629715, 0.08585572, 0.48628855, 10.180667
265373207103641, -0.42592242, 4.5188456, 8.653643, -0.06841761, -0.34243774, 9.7655
265373216743850, -0.20817557, 4.996214, 8.565108, 0.064148545, 0.14222288, 9.916765
265373226383954, -0.28115666, 4.9986067, 8.718249, 0.008049965, 0.06511545, 10.053293
265373236024162, -0.2847459, 4.487739, 8.457432, 0.055366516, -0.25019026, 9.575144
265373245664370, -0.12921242, 5.45085, 8.751749, 0.08433998, 0.46540594, 10.300383
265373255304475, -0.4438686, 4.2257247, 8.571091, -0.039760828, -0.5631559, 9.549797
265373264944683, -0.11006984, 5.649454, 8.816355, 0.081026554, 0.60581064, 10.45385
265373274584891, -0.51206404, 4.206582, 8.606983, -0.092157125, -0.60126996, 9.574325
265373284224995, -0.13280165, 5.4664035, 8.676374, 0.066328764, 0.527071, 10.2418995
265373293865204, -0.46899325, 4.496114, 8.702696, -0.08879149, -0.38693094, 9.79869
265373303505412, -0.23808585, 5.042874, 8.60459, 0.020654917, 0.1782341, 9.974669
265373313145516, -0.34337005, 4.9088755, 8.751749, -0.040579915, -0.030882359, 10.040194
265373322785725, -0.36729828, 4.5152564, 8.495717, -0.023641944, -0.24950933, 9.624804
265373332425933, -0.22372891, 5.3718867, 8.758927, -0.008603334, 0.38853025, 10.270103
265373342066037, -0.52283174, 4.1898327, 8.56152, -0.09609091, -0.5962577, 9.5269575
265373351706245, -0.17587246, 5.595616, 8.827123, 0.011630535, 0.5658512, 10.437415
265373361346454, -0.51206404, 4.1778684, 8.6345005, -0.063177824, -0.63876843, 9.58433
265373370986558, -0.096909314, 5.49751, 8.706285, 0.08719444, 0.5594673, 10.281577
265373380626766, -0.43908295, 4.453043, 8.736196, -0.042475224, -0.42357254, 9.806238
265373390266975, -0.14596218, 5.113462, 8.669196, 0.108116746, 0.22802496, 10.062807
265373399907079, -0.27038896, 4.880162, 8.755338, 0.03809464, -0.037768364, 10.027071
265373409547287, -0.2548356, 4.597809, 8.476574, 0.06667614, -0.14318633, 9.645317
265373419187495, -0.16271193, 5.3503513, 8.721839, 0.061136723, 0.40111637, 10.22539
265373428827600, -0.4354937, 4.2341, 8.4909315, -0.044597626, -0.50033593, 9.484769
265373438467808, -0.14356937, 5.5944195, 8.785249, 0.053509235, 0.58428335, 10.399734
265373448108016, -0.50129634, 4.159922, 8.608179, -0.07831836, -0.64222217, 9.551881
265373457748120, -0.14955142, 5.5166526, 8.721839, 0.049744368, 0.53713846, 10.307051
265373467388329, -0.47976094, 4.412365, 8.689535, -0.0888263, -0.4589932, 9.74621
265373477028537, -0.19142582, 5.2127643, 8.620144, 0.045985222, 0.3266139, 10.070138
265373486668745, -0.38644084, 4.875376, 8.756535, -0.06910801, -0.06813049, 10.029263
265373496308850, -0.317049, 4.709075, 8.474181, -0.010199785, -0.06771088, 9.699636
265373505949058, -0.24526432, 5.3359947, 8.69791, -0.02189076, 0.37773895, 10.2001705
265373515589266, -0.43788654, 4.2711883, 8.495717, -0.039604068, -0.48366213, 9.506657
265373525229370, -0.11485548, 5.582455, 8.7673025, 0.06717825, 0.57775974, 10.378067
265373534869579, -0.48215377, 4.145565, 8.553144, -0.053067207, -0.61979294, 9.496709
265373544509787, -0.083748795, 5.5250273, 8.659625, 0.09739983, 0.5971637, 10.254558
265373554149891, -0.46301118, 4.336991, 8.635697, -0.06383157, -0.4971671, 9.661671
265373563790100, -0.148355, 5.2103715, 8.685946, 0.09051204, 0.29391003, 10.125269
265373573430308, -0.34097722, 4.7916274, 8.829515, -6.303787E-4, -0.1647911, 10.050331
265373583070412, -0.25603202, 4.7198424, 8.635697, 0.06902182, -0.117049694, 9.843743
265373592710620, -0.21415763, 5.255835, 8.796016, 0.033348083, 0.2732277, 10.245185
265373602350829, -0.4031906, 4.2687955, 8.536395, -0.01085639, -0.48643804, 9.5403595
265373611991037, -0.16151553, 5.5369916, 8.772088, 0.0289644, 0.5314312, 10.361015
265373621631141, -0.5587241, 4.1228333, 8.556734, -0.12609541, -0.6549072, 9.491198
265373631271350, -0.16510476, 5.575277, 8.628518, -0.0025808811, 0.6391659, 10.254452
265373640911558, -0.5491528, 4.342973, 8.539984, -0.15731835, -0.46644306, 9.583944
265373650551662, -0.16510476, 5.3623157, 8.560323, 0.036895752, 0.47916412, 10.091078
265373660191870, -0.3469593, 4.8323054, 8.693125, -0.02840507, -0.066823006, 9.951719
265373669832079, -0.23688944, 4.8394837, 8.59143, 0.06191516, 0.0073747635, 9.86334
265373679472287, -0.18664017, 5.2426744, 8.823533, 0.06987929, 0.25307846, 10.261885
265373689112391, -0.26679972, 4.362116, 8.573483, 0.10569525, -0.40268278, 9.614079
265373698752600, -0.041874398, 5.501099, 8.805588, 0.16279662, 0.51409864, 10.368772
265373708392808, -0.42711884, 4.0833516, 8.553144, -0.010636926, -0.66703796, 9.464006
265373718032912, -0.05742774, 5.5334024, 8.656036, 0.118169904, 0.6009426, 10.255423
265373727673120, -0.50009996, 4.2281175, 8.565108, -0.0969702, -0.5541942, 9.548384
265373737313329, -0.22731815, 5.298906, 8.682357, -0.001819253, 0.35597563, 10.167924
265373746953537, -0.52283174, 4.7078786, 8.817552, -0.17687607, -0.26693892, 10.004208
265373756593641, -0.36490545, 4.8849473, 8.677571, -0.06851494, -0.009523392, 9.964503
265373766233850, -0.3397808, 5.204389, 8.79482, -0.08493507, 0.21163559, 10.2224245
265373775874058, -0.4127619, 4.415954, 8.465807, -0.06375086, -0.32120395, 9.551632
265373785514162, -0.09332009, 5.5250273, 8.7015, 0.08778083, 0.5829954, 10.290926
265373795154370, -0.3924229, 4.133601, 8.492127, 0.009024739, -0.58021975, 9.43505
265373804794579, -0.0011964113, 5.5537415, 8.7015, 0.17459595, 0.6287656, 10.302152
265373814434787, -0.4223332, 4.1874394, 8.616554, -0.017131805, -0.5958667, 9.570929
265373824074891, -0.13878371, 5.298906, 8.738588, 0.08492148, 0.35642576, 10.214026
265373833715100, -0.44865423, 4.5942197, 8.877372, -0.07844889, -0.36938858, 9.998665
265373843355308, -0.29671, 4.922036, 8.723035, -0.0070405006, 0.01641655, 10.020254
265373852995516, -0.32183465, 5.1122656, 8.810373, -0.050686717, 0.13688707, 10.190203
265373862635620, -0.40677986, 4.4207397, 8.4813595, -0.057270765, -0.31692457, 9.567558
265373872275829, -0.15314065, 5.485546, 8.71466, 0.05038607, 0.5328808, 10.284622
265373881916037, -0.42711884, 4.1814575, 8.486146, -0.048240125, -0.5256765, 9.455318
265373891556245, -0.051445685, 5.582455, 8.737391, 0.14025539, 0.6204891, 10.349095
265373901196350, -0.44147578, 4.193422, 8.624929, -0.04619515, -0.58216214, 9.582695
265373910836558, -0.09212367, 5.42094, 8.719446, 0.11352056, 0.485878, 10.255479
265373920476766, -0.4354937, 4.5678983, 8.782856, -0.08294773, -0.3314247, 9.903391
265373930116975, -0.2548356, 4.9674997, 8.629715, 0.011871457, 0.11135197, 9.959942
265373939757183, -0.33020952, 5.026124, 8.760123, -0.052351475, 0.091022015, 10.10444
265373949397287, -0.40079778, 4.4745784, 8.506484, -0.06670821, -0.27925205, 9.615631
265373959037495, -0.20697916, 5.4412785, 8.784052, 4.6634674E-4, 0.45731926, 10.324765
265373968677704, -0.45583272, 4.1790648, 8.562716, -0.054352522, -0.5785098, 9.521284
265373978317912, -0.1052842, 5.602794, 8.786445, 0.06805873, 0.60771894, 10.403368
265373987958016, -0.48215377, 4.193422, 8.606983, -0.06785917, -0.5949235, 9.567595
265373997598225, -0.09930214, 5.413761, 8.652447, 0.08135128, 0.51140785, 10.193888
265374007238433, -0.41515473, 4.4817567, 8.695518, -0.040652514, -0.37529612, 9.784071
265374016878641, -0.16749759, 5.035695, 8.617751, 0.085470915, 0.19720459, 9.980266
265374026518745, -0.28713873, 5.0249276, 8.751749, -0.008876562, 0.09621811, 10.09535
265374036158954, -0.3278167, 4.5415773, 8.496913, 0.00971055, -0.21038747, 9.637769
265374045799162, -0.20338993, 5.426922, 8.773284, -0.0033310652, 0.44188166, 10.308642
265374055439370, -0.46061835, 4.358526, 8.562716, -0.080335975, -0.4312501, 9.609192
265374065079579, -0.28115666, 5.06082, 8.730213, -0.011894822, 0.12912703, 10.094095
265374074719683, -0.33020952, 4.813163, 8.662018, -0.026104927, -0.053878784, 9.914764
265374084359891, -0.30867413, 4.8598228, 8.665607, -0.012867808, -0.009741783, 9.940104
265374094000100, -0.29072794, 4.846662, 8.709874, 0.014059901, -0.037994385, 9.971706
265374103640308, -0.2727818, 4.8598228, 8.687142, 0.026666522, -0.012561321, 9.957805
265374113280412, -0.27038896, 4.8681974, 8.666803, 0.025280118, 0.0035529137, 9.944109
265374122920620, -0.25722843, 4.8562336, 8.640483, 0.037004232, 0.008545399, 9.914923
265374132560829, -0.25842485, 4.8562336, 8.658429, 0.038457036, -1.5830994E-4, 9.930595
265374142201037, -0.24646074, 4.8191447, 8.683554, 0.06003368, -0.03973341, 9.933973
265374151841245, -0.2656033, 4.855037, 8.715857, 0.03900826, -0.029101849, 9.980267
265374161481350, -0.29192436, 4.8861437, 8.695518, 0.0034645796, 0.002524376, 9.978558
265374171121558, -0.33140594, 4.900501, 8.688339, -0.038104296, 0.007622719, 9.980505
265374180761766, -0.34456646, 4.9268217, 8.657232, -0.06054175, 0.04149294, 9.966672
265374190401975, -0.33499518, 4.9363933, 8.632108, -0.056943893, 0.06193161, 9.949192
265374200042183, -0.31106696, 4.8933225, 8.624929, -0.02602768, 0.033576965, 9.921137
265374209682287, -0.29910284, 4.8789654, 8.612965, -0.013605237, 0.029473305, 9.903326
265374219322495, -0.27996024, 4.8490553, 8.62134, 0.011830568, 0.00549078, 9.895407
265374228962704, -0.2847459, 4.8215375, 8.653643, 0.018102169, -0.03369069, 9.910214
265374238602912, -0.27996024, 4.851448, 8.679964, 0.021974206, -0.018015385, 9.947659
265374248243120, -0.28953153, 4.8646083, 8.693125, 0.011874199, -0.015651703, 9.965855
265374257883329, -0.27876383, 4.8825545, 8.700303, 0.020746708, -7.867813E-4, 9.980577
265374267523433, -0.25722843, 4.9052863, 8.703893, 0.038340926, 0.022132874, 9.994188
265374277163641, -0.27038896, 4.8993044, 8.69791, 0.025407434, 0.01565218, 9.986444
265374286803850, -0.2644069, 4.894519, 8.664411, 0.02725017, 0.028790474, 9.954732
265374296444058, -0.28713873, 4.8861437, 8.644072, 0.0024262667, 0.023742199, 9.933592
265374306084266, -0.3397808, 4.8861437, 8.598608, -0.054999232, 0.032581806, 9.895546
265374315724370, -0.3505485, 4.8622155, 8.5938225, -0.062310815, 0.0128211975, 9.879968
265374325364579, -0.34097722, 4.843073, 8.633304, -0.04484749, -0.01817894, 9.904706
265374335004787, -0.30867413, 4.85743, 8.678768, -0.010236859, -0.017474174, 9.950401
265374344644995, -0.2739782, 4.843073, 8.739784, 0.034374833, -0.050789356, 9.9955225
265374354285204, -0.24765715, 4.847859, 8.758927, 0.06232214, -0.047500134, 10.013778
265374363925412, -0.2727818, 4.8562336, 8.76132, 0.03709507, -0.04705763, 10.020706
265374373565516, -0.2727818, 4.871787, 8.708678, 0.03204882, -0.011685848, 9.982417
265374383205725, -0.30987054, 4.875376, 8.646464, -0.013228655, 0.012315273, 9.931081
265374392845933, -0.33260235, 4.889733, 8.584251, -0.044377208, 0.045897484, 9.884605
265374402486141, -0.33738798, 4.8861437, 8.603394, -0.044392586, 0.030817032, 9.899681
265374412126350, -0.33140594, 4.8993044, 8.629715, -0.038628697, 0.03254032, 9.928869
265374421766558, -0.3182454, 4.8909297, 8.664411, -0.019312978, 0.012300491, 9.954596
265374431406662, -0.28953153, 4.8861437, 8.693125, 0.010429621, 0.0042009354, 9.976398
265374441046870, -0.29910284, 4.8825545, 8.711071, 0.0035505295, -0.008620262, 9.99057
265374450687079, -0.2847459, 4.861019, 8.696713, 0.019790053, -0.017365456, 9.967083
265374460327287, -0.29312077, 4.877769, 8.664411, 0.0044494867, 0.010386467, 9.947383
265374469967495, -0.30269206, 4.8622155, 8.632108, -0.006157398, 0.009032249, 9.911907
265374479607704, -0.3074777, 4.846662, 8.6548395, -0.005439639, -0.015537739, 9.924245
265374489247912, -0.28115666, 4.8622155, 8.669196, 0.019482374, -0.0033917427, 9.943577
265374498888120, -0.2835495, 4.8442693, 8.677571, 0.021072745, -0.021837234, 9.942167
265374508528225, -0.26679972, 4.867001, 8.706285, 0.03662455, -0.011600494, 9.977817
265374518168433, -0.26799613, 4.8729835, 8.673982, 0.030980706, 0.007777214, 9.952624
265374527808641, -0.29910284, 4.90409, 8.656036, -0.007278919, 0.035880566, 9.953149
265374537448850, -0.3361916, 4.8825545, 8.63809, -0.04073167, 0.015309811, 9.928095
265374547089058, -0.32662028, 4.8885365, 8.639286, -0.032198906, 0.022072792, 9.931777
265374556729266, -0.31465617, 4.883751, 8.65125, -0.018774033, 0.015618324, 9.939494
265374566369475, -0.32063824, 4.8765726, 8.673982, -0.020471096, -0.0023431778, 9.955968
265374576009579, -0.2847459, 4.892126, 8.668, 0.01061666, 0.02231741, 9.95729
265374585649787, -0.2739782, 4.8598228, 8.659625, 0.02560997, -2.861023E-4, 9.933851
265374595289995, -0.32542387, 4.867001, 8.650054, -0.02710092, 4.940033E-4, 9.930574
265374604930204, -0.32063824, 4.8622155, 8.658429, -0.018408895, -0.007956505, 9.935388
265374614570412, -0.31944183, 4.855037, 8.635697, -0.017872691, -0.0029044151, 9.912032
265374624210620, -0.30987054, 4.84068, 8.656036, -0.0035114288, -0.02289772, 9.92243
265374633850829, -0.30269206, 4.851448, 8.689535, 0.0067961216, -0.027165413, 9.956676
265374643491037, -0.29312077, 4.8681974, 8.715857, 0.017294168, -0.021885395, 9.987523
265374653131141, -0.28953153, 4.875376, 8.709874, 0.019544482, -0.011005878, 9.985717
265374662771350, -0.31106696, 4.8969116, 8.689535, -0.007397175, 0.012788773, 9.979195
265374672411558, -0.30029923, 4.9160542, 8.677571, -0.0024271011, 0.035830498, 9.977812
265374682051766, -0.29910284, 4.9136615, 8.636893, -0.0072637796, 0.05215597, 9.94116
265374691691975, -0.29790643, 4.889733, 8.616554, -0.0047581196, 0.041583538, 9.911686
265374701332183, -0.276371, 4.892126, 8.612965, 0.01416409, 0.049585342, 9.909077
265374710972391, -0.2548356, 4.8765726, 8.616554, 0.037129402, 0.039969444, 9.903936
265374720612600, -0.27038896, 4.8526444, 8.636893, 0.028797746, 0.0064044, 9.910416
265374730252808, -0.29072794, 4.8490553, 8.677571, 0.015084505, -0.020112991, 9.944722
265374739892912, -0.32183465, 4.8622155, 8.723035, -0.010882497, -0.036729813, 9.991727
265374749533120, -0.35413775, 4.8789654, 8.7577305, -0.040209413, -0.045408726, 10.031147
265374759173329, -0.37567315, 4.8825545, 8.752945, -0.060500264, -0.04467249, 10.0294
265374768813537, -0.3385844, 4.871787, 8.706285, -0.02880299, -0.023506641, 9.982333
265374778453745, -0.2955136, 4.900501, 8.639286, 3.9887428E-4, 0.04137516, 9.936689
265374788093954, -0.2943172, 4.894519, 8.58784, -0.0044481754, 0.05809021, 9.88891
265374797734162, -0.30269206, 4.883751, 8.553144, -0.0153797865, 0.06353855, 9.853663
265374807374370, -0.30867413, 4.8789654, 8.569894, -0.018832088, 0.049135685, 9.866098
265374817014579, -0.31585258, 4.8849473, 8.617751, -0.020614982, 0.030071259, 9.910943
265374826654787, -0.29192436, 4.898108, 8.682357, 0.009702325, 0.016455173, 9.972946
265374836294891, -0.25842485, 4.9256253, 8.721839, 0.042925596, 0.028247356, 10.0198
265374845935100, -0.25603202, 4.881358, 8.709874, 0.05141151, -0.0044231415, 9.987616
265374855575308, -0.2739782, 4.863412, 8.687142, 0.03410113, -0.01235342, 9.959567
265374865215516, -0.29312077, 4.8598228, 8.647661, 0.009579778, -0.001502037, 9.923998
265374874855725, -0.30867413, 4.8598228, 8.642876, -0.0062146187, -0.0027189255, 9.920304
265374884495933, -0.37567315, 4.8562336, 8.65125, -0.070504785, -0.023836613, 9.927877
265374894136141, -0.37806597, 4.8442693, 8.656036, -0.06903899, -0.0338912, 9.926275
265374903776350, -0.40079778, 4.847859, 8.666803, -0.090433836, -0.040833473, 9.93811
265374913416558, -0.357727, 4.880162, 8.636893, -0.05657494, 0.011402607, 9.926558
265374923056766, -0.32662028, 4.8849473, 8.63809, -0.025305152, 0.022717953, 9.928989
265374932696975, -0.28953153, 4.861019, 8.650054, 0.015443802, 0.007394314, 9.926555
265374942337183, -0.22372891, 4.833502, 8.685946, 0.089390874, -0.018259048, 9.942341
265374951977287, -0.16749759, 4.822734, 8.719446, 0.1483059, -0.0285573, 9.964575
265374961617495, -0.18065812, 4.85743, 8.732606, 0.12549865, -0.0039567947, 9.993493
265374971257704, -0.17826529, 4.889733, 8.7266245, 0.12044537, 0.026880264, 10.004
265374980897912, -0.21415763, 4.894519, 8.679964, 0.078665376, 0.044740677, 9.966732
265374990538120, -0.22971097, 4.8885365, 8.650054, 0.0595001, 0.04776001, 9.938219
265375000178329, -0.22851457, 4.928018, 8.63809, 0.049766064, 0.0878067, 9.94706
265375009818537, -0.27158538, 4.900501, 8.628518, 0.009160042, 0.059569836, 9.926548
265375019458745, -0.30388847, 4.851448, 8.646464, -0.011747599, 0.0023036003, 9.91918
265375029098954, -0.31585258, 4.82752, 8.645268, -0.021792173, -0.01924944, 9.906792
