timestamp_acc,device_acc_x,device_acc_y,device_acc_z,earth_acc_x,earth_acc_y,earth_acc_z
265412004072473, 6.005985, -0.13878371, 8.056634, -0.017781436, -0.0028338432, 10.049883
265412013712681, 6.0023956, -0.15553348, 8.086544, -0.0021044016, -0.024267673, 10.071967
265412023352890, 6.003592, -0.18903299, 8.065009, 0.032279283, -0.012383938, 10.055944
265412032993202, 6.0107703, -0.1794617, 8.020741, 0.025122166, 0.021841526, 10.024607
265412042633411, 6.04427, -0.16390835, 8.056634, 0.008423984, 0.029213905, 10.073158
265412052273723, 6.0454664, -0.16390835, 8.07458, 0.007722825, 0.019468784, 10.088258
265412061913931, 6.0251274, -0.11724831, 8.086544, -0.039842546, -0.0018367767, 10.084965
265412071554244, 6.0083776, -0.13758731, 8.051848, -0.018473893, 0.00393486, 10.04746
265412081194452, 6.0107703, -0.13040884, 8.04108, -0.02366227, 0.012757301, 10.04015
265412090834661, 6.0023956, -0.13399807, 8.05783, -0.021064818, -0.0042176247, 10.048625
265412100474973, 5.9988065, -0.1363909, 8.100901, -0.01976505, -0.03343153, 10.081039
265412110115181, 6.020342, -0.148355, 8.118847, -0.0078011304, -0.026290894, 10.108485
265412119755494, 6.009574, -0.15672988, 8.088937, 0.0012101382, -0.017276764, 10.0782
265412129395702, 6.0119667, -0.1591227, 8.050652, 0.005248189, 0.009405136, 10.048979
265412139035911, 6.0167527, -0.1471586, 8.050652, -0.0067837387, 0.013545513, 10.051653
265412148676223, 6.01436, -0.16390835, 8.053044, 0.010250181, 0.008320332, 10.052399
265412158316431, 6.02752, -0.15553348, 8.067402, 0.0013358146, 0.010133743, 10.071646
265412167956744, 6.0430737, -0.15433706, 8.087741, -2.4664402E-4, 0.010476112, 10.097226
265412177596952, 6.0155563, -0.15792629, 8.1020975, 0.003678739, -0.018437862, 10.092348
265412187237265, 6.0227346, -0.16510476, 8.062616, 0.013315409, 0.012434959, 10.065091
265412196877473, 6.0119667, -0.16151553, 7.9908314, 0.012808591, 0.04648161, 10.001045
265412206517681, 6.01436, -0.15672988, 7.987242, 0.008784384, 0.051146984, 9.999521
265412216157994, 6.0454664, -0.10887343, 8.035098, -0.03989142, 0.048798084, 10.055761
265412225798202, 6.0490556, -0.11844472, 8.05783, -0.03220454, 0.035021305, 10.0762825
265412235438515, 6.0047884, -0.15074782, 8.056634, -0.0018397868, -0.0037517548, 10.049355
265412245078723, 5.985646, -0.18664017, 8.069795, 0.03244877, -0.030861378, 10.049
265412254719036, 5.9916277, -0.20697916, 8.10808, 0.050711572, -0.0513072, 10.083562
265412264359244, 5.989235, -0.19142582, 8.114061, 0.03273678, -0.05434084, 10.0867
265412273999556, 5.994021, -0.15553348, 8.130812, -0.002821982, -0.05829811, 10.102435
265412283639765, 5.9952173, -0.13878371, 8.080562, -0.018215925, -0.024808407, 10.062625
265412293279973, 6.0418773, -0.16390835, 8.024331, 0.010801017, 0.047219753, 10.045828
265412302920286, 6.02752, -0.15792629, 8.013563, 0.0058407784, 0.043817997, 10.028519
265412312560494, 6.04427, -0.124426775, 8.032705, -0.027323931, 0.044602394, 10.053373
265412322200806, 6.04427, -0.10049855, 8.069795, -0.052438766, 0.020946503, 10.082743
265412331841015, 6.0658054, -0.1052842, 8.051848, -0.046280205, 0.048642635, 10.081311
265412341481327, 6.050252, -0.15194423, 8.02792, 0.0021223426, 0.045248985, 10.05356
265412351121536, 5.9904313, -0.18185452, 8.014759, 0.030581862, 0.0034689903, 10.007685
265412360761744, 6.0011992, -0.18305093, 7.9968133, 0.032862574, 0.021494865, 9.999769
265412370402056, 6.01436, -0.15074782, 8.029117, -0.0024107993, 0.014348507, 10.033033
265412380042265, 6.020342, -0.14955142, 8.062616, -0.005619079, -4.2200089E-4, 10.063431
265412389682577, 6.033502, -0.14596218, 8.065009, -0.008911788, 0.009736538, 10.073166
265412399322786, 6.04427, -0.1591227, 8.090134, 0.0034869015, 0.0032629967, 10.099938
265412408963098, 6.0023956, -0.16031912, 8.118847, 0.0017015636, -0.04743576, 10.097914
265412418603306, 6.0047884, -0.1591227, 8.082955, 0.003098756, -0.02368164, 10.070571
265412428243515, 6.01436, -0.17108682, 8.036295, 0.017707229, 0.0097875595, 10.039095
265412437883827, 6.04427, -0.13758731, 8.037491, -0.014910042, 0.03482294, 10.057433
265412447524036, 6.0514483, -0.15314065, 8.026724, 5.570948E-4, 0.04319811, 10.053352
265412457164348, 6.040681, -0.13878371, 7.9944205, -0.013234645, 0.054029465, 10.020815
265412466804556, 6.0191455, -0.14356937, 7.989635, -0.008869201, 0.03927183, 10.004169
265412476444869, 6.0191455, -0.1698904, 8.042277, 0.015411824, 0.0066785812, 10.046738
265412486085077, 6.003592, -0.15672988, 8.111669, -0.001388371, -0.046158314, 10.092807
265412495725286, 6.033502, -0.1471586, 8.136793, -0.011095047, -0.03674841, 10.130684
265412505365598, 6.0323057, -0.15314065, 8.082955, -0.0029583871, -0.004257679, 10.086937
265412515005806, 6.0251274, -0.17587246, 8.001599, 0.023013324, 0.037034035, 10.017824
265412524646119, 5.9952173, -0.17587246, 8.002795, 0.022441119, 0.012263298, 10.000883
265412534286327, 6.0047884, -0.18424734, 8.053044, 0.028199911, -0.015803337, 10.046984
265412543926640, 6.0107703, -0.16031912, 8.0614195, 0.0032559335, -0.014377117, 10.056906
265412553566848, 6.0119667, -0.16390835, 8.038688, 0.0076924562, 1.0967255E-5, 10.0394745
265412563207056, 6.033502, -0.18544376, 8.033902, 0.029857904, 0.023198128, 10.048865
265412572847369, 6.0323057, -0.1902294, 8.072187, 0.033290252, -5.8603287E-4, 10.078889
265412582487577, 6.0023956, -0.1794617, 8.070991, 0.022044137, -0.02283001, 10.059863
265412592127890, 6.020342, -0.12323037, 8.033902, -0.03273031, 0.016418457, 10.040018
265412601768098, 6.0311093, -0.08973085, 8.002795, -0.06488247, 0.045915127, 10.021015
265412611408411, 6.0430737, -0.06460621, 8.035098, -0.09036517, 0.037225246, 10.053665
265412621048619, 6.038288, -0.08973085, 8.067402, -0.065730006, 0.012170315, 10.077078
265412630688827, 6.0717874, -0.09810573, 8.084151, -0.05537039, 0.027472973, 10.110683
265412640329140, 6.0251274, -0.15672988, 8.062616, 0.0031158626, -0.0011777878, 10.066404
265412649969348, 5.9760747, -0.21415763, 8.072187, 0.058480173, -0.050099373, 10.045578
265412659609661, 5.948557, -0.25962126, 8.082955, 0.1019294, -0.080976486, 10.0384245
265412669249869, 5.983253, -0.20937198, 8.045866, 0.054436773, -0.02849245, 10.028727
265412678890181, 6.029913, -0.16510476, 8.013563, 0.012199134, 0.031995296, 10.030111
265412688530390, 6.064609, -0.106480606, 8.000402, -0.04505214, 0.07224703, 10.039423
265412698170598, 6.0933228, -0.12083755, 8.02792, -0.032030553, 0.078722, 10.078861
265412707810911, 6.0693946, -0.1268196, 8.031509, -0.02599886, 0.055735588, 10.067523
265412717451119, 6.023931, -0.13280165, 8.035098, -0.020957187, 0.016924381, 10.043281
265412727091431, 6.0287166, -0.12323037, 8.065009, -0.03174731, 0.0020809174, 10.069953
265412736731640, 6.017949, -0.15792629, 8.066205, 0.0026363432, -0.008615017, 10.065001
265412746371848, 5.9724855, -0.20817557, 8.060223, 0.052737176, -0.043880463, 10.033762
265412756012161, 5.979664, -0.22013968, 8.053044, 0.06412925, -0.034593582, 10.032501
265412765652369, 6.007181, -0.18903299, 8.02792, 0.034006044, 0.0031428337, 10.028375
265412775292681, 6.0167527, -0.15433706, 8.062616, -0.0033853054, -0.009449005, 10.061352
265412784932890, 6.020342, -0.11844472, 8.059027, -0.038827628, -0.0032629967, 10.060066
265412794573098, 6.0346985, -0.078963146, 8.047063, -0.07761648, 0.016850471, 10.058466
265412804213411, 6.0227346, -0.08135597, 8.080562, -0.07538444, -0.013205528, 10.078173
265412813853619, 6.029913, -0.11006984, 8.054241, -0.04384309, 0.0068745613, 10.061848
265412823493931, 6.023931, -0.14476576, 7.987242, -0.005182743, 0.042550564, 10.005144
265412833134140, 6.0311093, -0.15792629, 7.9860454, 0.008443832, 0.048706055, 10.008682
265412842774348, 6.0323057, -0.17467605, 8.02792, 0.023605227, 0.02385664, 10.043187
265412852414661, 6.0490556, -0.18783657, 8.080562, 0.032750428, 0.0013446808, 10.095581
265412862054869, 6.026324, -0.18783657, 8.076973, 0.032362342, -0.014190197, 10.079092
265412871695181, 5.986842, -0.18305093, 8.055437, 0.026655078, -0.03314066, 10.038129
265412881335390, 6.0155563, -0.16271193, 8.039884, 0.00707978, 2.4366379E-4, 10.0425625
265412890975598, 6.0358953, -0.13040884, 8.037491, -0.024640322, 0.019234657, 10.05233
265412900615911, 6.026324, -0.1160519, 8.017152, -0.037278965, 0.024343014, 10.030095
265412910256119, 6.023931, -0.101694964, 8.018349, -0.051798254, 0.021920681, 10.0294
265412919896431, 6.0418773, -0.106480606, 8.054241, -0.046799913, 0.014608383, 10.068962
265412929536640, 6.038288, -0.124426775, 8.05783, -0.027451739, 0.0104904175, 10.069963
265412939176848, 6.0251274, -0.15792629, 8.047063, 0.0064655244, 0.00603199, 10.0539665
265412948817161, 6.026324, -0.18305093, 8.0614195, 0.031097949, -0.0026164055, 10.066559
265412958457369, 6.02752, -0.18903299, 8.056634, 0.036963552, 5.507469E-4, 10.063536
265412968097681, 6.0107703, -0.17108682, 8.033902, 0.018430233, -0.0011749268, 10.035032
265412977737890, 6.0155563, -0.18185452, 7.9980097, 0.030464292, 0.022778511, 10.009331
265412987378098, 6.013163, -0.19381863, 8.024331, 0.041455835, 0.0044441223, 10.029149
265412997018411, 6.003592, -0.15792629, 8.007581, 0.004985094, 0.0083088875, 10.009464
265413006658619, 6.0023956, -0.15074782, 8.009974, -0.0024973154, 0.006691456, 10.01055
265413016298931, 6.0227346, -0.14356937, 8.065009, -0.011438191, -0.009534836, 10.066683
265413025939140, 6.0550375, -0.13878371, 8.0817585, -0.01614812, 0.0073075294, 10.099369
265413035579348, 6.058627, -0.07298109, 8.098508, -0.08287355, 0.0056967735, 10.113913
265413045219661, 5.983253, -0.44147578, 8.001599, 0.28641543, -0.022311687, 9.996863
265413054859869, 6.0574307, 0.32063824, 8.175078, -0.47799778, -0.0041394234, 10.168515
265413064500077, 5.936593, -0.8207382, 7.864012, 0.6667704, -0.025809765, 9.864796
265413074140390, 6.108876, 0.50009996, 8.230113, -0.6645746, 0.026506424, 10.24016
265413083780598, 5.9246287, -0.7692925, 7.756335, 0.6300231, 0.034374714, 9.77014
265413093420806, 6.0957155, 0.3589234, 8.146365, -0.5080389, 0.048924446, 10.168056
265413103061119, 5.989235, -0.48933223, 7.8149586, 0.34216464, 0.07365608, 9.851977
265413112701327, 6.06102, 0.010767702, 8.140383, -0.16647035, -0.009708881, 10.147615
265413122341640, 6.02752, 0.0035892338, 8.01117, -0.15833968, 0.036282063, 10.024145
265413131981848, 6.0119667, -0.5024927, 7.9836526, 0.35117948, -0.005926132, 10.000579
265413141622056, 6.101698, 0.36011982, 8.202596, -0.5235208, 0.008339405, 10.216107
265413151262369, 5.9246287, -0.79441714, 7.9429746, 0.63358104, -0.06747198, 9.920545
265413160902577, 6.064609, 0.53240305, 8.298309, -0.70522416, -0.063761234, 10.267594
265413170542786, 5.930611, -0.8147561, 7.8017983, 0.66014755, 0.024468422, 9.811608
265413180183098, 6.0897336, 0.3804588, 8.233703, -0.536239, -0.023937225, 10.23403
265413189823306, 5.9748783, -0.51565325, 7.8592257, 0.36909515, 0.054152966, 9.878935
265413199463515, 6.0981083, 0.02751746, 8.10808, -0.1855099, 0.035954, 10.143615
265413209103827, 6.0514483, -0.046660043, 7.8891363, -0.10493633, 0.121861935, 9.94157
265413218744036, 6.0215383, -0.4331009, 7.946564, 0.28318933, 0.038401604, 9.975606
265413228384244, 6.087341, 0.32422748, 8.176275, -0.48612556, -0.0052638054, 10.18705
265413238024556, 5.9641104, -0.78843504, 7.9190464, 0.64083624, -0.01290226, 9.92435
265413247664765, 6.0957155, 0.5383851, 8.273184, -0.6948868, -0.049245358, 10.266834
265413257304973, 5.9294147, -0.849452, 7.8113694, 0.7067135, 0.019213676, 9.818208
265413266945286, 6.113662, 0.37806597, 8.238488, -0.5436172, -0.012801647, 10.251672
265413276585494, 5.9700923, -0.6113662, 7.826923, 0.45891815, 0.052083492, 9.852063
265413286225702, 6.040681, 0.06699903, 8.128419, -0.22215703, -0.025893688, 10.124993
265413295866015, 6.0191455, -0.11246266, 7.9274216, -0.040988147, 0.06248331, 9.953953
265413305506223, 6.020342, -0.39840496, 7.9860454, 0.24420592, 0.0053186417, 10.006023
265413315146431, 6.1005015, 0.30388847, 8.1344, -0.46592373, 0.029037952, 10.161644
265413324786744, 5.946164, -0.74895346, 7.9094753, 0.58949924, -0.031152248, 9.906014
265413334426952, 6.1268225, 0.53599226, 8.26481, -0.695241, -0.0041069984, 10.278567
265413344067161, 5.973682, -0.8350951, 7.8436728, 0.6777754, 0.028310776, 9.871438
265413353707473, 6.135197, 0.4354937, 8.2660055, -0.59276175, -0.015888214, 10.2861805
265413363347681, 5.966503, -0.61854464, 7.830512, 0.47275412, 0.040210247, 9.852592
265413372987890, 6.0634127, 0.11724831, 8.123632, -0.27228945, -0.010379791, 10.133996
265413382628202, 5.9964137, -0.20338993, 7.9334035, 0.04703316, 0.030157566, 9.946564
265413392268411, 5.9964137, -0.37806597, 8.006385, 0.22167492, -0.025441647, 10.007612
265413401908619, 6.0861444, 0.29671, 8.038688, -0.44856426, 0.080109596, 10.076807
265413411548931, 5.985646, -0.6556334, 7.865208, 0.50148433, 0.03389311, 9.892758
265413421189140, 6.1208405, 0.55752766, 8.251649, -0.72544384, 0.008787155, 10.263473
265413430829348, 5.9712887, -0.84107715, 7.82453, 0.68655044, 0.028475285, 9.854685
265413440469661, 6.1399827, 0.45822555, 8.236095, -0.61276865, 0.022702694, 10.264825
265413450109869, 5.953343, -0.6855437, 7.816155, 0.53017783, 0.032629013, 9.834755
265413459750077, 6.0957155, 0.14237295, 8.2145605, -0.30990487, -0.0321064, 10.225455
265413469390390, 6.0598235, -0.24765715, 7.928618, 0.09930387, 0.081204414, 9.98145
265413479030598, 6.1064835, -0.30029923, 7.96451, 0.15214902, 0.09282255, 10.038973
265413488670806, 6.096912, 0.21415763, 7.98126, -0.3650204, 0.112895966, 10.038563
265413498311015, 5.983253, -0.72263247, 7.8520474, 0.57966805, 0.026006699, 9.881269
265413507951327, 6.053841, 0.47377887, 8.246863, -0.6318518, -0.06370735, 10.221592
265413517591536, 5.8875403, -0.863809, 7.8257265, 0.7188579, -0.038793564, 9.804747
265413527231744, 6.058627, 0.48095736, 8.274381, -0.63905823, -0.056661606, 10.246563
265413536872056, 5.8863435, -0.6831509, 7.9106717, 0.52095556, -0.07550049, 9.870024
265413546512265, 6.0215383, 0.24047868, 8.373683, -0.42024544, -0.15645933, 10.307
265413556152473, 5.9246287, -0.2847459, 8.036295, 0.12688264, -0.07325554, 9.987136
265413565792786, 5.956932, -0.24526432, 8.103293, 0.08488193, -0.08525419, 10.059528
265413575432994, 6.0107703, 0.111266255, 8.047063, -0.26825172, 0.01642418, 10.041152
265413585073202, 5.9641104, -0.72741807, 7.9154572, 0.5781356, -0.001616478, 9.920685
265413594713411, 6.1232333, 0.44745782, 8.2014, -0.61233056, 0.03436327, 10.226487
265413604353723, 6.0155563, -0.82313097, 7.745567, 0.6744447, 0.13342237, 9.8176155
265413613993931, 6.1639113, 0.59700924, 8.142776, -0.747519, 0.1011982, 10.202255
265413623634140, 6.0155563, -0.6329016, 7.7156568, 0.4849426, 0.15828991, 9.790742
265413633274348, 6.1627145, 0.34337005, 8.1942215, -0.49477887, 0.057384968, 10.246664
265413642914661, 6.0227346, -0.29790643, 7.9070826, 0.1441626, 0.07072735, 9.942749
265413652554869, 6.0323057, -0.21415763, 8.098508, 0.05737841, -0.030846119, 10.100306
265413662195077, 6.0047884, 0.0071784677, 8.060223, -0.16273345, -0.0157094, 10.049777
265413671835390, 5.8827543, -0.7537391, 8.005188, 0.59150374, -0.1316123, 9.944384
265413681475598, 5.9700923, 0.38285163, 8.286345, -0.5480926, -0.15621805, 10.204279
265413691115806, 5.845666, -0.87218386, 7.9130645, 0.71429753, -0.112440586, 9.85019
265413700756015, 6.078966, 0.52283174, 8.313862, -0.70017326, -0.06275129, 10.288504
265413710396327, 5.9760747, -0.72502524, 7.8699937, 0.5638722, 0.037718773, 9.892248
265413720036536, 6.131608, 0.34576288, 8.258827, -0.51763916, -0.0052342415, 10.278931
265413729676744, 6.023931, -0.32662028, 7.844869, 0.17063817, 0.1098485, 9.894201
265413739316952, 6.0933228, -0.086141616, 7.9680996, -0.06713197, 0.10150099, 10.030544
265413748957265, 6.0825553, 0.078963146, 7.8699937, -0.22667766, 0.1589737, 9.943031
265413758597473, 6.0454664, -0.57188463, 7.806584, 0.4256012, 0.12318754, 9.8803425
265413768237681, 6.1304116, 0.42592242, 8.140383, -0.5798804, 0.055105686, 10.182823
265413777877890, 5.9353967, -0.8542377, 7.8592257, 0.69629997, -0.0040459633, 9.861097
265413787518202, 6.064609, 0.4977071, 8.318648, -0.65967286, -0.1030283, 10.285006
265413797158411, 5.8636117, -0.76570326, 7.9776707, 0.5966264, -0.12816048, 9.911563
265413806798619, 5.9964137, 0.37208393, 8.411968, -0.55612683, -0.20918941, 10.320059
265413816438931, 5.8935223, -0.4235296, 8.026724, 0.25345638, -0.113342285, 9.963142
265413826079140, 5.9712887, -0.086141616, 8.1942215, -0.078234255, -0.12939548, 10.13835
265413835719348, 6.026324, 0.009571291, 7.9704924, -0.16584212, 0.05427122, 9.990744
265413845359556, 6.0598235, -0.54675996, 7.8556366, 0.39701444, 0.11029005, 9.927822
265413854999869, 6.1531434, 0.32662028, 8.060223, -0.48753405, 0.109965324, 10.133374
265413864640077, 6.0550375, -0.8913264, 7.739585, 0.7498714, 0.1354003, 9.8376045
265413874280286, 6.224928, 0.44745782, 8.141579, -0.6002979, 0.12735891, 10.240051
265413883920494, 6.0323057, -0.8985049, 7.643872, 0.7469331, 0.18008232, 9.748562
265413893560806, 6.131608, 0.34456646, 8.145168, -0.5179878, 0.03882408, 10.187702
265413903201015, 5.9748783, -0.4941179, 7.897511, 0.33324504, 0.0023179054, 9.90974
265413912841223, 6.0107703, 0.01794617, 8.244471, -0.19372049, -0.13966942, 10.200194
265413922481431, 5.9700923, 0.009571291, 8.094919, -0.18184555, -0.07877731, 10.056368
265413932121640, 5.910272, -0.4426722, 8.037491, 0.26936662, -0.12078524, 9.982054
265413941761952, 6.02752, 0.4354937, 8.243274, -0.6084876, -0.09534168, 10.202593
265413951402161, 5.8947186, -0.70229346, 7.958528, 0.53073144, -0.09557104, 9.914044
265413961042369, 6.1232333, 0.613759, 8.322237, -0.79237705, -0.04937172, 10.319886
265413970682577, 5.9724855, -0.7704889, 7.759924, 0.6122367, 0.07446909, 9.803076
265413980322890, 6.15434, 0.39960137, 8.159525, -0.5564776, 0.05594921, 10.212769
265413989963098, 6.0191455, -0.6125626, 7.780263, 0.4578728, 0.10235262, 9.84468
265413999603306, 6.113662, -0.07178468, 8.062616, -0.092849046, 0.04728794, 10.118151
265414009243515, 6.0394845, -0.24765715, 7.864012, 0.0904997, 0.093720436, 9.917784
265414018883827, 6.0251274, -0.5623133, 7.9190464, 0.3996219, 0.02549076, 9.958379
265414028524036, 6.10768, 0.24765715, 8.17149, -0.4259245, 0.009032726, 10.195923
265414038164244, 5.99761, -0.7896315, 7.993224, 0.6210757, -0.05638504, 10.004877
265414047804452, 6.1208405, 0.56350976, 8.34138, -0.74132645, -0.07391834, 10.334689
265414057444661, 5.9246287, -0.78364944, 7.792227, 0.6136422, 0.011336327, 9.800891
265414067084973, 6.0358953, 0.4977071, 8.237292, -0.6794596, -0.078110695, 10.201224
265414076725181, 5.899504, -0.5623133, 7.865208, 0.403423, -0.031984806, 9.839618
265414086365390, 5.9952173, 0.10887343, 8.232507, -0.28754365, -0.1332655, 10.179794
265414096005598, 5.9988065, -0.14237295, 7.9716887, -0.023619324, 0.010391235, 9.977631
265414105645911, 6.0370917, -0.36729828, 8.014759, 0.20333308, 0.004744053, 10.038744
265414115286119, 6.13759, 0.27876383, 8.133204, -0.44448313, 0.04675865, 10.18317
265414124926327, 6.0023956, -0.83988076, 7.938189, 0.67211187, -0.011920929, 9.964793
265414134566536, 6.128019, 0.41515473, 8.251649, -0.59452915, -0.017294884, 10.269416
265414144206744, 5.9581285, -0.9499506, 7.722835, 0.78879946, 0.06506348, 9.768185
265414153847056, 6.1100726, 0.37806597, 8.1679, -0.5423601, 0.011232376, 10.192951
265414163487265, 5.99761, -0.6520442, 7.77787, 0.4994033, 0.07875919, 9.830371
265414173127473, 6.114858, 0.14596218, 8.181061, -0.31445098, -0.003411293, 10.20998
265414182767681, 6.01436, -0.1902294, 7.920243, 0.023443997, 0.045579433, 9.946674
265414192407890, 6.0011992, -0.28235307, 8.015956, 0.1130653, -0.028670788, 10.0167885
265414202048202, 6.0693946, 0.25722843, 8.114061, -0.42725733, 0.016031265, 10.127138
265414211688411, 6.0011992, -0.70588267, 7.9346, 0.53684044, -0.005104065, 9.959032
265414221328619, 6.0777693, 0.4761717, 8.306684, -0.65236443, -0.07688761, 10.282778
265414230968827, 5.9318075, -0.89730847, 7.8460655, 0.72759235, -0.023036957, 9.849991
265414240609140, 6.1028943, 0.45583272, 8.263613, -0.6254026, -0.044645786, 10.263883
265414250249348, 5.933004, -0.6987042, 7.8029947, 0.5310099, 0.029583454, 9.81288
265414259889556, 6.0622163, 0.20817557, 8.203793, -0.3775255, -0.057736397, 10.195595
265414269529765, 6.0107703, -0.2321038, 7.9429746, 0.07000175, 0.034677505, 9.963331
265414279169973, 6.047859, -0.22013968, 8.04467, 0.054623306, 0.0048918724, 10.066717
265414288810286, 6.0550375, 0.2105684, 8.073383, -0.37899637, 0.015368938, 10.086796
265414298450494, 5.966503, -0.68195444, 7.90469, 0.51691806, -7.619858E-4, 9.913685
265414308090702, 6.0933228, 0.4869394, 8.239685, -0.65404546, -0.03981161, 10.23859
265414317730911, 5.925825, -0.8662018, 7.836494, 0.71250856, -0.0029211044, 9.837106
265414327371119, 6.10768, 0.465404, 8.279166, -0.63118, -0.042886734, 10.279335
265414337011431, 5.9473605, -0.75613195, 7.8400836, 0.5917783, 0.013997078, 9.851871
265414346651640, 6.099305, 0.22253251, 8.254042, -0.38902345, -0.048128605, 10.258001
265414356291848, 6.0251274, -0.33738798, 7.9537425, 0.17936155, 0.034373283, 9.982216
265414365932056, 6.040681, -0.2727818, 8.053044, 0.10835272, -0.010437012, 10.06995
265414375572265, 6.0251274, 0.08973085, 7.989635, -0.25257963, 0.03908205, 10.003956
265414385212577, 5.994021, -0.64606214, 7.85444, 0.48745987, 0.04191017, 9.889314
265414394852786, 6.128019, 0.47736812, 8.2049885, -0.6512408, 0.023627758, 10.231211
265414404492994, 5.9557357, -0.8386843, 7.85444, 0.6833974, -0.0056095123, 9.869112
265414414133202, 6.113662, 0.5096712, 8.288737, -0.689826, -0.039002895, 10.288946
265414423773411, 5.919843, -0.77766734, 7.8460655, 0.60972434, -0.025771141, 9.840611
265414433413723, 6.0394845, 0.27756742, 8.26481, -0.44976148, -0.09429598, 10.229775
265414443053931, 5.9820566, -0.38763726, 7.952546, 0.21912414, -0.007319927, 9.956413
265414452694140, 6.0023956, -0.16271193, 8.154739, -0.009310603, -0.093708515, 10.126507
265414462334348, 6.0323057, 0.076570325, 8.055437, -0.24351913, 0.0050587654, 10.061079
265414471974556, 6.020342, -0.6161518, 7.914261, 0.45967725, 0.03012991, 9.952261
265414481614869, 6.157929, 0.45224348, 8.163115, -0.61350363, 0.06605148, 10.216668
265414491255077, 6.0083776, -0.84347, 7.798209, 0.68543994, 0.06964874, 9.85644
265414500895286, 6.175875, 0.48933223, 8.219346, -0.6482532, 0.05296135, 10.272074
265414510535494, 5.9784675, -0.77766734, 7.757531, 0.6195885, 0.08310175, 9.804863
265414520175702, 6.0981083, 0.35294133, 8.2049885, -0.51539093, -0.015821934, 10.216039
265414529816015, 5.99761, -0.37208393, 7.9011, 0.21722493, 0.03705883, 9.924143
265414539456223, 6.01436, -0.076570325, 8.163115, -0.095697135, -0.08374262, 10.1389675
265414549096431, 5.9844494, 0.0011964113, 8.072187, -0.16777995, -0.046518803, 10.047066
265414558736640, 5.9617176, -0.60658056, 7.987242, 0.4448018, -0.05836153, 9.975208
265414568376848, 6.0753765, 0.357727, 8.262417, -0.5264659, -0.0596385, 10.24817
265414578017161, 5.9557357, -0.8662018, 7.9298143, 0.7079795, -0.047046185, 9.929733
265414587657369, 6.111269, 0.50129634, 8.283952, -0.6680128, -0.030309677, 10.284727
265414597297577, 5.9449677, -0.8171489, 7.743174, 0.6704987, 0.056050777, 9.773148
265414606937786, 6.1160545, 0.37208393, 8.160722, -0.5416161, 0.03139496, 10.190565
265414616577994, 6.0023956, -0.4534399, 7.8281193, 0.3031302, 0.08398056, 9.869896
265414626218306, 6.070591, -0.0059820567, 8.122437, -0.15576643, -0.0070519447, 10.139119
265414635858515, 6.0753765, 0.014356935, 8.008778, -0.17463338, 0.066028595, 10.050675
265414645498723, 6.0167527, -0.5300102, 7.972885, 0.3687858, 0.0071139336, 9.995651
265414655138931, 6.0634127, 0.33379877, 8.207381, -0.49946955, -0.048281193, 10.197338
265414664779244, 5.9150577, -0.8805587, 7.9477606, 0.7214638, -0.07252264, 9.9199
265414674419452, 6.1040907, 0.4941179, 8.331808, -0.6623628, -0.07709026, 10.318838
265414684059661, 5.910272, -0.8805587, 7.8520474, 0.71344364, -0.0122795105, 9.8413515
265414693699869, 6.0634127, 0.3589234, 8.263613, -0.52626956, -0.078178406, 10.241974
265414703340077, 5.946164, -0.5383851, 7.8520474, 0.37252587, 0.02854538, 9.857068
265414712980390, 6.0358953, 0.008374879, 8.182257, -0.17591436, -0.06822729, 10.165915
265414722620598, 6.0323057, -0.07178468, 7.9776707, -0.09257308, 0.0468421, 10.001317
265414732260806, 6.0311093, -0.4103691, 7.9310107, 0.25241256, 0.056113243, 9.968789
265414741901015, 6.1268225, 0.4139583, 8.12124, -0.5753628, 0.069117546, 10.165041
265414751541223, 6.0251274, -0.7106683, 7.88794, 0.548862, 0.0602293, 9.93589
265414761181536, 6.175875, 0.5563313, 8.274381, -0.71872747, 0.02023983, 10.315006
265414770821744, 5.9676995, -0.91166544, 7.806584, 0.7517791, 0.0369792, 9.839756
265414780461952, 6.0861444, 0.36370903, 8.1942215, -0.52352965, -0.015807152, 10.200214
265414790102161, 5.979664, -0.6329016, 7.8029947, 0.47407535, 0.07419157, 9.839382
265414799742369, 6.064609, 0.013160525, 8.19781, -0.1862091, -0.053239822, 10.195403
265414809382681, 6.0167527, -0.17826529, 8.056634, 0.011806965, -0.016531467, 10.05694
265414819022890, 5.9748783, -0.39960137, 8.078169, 0.23047075, -0.07351303, 10.052717
265414828663098, 6.058627, 0.32542387, 8.185846, -0.49609327, -0.024324417, 10.177143
265414838303306, 5.9246287, -0.7465607, 8.012366, 0.58144605, -0.1011157, 9.975385
265414847943619, 6.053841, 0.54675996, 8.344969, -0.7300521, -0.11608267, 10.297573
265414857583827, 5.8911295, -0.8147561, 7.8089767, 0.66108966, -0.01739788, 9.793468
265414867224036, 6.0801625, 0.49172506, 8.23131, -0.6677313, -0.020678043, 10.223422
265414876864244, 5.9617176, -0.57547385, 7.830512, 0.42381, 0.045586586, 9.849288
265414886504452, 6.0837517, 0.15672988, 8.2145605, -0.321456, -0.038346767, 10.21816
265414896144765, 6.0825553, -0.17108682, 7.908279, 0.015561521, 0.11945248, 9.977631
265414905784973, 6.1244297, -0.3361916, 7.9190464, 0.18591055, 0.13664627, 10.013977
265414915425181, 6.1806607, 0.25962126, 8.000402, -0.4128425, 0.16820145, 10.103251
265414925065390, 5.979664, -0.83389866, 7.905886, 0.6821619, -0.016191006, 9.924172
265414934705598, 6.151947, 0.48215377, 8.251649, -0.64122784, 0.0036683083, 10.283844
265414944345911, 5.948557, -0.89013004, 7.776674, 0.73206294, 0.04390192, 9.803902
265414953986119, 6.0550375, 0.42711884, 8.269595, -0.5913391, -0.08900404, 10.240826
265414963626327, 5.930611, -0.72023964, 7.897511, 0.55358255, -0.042723656, 9.887026
265414973266536, 6.053841, 0.15074782, 8.335398, -0.33410496, -0.13894272, 10.296583
265414982906848, 5.948557, -0.25244278, 8.055437, 0.07946044, -0.084575176, 10.016269
265414992547056, 5.960521, -0.30508488, 8.12124, 0.13213944, -0.118612766, 10.076899
265415002187265, 6.02752, 0.19142582, 8.151151, -0.3646242, -0.0445714, 10.132816
265415011827473, 5.9712887, -0.6831509, 7.928618, 0.51737493, -0.029678822, 9.935664
265415021467681, 6.1040907, 0.552742, 8.2145605, -0.7178674, 0.007765293, 10.223945
265415031107994, 5.9760747, -0.78843504, 7.769495, 0.630932, 0.051291466, 9.813229
265415040748202, 6.1363935, 0.5395815, 8.250452, -0.7133052, -0.0021367073, 10.27169
265415050388411, 5.9748783, -0.66759753, 7.8197446, 0.50755215, 0.035980225, 9.850601
265415060028619, 6.1124654, 0.23808585, 8.222935, -0.40097773, -0.021345139, 10.240816
265415069668931, 6.0394845, -0.30987054, 7.9130645, 0.15807241, 0.05876541, 9.957888
265415079309140, 6.094519, -0.26679972, 8.02792, 0.11117548, 0.037412643, 10.0820675
265415088949348, 6.1124654, 0.09092726, 8.017152, -0.24838468, 0.08499241, 10.078506
265415098589556, 6.0490556, -0.73100734, 7.885547, 0.5807568, 0.04389143, 9.948272
265415108229869, 6.1603217, 0.41754755, 8.215756, -0.58842516, 0.032984734, 10.260372
265415117870077, 5.953343, -0.8889336, 7.8352976, 0.7357683, -0.017942905, 9.853056
265415127510286, 6.1100726, 0.47856453, 8.2348995, -0.642817, -0.00834465, 10.245111
265415137150494, 5.953343, -0.7298109, 7.8089767, 0.5672026, 0.0095591545, 9.830219
265415146790702, 6.056234, 0.3062813, 8.285149, -0.48741114, -0.105181694, 10.25509
265415156431015, 5.9318075, -0.30029923, 7.98126, 0.13642904, -0.063979626, 9.947579
265415166071223, 5.9952173, -0.14955142, 8.160722, -0.02141133, -0.109853745, 10.12669
265415175711431, 6.0370917, 0.12921242, 8.092526, -0.2944344, -0.014257431, 10.092833
265415185351640, 5.98086, -0.6029913, 7.9716887, 0.44010904, -0.03132105, 9.974339
265415194991952, 6.131608, 0.41994038, 8.232507, -0.58201075, -0.0013537407, 10.257114
265415204632161, 5.9904313, -0.89371926, 7.8149586, 0.7469907, 0.0520463, 9.858848
265415214272369, 6.161518, 0.51445687, 8.190632, -0.6829276, 0.048624992, 10.239467
265415223912577, 5.985646, -0.7585248, 7.7443705, 0.6152222, 0.07957077, 9.797642
265415233552890, 6.0921264, 0.32542387, 8.196614, -0.48697677, -0.017740726, 10.206221
265415243193098, 5.9916277, -0.39840496, 7.90469, 0.24227518, 0.02187872, 9.923874
265415252833306, 6.056234, -0.13160525, 8.179864, -0.040234447, -0.07014036, 10.178356
265415262473515, 6.0526447, 0.03589234, 8.090134, -0.20270687, -0.0019698143, 10.101731
265415272113827, 5.9988065, -0.6197411, 8.013563, 0.45307186, -0.04742098, 10.018953
265415281754036, 6.0550375, 0.35653058, 8.267202, -0.5340715, -0.09210968, 10.239312
265415291394244, 5.9820566, -0.87218386, 7.861619, 0.719224, 0.024430275, 9.891051
265415301034452, 6.1268225, 0.5515456, 8.218149, -0.71341693, 0.002333641, 10.240663
265415310674765, 5.979664, -0.7501499, 7.732406, 0.5916425, 0.10581398, 9.7850895
265415320314973, 6.128019, 0.3804588, 8.206185, -0.54159015, -0.002366066, 10.234526
265415329955181, 6.0107703, -0.42951167, 7.8963146, 0.26791248, 0.041720867, 9.929356
265415339595390, 6.101698, -0.062213387, 8.141579, -0.098776564, -0.009534359, 10.173989
265415349235702, 6.0358953, -0.025124637, 7.9884386, -0.13417852, 0.03552103, 10.011419
265415358875911, 6.023931, -0.5814559, 7.891529, 0.42847505, 0.04932499, 9.935596
265415368516119, 6.1196437, 0.32662028, 8.159525, -0.49479517, 0.026138306, 10.192597
265415378156327, 5.985646, -0.82672024, 7.8831544, 0.6645462, 0.014739513, 9.910282
265415387796640, 6.131608, 0.5455636, 8.267202, -0.72096074, -0.022229671, 10.282053
265415397436848, 5.959325, -0.8111669, 7.8077803, 0.660632, 0.04430914, 9.83334
265415407077056, 6.06102, 0.40797627, 8.304291, -0.58573365, -0.11104822, 10.271722
265415416717369, 5.912665, -0.50009996, 7.960921, 0.34093842, -0.064165115, 9.922984
265415426357577, 6.000003, 0.014356935, 8.254042, -0.19043662, -0.14190197, 10.201619
265415435997786, 6.003592, -0.008374879, 8.043473, -0.15396234, -0.01331377, 10.035774
265415445637994, 5.9760747, -0.44865423, 8.037491, 0.28685063, -0.064116955, 10.021458
265415455278306, 6.0717874, 0.36490545, 8.169097, -0.52719426, -0.0072817802, 10.171328
265415464918515, 5.9653068, -0.7968099, 7.8628154, 0.64672166, 0.0025281906, 9.880557
265415474558723, 6.155536, 0.5419743, 8.220542, -0.70981944, 0.05454445, 10.259378
265415484199036, 6.003592, -0.85064846, 7.77787, 0.70673287, 0.07804966, 9.836485
265415493839244, 6.1495543, 0.3912265, 8.286345, -0.5532979, -0.009977341, 10.311516
265415503479452, 6.020342, -0.59700924, 7.899904, 0.4453997, 0.030986309, 9.940325
265415513119661, 6.070591, 0.015553347, 8.193025, -0.18009314, -0.053315163, 10.195229
265415522759973, 5.9988065, -0.16031912, 7.938189, 1.399219E-4, 0.029507637, 9.95115
265415532400181, 6.0119667, -0.46181476, 7.9633136, 0.30337572, 0.005025387, 9.983953
265415542040390, 6.114858, 0.3481557, 8.165507, -0.5100728, 0.019882202, 10.194491
265415551680702, 5.962914, -0.7477571, 7.940582, 0.5920115, -0.033625126, 9.9406595
265415561320911, 6.111269, 0.5288138, 8.303095, -0.69474727, -0.05403948, 10.299664
265415570961119, 5.946164, -0.8865408, 7.834101, 0.7248677, 5.970001E-4, 9.848376
265415580601327, 6.1124654, 0.42831525, 8.249256, -0.58941144, -0.028227806, 10.259031
265415590241640, 5.9712887, -0.57906306, 7.82453, 0.42868698, 0.05168104, 9.8503
265415599881848, 6.1040907, 0.12562318, 8.191829, -0.28697336, -0.023405075, 10.212681
265415609522056, 6.0418773, -0.17826529, 7.9776707, 0.021295488, 0.03696966, 10.00887
265415619162369, 6.0323057, -0.37806597, 8.043473, 0.21691123, -0.02445507, 10.058901
265415628802577, 6.105287, 0.276371, 8.0817585, -0.43456966, 0.057756424, 10.122921
265415638442786, 6.0155563, -0.76689965, 7.847262, 0.61808205, 0.052514553, 9.897969
265415648083098, 6.1495543, 0.49292147, 8.256434, -0.6658453, 0.0024180412, 10.285201
265415657723306, 5.979664, -0.87936234, 7.832905, 0.7186411, 0.017817497, 9.867487
265415667363515, 6.117251, 0.4235296, 8.297112, -0.58943903, -0.05194235, 10.300101
265415677003723, 5.9521465, -0.6580262, 7.836494, 0.49523932, 0.005610943, 9.850198
265415686644036, 6.04427, 0.17347965, 8.239685, -0.35179013, -0.08551645, 10.2139435
265415696284244, 6.0155563, -0.16151553, 7.993224, -0.0033533573, 0.008388996, 10.005227
265415705924452, 6.0430737, -0.2644069, 8.070991, 0.101775885, -0.022265911, 10.085567
265415715564765, 6.076573, 0.2883351, 8.098508, -0.44944295, 0.0256958, 10.118846
265415725204973, 5.9748783, -0.7082755, 7.920243, 0.5471796, -0.020471573, 9.931326
265415734845181, 6.113662, 0.485743, 8.252846, -0.65772104, -0.018613815, 10.261061
265415744485494, 5.99761, -0.8673982, 7.810173, 0.7219188, 0.049529076, 9.85895
265415754125702, 6.1232333, 0.4534399, 8.285149, -0.61579084, -0.037058353, 10.293819
265415763765911, 5.9557357, -0.74895346, 7.867601, 0.58569324, -0.014177322, 9.878648
265415773406223, 6.0897336, 0.13758731, 8.270791, -0.3043406, -0.07743549, 10.266994
265415783046431, 6.007181, -0.32183465, 7.9310107, 0.15897977, 0.028952599, 9.953121
265415792686640, 6.0311093, -0.2727818, 8.082955, 0.10620397, -0.038555145, 10.088117
265415802326952, 6.06102, 0.17228323, 8.078169, -0.33864385, 0.014894009, 10.094927
265415811967161, 6.017949, -0.66759753, 7.9226356, 0.5054077, 0.029893875, 9.958574
265415821607369, 6.135197, 0.4941179, 8.232507, -0.6666796, -0.0100598335, 10.257408
265415831247681, 5.9617176, -0.85184485, 7.818548, 0.6903382, 0.03450823, 9.844779
265415840887890, 6.1363935, 0.5168497, 8.244471, -0.67808515, -0.012815475, 10.268096
265415850528098, 6.000003, -0.70947194, 7.786245, 0.5489986, 0.103467464, 9.839558
265415860168411, 6.108876, 0.2739782, 8.255239, -0.43755764, -0.047006607, 10.263953
265415869808619, 5.9545393, -0.33140594, 8.001599, 0.17071137, -0.051757336, 9.9779825
265415879448827, 5.979664, -0.21415763, 8.086544, 0.049713284, -0.07627964, 10.059132
265415889089140, 6.009574, 0.12323037, 8.059027, -0.28579432, -0.0104317665, 10.049691
265415898729348, 5.9449677, -0.6448657, 8.023134, 0.48248893, -0.09513855, 9.994366
265415908369556, 6.0981083, 0.4546363, 8.321041, -0.63095796, -0.07062054, 10.306806
265415918009869, 5.9676995, -0.8350951, 7.8963146, 0.6833811, -0.010791302, 9.909363
265415927650077, 6.178268, 0.52283174, 8.222935, -0.6785342, 0.064688206, 10.276011
265415937290286, 6.0107703, -0.73100734, 7.7647095, 0.5786573, 0.10755873, 9.828939
265415946930598, 6.1387863, 0.31944183, 8.187042, -0.48624048, 0.026733398, 10.226301
265415956570806, 6.007181, -0.40677986, 7.8891363, 0.2553592, 0.052285194, 9.920798
265415966211015, 6.087341, -0.18903299, 8.105687, 0.026010424, 5.054474E-5, 10.138684
265415975851327, 6.0897336, 0.0, 8.039884, -0.16050057, 0.053103447, 10.084443
265415985491536, 5.9784675, -0.6520442, 7.9980097, 0.4880698, -0.04987049, 9.994733
265415995131848, 6.0897336, 0.39481574, 8.273184, -0.571097, -0.059464455, 10.264338
265416004772056, 5.925825, -0.8470592, 7.9106717, 0.6910645, -0.04329157, 9.89607
265416014412265, 6.1028943, 0.55513483, 8.26481, -0.7306666, -0.033791542, 10.262826
265416024052577, 5.9700923, -0.6269195, 7.8460655, 0.4652114, 0.033412933, 9.868042
265416033692786, 6.0454664, -0.0011964113, 8.124829, -0.15844479, -0.027120113, 10.125942
265416043332994, 6.0777693, -0.17706887, 8.015956, 0.018352568, 0.05347538, 10.060964
265416052973306, 6.0753765, -0.1052842, 8.038688, -0.05445057, 0.041965008, 10.076561
265416062613515, 6.0598235, -0.18783657, 8.023134, 0.027796447, 0.03290558, 10.056122
265416072253723, 6.02752, -0.19980069, 8.045866, 0.03769535, -0.0088272095, 10.055117
265416081894036, 5.9712887, -0.18783657, 8.066205, 0.021674931, -0.06679869, 10.037443
265416091534244, 5.992824, -0.19142582, 8.078169, 0.025066495, -0.056355476, 10.059999
265416101174556, 6.0251274, -0.16510476, 8.126026, -0.0019975007, -0.05531931, 10.117247
265416110814765, 6.0346985, -0.16031912, 8.123632, -0.00710994, -0.04168558, 10.121014
265416120454973, 6.0311093, -0.13160525, 8.114061, -0.03580293, -0.03743744, 10.110733
265416130095286, 6.0370917, -0.13758731, 8.072187, -0.027734488, -0.007627487, 10.080913
265416139735494, 6.056234, -0.13758731, 8.053044, -0.025866717, 0.018241405, 10.077074
265416149375702, 6.0323057, -0.14237295, 7.995617, -0.01804781, 0.030536652, 10.016867
265416159016015, 6.046663, -0.15553348, 7.962117, -0.0031605065, 0.061564922, 9.998892
265416168656223, 6.0634127, -0.16510476, 7.987242, 0.005991757, 0.059206963, 10.029194
265416178296536, 6.0574307, -0.19740787, 8.0817585, 0.032841593, -0.0032243729, 10.101741
265416187936744, 6.0574307, -0.17467605, 8.128419, 0.0065671504, -0.028112411, 10.138705
265416197576952, 6.0311093, -0.17706887, 8.177471, 0.005122274, -0.077382565, 10.162217
265416207217265, 5.99761, -0.1902294, 8.139186, 0.01894927, -0.081377506, 10.111719
265416216857473, 6.01436, -0.19621146, 8.069795, 0.029425442, -0.02691698, 10.066331
265416226497786, 6.007181, -0.17587246, 8.051848, 0.010447234, -0.023523808, 10.047325
265416236137994, 6.0227346, -0.1363909, 8.017152, -0.026488543, 0.010768414, 10.028253
265416245778306, 6.047859, -0.12323037, 8.031509, -0.039230585, 0.023191929, 10.054595
265416255418515, 6.0526447, -0.13280165, 8.023134, -0.028203815, 0.030814648, 10.050924
265416265058723, 6.0574307, -0.14596218, 8.01117, -0.014511794, 0.0409379, 10.044439
265416274699036, 6.068198, -0.17347965, 8.019546, 0.013485551, 0.04392433, 10.058038
265416284339244, 5.994021, -0.2009971, 8.087741, 0.03546214, -0.05748892, 10.06855
265416293979556, 6.003592, -0.20219351, 8.10449, 0.035709947, -0.058158398, 10.087722
265416303619765, 6.000003, -0.19621146, 8.111669, 0.02926594, -0.06518412, 10.091215
265416313259973, 6.0323057, -0.16031912, 8.069795, -0.005133748, -0.011124611, 10.076501
265416322900286, 6.029913, -0.12921242, 8.051848, -0.036308482, 4.234314E-4, 10.060193
265416332540494, 6.0358953, -0.11365908, 8.067402, -0.05150509, -0.0045313835, 10.075974
265416342180806, 6.064609, -0.11964113, 8.090134, -0.045673907, 0.0045642853, 10.111476
265416351821015, 6.038288, -0.14476576, 8.055437, -0.019106418, 0.001414299, 10.068346
265416361461223, 6.070591, -0.15074782, 8.014759, -0.0097771585, 0.04880047, 10.055281
265416371101536, 6.038288, -0.16510476, 8.037491, 0.0025331676, 0.008556843, 10.054321
265416380741744, 6.0526447, -0.16271193, 8.025527, 0.0012726188, 0.025633812, 10.0533285
265416390382056, 6.067002, -0.18903299, 8.021938, 0.02864635, 0.037633896, 10.059498
265416400022265, 6.0658054, -0.20219351, 8.047063, 0.040652424, 0.022081852, 10.079085
265416409662577, 6.013163, -0.18783657, 8.062616, 0.023704678, -0.02687025, 10.059717
265416419302786, 6.046663, -0.11006984, 8.105687, -0.055048704, -0.019511223, 10.113011
265416428943098, 6.0394845, -0.106480606, 8.118847, -0.05764833, -0.03231001, 10.11919
265416438583306, 6.0011992, -0.13280165, 8.135597, -0.03146577, -0.07355881, 10.110073
265416448223515, 6.0011992, -0.15433706, 8.078169, -0.006115049, -0.039150238, 10.0644655
265416457863827, 6.056234, -0.19621146, 8.015956, 0.038948655, 0.040608883, 10.048326
265416467504036, 6.0490556, -0.18664017, 8.015956, 0.029013813, 0.031941414, 10.043884
265416477144348, 6.0227346, -0.21415763, 8.038688, 0.05384198, -0.0066046715, 10.046728
265416486784556, 6.0227346, -0.2416751, 8.04467, 0.07987893, -0.0125255585, 10.051963
265416496424869, 6.046663, -0.21894327, 8.049456, 0.057869107, 0.0050988197, 10.069779
265416506065077, 6.029913, -0.18903299, 8.051848, 0.02464971, -0.0070548058, 10.061172
265416515705390, 6.0227346, -0.12323037, 8.056634, -0.04215449, -0.011152267, 10.059621
265416525345598, 6.0370917, -0.11844472, 8.043473, -0.045008123, 0.008456707, 10.057629
265416534985806, 6.0251274, -0.104087785, 8.082955, -0.061901867, -0.023750782, 10.081803
265416544626119, 6.0155563, -0.124426775, 8.094919, -0.041688383, -0.040463448, 10.085969
265416554266327, 6.0574307, -0.12203395, 8.050652, -0.039747894, 0.020728588, 10.07563
265416563906640, 6.0514483, -0.14955142, 8.048259, -0.012114465, 0.017639637, 10.070572
265416573546848, 6.029913, -0.1698904, 8.04467, 0.00799346, 0.001935482, 10.055117
265416583187161, 6.0526447, -0.20937198, 8.090134, 0.046004176, -0.009581566, 10.105761
265416592827369, 6.0311093, -0.22971097, 8.10449, 0.0647361, -0.037281036, 10.104664
265416602467681, 6.0215383, -0.21655045, 8.051848, 0.05240363, -0.013214111, 10.056598
265416612107890, 6.053841, -0.19740787, 8.024331, 0.033058763, 0.030718327, 10.053648
265416621748098, 6.076573, -0.18424734, 8.051848, 0.018800199, 0.03201723, 10.089081
265416631388411, 6.0394845, -0.13160525, 8.075776, -0.035695553, -0.0095124245, 10.085113
265416641028619, 6.047859, -0.10767702, 8.033902, -0.05770433, 0.02313757, 10.056238
265416650668931, 6.0358953, -0.106480606, 8.01117, -0.056465596, 0.028904915, 10.030862
265416660309140, 6.0370917, -0.14237295, 8.059027, -0.022090107, -7.581711E-5, 10.07046
265416669949452, 6.01436, -0.16510476, 8.133204, -0.0043099523, -0.06390619, 10.116556
265416679589661, 6.0227346, -0.148355, 8.096115, -0.018601835, -0.032879353, 10.09163
265416689229973, 6.0227346, -0.13280165, 8.055437, -0.032213748, -0.0042614937, 10.058826
265416698870181, 6.0346985, -0.10289137, 8.037491, -0.060531706, 0.018294334, 10.051142
265416708510494, 6.0490556, -0.14476576, 8.035098, -0.01746869, 0.027749538, 10.058516
265416718150702, 6.0215383, -0.17587246, 8.032705, 0.013409406, 0.0037288666, 10.040619
265416727791015, 6.009574, -0.19980069, 8.053044, 0.03476885, -0.021889687, 10.050111
265416737431223, 6.0454664, -0.17826529, 8.04108, 0.01437372, 0.016095161, 10.061707
265416747071536, 6.033502, -0.19381863, 8.059027, 0.028479308, -0.005156994, 10.06915
265416756711744, 6.01436, -0.18783657, 8.067402, 0.020337045, -0.022894382, 10.064285
265416766352056, 6.0574307, -0.18664017, 8.063812, 0.020950109, 0.015796185, 10.087204
265416775992265, 6.0514483, -0.18065812, 8.049456, 0.015357256, 0.021252632, 10.072026
265416785632577, 6.0454664, -0.17706887, 8.062616, 0.010782391, 0.009121418, 10.078918
265416795272786, 6.0490556, -0.18664017, 8.09133, 0.018675804, -0.0058164597, 10.104214
265416804913098, 6.040681, -0.13878371, 8.068598, -0.028193474, 0.004418373, 10.080206
265416814553306, 6.0155563, -0.13399807, 8.0614195, -0.03413865, -0.011322498, 10.059329
265416824193619, 5.994021, -0.17108682, 8.069795, 0.0019898415, -0.037282944, 10.053743
265416833833827, 5.986842, -0.1698904, 8.084151, 5.966127E-4, -0.05245781, 10.060908
265416843474036, 6.0251274, -0.13040884, 8.067402, -0.03622815, -0.009405136, 10.069794
265416853114348, 6.0287166, -0.13878371, 8.033902, -0.026526362, 0.01252079, 10.045268
265416862754556, 6.0191455, -0.15792629, 8.070991, -0.009737909, -0.01961565, 10.0695305
265416872394869, 6.047859, -0.1794617, 8.037491, 0.0147898495, 0.020555973, 10.060289
265416882035181, 6.0023956, -0.21296121, 8.020741, 0.0471417, -0.007907391, 10.020185
265416891675390, 6.029913, -0.19381863, 8.04108, 0.0258151, 0.0037431717, 10.052647
265416901315598, 6.064609, -0.18305093, 8.085348, 0.014188826, 0.0057024956, 10.108689
265416910955911, 6.087341, -0.16869399, 8.094919, -0.002249837, 0.01914215, 10.129735
265416920596119, 6.1005015, -0.14237295, 8.078169, -0.027396202, 0.04101944, 10.123773
265416930236431, 6.064609, -0.13998012, 8.038688, -0.02815193, 0.03271675, 10.070637
265416939876640, 6.0526447, -0.16271193, 8.013563, -0.0047198534, 0.036951542, 10.043743
265416949516952, 6.0311093, -0.15433706, 8.002795, -0.012121677, 0.024871826, 10.022079
265416959157161, 5.9904313, -0.15194423, 7.995617, -0.01457274, -0.0049824715, 9.991898
265416968797473, 6.0215383, -0.17108682, 8.04467, 0.003318727, -0.010275364, 10.050116
265416978437681, 6.094519, -0.10767702, 8.0614195, -0.058995157, 0.041368008, 10.106239
265416988077994, 6.0107703, -0.16749759, 8.106883, -0.00386402, -0.05588007, 10.093355
265416997718202, 6.050252, -0.18544376, 8.130812, 0.015249252, -0.040550232, 10.1364765
