timestamp_acc,device_acc_x,device_acc_y,device_acc_z,earth_acc_x,earth_acc_y,earth_acc_z
778420455851948, 2.268396, 4.922036, 8.463413, 0.003256321, 0.006713867, 10.049944
778420465491427, 2.288735, 4.9196434, 8.46102, -0.009503365, 0.021986246, 10.051343
778420475130802, 2.2899313, 4.959125, 8.458628, -0.035456657, -0.0032631159, 10.0689535
778420484770281, 2.2995026, 4.9340005, 8.449057, -0.030718803, 0.018190145, 10.050739
778420494409656, 2.2827528, 4.90409, 8.456235, 0.002544403, 0.02439332, 10.038345
778420504049135, 2.254039, 4.88734, 8.449057, 0.026391506, 0.011824846, 10.017611
778420513688510, 2.2097716, 4.871787, 8.420342, 0.048305035, -0.017002225, 9.975819
778420523327989, 2.1858435, 4.855037, 8.407183, 0.06698847, -0.026683688, 9.951121
778420532967364, 2.2061825, 4.853841, 8.411968, 0.0587883, -0.00975728, 9.959151
778420542606844, 2.1942184, 4.8693943, 8.438289, 0.07166672, -0.024328351, 9.98622
778420552246219, 2.2181466, 4.895715, 8.43111, 0.038822174, -0.025783777, 9.998482
778420561885698, 2.2995026, 4.8969116, 8.379665, -0.03887701, 0.025583029, 9.974172
778420571525073, 2.3341985, 4.901697, 8.373683, -0.06458521, 0.046928406, 9.979345
778420581164552, 2.3557339, 4.941179, 8.37129, -0.1010437, 0.036337137, 10.001586
778420590803927, 2.367698, 4.996214, 8.408379, -0.11979294, 0.01668477, 10.062522
778420600443406, 2.3150558, 4.9734817, 8.457432, -0.04561329, -3.9422512E-4, 10.080729
778420610082781, 2.2875385, 4.9088755, 8.4813595, 0.025788784, 0.02193749, 10.062913
778420619722260, 2.2648067, 4.8909297, 8.456235, 0.03855467, 0.014957905, 10.0278
778420629361635, 2.2265215, 4.9088755, 8.390432, 0.015826225, -0.032968163, 9.972587
778420639001114, 2.239682, 4.8885365, 8.286345, -0.033756733, -0.022704601, 9.878046
778420648640489, 2.2552354, 4.8969116, 8.224132, -0.0803442, -0.025749445, 9.833364
778420658279969, 2.2755744, 4.8885365, 8.200203, -0.097435, -0.005033493, 9.813757
778420667919344, 2.2695923, 4.9028935, 8.233703, -0.085336685, -0.013257742, 9.84763
778420677558823, 2.2755744, 4.9112687, 8.319844, -0.04735565, -0.0021961927, 9.925541
778420687198198, 2.2707887, 4.8993044, 8.41795, 0.015401363, 0.013139367, 10.001056
778420696837677, 2.2420747, 4.895715, 8.4813595, 0.067836285, 0.0036591291, 10.046082
778420706477052, 2.2277179, 4.8729835, 8.52802, 0.11367607, 0.012113571, 10.070886
778420716116531, 2.2277179, 4.8765726, 8.551949, 0.12045193, 0.010957956, 10.092813
778420725755906, 2.2468605, 4.88734, 8.518449, 0.08348513, 0.013677001, 10.074288
778420735395385, 2.2528424, 4.9112687, 8.487342, 0.048458576, -0.0017040968, 10.061237
778420745034760, 2.2779672, 4.9172506, 8.429914, 8.010864E-5, 0.0054944754, 10.021573
778420754674239, 2.2755744, 4.9531426, 8.385647, -0.043135643, -0.023041844, 10.001427
778420764313614, 2.260021, 4.9232326, 8.342576, -0.036740303, -0.02125442, 9.946995
778420773953094, 2.239682, 4.8909297, 8.304291, -0.024141788, -0.02063322, 9.894322
778420783592469, 2.204986, 4.8586264, 8.285149, 0.00599432, -0.030617952, 9.854489
778420793231948, 2.204986, 4.846662, 8.274381, 0.008835316, -0.023630023, 9.839555
778420802871323, 2.219343, 4.8658047, 8.312666, 0.009069443, -0.019315362, 9.884407
778420812510802, 2.2468605, 4.8789654, 8.323434, -0.009807587, -0.0046110153, 9.906165
778420822150177, 2.2648067, 4.8885365, 8.32463, -0.026796818, -9.639263E-4, 9.915941
778420831789656, 2.2791636, 4.928018, 8.348558, -0.0478158, -0.013475418, 9.95871
778420841429031, 2.271985, 4.961518, 8.394022, -0.040668964, -0.03229332, 10.011768
778420851068510, 2.2731814, 4.9196434, 8.403593, -0.010912418, -0.006091714, 9.999523
778420860707885, 2.2755744, 4.914858, 8.415557, -0.0030694008, -2.2995472E-4, 10.007779
778420870347364, 2.2863421, 4.88734, 8.426325, 0.013161182, 0.026321054, 10.005775
778420879986739, 2.3042881, 4.892126, 8.419147, -0.0036325455, 0.036080837, 10.006165
778420889626219, 2.2875385, 4.9112687, 8.409575, -0.011865139, 0.009063721, 10.003707
778420899265594, 2.3102703, 4.932804, 8.40479, -0.041161537, 0.012708187, 10.015415
778420908905073, 2.3030918, 4.941179, 8.420342, -0.035268307, 0.0034083128, 10.030972
778420918544448, 2.2971098, 4.930411, 8.469396, 2.7179718E-5, 0.011609554, 10.065596
778420928183927, 2.2731814, 4.8969116, 8.483752, 0.042151928, 0.014842868, 10.055803
778420937823302, 2.2671995, 4.900501, 8.472985, 0.03784132, 0.00541687, 10.047146
778420947462781, 2.2636101, 4.901697, 8.439486, 0.021806717, -0.0034793615, 10.018733
778420957102156, 2.2648067, 4.8933225, 8.38804, 3.695488E-4, -0.0040961504, 9.971617
778420966741635, 2.3018954, 4.901697, 8.348558, -0.04754114, 0.012797236, 9.950947
778420976381010, 2.312663, 4.924429, 8.322237, -0.08118534, 0.0019199848, 9.942407
778420986020489, 2.2791636, 4.9363933, 8.349754, -0.052465916, -0.025648236, 9.963812
778420995659864, 2.2636101, 4.9136615, 8.367701, -0.018248558, -0.019173741, 9.964221
778421005299344, 2.2588246, 4.875376, 8.385647, 0.016412258, 0.0056489706, 9.959435
778421014938719, 2.2408783, 4.875376, 8.374879, 0.021548748, -0.008882284, 9.9463005
778421024578198, 2.2217357, 4.861019, 8.361719, 0.035243988, -0.016178012, 9.923834
778421034217573, 2.239682, 4.867001, 8.330612, 0.0042510033, -0.010363221, 9.90469
778421043857052, 2.2492533, 4.87418, 8.304291, -0.018855095, -0.012272358, 9.888252
778421053496427, 2.2827528, 4.8993044, 8.309076, -0.052145004, -0.0018845797, 9.912224
778421063135906, 2.288735, 4.922036, 8.348558, -0.047207355, -0.007203102, 9.957956
778421072775281, 2.2695923, 4.9256253, 8.407183, -0.0073223114, -0.016244292, 10.004662
778421082414656, 2.271985, 4.9172506, 8.4347, 0.010646343, -0.004883647, 10.024236
778421092054135, 2.2863421, 4.9028935, 8.446664, 0.016109943, 0.016143322, 10.030521
778421101693510, 2.2899313, 4.9052863, 8.413164, -0.007103443, 0.012709975, 10.004337
778421111332989, 2.2791636, 4.9172506, 8.384451, -0.02298069, -0.0073587894, 9.983606
778421120972364, 2.2636101, 4.880162, 8.379665, 0.0067892075, 0.0026118755, 9.957844
778421130611844, 2.2564318, 4.851448, 8.400003, 0.039200783, 0.017453432, 9.959229
778421140251219, 2.2372892, 4.880162, 8.415557, 0.04152012, -0.012209892, 9.982042
778421149890698, 2.2468605, 4.8825545, 8.407183, 0.028158665, -0.00837779, 9.978356
778421159530073, 2.2612174, 4.894519, 8.405986, 0.009203911, -0.006023288, 9.986486
778421169169552, 2.2612174, 4.901697, 8.414361, 0.008216381, -0.009639263, 9.997051
778421178808927, 2.268396, 4.901697, 8.426325, 0.010295391, -0.0028078556, 10.008751
778421188448406, 2.251646, 4.8969116, 8.422736, 0.022683144, -0.013148069, 9.999572
778421198087781, 2.243271, 4.8933225, 8.361719, -4.2963028E-4, -0.02648151, 9.944572
778421207727260, 2.2815564, 4.8933225, 8.319844, -0.045176506, -0.0010591745, 9.918057
778421217366635, 2.3138595, 4.8933225, 8.323434, -0.062330246, 0.024093986, 9.928425
778421227006114, 2.2839491, 4.9160542, 8.349754, -0.044249058, -0.008744001, 9.954918
778421236645489, 2.288735, 4.9316072, 8.383254, -0.038428783, -0.010830522, 9.991817
778421246284969, 2.3234308, 4.930411, 8.396415, -0.051056385, 0.01730001, 10.010204
778421255924344, 2.312663, 4.914858, 8.4012, -0.032045364, 0.01894033, 10.00415
778421265563823, 2.2971098, 4.898108, 8.364112, -0.03080988, 0.011547804, 9.961199
778421275203198, 2.2827528, 4.881358, 8.344969, -0.02056837, 0.0077227354, 9.933611
778421284842677, 2.2995026, 4.8861437, 8.398808, -0.0043873787, 0.025326848, 9.985062
778421294482052, 2.2875385, 4.8849473, 8.435896, 0.023379326, 0.022105813, 10.012935
778421304121427, 2.292324, 4.895715, 8.432307, 0.011991024, 0.018493056, 10.016292
778421313760906, 2.2815564, 4.914858, 8.384451, -0.018547058, -0.009734631, 9.982982
778421323400281, 2.2564318, 4.9316072, 8.3377905, -0.03888035, -0.046723604, 9.94622
778421333039760, 2.2612174, 4.9232326, 8.298309, -0.0594182, -0.042761922, 9.90999
778421342679135, 2.300699, 4.918447, 8.331808, -0.06326628, -0.0043394566, 9.944815
778421352318614, 2.3377876, 4.9232326, 8.384451, -0.060072422, 0.0270828, 9.999908
778421361957989, 2.3449662, 4.955536, 8.425129, -0.06283045, 0.018909693, 10.051601
778421371597469, 2.3521447, 4.9399824, 8.435896, -0.05137062, 0.035052538, 10.054675
778421381236844, 2.2959132, 4.9136615, 8.411968, -0.014240265, 0.005087614, 10.00881
778421390876323, 2.251646, 4.901697, 8.384451, 0.0030059814, -0.022044778, 9.9697075
778421400515698, 2.210968, 4.863412, 8.346166, 0.03098917, -0.03524542, 9.909462
778421410155177, 2.1834507, 4.8215375, 8.322237, 0.059679985, -0.029701352, 9.862548
778421419794552, 2.1894326, 4.8287163, 8.325827, 0.053768635, -0.028863072, 9.870448
778421429433927, 2.2002003, 4.8287163, 8.3581295, 0.063734055, -0.015831232, 9.900069
778421439073406, 2.2348964, 4.8418765, 8.370093, 0.04024172, 0.002906561, 9.924484
778421448712781, 2.2671995, 4.8765726, 8.409575, 0.019781113, 0.012208939, 9.982063
778421458352260, 2.2612174, 4.894519, 8.433503, 0.022304535, -0.0031138659, 10.00964
778421467991635, 2.254039, 4.8993044, 8.476574, 0.046034813, -0.0041615963, 10.046595
778421477631114, 2.2456641, 4.8885365, 8.507681, 0.07128334, -7.456541E-4, 10.065603
778421487270489, 2.2504497, 4.9112687, 8.505288, 0.05358267, -0.012039661, 10.075813
778421496909969, 2.2624137, 4.833502, 8.465807, 0.07056904, 0.04100728, 10.007221
778421506549344, 2.312663, 5.410172, 8.510074, -0.2790761, -0.28323126, 10.338357
778421516188719, 2.2588246, 4.3154554, 8.240881, 0.2578106, 0.33662486, 9.5633545
778421525828198, 2.3162522, 5.3563333, 8.389236, -0.30366564, -0.27180195, 10.211196
778421535467573, 2.3042881, 4.6468616, 8.256434, 0.04577017, 0.16643083, 9.748949
778421545107052, 2.2360928, 4.8933225, 8.269595, -0.042295933, -0.046296954, 9.865445
778421554746427, 2.3521447, 5.1756754, 8.383254, -0.2182622, -0.13093472, 10.125925
778421564385906, 2.1738794, 4.35733, 8.220542, 0.2730484, 0.2584772, 9.547149
778421574025281, 2.3605196, 5.5716877, 8.563912, -0.34823465, -0.3554945, 10.474192
778421583664656, 2.1631117, 4.112066, 8.29113, 0.4530294, 0.4316182, 9.483642
778421593304135, 2.3258235, 5.6853466, 8.595019, -0.37383223, -0.45005643, 10.548208
778421602943510, 2.1942184, 4.1874394, 8.292327, 0.38793087, 0.39222085, 9.529303
778421612582989, 2.2983062, 5.40419, 8.459825, -0.28247547, -0.30552304, 10.289947
778421622222364, 2.2815564, 4.604987, 8.288737, 0.09969425, 0.17563021, 9.75058
778421631861844, 2.2121646, 4.907679, 8.287541, -0.024907589, -0.068113804, 9.882158
778421641501219, 2.333002, 5.1182475, 8.383254, -0.17843914, -0.10264361, 10.093361
778421651140594, 2.204986, 4.388437, 8.2456665, 0.2552247, 0.25486624, 9.590686
778421660780073, 2.3952155, 5.588437, 8.603394, -0.3788228, -0.32153606, 10.523268
778421670419448, 2.2061825, 4.141976, 8.397611, 0.47520065, 0.4293816, 9.598588
778421680058927, 2.3748765, 5.729614, 8.718249, -0.38897562, -0.4143355, 10.68426
778421689698302, 2.2384856, 4.176672, 8.368897, 0.40792847, 0.44257212, 9.598521
778421699337677, 2.3102703, 5.4723854, 8.5220375, -0.29241276, -0.33769512, 10.378342
778421708977156, 2.260021, 4.534399, 8.299505, 0.15126896, 0.20235515, 9.720413
778421718616531, 2.158326, 4.9088755, 8.313862, 0.019147396, -0.110144496, 9.892584
778421728256010, 2.3306093, 5.1266227, 8.239685, -0.25409508, -0.14227033, 9.976051
778421737895385, 2.2468605, 4.506881, 8.07458, 0.06580067, 0.17734492, 9.51438
778421747534760, 2.4311078, 5.56092, 8.449057, -0.44977188, -0.33185136, 10.387892
778421757174239, 2.1738794, 4.115655, 8.288737, 0.44501638, 0.42237604, 9.486364
778421766813614, 2.3306093, 5.7009, 8.635697, -0.36932564, -0.4480114, 10.591041
778421776453094, 2.1978076, 4.1108694, 8.26122, 0.42896533, 0.43295658, 9.466041
778421786092469, 2.2755744, 5.4484572, 8.453842, -0.29922342, -0.35787272, 10.301154
778421795731844, 2.2372892, 4.4602213, 8.293523, 0.21085596, 0.2336886, 9.673805
778421805371323, 2.2073789, 5.009374, 8.386844, -0.033344746, -0.124767065, 10.014429
778421815010698, 2.3461626, 5.0177493, 8.462217, -0.09097147, -0.018865108, 10.113495
778421824650177, 2.2241287, 4.4781675, 8.315059, 0.22635269, 0.21669924, 9.697563
778421834289552, 2.408376, 5.508278, 8.559127, -0.36062622, -0.2764852, 10.449573
778421843928927, 2.1942184, 4.165904, 8.32463, 0.43218756, 0.39111793, 9.546155
778421853568406, 2.353341, 5.6733823, 8.652447, -0.38441563, -0.4113227, 10.595914
778421863207781, 2.1547368, 4.098905, 8.313862, 0.48810887, 0.40176928, 9.495501
778421872847260, 2.2504497, 5.515456, 8.505288, -0.30671644, -0.40725362, 10.371343
778421882486635, 2.204986, 4.4374895, 8.269595, 0.23896956, 0.22193754, 9.6349945
778421892126010, 2.204986, 5.050052, 8.32463, -0.09263229, -0.16942835, 9.981339
778421901765489, 2.2971098, 4.9363933, 8.303095, -0.09185648, -0.030938506, 9.92858
778421911404864, 2.1834507, 4.5212383, 8.17149, 0.15288687, 0.1336304, 9.588591
778421921044239, 2.379662, 5.4376893, 8.43111, -0.36453962, -0.27725482, 10.3007345
778421930683719, 2.1547368, 4.1407795, 8.282756, 0.45119405, 0.38347495, 9.489065
778421940323094, 2.400001, 5.6781683, 8.675179, -0.38511753, -0.3933072, 10.628138
778421949962573, 2.254039, 4.112066, 8.392825, 0.4629097, 0.49065638, 9.590321
778421959601948, 2.3581266, 5.593223, 8.630911, -0.3313532, -0.3766204, 10.53973
778421969241323, 2.2695923, 4.462614, 8.355737, 0.23146272, 0.2670946, 9.734444
778421978880802, 2.2791636, 5.1696935, 8.410771, -0.1458044, -0.19036233, 10.129358
778421988520177, 2.3246272, 4.9064827, 8.330612, -0.06723499, 0.0031279325, 9.943442
778421998159552, 2.172683, 4.564309, 8.203793, 0.16930246, 0.09667909, 9.634192
778422007799031, 2.3712873, 5.380262, 8.449057, -0.30280066, -0.2501353, 10.286035
778422017438406, 2.231307, 4.1479583, 8.249256, 0.3975644, 0.42343557, 9.481412
778422027077885, 2.4514468, 5.656633, 8.572288, -0.44822884, -0.35569704, 10.543423
778422036717260, 2.2588246, 4.106084, 8.220542, 0.3852787, 0.45716465, 9.443626
778422046356635, 2.3892334, 5.649454, 8.471788, -0.45189524, -0.4036467, 10.441687
778422055996114, 2.3258235, 4.4279184, 8.275578, 0.1961546, 0.30911696, 9.662664
778422065635489, 2.312663, 5.258228, 8.4347, -0.19052553, -0.21618617, 10.200908
778422075274864, 2.3545375, 4.9172506, 8.392825, -0.042775154, 0.029645085, 10.007996
778422084914344, 2.260021, 4.7018967, 8.267202, 0.07798147, 0.079474926, 9.774956
778422094553719, 2.4442682, 5.365905, 8.440681, -0.33133316, -0.1924988, 10.2891035
778422104193094, 2.2636101, 4.241278, 8.252846, 0.3371668, 0.3835647, 9.53735
778422113832573, 2.440679, 5.709275, 8.567501, -0.4543686, -0.39420462, 10.563757
778422123471948, 2.254039, 4.1144586, 8.212168, 0.3987546, 0.45275426, 9.438496
778422133111323, 2.353341, 5.633901, 8.474181, -0.40811443, -0.4166119, 10.42836
778422142750802, 2.239682, 4.2927237, 8.216953, 0.3083744, 0.31444895, 9.5272255
778422152390177, 2.2289143, 5.218746, 8.40479, -0.1255827, -0.25587058, 10.137191
778422162029552, 2.2552354, 4.76411, 8.362915, 0.10057306, 0.050704956, 9.88476
778422171669031, 2.2002003, 4.679165, 8.289934, 0.14696789, 0.055003643, 9.769026
778422181308406, 2.3904297, 5.2977095, 8.423932, -0.26473665, -0.17998993, 10.229372
778422190947781, 2.2061825, 4.2508492, 8.243274, 0.36882544, 0.32767618, 9.520773
778422200587260, 2.4071796, 5.669793, 8.647661, -0.37699175, -0.37077665, 10.603937
778422210226635, 2.2085752, 4.115655, 8.376076, 0.50358105, 0.4376334, 9.567129
778422219866010, 2.37368, 5.65424, 8.650054, -0.33897686, -0.39448345, 10.590454
778422229505489, 2.2360928, 4.2795634, 8.347362, 0.3741517, 0.34473097, 9.629871
778422239144864, 2.2588246, 5.3216376, 8.458628, -0.1726265, -0.29509783, 10.239805
778422248784239, 2.2731814, 4.738985, 8.306684, 0.07232952, 0.07425356, 9.829321
778422258423719, 2.1858435, 4.733003, 8.212168, 0.08382416, -0.0033198595, 9.726865
778422268063094, 2.3569303, 5.231907, 8.297112, -0.26816702, -0.1897707, 10.082764
778422277702469, 2.1882362, 4.253242, 8.09133, 0.29888535, 0.2920364, 9.390072
778422287341948, 2.4155545, 5.588437, 8.459825, -0.42989874, -0.35715604, 10.407775
778422296981323, 2.2025933, 4.0474596, 8.215756, 0.47028685, 0.44799113, 9.397348
778422306620698, 2.3545375, 5.651847, 8.599805, -0.3498292, -0.41566503, 10.542709
778422316260177, 2.2289143, 4.23051, 8.356933, 0.42952538, 0.36186326, 9.611877
778422325899552, 2.3186452, 5.35753, 8.565108, -0.18300581, -0.2744485, 10.360093
778422335538927, 2.359323, 4.7222357, 8.427522, 0.08971691, 0.14472401, 9.94284
778422345178302, 2.3222344, 4.8993044, 8.353344, -0.024343967, -0.0073218346, 9.958597
778422354817781, 2.4765713, 5.2809596, 8.403593, -0.3167963, -0.13924491, 10.223629
778422364457156, 2.2959132, 4.3357944, 8.220542, 0.24362278, 0.32237244, 9.564747
778422374096531, 2.4670002, 5.6147585, 8.548359, -0.41649437, -0.3378055, 10.507069
778422383736010, 2.251646, 4.1036906, 8.248059, 0.42747498, 0.44134903, 9.46378
778422393375385, 2.42034, 5.682954, 8.553144, -0.42434788, -0.40821898, 10.533925
778422403014760, 2.2947168, 4.2161536, 8.244471, 0.34065247, 0.40389454, 9.525429
778422412654239, 2.3485553, 5.4388857, 8.476574, -0.2831955, -0.32204878, 10.332745
778422422293614, 2.3545375, 4.664808, 8.360522, 0.107163906, 0.17207348, 9.857056
778422431932989, 2.2755744, 4.9136615, 8.336594, -0.0026125908, -0.05276549, 9.94074
778422441572469, 2.396412, 5.1792645, 8.347362, -0.22685385, -0.13456357, 10.108236
778422451211844, 2.2277179, 4.3848476, 8.140383, 0.23633194, 0.22946787, 9.5051
778422460851219, 2.4155545, 5.575277, 8.422736, -0.42231226, -0.36117435, 10.370743
778422470490594, 2.181058, 4.0701914, 8.163115, 0.4487598, 0.40904987, 9.359018
778422480130073, 2.3629124, 5.6506505, 8.482556, -0.40052986, -0.45128262, 10.445234
778422489769448, 2.210968, 4.132405, 8.2014, 0.41691017, 0.39915955, 9.428412
778422499408823, 2.3054845, 5.4293146, 8.484949, -0.23774672, -0.35028028, 10.325109
778422509048302, 2.3138595, 4.5655055, 8.400003, 0.19659615, 0.21736026, 9.83219
778422518687677, 2.2767708, 4.95075, 8.476574, 0.045315266, -0.054190636, 10.076752
778422528327052, 2.3557339, 5.1062837, 8.500503, -0.0827837, -0.093991876, 10.19149
778422537966531, 2.2002003, 4.429115, 8.286345, 0.29425955, 0.1993419, 9.643397
778422547605906, 2.4191437, 5.538188, 8.534002, -0.35027504, -0.32316017, 10.446332
778422557245281, 2.2085752, 4.0977087, 8.252846, 0.4680996, 0.4225862, 9.454142
778422566884656, 2.400001, 5.7140603, 8.585447, -0.40764046, -0.43982482, 10.571697
778422576524135, 2.2612174, 4.152744, 8.250452, 0.39498115, 0.4179095, 9.4919815
778422586163510, 2.3605196, 5.5022955, 8.504091, -0.30278444, -0.34455895, 10.390212
778422595802885, 2.3306093, 4.526024, 8.331808, 0.18301058, 0.23342502, 9.759493
778422605442364, 2.3234308, 5.0368915, 8.368897, -0.08723545, -0.097340345, 10.039421
778422615081739, 2.4382863, 5.0715876, 8.335398, -0.1964159, -0.041689396, 10.055086
778422624721114, 2.2624137, 4.4518466, 8.175078, 0.18737245, 0.21063673, 9.575483
778422634360489, 2.4454648, 5.4723854, 8.433503, -0.37153292, -0.28554523, 10.335943
778422643999969, 2.219343, 4.092923, 8.159525, 0.40691566, 0.4167781, 9.376358
778422653639344, 2.4023938, 5.6889358, 8.496913, -0.4292202, -0.4472716, 10.485643
778422663278719, 2.288735, 4.1467614, 8.218149, 0.3610804, 0.4376732, 9.468367
778422672918198, 2.4179473, 5.5980086, 8.550752, -0.35841846, -0.3713162, 10.489672
778422682557573, 2.3665016, 4.5332026, 8.435896, 0.2049222, 0.27279973, 9.858913
778422692196948, 2.3186452, 5.1050873, 8.539984, -0.028402805, -0.12196159, 10.215364
778422701836323, 2.3557339, 4.989035, 8.488539, -0.0140480995, -0.022696614, 10.12396
778422711475802, 2.2169502, 4.5224347, 8.249256, 0.21595335, 0.1480025, 9.661726
778422721115177, 2.382055, 5.426922, 8.426325, -0.30305624, -0.3086542, 10.2927885
778422730754552, 2.178665, 4.0881376, 8.145168, 0.4316001, 0.39892817, 9.351887
778422740393927, 2.3700907, 5.651847, 8.484949, -0.3913288, -0.4601246, 10.449411
778422750033406, 2.2528424, 4.0977087, 8.181061, 0.39844036, 0.4486438, 9.404055
778422759672781, 2.4442682, 5.581259, 8.504091, -0.3955574, -0.3566079, 10.448006
778422769312156, 2.3832514, 4.4482574, 8.346166, 0.20050478, 0.32539535, 9.745731
778422778951635, 2.359323, 5.2079782, 8.510074, -0.122581005, -0.16338241, 10.250322
778422788591010, 2.4095724, 4.983053, 8.517252, -0.028962135, 0.017118216, 10.157722
778422798230385, 2.2528424, 4.599005, 8.365308, 0.21836472, 0.12951648, 9.805104
778422807869760, 2.408376, 5.4352965, 8.52443, -0.27689552, -0.27785754, 10.385314
778422817509239, 2.2348964, 4.191029, 8.199007, 0.38212228, 0.36240458, 9.4607525
778422827148614, 2.408376, 5.6997037, 8.447861, -0.47039366, -0.45010793, 10.451286
778422836787989, 2.239682, 4.095316, 8.076973, 0.37175798, 0.41327524, 9.312158
778422846427364, 2.3581266, 5.5836515, 8.352147, -0.42861938, -0.42712843, 10.301949
778422856066844, 2.2755744, 4.375276, 8.189436, 0.246521, 0.27464056, 9.552589
778422865706219, 2.28036, 5.1732826, 8.410771, -0.10884428, -0.20847929, 10.131567
778422875345594, 2.3102703, 4.8299127, 8.443074, 0.08935642, 0.044278502, 9.997047
778422884985073, 2.2384856, 4.5930233, 8.390432, 0.2467637, 0.12899852, 9.819801
778422894624448, 2.3904297, 5.3336015, 8.568698, -0.19065237, -0.20248938, 10.368545
778422904263823, 2.1906292, 4.197011, 8.336594, 0.47440457, 0.3424399, 9.569233
778422913903198, 2.4119651, 5.7020965, 8.670393, -0.3636217, -0.4087484, 10.639921
778422923542677, 2.2576282, 4.126423, 8.3377905, 0.47347546, 0.43264008, 9.551525
778422933182052, 2.4107687, 5.6793647, 8.596215, -0.38652706, -0.4097023, 10.566204
778422942821427, 2.3425734, 4.3764725, 8.3174515, 0.267344, 0.33897424, 9.676508
778422952460802, 2.353341, 5.2833524, 8.435896, -0.20578384, -0.22050464, 10.223766
778422962100281, 2.3856442, 4.8562336, 8.334201, -0.028474808, 0.06570494, 9.936199
778422971739656, 2.2301106, 4.709075, 8.228917, 0.10220003, 0.028519154, 9.739229
778422981379031, 2.359323, 5.2929235, 8.359326, -0.25401402, -0.22572565, 10.16584
778422991018510, 2.1559331, 4.194618, 8.145168, 0.41478252, 0.29455733, 9.398289
778423000657885, 2.379662, 5.6267223, 8.449057, -0.41047668, -0.40333247, 10.410485
778423010297260, 2.1966112, 4.0438704, 8.114061, 0.45803, 0.4244008, 9.307314
778423019936635, 2.4107687, 5.631508, 8.4347, -0.4490676, -0.39134288, 10.407452
778423029576114, 2.3306093, 4.290331, 8.246863, 0.28459358, 0.3846239, 9.571861
778423039215489, 2.3712873, 5.3443694, 8.5112705, -0.21029377, -0.23382914, 10.321245
778423048854864, 2.4023938, 4.8287163, 8.514859, 0.06604767, 0.12840557, 10.078193
778423058494239, 2.2947168, 4.813163, 8.520842, 0.15249252, 0.05973351, 10.050383
778423068133719, 2.4622145, 5.343173, 8.6345005, -0.20163155, -0.1462121, 10.445314
778423077773094, 2.2779672, 4.358526, 8.35454, 0.3355012, 0.3128525, 9.683686
778423087412469, 2.4789643, 5.7020965, 8.556734, -0.45391464, -0.3796761, 10.56062
778423097051844, 2.2648067, 4.1276193, 8.181061, 0.394907, 0.43850935, 9.42062
778423106691323, 2.4047868, 5.6937213, 8.427522, -0.46859407, -0.44584382, 10.431023
778423116330698, 2.2588246, 4.243671, 8.16431, 0.32050228, 0.34965992, 9.462666
778423125970073, 2.2995026, 5.3312087, 8.402397, -0.19852543, -0.2886274, 10.207207
778423135609552, 2.2995026, 4.685147, 8.328219, 0.13278484, 0.1289202, 9.826662
778423145248927, 2.243271, 4.8454657, 8.348558, 0.0869298, -0.014485836, 9.909666
778423154888302, 2.4155545, 5.2749777, 8.444271, -0.21760607, -0.1580081, 10.241763
778423164527677, 2.260021, 4.375276, 8.19781, 0.26497507, 0.28611934, 9.555247
778423174167156, 2.4526432, 5.6781683, 8.469396, -0.44847822, -0.39375532, 10.470509
778423183806531, 2.2085752, 4.133601, 8.116454, 0.3818097, 0.412099, 9.355516
778423193445906, 2.329413, 5.6793647, 8.392825, -0.4082241, -0.500399, 10.378044
778423203085281, 2.1738794, 4.1671004, 8.130812, 0.39828873, 0.36513782, 9.375961
778423212724760, 2.2348964, 5.35753, 8.396415, -0.16055632, -0.3414755, 10.20075
778423222364135, 2.2839491, 4.615755, 8.347362, 0.18510962, 0.17402041, 9.8048725
778423232003510, 2.2528424, 4.910072, 8.414361, 0.07892752, -0.02998352, 9.998923
778423241642885, 2.4119651, 5.224728, 8.519645, -0.14916801, -0.11047745, 10.27936
778423251282364, 2.2707887, 4.415954, 8.334201, 0.29924965, 0.29096782, 9.69236
778423260921739, 2.449054, 5.6171513, 8.624929, -0.34412384, -0.32732928, 10.56949
778423270561114, 2.201397, 4.1204405, 8.298309, 0.4983306, 0.43057406, 9.500125
778423280200594, 2.3700907, 5.690132, 8.536395, -0.37308884, -0.44226944, 10.513334
778423289839969, 2.2408783, 4.1814575, 8.185846, 0.36931324, 0.39516366, 9.445722
778423299479344, 2.312663, 5.4664035, 8.439486, -0.26247406, -0.36415422, 10.307929
778423309118719, 2.3425734, 4.618148, 8.34138, 0.13627434, 0.208547, 9.814859
778423318758198, 2.3114667, 5.003392, 8.389236, -0.028244972, -0.05786395, 10.037527
778423328397573, 2.4442682, 5.198407, 8.419147, -0.2127676, -0.0836916, 10.189585
778423338036948, 2.2731814, 4.485346, 8.199007, 0.1980958, 0.21736002, 9.613684
778423347676427, 2.4562325, 5.6039906, 8.458628, -0.43654156, -0.32831204, 10.425343
778423357315802, 2.2145574, 4.1001015, 8.175078, 0.44808364, 0.41158056, 9.390251
778423366955177, 2.3916261, 5.680561, 8.496913, -0.42868948, -0.41084814, 10.480154
778423376594552, 2.268396, 4.141976, 8.172686, 0.39776897, 0.42843533, 9.420858
778423386234031, 2.3688943, 5.5130634, 8.458628, -0.32166147, -0.32725883, 10.360662
778423395873406, 2.32702, 4.5798626, 8.338987, 0.17864227, 0.21592796, 9.7903185
778423405512781, 2.2983062, 5.0919266, 8.405986, -0.06347132, -0.12730217, 10.092092
778423415152156, 2.396412, 5.13739, 8.420342, -0.14436626, -0.082048416, 10.149393
778423424791635, 2.2145574, 4.4889355, 8.249256, 0.25429583, 0.18342865, 9.644001
778423434431010, 2.382055, 5.505885, 8.493324, -0.30800056, -0.31758034, 10.388928
778423444070385, 2.1678972, 4.078566, 8.244471, 0.50909615, 0.41831172, 9.427174
778423453709864, 2.3557339, 5.629115, 8.553144, -0.3199768, -0.41186237, 10.493841
778423463349239, 2.2289143, 4.1024942, 8.222935, 0.45129156, 0.4321077, 9.435297
778423472988614, 2.416751, 5.5657053, 8.462217, -0.3912182, -0.34327972, 10.399808
778423482627989, 2.4023938, 4.5882373, 8.319844, 0.115029335, 0.2613957, 9.796004
778423492267469, 2.359323, 5.1696935, 8.451449, -0.12956524, -0.13010061, 10.182604
778423501906844, 2.4107687, 5.083552, 8.493324, -0.09024763, -0.029109359, 10.187339
778423511546219, 2.2564318, 4.557131, 8.360522, 0.24223757, 0.18067145, 9.780897
778423521185698, 2.4251258, 5.4999027, 8.584251, -0.29558134, -0.27387297, 10.471732
778423530825073, 2.2289143, 4.1467614, 8.275578, 0.45300245, 0.40657628, 9.5014925
778423540464448, 2.4430718, 5.706882, 8.559127, -0.42937613, -0.39871025, 10.557103
778423550103823, 2.2791636, 4.139583, 8.17149, 0.36553478, 0.4344313, 9.4224
778423559743302, 2.3581266, 5.578866, 8.4012, -0.38874817, -0.3959669, 10.341991
778423569382677, 2.2648067, 4.449454, 8.163115, 0.19974661, 0.23151839, 9.563992
778423579022052, 2.251646, 5.1409793, 8.26481, -0.14088345, -0.21392906, 9.987043
778423588661531, 2.3174486, 4.9663033, 8.279166, -0.075065136, -0.048496842, 9.92831
778423598300906, 2.1870399, 4.578666, 8.243274, 0.21494341, 0.10464263, 9.6768675
778423607940281, 2.37368, 5.38744, 8.52802, -0.22249699, -0.24492526, 10.357436
778423617579656, 2.193022, 4.1276193, 8.331808, 0.509815, 0.42129254, 9.530384
778423627219135, 2.4215364, 5.6745787, 8.679964, -0.33529854, -0.37003136, 10.637534
778423636858510, 2.2851455, 4.0977087, 8.364112, 0.47901583, 0.511655, 9.56453
778423646497885, 2.428715, 5.623133, 8.632108, -0.34419155, -0.3559848, 10.572908
778423656137364, 2.3401806, 4.449454, 8.419147, 0.2751751, 0.3240155, 9.796704
778423665776739, 2.3078775, 5.2570314, 8.536395, -0.112068176, -0.21045351, 10.284739
778423675416114, 2.3581266, 4.9543395, 8.422736, -0.028711319, 0.0038870573, 10.052258
778423685055594, 2.2277179, 4.6875396, 8.249256, 0.12049532, 0.05935943, 9.74515
778423694694969, 2.388037, 5.4317074, 8.364112, -0.35551643, -0.2818749, 10.244936
778423704334344, 2.210968, 4.2041893, 8.105687, 0.3448143, 0.33783603, 9.382576
778423713973719, 2.4323041, 5.6482577, 8.432307, -0.47821045, -0.3743577, 10.41892
778423723613198, 2.2241287, 4.0366917, 8.133204, 0.4350257, 0.46272123, 9.326698
778423733252573, 2.367698, 5.5776696, 8.438289, -0.38622952, -0.38842094, 10.374057
778423742891948, 2.2743778, 4.29392, 8.2253275, 0.29630184, 0.34911692, 9.542372
778423752531427, 2.2899313, 5.231907, 8.413164, -0.15236807, -0.22654378, 10.164814
778423762170802, 2.3557339, 4.8586264, 8.398808, 0.012665749, 0.06360638, 9.984564
778423771810177, 2.2815564, 4.7509494, 8.343773, 0.094246864, 0.07179034, 9.868207
778423781449656, 2.4538395, 5.4029937, 8.525627, -0.29473782, -0.2041682, 10.381302
778423791089031, 2.2456641, 4.298706, 8.344969, 0.36968184, 0.33929634, 9.63891
778423800728406, 2.4143581, 5.7020965, 8.717052, -0.34295273, -0.39371073, 10.679766
778423810367885, 2.210968, 4.0869412, 8.374879, 0.5343225, 0.4433118, 9.552383
778423820007260, 2.3389843, 5.6075797, 8.6141615, -0.322155, -0.39873517, 10.528854
778423829646635, 2.2337, 4.2711883, 8.309076, 0.38383007, 0.31902313, 9.59292
778423839286114, 2.271985, 5.291727, 8.453842, -0.17723036, -0.2697674, 10.223872
778423848925489, 2.3222344, 4.776074, 8.380861, 0.06505823, 0.08874214, 9.921209
778423858564864, 2.2588246, 4.7880383, 8.310273, 0.060887814, 0.021400452, 9.853125
778423868204344, 2.4131618, 5.3359947, 8.416754, -0.30357933, -0.19748211, 10.247283
778423877843719, 2.2384856, 4.3154554, 8.218149, 0.30000162, 0.2967242, 9.539072
778423887483094, 2.4346972, 5.6674004, 8.571091, -0.42467833, -0.37642145, 10.544607
778423897122573, 2.199004, 4.0797625, 8.274381, 0.4975245, 0.43918264, 9.460711
778423906761948, 2.3988047, 5.642276, 8.49452, -0.42835903, -0.39699507, 10.4597
778423916401323, 2.2863421, 4.243671, 8.158329, 0.28470087, 0.38032043, 9.464077
778423926040802, 2.3174486, 5.3419766, 8.333005, -0.28297997, -0.28757036, 10.157927
778423935680177, 2.32702, 4.7282176, 8.27797, 0.036373615, 0.10993552, 9.812361
778423945319552, 2.2588246, 4.851448, 8.30788, 0.032415867, -0.016063452, 9.882227
778423954959031, 2.4538395, 5.3072805, 8.420342, -0.2964425, -0.15002644, 10.245991
778423964598406, 2.3150558, 4.3800616, 8.230113, 0.22700787, 0.31886828, 9.598227
778423974237781, 2.507678, 5.7056856, 8.622537, -0.4448676, -0.35200226, 10.624012
778423983877156, 2.2827528, 4.135994, 8.301898, 0.42475414, 0.4781096, 9.530472
778423993516635, 2.4011974, 5.6709895, 8.599805, -0.35545683, -0.40664732, 10.563654
778424003156010, 2.2636101, 4.2281175, 8.239685, 0.3538878, 0.39382136, 9.519085
778424012795489, 2.3641088, 5.4388857, 8.370093, -0.32130575, -0.327178, 10.247862
778424022434864, 2.37368, 4.7210393, 8.244471, 0.007226944, 0.1369102, 9.791581
778424032074239, 2.2851455, 4.900501, 8.287541, -0.008967876, -0.035542727, 9.895393
778424041713719, 2.3868406, 5.2008, 8.422736, -0.17516756, -0.135813, 10.180308
778424051353094, 2.1858435, 4.3561335, 8.304291, 0.37026334, 0.25514865, 9.618361
778424060992469, 2.3868406, 5.5405807, 8.641679, -0.25607586, -0.31755674, 10.531251
778424070631948, 2.1571295, 4.0295134, 8.322237, 0.58146, 0.4464736, 9.466381
778424080271323, 2.3162522, 5.649454, 8.578269, -0.31615925, -0.45901084, 10.514628
778424089910698, 2.2265215, 4.168297, 8.242078, 0.41581535, 0.38665152, 9.483751
778424099550177, 2.349752, 5.447261, 8.435896, -0.29316902, -0.31560993, 10.304018
778424109189552, 2.3425734, 4.6468616, 8.323434, 0.109306335, 0.17348766, 9.814197
778424118828927, 2.2576282, 4.9698925, 8.386844, 0.013538361, -0.0842545, 10.006426
778424128468406, 2.3425734, 5.13739, 8.462217, -0.10217142, -0.12213862, 10.171736
778424138107781, 2.1535404, 4.3992043, 8.29472, 0.35339308, 0.19399726, 9.624478
778424147747156, 2.379662, 5.5250273, 8.603394, -0.27824354, -0.32132256, 10.489349
778424157386635, 2.1954148, 4.0570307, 8.309076, 0.5309088, 0.44141042, 9.478575
778424167026010, 2.3748765, 5.65424, 8.597412, -0.36658812, -0.4133209, 10.546127
778424176665385, 2.2504497, 4.133601, 8.203793, 0.39080095, 0.4277892, 9.440216
778424186304864, 2.3904297, 5.483153, 8.435896, -0.35455418, -0.32612622, 10.33012
778424195944239, 2.4023938, 4.595416, 8.318648, 0.09106064, 0.25090957, 9.798879
778424205583719, 2.353341, 5.06082, 8.444271, -0.08148861, -0.06737447, 10.121495
778424215223094, 2.449054, 5.150551, 8.526823, -0.15439653, -0.046408534, 10.257034
778424224862469, 2.2815564, 4.510471, 8.379665, 0.24460697, 0.2241267, 9.78052
778424234501948, 2.481357, 5.5872407, 8.624929, -0.37247896, -0.29261267, 10.561223
778424244141323, 2.2576282, 4.17069, 8.309076, 0.42008305, 0.4213854, 9.548731
778424253780698, 2.4825535, 5.736792, 8.529217, -0.51478815, -0.39368165, 10.554687
778424263420177, 2.292324, 4.162315, 8.115258, 0.3036263, 0.40854275, 9.390311
778424273059552, 2.3844478, 5.5513487, 8.303095, -0.46398973, -0.3836726, 10.250949
778424282699031, 2.3461626, 4.526024, 8.143971, 0.07334614, 0.22491634, 9.605085
778424292338406, 2.2959132, 5.0644093, 8.279166, -0.12807274, -0.13156259, 9.971476
778424301977781, 2.3724837, 5.0309095, 8.353344, -0.12017679, -0.04496932, 10.034969
778424311617260, 2.2229323, 4.5391846, 8.2660055, 0.21620798, 0.1476878, 9.685242
778424321256635, 2.4059832, 5.49751, 8.577073, -0.29544878, -0.28419518, 10.4599
778424330896010, 2.1942184, 4.125226, 8.367701, 0.5223274, 0.40820312, 9.560913
778424340535489, 2.3832514, 5.669793, 8.713464, -0.32316685, -0.39751792, 10.653096
778424350174864, 2.201397, 4.091727, 8.356933, 0.532531, 0.43410635, 9.537016
778424359814344, 2.3258235, 5.5202417, 8.5938225, -0.26810312, -0.36208177, 10.4658165
778424369453719, 2.2755744, 4.4171505, 8.409575, 0.31600523, 0.279698, 9.758705
778424379093094, 2.2588246, 5.1254263, 8.537591, -0.02062273, -0.16114914, 10.20962
778424388732573, 2.341377, 4.981857, 8.520842, 0.0018610954, -0.012421489, 10.1442375
778424398371948, 2.2002003, 4.5487556, 8.3581295, 0.26195812, 0.13170755, 9.762399
778424408011427, 2.376073, 5.4436717, 8.507681, -0.3040018, -0.2778927, 10.367752
778424417650802, 2.1954148, 4.156333, 8.188239, 0.40619254, 0.34982514, 9.426285
778424427290177, 2.3844478, 5.663811, 8.482556, -0.44937754, -0.41246545, 10.456866
778424436929656, 2.213361, 4.0474596, 8.130812, 0.43319392, 0.43660712, 9.32806
778424446569031, 2.333002, 5.5334024, 8.396415, -0.39321995, -0.3834039, 10.308229
778424456208510, 2.2552354, 4.3561335, 8.230113, 0.27483702, 0.2857275, 9.572857
778424465847885, 2.2468605, 5.176872, 8.40479, -0.11279154, -0.21806061, 10.120703
778424475487260, 2.3365912, 4.8155556, 8.3784685, 0.026985645, 0.072381854, 9.941933
778424485126739, 2.3389843, 4.9926243, 8.364112, -0.08848572, -0.04406023, 10.017272
778424494766114, 2.3449662, 4.892126, 8.40479, -0.012322426, 0.032106757, 10.003553
778424504405594, 2.3425734, 4.9435716, 8.429914, -0.028879642, -9.88245E-5, 10.0493355
778424514044969, 2.3569303, 4.8909297, 8.451449, 0.0053606033, 0.046078563, 10.044958
778424523684344, 2.3461626, 4.9196434, 8.483752, 0.010146618, 0.022749782, 10.083691
778424533323823, 2.3365912, 4.889733, 8.514859, 0.050142765, 0.039126992, 10.092965
778424542963198, 2.3030918, 4.9136615, 8.536395, 0.0663476, -5.298853E-4, 10.115035
778424552602677, 2.2947168, 4.8993044, 8.537591, 0.07919693, 0.0016429424, 10.107081
778424562242052, 2.2875385, 4.8825545, 8.471788, 0.05753851, -0.0029877424, 10.041915
778424571881427, 2.2971098, 4.8885365, 8.403593, 0.009531021, -0.005802989, 9.989734
778424581520906, 2.2995026, 4.894519, 8.331808, -0.032311916, -0.016545534, 9.932861
778424591160281, 2.2767708, 4.8909297, 8.299505, -0.033587933, -0.036520958, 9.898697
778424600799760, 2.2959132, 4.875376, 8.288737, -0.03707552, -0.011520624, 9.886465
778424610439135, 2.2875385, 4.889733, 8.313862, -0.02654028, -0.023206472, 9.912688
778424620078614, 2.2935205, 4.90409, 8.356933, -0.016491413, -0.021135926, 9.957306
778424629717989, 2.3078775, 4.8861437, 8.396415, 0.007514477, 0.0051409006, 9.985007
778424639357364, 2.3054845, 4.8933225, 8.438289, 0.026345253, 0.0047904253, 10.023166
778424648996844, 2.3150558, 4.8969116, 8.4347, 0.015116215, 0.008719325, 10.024127
778424658636219, 2.359323, 4.9136615, 8.413164, -0.03511572, 0.028888464, 10.024458
778424668275698, 2.382055, 4.914858, 8.398808, -0.057324886, 0.042857766, 10.018227
778424677915073, 2.376073, 4.942375, 8.40479, -0.063538074, 0.020890236, 10.035379
778424687554552, 2.3461626, 4.930411, 8.408379, -0.03651142, 0.0057234764, 10.025612
778424697193927, 2.312663, 4.92084, 8.425129, 0.0033073425, -0.011381984, 10.027248
778424706833302, 2.2911277, 4.9172506, 8.408379, 0.010500908, -0.02716291, 10.006429
778424716472781, 2.3042881, 4.898108, 8.376076, -0.003399372, -0.009126306, 9.972951
778424726112156, 2.3030918, 4.914858, 8.352147, -0.025270939, -0.02420199, 9.960783
778424735751635, 2.3198416, 4.9052863, 8.372486, -0.01974392, -0.0021134615, 9.977056
778424745391010, 2.3509483, 4.8969116, 8.368897, -0.03476, 0.026837587, 9.977135
778424755030489, 2.3437698, 4.90409, 8.396415, -0.020040035, 0.019661069, 10.002117
778424764669864, 2.3246272, 4.9112687, 8.397611, -0.0125927925, 5.195141E-4, 10.002208
778424774309239, 2.3054845, 4.892126, 8.402397, 0.014080524, -5.159378E-4, 9.992411
778424783948719, 2.268396, 4.88734, 8.38804, 0.031411648, -0.02835989, 9.969412
778424793588094, 2.2348964, 4.871787, 8.38804, 0.06130314, -0.043396115, 9.954025
778424803227573, 2.231307, 4.863412, 8.353344, 0.049312115, -0.044719458, 9.9199505
778424812866948, 2.2444677, 4.8562336, 8.325827, 0.03160715, -0.034224987, 9.896356
778424822506427, 2.2971098, 4.8765726, 8.32463, -0.012804031, -0.007449627, 9.917506
778424832145802, 2.3258235, 4.87418, 8.395218, 0.0076622963, 0.027161121, 9.982284
778424841785281, 2.3222344, 4.875376, 8.465807, 0.04907322, 0.030525923, 10.041346
778424851424656, 2.306681, 4.8526444, 8.508878, 0.09520483, 0.038504004, 10.062771
778424861064135, 2.292324, 4.87418, 8.5112705, 0.09231186, 0.011196852, 10.072014
778424870703510, 2.3138595, 4.930411, 8.444271, 0.008578777, -0.017825007, 10.048293
778424880342989, 2.353341, 4.9543395, 8.408379, -0.049177647, -0.008307099, 10.039026
778424889982364, 2.3868406, 4.974678, 8.405986, -0.07997942, 0.003583312, 10.054782
778424899621739, 2.4131618, 4.975875, 8.451449, -0.0689168, 0.027679205, 10.099711
778424909261219, 2.4394827, 4.9603214, 8.472985, -0.06032324, 0.06087029, 10.116323
778424918900594, 2.4047868, 4.9531426, 8.443074, -0.049047947, 0.03418696, 10.079611
778424928540073, 2.3712873, 4.944768, 8.395218, -0.047742367, 0.0076628923, 10.027516
778424938179448, 2.3222344, 4.8969116, 8.335398, -0.019188404, -0.0060858727, 9.942382
778424947818927, 2.292324, 4.8825545, 8.275578, -0.023020744, -0.029174685, 9.878153
778424957458302, 2.2695923, 4.8861437, 8.232507, -0.033118725, -0.052422166, 9.838484
778424967097781, 2.2959132, 4.8765726, 8.230113, -0.04390955, -0.024744272, 9.837908
778424976737156, 2.2995026, 4.875376, 8.237292, -0.039040565, -0.019759893, 9.844191
778424986376635, 2.2935205, 4.863412, 8.297112, 0.0026359558, -0.0066782236, 9.887115
778424996016010, 2.3150558, 4.8658047, 8.356933, 0.019217968, 0.016299844, 9.943501
778425005655489, 2.3138595, 4.9028935, 8.421539, 0.027795792, -0.002295494, 10.015681
778425015294864, 2.3102703, 4.922036, 8.484949, 0.049799442, -0.009691715, 10.077479
778425024934344, 2.2935205, 4.88734, 8.549556, 0.11449957, 0.009387016, 10.110788
778425034573719, 2.2612174, 4.8861437, 8.602198, 0.16123104, -0.005750537, 10.146885
778425044213094, 2.2181466, 4.877769, 8.609376, 0.19371796, -0.033031583, 10.138813
778425053852573, 2.2468605, 4.875376, 8.536395, 0.13983297, -0.020895243, 10.083041
778425063491948, 2.2636101, 4.8825545, 8.445468, 0.07577133, -0.0222584, 10.014139
778425073131427, 2.2648067, 4.8885365, 8.342576, 0.018064022, -0.042105675, 9.930943
778425082770802, 2.2791636, 4.889733, 8.280363, -0.021755695, -0.036491632, 9.882645
778425092410281, 2.3054845, 4.895715, 8.262417, -0.050727844, -0.023352861, 9.876624
778425102049656, 2.3258235, 4.8885365, 8.267202, -0.053761005, -6.695986E-4, 9.881853
778425111689135, 2.347359, 4.9172506, 8.285149, -0.07476807, 2.8145313E-4, 9.916025
778425121328510, 2.3772693, 4.92084, 8.3174515, -0.07722378, 0.025826693, 9.951856
778425130967989, 2.3641088, 4.935197, 8.353344, -0.057237625, 0.008559942, 9.986002
778425140607364, 2.349752, 4.941179, 8.390432, -0.031031609, -0.0010591745, 10.016734
778425150246844, 2.3485553, 4.948357, 8.426325, -0.015954018, -5.931854E-4, 10.050106
778425159886219, 2.3581266, 4.9471607, 8.41795, -0.021983624, 0.0063608885, 10.044726
778425169525698, 2.3724837, 4.9471607, 8.372486, -0.052700996, 0.010350108, 10.009932
778425179165073, 2.3952155, 4.9579287, 8.362915, -0.07823086, 0.018312931, 10.012493
778425188804552, 2.359323, 4.9603214, 8.380861, -0.04327345, -0.008893728, 10.020384
778425198443927, 2.3808584, 4.9543395, 8.449057, -0.018257618, 0.023047566, 10.079666
778425208083406, 2.3952155, 4.955536, 8.518449, 0.012378693, 0.042339563, 10.141815
778425217722781, 2.4035904, 4.942375, 8.541181, 0.030359745, 0.058744073, 10.1563635
778425227362260, 2.382055, 4.9639106, 8.49811, 0.009700298, 0.022562146, 10.125801
778425237001635, 2.3282163, 4.9232326, 8.370093, 0.0034103394, -0.007542014, 9.985849
778425246641114, 2.2995026, 4.8885365, 8.285149, -0.00262928, -0.020985723, 9.890841
778425256280489, 2.2731814, 4.88734, 8.23131, -0.012680054, -0.04475236, 9.838991
778425265919969, 2.2743778, 4.894519, 8.226524, -0.016269207, -0.045457363, 9.838825
778425275559344, 2.28036, 4.894519, 8.248059, -0.007618904, -0.03755045, 9.858264
778425285198823, 2.321038, 4.914858, 8.27797, -0.028368473, -0.014744997, 9.90287
778425294838198, 2.3605196, 4.9459643, 8.303095, -0.057259083, -6.108284E-4, 9.9485035
778425304477677, 2.3545375, 4.968696, 8.315059, -0.06137085, -0.017493606, 9.968347
778425314117052, 2.3377876, 4.928018, 8.334201, -0.013661385, -0.0027906895, 9.960388
778425323756531, 2.3078775, 4.8969116, 8.365308, 0.040676594, -0.0027440786, 9.964072
778425333395906, 2.2755744, 4.8825545, 8.362915, 0.06691027, -0.019763112, 9.947413
778425343035385, 2.271985, 4.877769, 8.350951, 0.065796375, -0.020436049, 9.934194
778425352674760, 2.3030918, 4.889733, 8.3377905, 0.030154705, -0.005547166, 9.936374
778425362314239, 2.3353949, 4.9268217, 8.327023, -0.017252922, -0.0044902563, 9.953222
778425371953719, 2.3485553, 4.962714, 8.392825, -0.014383793, -0.011726022, 10.029128
778425381593094, 2.367698, 4.9639106, 8.471788, 0.0149354935, 0.011252999, 10.100358
778425391232469, 2.3353949, 4.968696, 8.472985, 0.031407356, -0.01642704, 10.096149
778425400871948, 2.3509483, 4.959125, 8.427522, 0.0031700134, -0.0050774813, 10.056987
778425410511323, 2.3665016, 4.9579287, 8.383254, -0.027562618, 0.0028704405, 10.022951
778425420150802, 2.3928227, 4.9363933, 8.3174515, -0.06151533, 0.029071689, 9.963382
778425429790177, 2.3916261, 4.9232326, 8.287541, -0.06835365, 0.03213203, 9.931553
778425439429656, 2.3952155, 4.932804, 8.297112, -0.067689896, 0.030442357, 9.945158
778425449069135, 2.3952155, 4.9399824, 8.356933, -0.038401127, 0.03243816, 9.998814
