timestamp_acc,device_acc_x,device_acc_y,device_acc_z,earth_acc_x,earth_acc_y,earth_acc_z
778290242337357, 0.95832545, 5.180461, 8.411968, -0.026924849, -0.016783476, 9.925512
778290251976732, 0.94636136, 5.1756754, 8.422736, -0.010924816, -0.016279697, 9.931029
778290261616107, 0.9236295, 5.180461, 8.445468, 0.013890505, -0.02382803, 9.95065
778290271255482, 0.9200403, 5.1876397, 8.4502535, 0.015033245, -0.028461456, 9.958105
778290280894857, 0.9415757, 5.194818, 8.439486, -0.009405613, -0.025423527, 9.9547415
778290290534336, 0.9415757, 5.188836, 8.4347, -0.008889914, -0.02220869, 9.947572
778290300173711, 0.9343972, 5.1816573, 8.432307, -6.608963E-4, -0.021567106, 9.941126
778290309813086, 0.95353985, 5.180461, 8.43111, -0.016199827, -0.009821415, 9.941311
778290319452461, 0.9379865, 5.2031927, 8.446664, -0.00942564, -0.029287815, 9.9648485
778290329091836, 0.9320044, 5.1924253, 8.459825, 0.0045018196, -0.019860268, 9.969861
778290338731211, 0.9176475, 5.1924253, 8.482556, 0.024528027, -0.019676924, 9.9878
778290348370586, 0.930808, 5.1613183, 8.49811, 0.032642126, 0.015776157, 9.986099
778290358009961, 0.94755775, 5.15414, 8.502895, 0.023953915, 0.032473803, 9.988026
778290367649336, 0.98943216, 5.1361938, 8.493324, -0.005830765, 0.064219475, 9.974561
778290377288711, 0.97866446, 5.131408, 8.487342, 0.002592802, 0.059263945, 9.965973
778290386928086, 0.9607183, 5.1409793, 8.451449, 8.34465E-5, 0.02779913, 9.938757
778290396567461, 0.94396853, 5.150551, 8.458628, 0.012395382, 0.01400876, 9.948232
778290406206836, 0.9236295, 5.1720862, 8.463413, 0.020798683, -0.011276245, 9.961545
778290415846211, 0.9164511, 5.2127643, 8.476574, 0.012959003, -0.039506912, 9.993166
778290425485586, 0.91525465, 5.206782, 8.477771, 0.017487288, -0.034733534, 9.990963
778290435124961, 0.9128618, 5.2019963, 8.46102, 0.015490532, -0.03889942, 9.974026
778290444764336, 0.930808, 5.18405, 8.435896, 6.3610077E-4, -0.023849249, 9.945076
778290454403711, 0.95832545, 5.2055855, 8.411968, -0.040247202, -0.030697346, 9.938569
778290464043190, 0.9726824, 5.180461, 8.4012, -0.04374671, -0.007255316, 9.917736
778290473682565, 0.9882358, 5.1852465, 8.384451, -0.06385732, -0.007396698, 9.907486
778290483321940, 0.96909314, 5.1493545, 8.398808, -0.025845766, 0.013145685, 9.899199
778290492961315, 0.991825, 5.150551, 8.443074, -0.026878834, 0.040591717, 9.939569
778290502600690, 0.9942178, 5.1696935, 8.467003, -0.028695107, 0.035453558, 9.970069
778290512240065, 0.9595219, 5.180461, 8.49811, 0.0056996346, 0.018645048, 9.998769
778290521879440, 0.92602235, 5.2019963, 8.534002, 0.03510356, -0.0049011707, 10.037242
778290531518815, 0.90807617, 5.198407, 8.514859, 0.043961763, -0.019845247, 10.017413
778290541158190, 0.9296116, 5.2079782, 8.4682, 0.0036616325, -0.030161142, 9.984824
778290550797565, 0.9284152, 5.1673007, 8.443074, 0.013866663, -0.008368969, 9.942243
778290560436940, 0.95353985, 5.1649075, 8.43111, -0.009528875, 0.0039303303, 9.933228
778290570076315, 0.9810573, 5.156533, 8.414361, -0.03237629, 0.020141363, 9.917274
778290579715690, 1.0013963, 5.1673007, 8.408379, -0.055953503, 0.022241354, 9.919729
778290589355065, 0.9822537, 5.1960144, 8.4347, -0.04229045, -3.938675E-4, 9.955187
778290598994440, 0.95712906, 5.209175, 8.447861, -0.02334404, -0.019528389, 9.970809
778290608633815, 0.9212367, 5.2055855, 8.433503, 0.0012362003, -0.043687105, 9.953336
778290618273190, 0.8853444, 5.1816573, 8.441878, 0.04401827, -0.043875694, 9.944589
778290627912565, 0.91525465, 5.1792645, 8.444271, 0.022409678, -0.023258686, 9.948223
778290637552044, 0.9343972, 5.168497, 8.428718, 0.005366802, -0.01022172, 9.931244
778290647191419, 0.93320084, 5.1529436, 8.445468, 0.019549608, 0.0060818195, 9.937263
778290656830794, 0.92602235, 5.1649075, 8.449057, 0.0211308, -0.0053794384, 9.945847
778290666470169, 0.9320044, 5.188836, 8.457432, 0.0068912506, -0.017085552, 9.965965
778290676109544, 0.93320084, 5.1816573, 8.474181, 0.015268564, -0.0054450035, 9.976567
778290685748919, 0.96550393, 5.18405, 8.49452, -0.004334688, 0.018798351, 9.998154
778290695388294, 0.96789676, 5.1816573, 8.506484, -5.1259995E-5, 0.025559664, 10.007298
778290705027669, 0.99661064, 5.1625147, 8.488539, -0.020374775, 0.049736977, 9.98485
778290714667044, 1.0253245, 5.1661043, 8.438289, -0.06294966, 0.04586196, 9.946787
778290724306419, 1.0193424, 5.174479, 8.395218, -0.077429056, 0.021039963, 9.914008
778290733945794, 0.997807, 5.174479, 8.385647, -0.061659575, 0.006039381, 9.903843
778290743585169, 0.9343972, 5.1756754, 8.4012, -0.0060920715, -0.027739525, 9.911613
778290753224544, 0.9020941, 5.17089, 8.435896, 0.03534341, -0.030731678, 9.9354925
778290762863919, 0.8877372, 5.1756754, 8.465807, 0.054833412, -0.03232789, 9.962005
778290772503294, 0.8889336, 5.174479, 8.493324, 0.06394935, -0.02076292, 9.984862
778290782142669, 0.8913264, 5.1828537, 8.489735, 0.05703187, -0.025913715, 9.986395
778290791782044, 0.9200403, 5.188836, 8.462217, 0.019551992, -0.023063421, 9.968887
778290801421419, 0.9559326, 5.178068, 8.426325, -0.017681122, -0.0076978207, 9.936236
778290811060794, 0.9738788, 5.1792645, 8.397611, -0.043218374, -0.008412838, 9.91419
778290820700169, 0.99900347, 5.180461, 8.379665, -0.07002425, -0.002349615, 9.901974
778290830339648, 0.9798609, 5.174479, 8.415557, -0.038582325, 0.004454136, 9.927509
778290839979023, 0.9487542, 5.1852465, 8.4502535, -0.0048861504, -0.008548737, 9.9595995
778290849618398, 0.94636136, 5.18405, 8.472985, 0.005473137, -0.0010585785, 9.978046
778290859257773, 0.96789676, 5.1326046, 8.4705925, 0.008747339, 0.046387434, 9.951341
778290868897148, 0.99302137, 5.13739, 8.445468, -0.02328229, 0.046210766, 9.934895
778290878536523, 0.9798609, 5.1696935, 8.4909315, -0.010344982, 0.03256631, 9.989025
778290888175898, 0.95712906, 5.1876397, 8.510074, 0.007572651, 0.01206255, 10.012435
778290897815273, 0.93559366, 5.188836, 8.482556, 0.0147714615, -0.011502981, 9.987631
778290907454648, 0.9200403, 5.1876397, 8.46102, 0.020677805, -0.026685, 9.967237
778290917094023, 0.9415757, 5.2570314, 8.482556, -0.02041626, -0.055078506, 10.023634
778290926733398, 0.910469, 5.231907, 8.43111, -0.0027239323, -0.074258566, 9.96393
778290936372773, 0.951147, 5.1924253, 8.34138, -0.05043602, -0.052980423, 9.871132
778290946012148, 0.971486, 5.1696935, 8.349754, -0.05108857, -0.018618107, 9.868382
778290955651523, 1.0037891, 5.1649075, 8.416754, -0.050608873, 0.028779507, 9.925836
778290965290898, 1.0025927, 5.168497, 8.398808, -0.056951284, 0.018981457, 9.912363
778290974930273, 0.95473623, 5.180461, 8.40479, -0.02117467, -0.015148401, 9.919098
778290984569648, 0.89371926, 5.1625147, 8.463413, 0.057690382, -0.015111208, 9.953697
778290994209023, 0.86979103, 5.178068, 8.4909315, 0.08009577, -0.030175447, 9.9828615
778291003848398, 0.90807617, 5.1960144, 8.505288, 0.04351139, -0.017107964, 10.008042
778291013487773, 0.94396853, 5.2019963, 8.49452, 0.007576704, -0.004699707, 10.00543
778291023127148, 0.98584294, 5.1732826, 8.463413, -0.024155378, 0.028971672, 9.968084
778291032766523, 1.0133604, 5.1792645, 8.398808, -0.073052645, 0.017020702, 9.918974
778291042405898, 1.0073783, 5.18405, 8.394022, -0.07004428, 0.008133173, 9.916845
778291052045273, 0.9834501, 5.1553364, 8.405986, -0.03179574, 0.019158602, 9.909788
778291061684648, 0.94755775, 5.1553364, 8.438289, 0.009211779, 0.009083986, 9.933777
778291071324023, 0.92482597, 5.17089, 8.462217, 0.0289886, -0.0068559647, 9.960003
778291080963503, 0.89491564, 5.174479, 8.49452, 0.06267285, -0.01572299, 9.986431
778291090602878, 0.89491564, 5.1720862, 8.476574, 0.05642748, -0.019947767, 9.969959
778291100242253, 0.92602235, 5.1828537, 8.459825, 0.018664837, -0.014689684, 9.964315
778291109881628, 0.9631111, 5.1828537, 8.43111, -0.021780014, -0.0030150414, 9.943476
778291119521003, 0.9726824, 5.156533, 8.408379, -0.025478125, 0.013375759, 9.911404
778291129160378, 0.98584294, 5.1756754, 8.415557, -0.041826963, 0.010150671, 9.928707
778291138799753, 1.0205388, 5.188836, 8.421539, -0.07306862, 0.023478746, 9.943939
778291148439128, 0.96789676, 5.180461, 8.41795, -0.028183222, -0.0033931732, 9.9315195
778291158078503, 0.9236295, 5.178068, 8.4502535, 0.021505117, -0.016210794, 9.953468
778291167717878, 0.9164511, 5.18405, 8.471788, 0.032563686, -0.016556501, 9.974173
778291177357253, 0.9272188, 5.191229, 8.478967, 0.022476912, -0.013255596, 9.985029
778291186996628, 0.951147, 5.18405, 8.4502535, -0.0045809746, -0.0041487217, 9.959208
778291196636003, 0.9822537, 5.168497, 8.405986, -0.038425207, 0.0087533, 9.916514
778291206275378, 0.99900347, 5.1816573, 8.384451, -0.06597853, 9.06229E-4, 9.906679
778291215914753, 0.9870393, 5.191229, 8.413164, -0.04903245, -0.0022366047, 9.934889
778291225554128, 0.95473623, 5.1936216, 8.462217, -0.0050690174, -0.004580021, 9.974684
778291235193503, 0.9272188, 5.186443, 8.457432, 0.018600464, -0.017267227, 9.964258
778291244832878, 0.91884387, 5.204389, 8.459825, 0.01689148, -0.033927202, 9.974825
778291254472253, 0.9068798, 5.1649075, 8.472985, 0.04903841, -0.007418394, 9.964323
778291264111628, 0.93559366, 5.1673007, 8.477771, 0.025914907, 0.010748386, 9.97237
778291273751003, 0.91525465, 5.1122656, 8.482556, 0.06929803, 0.04044509, 9.945868
778291283390378, 1.0444671, 5.4783673, 8.465807, -0.20674849, -0.15678191, 10.134397
778291293029753, 0.8542377, 4.8418765, 8.40479, 0.21776676, 0.1744802, 9.733249
778291302669128, 1.0707881, 5.42094, 8.349754, -0.24235535, -0.13818741, 10.008682
778291312308503, 0.90329057, 5.2235317, 8.441878, 0.018936157, -0.05855632, 9.968086
778291321947878, 0.95832545, 4.9268217, 8.327023, 0.062782764, 0.14562607, 9.721426
778291331587253, 1.0576276, 5.660222, 8.502895, -0.2760868, -0.26883745, 10.261941
778291341226628, 0.86141616, 4.558327, 8.322237, 0.30403996, 0.36191845, 9.516123
778291350866003, 1.099502, 5.9066825, 8.537591, -0.40951228, -0.41710544, 10.4233675
778291360505378, 0.71425754, 4.4482574, 8.334201, 0.47364235, 0.35710812, 9.45538
778291370144753, 1.0492527, 5.7810597, 8.474181, -0.3412285, -0.37745786, 10.299243
778291379784128, 0.71425754, 4.6803613, 8.465807, 0.41572762, 0.23671174, 9.687981
778291389423503, 1.032503, 5.4484572, 8.519645, -0.15917301, -0.12067652, 10.163476
778291399062878, 0.8997013, 5.1816573, 8.567501, 0.07871199, 0.010469198, 10.052603
778291408702253, 0.9702896, 4.9531426, 8.4012, 0.06576085, 0.15605187, 9.799316
778291418341628, 1.0815558, 5.6171513, 8.53161, -0.27775288, -0.21300149, 10.265865
778291427981003, 0.90089774, 4.5391846, 8.329415, 0.28358245, 0.38622093, 9.516585
778291437620378, 1.1593226, 5.866005, 8.514859, -0.4545591, -0.34971905, 10.388837
778291447259753, 0.79800636, 4.4135613, 8.30788, 0.42306614, 0.4156108, 9.4226055
778291456899128, 1.1126626, 5.8277197, 8.465807, -0.40906572, -0.37238908, 10.322994
778291466538503, 0.74895346, 4.6731825, 8.398808, 0.38036013, 0.23015285, 9.630259
778291476177878, 1.0229317, 5.5190454, 8.43111, -0.21342802, -0.21080971, 10.124224
778291485817253, 0.83748794, 5.1385865, 8.486146, 0.12262964, -0.021746397, 9.955181
778291495456628, 0.94755775, 4.999803, 8.361719, 0.051570177, 0.09602976, 9.7878685
778291505095898, 1.0049855, 5.5908303, 8.504091, -0.2077272, -0.2509334, 10.221587
778291514735273, 0.86141616, 4.549952, 8.3377905, 0.3097067, 0.36497116, 9.525427
778291524374648, 1.154537, 5.851648, 8.548359, -0.4269123, -0.33470035, 10.409366
778291534014023, 0.81236327, 4.4231324, 8.353344, 0.4133234, 0.43053102, 9.468168
778291543653398, 1.1521441, 5.8480587, 8.493324, -0.43800998, -0.36002684, 10.360613
778291553292773, 0.7704889, 4.610969, 8.410771, 0.38220644, 0.29219484, 9.610635
778291562932148, 1.0492527, 5.538188, 8.475378, -0.23267245, -0.20221233, 10.173961
778291572571523, 0.84347, 5.0644093, 8.508878, 0.15861034, 0.039640665, 9.936498
778291582210898, 0.9774681, 5.0620165, 8.372486, 0.0040266514, 0.06807542, 9.832259
778291591850273, 1.0289137, 5.552545, 8.495717, -0.21053457, -0.21548891, 10.196855
778291601489648, 0.90448695, 4.5966125, 8.295917, 0.23824692, 0.344779, 9.518064
778291611129023, 1.1497513, 5.837291, 8.529217, -0.41369176, -0.3459525, 10.385212
778291620768398, 0.802792, 4.432704, 8.343773, 0.40605044, 0.42331982, 9.4640255
778291630407773, 1.1306087, 5.8672013, 8.5016985, -0.42405105, -0.39847255, 10.375095
778291640047148, 0.73340017, 4.6002016, 8.392825, 0.4073646, 0.2806816, 9.5861635
778291649686523, 1.052842, 5.6123657, 8.463413, -0.26426888, -0.26639366, 10.202729
778291659325898, 0.83030945, 5.038088, 8.499306, 0.1832211, 0.05536723, 9.91329
778291668965273, 1.0037891, 5.1122656, 8.362915, -0.044202566, 0.0398798, 9.8528
778291678604648, 1.0408778, 5.491528, 8.471788, -0.19495797, -0.18056393, 10.14598
778291688244023, 0.9499506, 4.6432724, 8.306684, 0.18040824, 0.33534884, 9.556065
778291697883398, 1.1497513, 5.818148, 8.538788, -0.39882135, -0.3327589, 10.383346
778291707522773, 0.79441714, 4.4207397, 8.336594, 0.42134285, 0.42883658, 9.450471
778291717162044, 1.0827522, 5.8624153, 8.518449, -0.36762, -0.4096439, 10.38274
778291726801419, 0.67836523, 4.5475593, 8.416754, 0.48433137, 0.29660535, 9.573904
778291736440794, 1.0109676, 5.6267223, 8.504091, -0.22525787, -0.2853284, 10.24058
778291746080169, 0.77766734, 4.9495535, 8.526823, 0.2687409, 0.09245896, 9.885787
778291755719544, 0.9846465, 5.160122, 8.41795, -0.031844378, 0.013253212, 9.922554
778291765358919, 0.97866446, 5.4341, 8.499306, -0.118707895, -0.15904307, 10.133413
778291774998294, 0.9379865, 4.6672006, 8.299505, 0.1851983, 0.303586, 9.561271
778291784637669, 1.166501, 5.818148, 8.518449, -0.4344511, -0.32961845, 10.367168
778291794277044, 0.87338024, 4.4350967, 8.311469, 0.34776545, 0.44274926, 9.4443865
778291803916419, 1.1760724, 5.858826, 8.471788, -0.47822905, -0.37260866, 10.349524
778291813555794, 0.74536425, 4.506881, 8.362915, 0.44009542, 0.33675623, 9.513086
778291823195169, 1.0683953, 5.639883, 8.495717, -0.28241396, -0.26825523, 10.245743
778291832834544, 0.7573284, 4.9064827, 8.523234, 0.3057356, 0.10550094, 9.858399
778291842473919, 0.95712906, 5.2127643, 8.46102, -0.016193151, -0.029358149, 9.983826
778291852113190, 0.9092726, 5.38744, 8.53161, -0.027668715, -0.15708208, 10.129868
778291861752565, 0.9236295, 4.7246284, 8.319844, 0.18134212, 0.25517297, 9.607134
778291871391940, 1.1581261, 5.790631, 8.500503, -0.4263909, -0.31125355, 10.33695
778291881031315, 0.90807617, 4.4602213, 8.306684, 0.3121338, 0.43414116, 9.456916
778291890670690, 1.2047862, 5.8947186, 8.483752, -0.5088122, -0.37100387, 10.381557
778291900310065, 0.80518484, 4.4721856, 8.3377905, 0.39772487, 0.3696494, 9.480122
778291909949440, 1.0959128, 5.6685967, 8.4705925, -0.32808685, -0.28487945, 10.241883
778291919588815, 0.7716853, 4.8299127, 8.500503, 0.3243177, 0.1630609, 9.800528
778291929228190, 0.9343972, 5.227121, 8.465807, -9.2840195E-4, -0.055682898, 9.993133
778291938867565, 0.849452, 5.337191, 8.548359, 0.0528152, -0.1513598, 10.112167
778291948506940, 0.84347, 4.7748775, 8.3581295, 0.23007488, 0.19096327, 9.658148
778291958146211, 1.079163, 5.7355957, 8.553144, -0.30778027, -0.3143823, 10.345259
778291967785586, 0.8781659, 4.469793, 8.352147, 0.33015156, 0.43581152, 9.497877
778291977424961, 1.2466606, 5.910272, 8.545966, -0.51683545, -0.35894203, 10.446199
778291987064336, 0.8997013, 4.490132, 8.349754, 0.29780412, 0.4238534, 9.508985
778291996703711, 1.1904292, 5.71765, 8.422736, -0.4337964, -0.30435634, 10.235738
778292006343086, 0.8111669, 4.7988057, 8.405986, 0.26518536, 0.16619849, 9.7082
778292015982461, 0.9882358, 5.3144593, 8.402397, -0.09495592, -0.1167779, 9.9898815
778292025621836, 0.8386843, 5.3012986, 8.510074, 0.06976175, -0.14486432, 10.059954
778292035261211, 0.8362915, 4.8263235, 8.3581295, 0.21495843, 0.14879513, 9.684152
778292044900586, 1.0025927, 5.733203, 8.568698, -0.22886276, -0.35521197, 10.349823
778292054539857, 0.81834537, 4.487739, 8.397611, 0.38462424, 0.40132904, 9.540461
778292064179232, 1.18684, 5.8839507, 8.577073, -0.45620513, -0.3635335, 10.452528
778292073818607, 0.8662018, 4.4171505, 8.365308, 0.3693428, 0.45793128, 9.481232
778292083457982, 1.2263216, 5.727221, 8.445468, -0.45965552, -0.27206945, 10.2638
778292093097357, 0.8662018, 4.738985, 8.398808, 0.24181342, 0.2328775, 9.676546
778292102736732, 1.038485, 5.3623157, 8.429914, -0.16001582, -0.11497426, 10.042785
778292112376107, 0.849452, 5.2342997, 8.52443, 0.08864331, -0.09122634, 10.038385
778292122015482, 0.8566305, 4.8586264, 8.397611, 0.20447588, 0.13771987, 9.736484
778292131654857, 0.9954142, 5.666204, 8.57468, -0.20578766, -0.30270576, 10.319298
778292141294128, 0.80159557, 4.479364, 8.352147, 0.40197825, 0.37031364, 9.4956255
778292150933503, 1.1569297, 5.879165, 8.55793, -0.44076276, -0.37994504, 10.430849
778292160572878, 0.85184485, 4.415954, 8.325827, 0.37541842, 0.42798448, 9.445717
778292170212253, 1.2155539, 5.7834525, 8.428718, -0.49878883, -0.318362, 10.277111
778292179851628, 0.8566305, 4.7007003, 8.408379, 0.28143525, 0.259068, 9.663588
778292189491003, 1.0959128, 5.424529, 8.463413, -0.22312737, -0.11511946, 10.109048
778292199130378, 0.8781659, 5.1876397, 8.518449, 0.08074498, -0.045799017, 10.0119
778292208769753, 0.8769695, 4.881358, 8.35454, 0.16261649, 0.11536193, 9.713667
778292218409023, 0.94396853, 5.5968122, 8.550752, -0.14318085, -0.29067588, 10.257961
778292228048398, 0.7704889, 4.5116673, 8.365308, 0.41543627, 0.33420444, 9.520655
778292237687773, 1.0875379, 5.875576, 8.573483, -0.38452196, -0.40479326, 10.435423
778292247327148, 0.7609176, 4.415954, 8.372486, 0.46245885, 0.39593935, 9.476685
778292256966523, 1.1916257, 5.8037915, 8.472985, -0.47319555, -0.33303523, 10.322819
778292266605898, 0.90807617, 4.666004, 8.390432, 0.24516773, 0.3083403, 9.635372
778292276245273, 1.2011969, 5.471189, 8.41795, -0.34418273, -0.09884405, 10.104972
778292285884544, 0.971486, 5.1361938, 8.49811, 0.018489122, 0.03772497, 9.976993
778292295523919, 1.0013963, 4.979464, 8.360522, 0.018165112, 0.118578196, 9.781708
778292305163294, 0.9942178, 5.5896335, 8.551949, -0.17769384, -0.25814748, 10.260122
778292314802669, 0.7920243, 4.558327, 8.407183, 0.389184, 0.32788563, 9.582662
778292324442044, 1.0660025, 5.845666, 8.630911, -0.3221674, -0.37902617, 10.466774
778292334081419, 0.7190432, 4.415954, 8.392825, 0.5124955, 0.3881836, 9.489143
778292343720794, 1.1174482, 5.8468623, 8.467003, -0.43315053, -0.40563035, 10.3330765
778292353360169, 0.78843504, 4.631308, 8.34138, 0.33352518, 0.2450633, 9.564412
778292362999440, 1.0983056, 5.5070815, 8.370093, -0.29116368, -0.20069504, 10.073114
778292372638815, 0.910469, 5.09073, 8.423932, 0.06720781, 0.014364004, 9.884454
778292382278190, 1.0157533, 5.026124, 8.352147, -0.015964985, 0.094312906, 9.800147
778292391917565, 1.0336994, 5.5369916, 8.536395, -0.19568086, -0.19641972, 10.223502
778292401556940, 0.85064846, 4.575077, 8.373683, 0.33058858, 0.32941198, 9.568476
778292411196315, 1.0923235, 5.838487, 8.610572, -0.35432172, -0.34797382, 10.448753
778292420835586, 0.73818576, 4.3872404, 8.413164, 0.518394, 0.41288328, 9.493941
778292430474961, 1.105484, 5.8169518, 8.549556, -0.38745236, -0.35379052, 10.386465
778292440114336, 0.75613195, 4.566702, 8.421539, 0.43071723, 0.29858065, 9.595527
778292449753711, 1.0887343, 5.552545, 8.4705925, -0.27013063, -0.20219421, 10.18102
778292459393086, 0.8853444, 5.026124, 8.493324, 0.13468528, 0.06591797, 9.907564
778292469032461, 1.032503, 5.063213, 8.342576, -0.054275274, 0.07088876, 9.812889
778292478671836, 1.0432707, 5.4795637, 8.456235, -0.21014977, -0.1816411, 10.12644
778292488311211, 0.9020941, 4.5966125, 8.301898, 0.25208092, 0.3208344, 9.523531
778292497950482, 1.1030912, 5.804988, 8.559127, -0.3622539, -0.34322882, 10.388662
778292507589857, 0.7477571, 4.395615, 8.398808, 0.4995768, 0.4091897, 9.48702
778292517229232, 1.1090733, 5.8683977, 8.565108, -0.4020946, -0.39065433, 10.426645
778292526868607, 0.7322037, 4.5619164, 8.452646, 0.4620514, 0.30188394, 9.617163
778292536507982, 1.0779666, 5.595616, 8.493324, -0.27399373, -0.22971892, 10.221627
778292546147357, 0.8554341, 4.9435716, 8.492127, 0.20090008, 0.1113379, 9.860735
778292555786628, 1.0516455, 5.1182475, 8.385647, -0.07708144, 0.05798459, 9.879889
778292565426003, 1.0480564, 5.440082, 8.4813595, -0.18642235, -0.1422956, 10.127752
778292575065378, 0.9619147, 4.62413, 8.276773, 0.18593812, 0.32187486, 9.522325
778292584704753, 1.1413764, 5.753542, 8.513663, -0.38765287, -0.31076097, 10.326742
778292594344128, 0.85064846, 4.4243293, 8.312666, 0.37250257, 0.42547107, 9.438163
778292603983503, 1.1437693, 5.9880385, 8.508878, -0.48841238, -0.49165845, 10.444402
778292613622878, 0.6652047, 4.564309, 8.407183, 0.48598123, 0.2564423, 9.573621
778292623262148, 0.9631111, 5.669793, 8.536395, -0.18111014, -0.34005618, 10.285706
778292632901523, 0.80518484, 4.941179, 8.56152, 0.2656052, 0.12055421, 9.913533
778292642540898, 1.0480564, 5.18405, 8.463413, -0.07606077, 0.037192583, 9.97973
778292652180273, 1.006182, 5.346762, 8.536395, -0.0887053, -0.07914591, 10.122065
778292661819648, 0.9607183, 4.6205406, 8.306684, 0.18467116, 0.34409022, 9.545725
778292671459023, 1.1892328, 5.7391853, 8.499306, -0.41922903, -0.2795508, 10.311973
778292681098294, 0.89491564, 4.4446683, 8.300702, 0.31381655, 0.42812872, 9.443296
778292690737669, 1.1880364, 5.9030933, 8.518449, -0.48658037, -0.39708138, 10.412853
778292700377044, 0.7501499, 4.526024, 8.361719, 0.42619014, 0.31681776, 9.522811
778292710016419, 1.0492527, 5.7152567, 8.486146, -0.29163265, -0.34448147, 10.275021
778292719655794, 0.74416786, 4.8885365, 8.49452, 0.31716776, 0.10165787, 9.823315
778292729295169, 0.94277215, 5.2546387, 8.449057, -0.026765347, -0.07912135, 9.993979
778292738934440, 0.89491564, 5.367101, 8.519645, -0.0094816685, -0.16114163, 10.107667
778292748573815, 0.8985049, 4.755735, 8.340183, 0.18499494, 0.22451282, 9.63838
778292758213190, 1.0935199, 5.7260246, 8.559127, -0.31099653, -0.3091159, 10.346475
778292767852565, 0.8530413, 4.4243293, 8.367701, 0.37123752, 0.4632268, 9.4851675
778292777491940, 1.1880364, 5.8803616, 8.581859, -0.44211507, -0.35854912, 10.455352
778292787131315, 0.80757767, 4.4662037, 8.420342, 0.41162276, 0.4260037, 9.547272
778292796770690, 1.1353943, 5.709275, 8.537591, -0.34026766, -0.2798698, 10.323821
778292806409961, 0.7908279, 4.833502, 8.49452, 0.29093385, 0.16645598, 9.799626
778292816049336, 0.997807, 5.308477, 8.428718, -0.09565735, -0.09978199, 10.009982
778292825688711, 0.9020941, 5.296513, 8.502895, 0.013354063, -0.109995365, 10.057524
778292835328086, 0.91884387, 4.7748775, 8.313862, 0.1458571, 0.21526933, 9.627898
778292844967461, 1.0552348, 5.712864, 8.523234, -0.28685308, -0.3304062, 10.3055525
778292854606836, 0.82672024, 4.4602213, 8.3377905, 0.368649, 0.41335654, 9.475708
778292864246107, 1.1760724, 5.901897, 8.529217, -0.4611702, -0.3956318, 10.420838
778292873885482, 0.7788638, 4.482953, 8.343773, 0.39654303, 0.3659587, 9.48846
778292883524857, 1.1330016, 5.791827, 8.447861, -0.4074335, -0.36723733, 10.290503
778292893164232, 0.79441714, 4.741378, 8.414361, 0.303169, 0.2057836, 9.683954
778292902803607, 1.0313065, 5.3096733, 8.40479, -0.13464808, -0.0810864, 9.993598
778292912442982, 0.951147, 5.2510495, 8.477771, -0.019475937, -0.057628155, 10.017341
778292922082357, 0.95353985, 4.87418, 8.360522, 0.096955776, 0.1774342, 9.7223625
778292931721628, 1.0241281, 5.6853466, 8.605786, -0.22384095, -0.2929783, 10.358359
778292941361003, 0.782453, 4.4817567, 8.467003, 0.4368565, 0.4243822, 9.592579
778292951000378, 1.1318051, 5.9030933, 8.71466, -0.36722064, -0.36110258, 10.573908
778292960639753, 0.7920243, 4.4255257, 8.5220375, 0.4704554, 0.49305987, 9.611102
778292970279128, 1.1593226, 5.7547383, 8.571091, -0.37969375, -0.29180622, 10.377637
778292979918503, 0.81954175, 4.7198424, 8.449057, 0.30215287, 0.2568016, 9.704527
778292989557878, 1.0863415, 5.4029937, 8.402397, -0.22697783, -0.13024569, 10.045113
778292999197148, 0.93320084, 5.191229, 8.410771, -0.0018386841, -0.04880643, 9.927661
778293008836523, 0.98584294, 4.914858, 8.202596, -0.0034480095, 0.105294466, 9.612451
778293018475898, 1.0815558, 5.6949177, 8.409575, -0.34226918, -0.33780122, 10.202528
778293028115273, 0.8279166, 4.5487556, 8.281559, 0.31813312, 0.3145604, 9.474212
778293037754648, 1.0899308, 5.895915, 8.571091, -0.37724304, -0.411767, 10.445168
778293047394023, 0.73459655, 4.4195433, 8.4502535, 0.5073395, 0.42382145, 9.541581
778293057033398, 1.1090733, 5.7870417, 8.624929, -0.33207178, -0.31676245, 10.435454
778293066672669, 0.77647096, 4.6564326, 8.572288, 0.41321135, 0.3236003, 9.772099
778293076312044, 1.0540384, 5.42094, 8.568698, -0.14449048, -0.093034506, 10.1926775
778293085951419, 0.90329057, 5.1026945, 8.583055, 0.11454487, 0.061397314, 10.025236
778293095590794, 0.9822537, 4.910072, 8.362915, 0.0558362, 0.16407824, 9.745868
778293105230169, 1.038485, 5.6039906, 8.463413, -0.24938226, -0.28289056, 10.196583
778293114869544, 0.84825563, 4.5858445, 8.270791, 0.26888394, 0.29779625, 9.486545
778293124508919, 1.1006985, 5.9294147, 8.496913, -0.4144826, -0.47836828, 10.400308
778293134148190, 0.7369894, 4.4315076, 8.325827, 0.4454236, 0.3769722, 9.442472
778293143787565, 1.1306087, 5.812166, 8.457432, -0.406713, -0.3837173, 10.308978
778293153426940, 0.8219346, 4.6037908, 8.385647, 0.31984448, 0.32016373, 9.590867
778293163066315, 1.1210374, 5.4843497, 8.452646, -0.26434374, -0.14880586, 10.133609
778293172705690, 0.90329057, 5.109873, 8.514859, 0.08870983, 0.034240007, 9.9709835
778293182345065, 0.9559326, 5.0536413, 8.456235, 0.047498703, 0.08101678, 9.89708
778293191984440, 0.96909314, 5.5968122, 8.682357, -0.11104202, -0.23225236, 10.372103
778293201623815, 0.80757767, 4.5930233, 8.554341, 0.40168262, 0.37631273, 9.727377
778293211263190, 1.0851451, 5.866005, 8.813962, -0.27946758, -0.32354712, 10.634412
778293220902461, 0.77647096, 4.3944187, 8.555537, 0.5093818, 0.50214124, 9.62286
778293230541836, 1.1772687, 5.782256, 8.571091, -0.40920353, -0.30404806, 10.393469
778293240181211, 0.8327023, 4.5020957, 8.322237, 0.33607364, 0.35972786, 9.485757
778293249820586, 1.1557333, 5.523831, 8.267202, -0.3860078, -0.23396254, 9.999566
778293259459961, 0.9284152, 5.048856, 8.240881, -0.0028736591, -0.017820835, 9.709001
778293269099336, 1.0157533, 5.0943193, 8.149954, -0.1205914, -0.03360367, 9.663845
778293278738711, 0.9762716, 5.564509, 8.425129, -0.18984818, -0.29666805, 10.137831
778293288378086, 0.7968099, 4.6600223, 8.4012, 0.3328719, 0.27103615, 9.630506
778293298017461, 1.0217353, 5.861219, 8.766106, -0.2384851, -0.36650348, 10.585426
778293307656836, 0.70947194, 4.4279184, 8.615358, 0.5766008, 0.47588348, 9.6837635
778293317296107, 1.1006985, 5.849255, 8.739784, -0.30577636, -0.32041454, 10.564705
778293326935482, 0.7896315, 4.499703, 8.523234, 0.44227242, 0.42975807, 9.650703
778293336574857, 1.174876, 5.534599, 8.4909315, -0.33201098, -0.15030551, 10.196825
778293346214232, 0.96430755, 4.928018, 8.409575, 0.0732913, 0.15302157, 9.793235
778293355853607, 1.0959128, 5.0919266, 8.289934, -0.14171076, 0.06152773, 9.789171
778293365492982, 1.0157533, 5.4783673, 8.428718, -0.19287038, -0.21478868, 10.099713
778293375132357, 0.8386843, 4.6707897, 8.306684, 0.2605064, 0.23444605, 9.560221
778293384771732, 1.0073783, 5.844469, 8.627322, -0.27190423, -0.40864706, 10.457647
778293394411107, 0.6855437, 4.4554358, 8.487342, 0.5424285, 0.37624598, 9.587496
778293404050482, 1.0851451, 5.9150577, 8.668, -0.36361003, -0.40730786, 10.535728
778293413689857, 0.7501499, 4.5619164, 8.452646, 0.4283173, 0.33062744, 9.619161
778293423329232, 1.1389836, 5.621937, 8.486146, -0.33167577, -0.23474407, 10.234891
778293432968607, 0.9200403, 4.9196434, 8.452646, 0.12525797, 0.15554762, 9.821238
778293442607878, 1.119841, 5.1673007, 8.348558, -0.17723942, 0.035921097, 9.880322
778293452247253, 1.0576276, 5.4113684, 8.486146, -0.17884707, -0.12463069, 10.117738
778293461886628, 0.94636136, 4.6755753, 8.362915, 0.18114042, 0.31456208, 9.620976
778293471526003, 1.0552348, 5.77747, 8.629715, -0.2808342, -0.3474152, 10.429051
778293481165378, 0.7405786, 4.415954, 8.478967, 0.5067699, 0.44250154, 9.565008
778293490804753, 1.1030912, 5.8683977, 8.633304, -0.3662758, -0.38589287, 10.483594
778293500444128, 0.73579293, 4.4925246, 8.4502535, 0.46634197, 0.3567431, 9.580513
778293510083503, 1.0612168, 5.662615, 8.523234, -0.2870233, -0.29503345, 10.2794695
778293519722878, 0.83030945, 4.8658047, 8.513663, 0.24674559, 0.16026545, 9.836735
778293529362253, 1.0301101, 5.227121, 8.469396, -0.08566451, -0.007465124, 10.005361
778293539001628, 0.97507524, 5.3850474, 8.563912, -0.07899475, -0.120630026, 10.162151
778293548641003, 0.9296116, 4.7318068, 8.382058, 0.18218517, 0.2664454, 9.664826
778293558280378, 1.1078769, 5.761917, 8.583055, -0.34126544, -0.3153181, 10.38653
778293567919753, 0.81954175, 4.4398823, 8.370093, 0.39466023, 0.4215343, 9.492588
778293577559128, 1.1425728, 5.898308, 8.545966, -0.4419272, -0.4199772, 10.428681
778293587198503, 0.74895346, 4.476971, 8.350951, 0.42334342, 0.34287143, 9.489248
778293596837878, 1.1006985, 5.7140603, 8.458628, -0.35105944, -0.3338213, 10.255521
778293606477253, 0.7920243, 4.834698, 8.4705925, 0.28106952, 0.15491152, 9.78006
778293616116628, 0.991825, 5.306084, 8.496913, -0.081011295, -0.08090639, 10.065915
778293625756003, 0.91405827, 5.326423, 8.62134, 0.020153284, -0.088365555, 10.174751
778293635395378, 0.92602235, 4.7629137, 8.476574, 0.19654942, 0.28034616, 9.761043
778293645034753, 1.1042876, 5.7080784, 8.677571, -0.28018308, -0.2562809, 10.43828
778293654674128, 0.86859465, 4.4398823, 8.433503, 0.36785388, 0.46442103, 9.551963
778293664313503, 1.2251252, 5.852844, 8.559127, -0.49112892, -0.33767223, 10.424017
778293673952878, 0.81834537, 4.447061, 8.333005, 0.37598944, 0.38583112, 9.465453
778293683592253, 1.1497513, 5.7559347, 8.443074, -0.42845702, -0.3488872, 10.268053
778293693231628, 0.7812566, 4.807181, 8.440681, 0.29712844, 0.14535809, 9.739355
778293702871003, 0.9774681, 5.352744, 8.469396, -0.10208559, -0.13234544, 10.065289
778293712510378, 0.84347, 5.2845488, 8.584251, 0.08074665, -0.11391997, 10.114731
778293722149753, 0.8817552, 4.8394837, 8.472985, 0.2080977, 0.19050598, 9.793364
778293731789128, 1.0552348, 5.6506505, 8.6548395, -0.2288301, -0.23451257, 10.384712
778293741428503, 0.86859465, 4.4339004, 8.441878, 0.3842206, 0.46511412, 9.5559025
778293751067982, 1.2011969, 5.855237, 8.597412, -0.4562955, -0.325953, 10.45599
778293760707357, 0.8279166, 4.4398823, 8.348558, 0.37310243, 0.40617728, 9.475878
778293770346732, 1.1688938, 5.791827, 8.445468, -0.45641732, -0.369066, 10.290432
778293779986107, 0.802792, 4.7485566, 8.415557, 0.29075336, 0.19768786, 9.68975
778293789625482, 1.0313065, 5.4173503, 8.478967, -0.16302013, -0.14754009, 10.112163
778293799264857, 0.86141616, 5.255835, 8.567501, 0.07324219, -0.089871645, 10.087343
778293808904232, 0.89371926, 4.8969116, 8.433503, 0.15436101, 0.14254165, 9.790726
778293818543607, 0.9906286, 5.6554365, 8.647661, -0.17480516, -0.28804445, 10.374673
778293828182982, 0.80757767, 4.473382, 8.474181, 0.41710067, 0.43095303, 9.597675
778293837822357, 1.1318051, 5.8360944, 8.665607, -0.36857486, -0.33929324, 10.496799
778293847461732, 0.8243274, 4.3944187, 8.43111, 0.41575933, 0.47511697, 9.5223675
778293857101211, 1.1784651, 5.7750773, 8.537591, -0.4253993, -0.320688, 10.360836
778293866740586, 0.81954175, 4.686343, 8.440681, 0.30590487, 0.2656448, 9.680621
778293876379961, 1.079163, 5.453243, 8.455039, -0.23139405, -0.16751623, 10.114767
778293886019336, 0.9296116, 5.176872, 8.52802, 0.038809776, -0.0083556175, 10.019467
778293895658711, 0.9726824, 4.9603214, 8.380861, 0.038128853, 0.119653225, 9.786417
778293905298086, 1.0348958, 5.642276, 8.535198, -0.24287605, -0.29852462, 10.276565
778293914937461, 0.83389866, 4.5475593, 8.368897, 0.31959534, 0.35067105, 9.5492935
778293924576836, 1.1066805, 5.869594, 8.611769, -0.36466265, -0.3969705, 10.466558
778293934216315, 0.7369894, 4.4004006, 8.432307, 0.4889195, 0.43805408, 9.51733
778293943855690, 1.105484, 5.8133626, 8.579466, -0.3516724, -0.36851048, 10.409852
778293953495065, 0.73579293, 4.610969, 8.517252, 0.42394447, 0.30561614, 9.699118
778293963134440, 1.038485, 5.447261, 8.57468, -0.15701175, -0.13896298, 10.209421
778293972773815, 0.8602197, 5.096712, 8.583055, 0.14459205, 0.034413815, 10.018143
778293982413190, 0.9738788, 4.975875, 8.435896, 0.04474163, 0.12817073, 9.841427
778293992052669, 1.0372887, 5.5669017, 8.563912, -0.20600963, -0.23261333, 10.262085
778294001692044, 0.8997013, 4.575077, 8.348558, 0.2405951, 0.35443234, 9.552786
778294011331419, 1.1413764, 5.8911295, 8.555537, -0.4263227, -0.42056108, 10.432964
778294020970794, 0.8171489, 4.4207397, 8.370093, 0.38188148, 0.43429303, 9.483391
778294030610169, 1.1844472, 5.8480587, 8.52802, -0.45117116, -0.37488723, 10.391618
778294040249648, 0.8135597, 4.6205406, 8.457432, 0.34191155, 0.31998825, 9.660234
778294049889023, 1.0719845, 5.5429735, 8.535198, -0.23671389, -0.20835519, 10.228582
778294059528398, 0.8470592, 5.035695, 8.573483, 0.18199396, 0.065375805, 9.977123
778294069167773, 0.9487542, 4.9974103, 8.452646, 0.06620383, 0.10316324, 9.864405
778294078807148, 1.0073783, 5.4891353, 8.569894, -0.14927769, -0.18523598, 10.224087
778294088446628, 0.8865408, 4.604987, 8.415557, 0.27806258, 0.3440702, 9.623814
778294098086003, 1.1234303, 5.832505, 8.63809, -0.37606335, -0.3495016, 10.470588
778294107725378, 0.80877405, 4.4111686, 8.429914, 0.43032074, 0.4411559, 9.528702
778294117364753, 1.174876, 5.8839507, 8.548359, -0.46556687, -0.38783455, 10.426336
778294127004128, 0.7908279, 4.601398, 8.427522, 0.36111164, 0.2882545, 9.623301
778294136643607, 1.0779666, 5.621937, 8.4705925, -0.29799175, -0.27994204, 10.215281
778294146282982, 0.82672024, 5.0213385, 8.514859, 0.17988658, 0.035265446, 9.917992
778294155922357, 0.9726824, 5.1086764, 8.440681, -0.0039741993, 0.026188135, 9.914085
778294165561836, 1.0013963, 5.4616175, 8.58784, -0.12837887, -0.16305876, 10.224479
778294175201211, 0.90329057, 4.6025944, 8.397611, 0.2587874, 0.34571934, 9.609016
778294184840586, 1.1018949, 5.782256, 8.644072, -0.3289187, -0.31953788, 10.447887
778294194479961, 0.78364944, 4.392026, 8.437093, 0.46048856, 0.44256592, 9.522638
778294204119440, 1.1413764, 5.8600225, 8.598608, -0.42441988, -0.3763392, 10.452603
778294213758815, 0.8039884, 4.5355954, 8.469396, 0.39004898, 0.35760927, 9.626456
778294223398190, 1.1365907, 5.6303115, 8.562716, -0.3278315, -0.22885633, 10.303034
778294233037565, 0.84825563, 4.9519463, 8.563912, 0.20626187, 0.11199951, 9.926067
778294242677044, 1.0001999, 5.1625147, 8.46461, -0.042415142, 0.003620863, 9.964926
778294252316419, 0.97866446, 5.4173503, 8.562716, -0.09876418, -0.15943003, 10.1779375
778294261955794, 0.9595219, 4.9878387, 8.427522, 0.055272102, 0.1004138, 9.839166
778294271595273, 0.9559326, 5.1936216, 8.5112705, -4.3201447E-4, -0.023290634, 10.01642
778294281234648, 0.9379865, 5.1182475, 8.486146, 0.037260294, 0.013806105, 9.954363
778294290874023, 0.94636136, 5.157729, 8.493324, 0.015727043, -0.0095021725, 9.981684
778294300513503, 0.9403793, 5.139783, 8.499306, 0.030478477, 0.0023112297, 9.97692
778294310152878, 0.9774681, 5.1326046, 8.486146, -0.0017187595, 0.02202177, 9.965604
778294319792253, 1.012164, 5.168497, 8.437093, -0.06334996, -0.004558325, 9.945769
778294329431732, 1.0193424, 5.168497, 8.415557, -0.076709986, -0.008801699, 9.928144
778294339071107, 0.9846465, 5.17089, 8.429914, -0.043614864, -0.023813486, 9.938241
778294348710482, 0.9595219, 5.1696935, 8.508878, 0.0060219765, -0.007309437, 10.002367
778294358349961, 0.93559366, 5.1756754, 8.583055, 0.047928095, 1.9431114E-4, 10.066256
778294367989336, 0.91884387, 5.1661043, 8.65125, 0.08917999, 0.021846056, 10.117738
778294377628711, 0.9200403, 5.1421757, 8.668, 0.103229284, 0.045832872, 10.11978
778294387268190, 0.930808, 5.119444, 8.645268, 0.09596181, 0.059032917, 10.089753
778294396907565, 1.0001999, 5.1457653, 8.566305, -0.0012099743, 0.049060583, 10.042833
778294406547044, 1.0253245, 5.1661043, 8.474181, -0.06262493, 0.015386343, 9.977349
778294416186419, 1.0396814, 5.156533, 8.392825, -0.09971523, 3.569126E-4, 9.904562
778294425825794, 1.0205388, 5.17089, 8.362915, -0.09995818, -0.0303936, 9.884687
778294435465273, 1.0217353, 5.1816573, 8.364112, -0.10154438, -0.036005497, 9.891424
778294445104648, 0.9942178, 5.197211, 8.410771, -0.068894625, -0.04593587, 9.936481
778294454744128, 0.9272188, 5.2019963, 8.488539, 0.01189065, -0.058505297, 9.9986105
778294464383503, 0.8757731, 5.188836, 8.572288, 0.08932853, -0.048146963, 10.058072
778294474022878, 0.8745767, 5.156533, 8.603394, 0.11492467, -0.013134956, 10.067758
778294483662357, 0.8925229, 5.1529436, 8.652447, 0.11581397, 0.017606974, 10.109429
778294493301732, 0.93320084, 5.119444, 8.642876, 0.09313226, 0.059857845, 10.087945
778294502941211, 0.9822537, 5.093123, 8.597412, 0.04822731, 0.08987737, 10.04041
778294512580586, 1.0336994, 5.103891, 8.52443, -0.024454594, 0.08128333, 9.988841
778294522220065, 1.0636097, 5.1326046, 8.447861, -0.08975124, 0.04792261, 9.941373
778294531859440, 1.0588241, 5.168497, 8.413164, -0.11085582, 0.0066547394, 9.929929
778294541498815, 1.0109676, 5.1876397, 8.383254, -0.08976412, -0.044684887, 9.909721
778294551138294, 0.9296116, 5.2031927, 8.421539, -0.015668392, -0.08667612, 9.942432
778294560777669, 0.86261255, 5.206782, 8.476574, 0.056839943, -0.10677886, 9.984605
778294570417148, 0.8662018, 5.178068, 8.5220375, 0.081451654, -0.065728426, 10.00884
778294580056523, 0.89013004, 5.1589255, 8.560323, 0.08341074, -0.023401022, 10.033865
778294589696003, 0.95473623, 5.130212, 8.577073, 0.049521685, 0.03993821, 10.039558
778294599335378, 1.018146, 5.1086764, 8.535198, -0.00859046, 0.07459068, 9.998959
778294608974857, 1.0504491, 5.1218367, 8.510074, -0.049142122, 0.07321024, 9.987504
778294618614232, 1.0396814, 5.1206403, 8.523234, -0.035028696, 0.07262683, 9.9970455
778294628253711, 1.0145568, 5.139783, 8.525627, -0.020763397, 0.041338682, 10.006543
778294637893086, 0.9762716, 5.148158, 8.534002, 0.009212732, 0.01588583, 10.014265
778294647532565, 0.93679005, 5.1649075, 8.536395, 0.034605026, -0.019134998, 10.021093
778294657171940, 0.8997013, 5.1720862, 8.49811, 0.04649639, -0.058954, 9.988603
778294666811419, 0.8985049, 5.180461, 8.469396, 0.032506943, -0.07450628, 9.968376
778294676450794, 0.9320044, 5.1696935, 8.421539, -0.007030487, -0.06493497, 9.925343
778294686090273, 0.97507524, 5.163711, 8.408379, -0.043860197, -0.03820634, 9.915247
778294695729648, 1.0217353, 5.160122, 8.441878, -0.06742358, 0.0032525063, 9.946433
778294705369128, 1.0289137, 5.144569, 8.5112705, -0.039955854, 0.041844606, 9.998181
778294715008607, 1.012164, 5.143372, 8.572288, -0.0035588741, 0.056064367, 10.047871
778294724647982, 0.997807, 5.1421757, 8.592627, 0.014856815, 0.052259207, 10.063192
778294734287461, 0.9906286, 5.131408, 8.5938225, 0.024695158, 0.055769444, 10.057972
778294743926836, 0.9499506, 5.1349974, 8.556734, 0.041921854, 0.015499115, 10.024286
778294753566315, 0.9236295, 5.148158, 8.532805, 0.04775691, -0.018299103, 10.008137
778294763205690, 0.930808, 5.1469617, 8.534002, 0.04269743, -0.012479305, 10.009236
778294772845169, 0.93320084, 5.156533, 8.502895, 0.024623632, -0.029876232, 9.987912
778294782484544, 0.9619147, 5.1852465, 8.487342, -0.017786264, -0.03866887, 9.992258
778294792124023, 0.9798609, 5.178068, 8.455039, -0.04053116, -0.033947945, 9.962801
778294801763503, 0.9774681, 5.17089, 8.426325, -0.046172142, -0.040563107, 9.934421
778294811402878, 1.0013963, 5.148158, 8.455039, -0.042714834, 4.1675568E-4, 9.949481
778294821042357, 0.997807, 5.1326046, 8.493324, -0.01828456, 0.02318883, 9.973713
778294830681732, 0.9870393, 5.130212, 8.5423765, 0.009867668, 0.035054445, 10.013201
778294840321211, 0.9738788, 5.1409793, 8.57468, 0.027058363, 0.02804184, 10.044985
778294849960690, 0.96430755, 5.1326046, 8.563912, 0.03450775, 0.024836063, 10.030568
778294859600065, 0.9667004, 5.139783, 8.547162, 0.022568226, 0.013701677, 10.020239
778294869239544, 0.9726824, 5.1361938, 8.52802, 0.010842323, 0.012499571, 10.002672
778294878878919, 0.9834501, 5.150551, 8.49811, -0.015513897, -0.0031416416, 9.985638
778294888518398, 0.9846465, 5.1649075, 8.478967, -0.030140877, -0.019854546, 9.976843
778294898157878, 0.9834501, 5.143372, 8.492127, -0.013342857, -0.0010025501, 9.976848
778294907797253, 0.9726824, 5.143372, 8.5016985, -0.0011148453, -0.0037572384, 9.98395
778294917436732, 0.9870393, 5.1409793, 8.492127, -0.0145840645, 0.0013606548, 9.975967
778294927076107, 0.9702896, 5.1349974, 8.482556, -0.0016491413, -0.007740736, 9.9631
778294936715586, 0.9834501, 5.143372, 8.476574, -0.018336296, -0.008220673, 9.963602
778294946355065, 0.95353985, 5.157729, 8.478967, -4.837513E-4, -0.03502345, 9.970108
778294955994440, 0.9607183, 5.150551, 8.507681, 0.007847786, -0.015075445, 9.991571
778294965633919, 0.9906286, 5.1696935, 8.547162, -0.010971546, 0.002431631, 10.037972
778294975273398, 1.0109676, 5.157729, 8.57468, -0.011566877, 0.031900883, 10.057248
778294984912773, 1.0229317, 5.1326046, 8.595019, -0.0028383732, 0.06457281, 10.062813
778294994552253, 1.006182, 5.1218367, 8.583055, 0.012438297, 0.05695963, 10.04545
778295004191732, 0.9870393, 5.117051, 8.536395, 0.012904167, 0.031113386, 10.001368
778295013831107, 0.9774681, 5.1218367, 8.488539, 8.38995E-4, 0.004347801, 9.962124
778295023470586, 0.96430755, 5.1290154, 8.451449, -0.005703926, -0.021297932, 9.932937
778295033110065, 0.9415757, 5.1589255, 8.41795, -0.013671637, -0.06697917, 9.917575
778295042749544, 0.9403793, 5.186443, 8.410771, -0.02772069, -0.08872938, 9.925521
778295052388919, 0.92602235, 5.180461, 8.432307, -0.004981518, -0.083167315, 9.939395
778295062028398, 0.951147, 5.168497, 8.463413, -0.008731365, -0.04736948, 9.962183
778295071667878, 0.99302137, 5.168497, 8.49811, -0.030066013, -0.010498047, 9.995815
778295081307253, 1.0217353, 5.143372, 8.56152, -0.018905878, 0.046981096, 10.039685
778295090946732, 1.0277174, 5.117051, 8.583055, -0.003827095, 0.07593703, 10.045072
778295100586211, 1.0456635, 5.099105, 8.563912, -0.017683268, 0.08824587, 10.021317
778295110225586, 1.0193424, 5.1026945, 8.55793, -0.0012538433, 0.0682292, 10.01549
778295119865065, 0.9954142, 5.123033, 8.541181, 0.0036730766, 0.032689333, 10.009344
778295129504544, 0.9619147, 5.131408, 8.505288, 0.014463425, -0.005983591, 9.979794
778295139144023, 0.94636136, 5.151747, 8.483752, 0.0100746155, -0.03652191, 9.970393
778295148783398, 0.9200403, 5.1673007, 8.4705925, 0.018613338, -0.0646584, 9.964632
778295158422878, 0.9176475, 5.1852465, 8.488539, 0.019295454, -0.07229662, 9.988921
778295168062357, 0.9272188, 5.178068, 8.495717, 0.017220259, -0.057516575, 9.992284
778295177701836, 0.94396853, 5.1625147, 8.510074, 0.01617527, -0.030459404, 9.998139
778295187341211, 0.96909314, 5.151747, 8.53161, 0.009076357, -6.1273575E-5, 10.013388
778295196980690, 1.0097711, 5.1218367, 8.505288, -0.019795656, 0.035013676, 9.979538
778295206620169, 1.0253245, 5.109873, 8.467003, -0.0407331, 0.038202524, 9.942289
778295216259544, 1.0432707, 5.123033, 8.43111, -0.07404184, 0.025434017, 9.920252
778295225899023, 1.0241281, 5.127819, 8.419147, -0.06466317, 0.005626917, 9.910662
778295235538503, 0.98943216, 5.150551, 8.444271, -0.036716938, -0.021137714, 9.940376
