timestamp_acc,device_acc_x,device_acc_y,device_acc_z,earth_acc_x,earth_acc_y,earth_acc_z
778725030297665, 4.3992043, -4.2281175, 7.98126, 0.016317844, 0.0030088425, 10.046404
778725039937040, 4.4039903, -4.2341, 8.008778, 0.024833202, 0.009903789, 10.072863
778725049576415, 4.3944187, -4.237689, 8.024331, 0.03319788, 0.023738742, 10.082518
778725059215790, 4.415954, -4.2185464, 7.999206, 0.027544975, -0.0072603226, 10.063959
778725068855061, 4.4207397, -4.188636, 7.9633136, 0.02833414, -0.029156566, 10.024985
778725078494436, 4.409972, -4.173083, 7.925029, 0.021371841, -0.03621137, 9.983326
778725088133811, 4.4039903, -4.182654, 7.9094753, 0.0076112747, -0.027866602, 9.972396
778725097773186, 4.4315076, -4.1874394, 7.925029, 0.0069293976, -0.04456556, 9.998849
778725107412561, 4.4578285, -4.2017965, 7.9130645, -0.014688492, -0.06391716, 10.006979
778725117051832, 4.456632, -4.2161536, 7.8987074, -0.032563686, -0.05942321, 10.001125
778725126691207, 4.470989, -4.213761, 7.925029, -0.020151615, -0.066768646, 10.0273
778725136330582, 4.4554358, -4.2053857, 7.9334035, -0.0043535233, -0.05517292, 10.023573
778725145969957, 4.4482574, -4.1850467, 7.9716887, 0.03264475, -0.049470544, 10.042208
778725155609228, 4.4243293, -4.17069, 7.975278, 0.049342155, -0.035109878, 10.028496
778725165248603, 4.3800616, -4.2053857, 7.946564, 0.015118599, 0.011885166, 10.000886
778725174887978, 4.359723, -4.220939, 7.98126, 0.026466846, 0.042407274, 10.026043
778725184527353, 4.351348, -4.2317066, 7.982456, 0.019608974, 0.052508473, 10.0278635
778725194166728, 4.354937, -4.261617, 7.962117, -0.016183853, 0.056489587, 10.025902
778725203805999, 4.3848476, -4.2795634, 7.966903, -0.0343256, 0.03812003, 10.050396
778725213445374, 4.4039903, -4.284349, 7.9597244, -0.044912815, 0.020637035, 10.055124
778725223084749, 4.4075794, -4.2723846, 7.9776707, -0.026512146, 0.015792608, 10.065897
778725232724124, 4.402794, -4.274778, 8.013563, -0.0030055046, 0.027967334, 10.093302
778725242363499, 4.377669, -4.2855453, 8.02792, 0.007091999, 0.057694077, 10.098219
778725252002770, 4.3908296, -4.2867417, 7.9920278, -0.016818523, 0.04001081, 10.076019
778725261642145, 4.4075794, -4.2664027, 7.9513497, -0.028569221, 0.007737756, 10.042511
778725271281520, 4.409972, -4.24726, 7.928618, -0.026770115, -0.0050162077, 10.017449
778725280920895, 4.426722, -4.2125645, 7.8903327, -0.026611805, -0.042108417, 9.979801
778725290560165, 4.4602213, -4.202993, 7.8783684, -0.03641987, -0.07746649, 9.980986
778725300199540, 4.436293, -4.2125645, 7.8867435, -0.031754494, -0.048687696, 9.981169
778725309838915, 4.4255257, -4.220939, 7.925029, -0.011491299, -0.025539279, 10.01034
778725319478290, 4.406383, -4.2508492, 7.9597244, -0.008354187, 0.012825727, 10.042057
778725329117665, 4.3848476, -4.2508492, 7.9716887, 0.004761219, 0.033702135, 10.042074
778725338756936, 4.3932223, -4.2628136, 7.9704924, -0.008234978, 0.032818794, 10.049854
778725348396311, 4.4195433, -4.2508492, 7.945368, -0.023121834, 5.892515E-4, 10.036454
778725358035686, 4.4279184, -4.240082, 7.9238324, -0.03143549, -0.0149406195, 10.018517
778725367675061, 4.3992043, -4.226921, 7.9034934, -0.024262905, -0.0015579462, 9.984214
778725377314436, 4.4135613, -4.2185464, 7.9034934, -0.023241997, -0.016826391, 9.986993
778725386953707, 4.442275, -4.2161536, 7.925029, -0.01889515, -0.03830111, 10.015689
778725396593082, 4.4398823, -4.2125645, 7.960921, 0.004705429, -0.031078458, 10.041592
778725406232457, 4.3992043, -4.197011, 8.007581, 0.05553627, 0.0053304434, 10.054161
778725415871832, 4.412365, -4.193422, 7.999206, 0.046347618, -0.0111551285, 10.051804
778725425511207, 4.421936, -4.156333, 7.9944205, 0.06734657, -0.038530707, 10.0366
778725435150478, 4.4231324, -4.1407795, 7.9944205, 0.07682562, -0.047258258, 10.030594
778725444789853, 4.418347, -4.1431723, 8.002795, 0.08120155, -0.04027295, 10.036145
778725454429228, 4.3944187, -4.145565, 8.018349, 0.093565464, -0.014959693, 10.039003
778725464068603, 4.382455, -4.145565, 8.013563, 0.091753006, -0.005176544, 10.029974
778725473707978, 4.402794, -4.159922, 7.999206, 0.06651592, -0.01861751, 10.033548
778725483347249, 4.4638104, -4.1838503, 7.9860454, 0.022868633, -0.06206584, 10.05996
778725492986624, 4.456632, -4.210171, 7.9633136, -0.004012108, -0.046855092, 10.04984
778725502625999, 4.4817567, -4.2352962, 7.926225, -0.05156231, -0.06462729, 10.042017
778725512265374, 4.4434714, -4.267599, 7.908279, -0.0726037, -0.019752264, 10.024573
778725521904645, 4.389633, -4.3130627, 7.905886, -0.08514929, 0.047388554, 10.01823
778725531544020, 4.365705, -4.3178487, 7.8963146, -0.08379221, 0.0663445, 10.002178
778725541183395, 4.395615, -4.301099, 7.905886, -0.07339573, 0.03540778, 10.015853
778725550822770, 4.35733, -4.301099, 7.958528, -0.028840542, 0.07878971, 10.040762
778725560462145, 4.348955, -4.2759743, 7.9597244, -0.002974987, 0.072767735, 10.027426
778725570101415, 4.3465624, -4.2364926, 7.9393854, 0.01704359, 0.051585674, 9.993566
778725579740790, 4.389633, -4.2041893, 7.940582, 0.029240608, -0.0027427673, 9.999804
778725589380165, 4.4207397, -4.173083, 7.9274216, 0.03668928, -0.047037005, 9.989897
778725599019540, 4.4350967, -4.17069, 7.9357963, 0.03695774, -0.05910647, 10.001837
778725608658915, 4.4255257, -4.1814575, 7.9537425, 0.04055357, -0.041792154, 10.016411
778725618298186, 4.3812585, -4.2185464, 7.9190464, 0.0054478645, 0.0064605474, 9.985128
778725627937561, 4.354937, -4.240082, 7.9022965, -0.013084412, 0.035776496, 9.969383
778725637576936, 4.3872404, -4.290331, 7.938189, -0.039939404, 0.03909433, 10.033272
778725647216311, 4.4243293, -4.334598, 7.9513497, -0.07285452, 0.027507424, 10.078756
778725656855582, 4.421936, -4.362116, 7.958528, -0.08920193, 0.044386506, 10.095037
778725666494957, 4.430311, -4.3633122, 7.972885, -0.07848215, 0.03783095, 10.110661
778725676134332, 4.408776, -4.336991, 7.975278, -0.04867077, 0.04371345, 10.091957
778725685773707, 4.4255257, -4.3178487, 7.9357963, -0.06086731, 0.0120482445, 10.059926
778725695413082, 4.402794, -4.260421, 7.914261, -0.020646095, -3.8349628E-4, 10.008541
778725705052353, 4.395615, -4.208975, 7.9106717, 0.019200325, -0.019166827, 9.980726
778725714691728, 4.3633122, -4.2053857, 7.8759756, 0.010061741, -0.002167821, 9.937537
778725724331103, 4.3334017, -4.1922255, 7.920243, 0.05379677, 0.026869178, 9.953882
778725733970478, 4.3740797, -4.210171, 7.938189, 0.042238235, -0.0015105009, 9.993557
778725743609853, 4.347759, -4.2245283, 8.092526, 0.13003778, 0.061639786, 10.110289
778725753249124, 4.347759, -4.2185464, 8.105687, 0.14329767, 0.06150019, 10.118152
778725762888499, 4.4350967, -4.213761, 7.948957, 0.033668518, -0.05040741, 10.03036
778725772527874, 4.4721856, -4.2281175, 7.853244, -0.043269157, -0.095758915, 9.976965
778725782167249, 4.3740797, -4.28076, 7.9034934, -0.017073154, 0.029941082, 9.996075
778725791806520, 4.4410787, -4.377669, 7.8029947, -0.16240549, -0.0034207106, 9.987369
778725801445895, 4.5224347, -4.3944187, 7.85444, -0.16967916, -0.05216813, 10.0709505
778725811085270, 4.5044885, -4.4243293, 7.962117, -0.11493111, -0.0013554096, 10.161064
778725820724645, 4.4075794, -4.447061, 8.048259, -0.036904335, 0.11336255, 10.196243
778725830364020, 4.4004006, -4.432704, 7.9561353, -0.07040882, 0.09516168, 10.114269
778725840003290, 4.4374895, -4.347759, 7.9334035, -0.02950716, 0.017589092, 10.076309
778725849642665, 4.4147577, -4.2424746, 7.948957, 0.072889805, -0.0069111586, 10.033405
778725859282040, 4.3968115, -4.206582, 7.85444, 0.055870056, -0.023550153, 9.935585
778725868921415, 4.4004006, -4.1814575, 7.810173, 0.05067587, -0.043177605, 9.891537
778725878560686, 4.4482574, -4.180261, 7.7826557, 0.023839474, -0.086224556, 9.890568
778725888200061, 4.4434714, -4.194618, 7.861619, 0.061905384, -0.05492997, 9.95678
778725897839436, 4.438686, -4.240082, 7.8664045, 0.03278351, -0.024467587, 9.97792
778725907478811, 4.5008993, -4.274778, 7.8891363, 5.297661E-4, -0.052781463, 10.038302
778725917118082, 4.485346, -4.2628136, 7.9070826, 0.023569584, -0.038687587, 10.040409
778725926757457, 4.4482574, -4.302295, 7.8783684, -0.0136733055, 0.009862661, 10.018242
778725936396832, 4.453043, -4.325027, 7.8580294, -0.046649456, 0.016232729, 10.014072
778725946036207, 4.442275, -4.3058844, 7.8927255, -0.010536194, 0.025902867, 10.028399
778725955675478, 4.4279184, -4.301099, 7.8867435, -0.0069289207, 0.036465406, 10.015252
778725965314853, 4.4458647, -4.3094735, 7.911868, -0.0051002502, 0.034332395, 10.046577
778725974954228, 4.4339004, -4.2711883, 7.905886, 0.023828506, 0.027261257, 10.020192
778725984593603, 4.4398823, -4.24726, 7.87119, 0.020071983, 0.005653739, 9.985338
778725994232978, 4.4817567, -4.2352962, 7.85444, 0.0073695183, -0.03566444, 9.985728
778726003872249, 4.4925246, -4.2077785, 7.8604226, 0.029269218, -0.052964807, 9.983524
778726013511624, 4.510471, -4.2041893, 7.8867435, 0.042076588, -0.06415987, 10.010714
778726023150999, 4.482953, -4.2317066, 7.908279, 0.041921616, -0.0189538, 10.027111
778726032790374, 4.5092745, -4.24726, 7.897511, 0.0165658, -0.030979395, 10.037042
778726042429645, 4.537988, -4.213761, 7.921439, 0.04856491, -0.06518555, 10.054439
778726052069020, 4.5714874, -4.1958146, 7.9154572, 0.04856348, -0.10356641, 10.0570755
778726061708395, 4.51406, -4.191029, 7.966903, 0.105024815, -0.0394001, 10.069778
778726071347770, 4.4949174, -4.601398, 7.8460655, -0.27311516, 0.14874375, 10.141064
778726080987040, 4.5427737, -3.562913, 7.954939, 0.5895672, -0.35325634, 9.805092
778726090626415, 4.599005, -4.7509494, 7.641479, -0.5267749, 0.07534003, 10.091155
778726100265790, 4.406383, -3.7830527, 7.87119, 0.4063692, -0.14053619, 9.77233
778726109905165, 4.6600223, -4.5655055, 7.940582, -0.21329308, 0.007380724, 10.274576
778726119544436, 4.3058844, -4.3908296, 7.7742805, -0.08254528, 0.19317031, 9.910364
778726129183811, 4.741378, -4.240082, 8.019546, 0.09090805, -0.18527126, 10.233742
778726138823186, 4.4111686, -4.935197, 7.6773715, -0.5665736, 0.30440855, 10.116469
778726148462561, 4.6372905, -3.8823547, 8.086544, 0.45684004, -0.22319841, 10.085177
778726158101832, 4.4374895, -5.143372, 7.59123, -0.76650715, 0.34810734, 10.152027
778726167741207, 4.508078, -3.696911, 7.9130645, 0.5695796, -0.24290633, 9.809338
778726177380582, 4.503292, -4.981857, 7.578069, -0.64038897, 0.22648847, 10.102688
778726187019853, 4.341777, -3.8285162, 7.757531, 0.41079807, -0.08242297, 9.670176
778726196659228, 4.59063, -4.56072, 7.8281193, -0.16562843, 0.025779724, 10.155069
778726206298603, 4.3094735, -4.202993, 7.688139, 0.11293793, 0.07946408, 9.763458
778726215937978, 4.7282176, -4.080959, 7.928618, 0.25709867, -0.26881313, 10.08637
778726225577249, 4.4578285, -4.7341995, 7.517052, -0.43095684, 0.14222538, 9.928997
778726235216624, 4.7676992, -3.714857, 7.952546, 0.54987717, -0.45905972, 9.962982
778726244855999, 4.5224347, -4.991428, 7.4452677, -0.68210554, 0.18696058, 10.014917
778726254495374, 4.5714874, -3.6227336, 7.884351, 0.6381607, -0.33772445, 9.780817
778726264134645, 4.5894337, -5.005785, 7.6307116, -0.59128046, 0.18475425, 10.196315
778726273774020, 4.4817567, -3.8476589, 7.77787, 0.43533373, -0.21260095, 9.754546
778726283413395, 4.664808, -4.7162533, 7.861619, -0.23894167, 0.03345239, 10.283497
778726293052665, 4.2652063, -4.3633122, 7.789834, 0.08630514, 0.20423627, 9.892565
778726302692040, 4.6564326, -4.3537407, 7.9836526, 0.11195898, -0.0914346, 10.215443
778726312331415, 4.345366, -4.782056, 7.587641, -0.37766457, 0.28138363, 9.954935
778726321970790, 4.7042894, -3.8404803, 7.9680996, 0.4757514, -0.37418628, 10.000194
778726331610061, 4.415954, -5.0596237, 7.554141, -0.6321292, 0.3269211, 10.082609
778726341249436, 4.5655055, -3.6658044, 7.9501534, 0.62998414, -0.33485436, 9.847734
778726350888811, 4.508078, -5.066802, 7.6390862, -0.61280346, 0.26851797, 10.193296
778726360528082, 4.3848476, -3.8703907, 7.84128, 0.45824146, -0.10261667, 9.770977
778726370167457, 4.6265225, -4.8705907, 7.8077803, -0.39399242, 0.10885763, 10.291827
778726379806832, 4.345366, -4.3645086, 7.728817, 0.02901125, 0.111698866, 9.881925
778726389446207, 4.692325, -4.4446683, 7.9346, 0.010684013, -0.101563215, 10.2333
778726399085478, 4.2664027, -4.914858, 7.570891, -0.4834075, 0.36310315, 9.965485
778726408724853, 4.62413, -4.045067, 7.948957, 0.35565996, -0.20192361, 10.038116
778726418364228, 4.388437, -5.1613183, 7.5290165, -0.7151351, 0.34710407, 10.097118
778726428003499, 4.5427737, -3.7710886, 7.8927255, 0.5782933, -0.2566855, 9.836296
778726437642874, 4.485346, -5.151747, 7.5696945, -0.70011044, 0.2927798, 10.167756
778726447282249, 4.4315076, -3.8440695, 7.786245, 0.47808075, -0.16828847, 9.7357
778726456921624, 4.6289153, -4.8047876, 7.7623167, -0.33665466, 0.0669291, 10.22979
778726466560895, 4.2759743, -4.206582, 7.7443705, 0.1902194, 0.11270714, 9.793143
778726476200270, 4.6265225, -4.402794, 7.9393854, 0.06683111, -0.062108874, 10.188956
778726485839645, 4.298706, -4.7102714, 7.623533, -0.29151678, 0.27117288, 9.931026
778726495478915, 4.6731825, -3.9026937, 8.023134, 0.5038471, -0.28958058, 10.054979
778726505118290, 4.35733, -5.0165524, 7.631908, -0.52904034, 0.36113167, 10.098902
778726514757665, 4.5714874, -3.67059, 8.008778, 0.69491744, -0.32162344, 9.895752
778726524396936, 4.5296135, -5.0775695, 7.6390862, -0.6207013, 0.24050426, 10.208412
778726534036311, 4.51406, -3.7543387, 7.812566, 0.5431204, -0.2690773, 9.754005
778726543675686, 4.7341995, -4.8394837, 7.678568, -0.4421587, -0.022269368, 10.227299
778726553314957, 4.4805603, -4.132405, 7.6713896, 0.17894125, -0.11218917, 9.795807
778726562954332, 4.853841, -4.3908296, 7.834101, -0.0118021965, -0.2808237, 10.204573
778726572593707, 4.442275, -4.621737, 7.5290165, -0.2733407, 0.10858464, 9.884019
778726582233082, 4.8035913, -3.9565322, 7.88794, 0.3660102, -0.41028118, 10.032245
778726591872353, 4.5296135, -5.0129633, 7.4847493, -0.6165166, 0.20125222, 10.062211
778726601511728, 4.755735, -3.6658044, 7.9633136, 0.65128183, -0.46781564, 9.941153
778726611151103, 4.6432724, -5.0368915, 7.6163545, -0.5941763, 0.17335522, 10.225262
778726620790374, 4.5858445, -3.6514473, 7.865208, 0.6343775, -0.35933566, 9.78228
778726630429749, 4.666004, -4.7712884, 7.7814593, -0.2953844, 0.05853033, 10.246816
778726640069124, 4.358526, -3.9625144, 7.806584, 0.40438652, -0.049077988, 9.771136
778726649708395, 4.7377887, -4.3274198, 7.958528, 0.109288216, -0.16634953, 10.221144
778726659347770, 4.354937, -4.4925246, 7.6797643, -0.08206749, 0.17172515, 9.904082
778726668987145, 4.6803613, -3.9661036, 7.9980097, 0.43174362, -0.27384317, 10.066904
778726678626415, 4.2855453, -4.968696, 7.628319, -0.46240282, 0.43084013, 10.042194
778726688265790, 4.469793, -3.7627137, 8.045866, 0.66769886, -0.16635084, 9.919653
778726697905165, 4.35733, -5.2031927, 7.6570325, -0.63513136, 0.47172034, 10.201166
778726707544436, 4.4350967, -3.8213377, 7.8903327, 0.5708399, -0.16554129, 9.806977
778726717183811, 4.619344, -5.0165524, 7.6713896, -0.5332308, 0.14370227, 10.249359
778726726823186, 4.395615, -4.104887, 7.664211, 0.22657919, -0.055847645, 9.739467
778726736462457, 4.685147, -4.5714874, 7.7479596, -0.14058542, -0.08455396, 10.141649
778726746101832, 4.249653, -4.597809, 7.503892, -0.20492172, 0.24521673, 9.767582
778726755741103, 4.56072, -4.1694937, 7.8520474, 0.26638412, -0.117526054, 9.987729
778726765380478, 4.2341, -5.0656056, 7.515856, -0.56631756, 0.44413662, 9.977879
778726775019853, 4.546363, -3.8117664, 7.9704924, 0.62482405, -0.24480629, 9.913494
778726784659124, 4.4745784, -5.1661043, 7.5816584, -0.66959095, 0.28653884, 10.181434
778726794298499, 4.5224347, -3.739982, 7.8699937, 0.62700677, -0.27305055, 9.793314
778726803937874, 4.6636114, -4.948357, 7.665407, -0.49360943, 0.04629302, 10.234657
778726813577145, 4.49731, -3.932604, 7.7407813, 0.39618492, -0.20718884, 9.767855
778726823216520, 4.786842, -4.4578285, 7.914261, 0.02522993, -0.19382024, 10.265642
778726832855895, 4.4039903, -4.406383, 7.7347994, 0.025283337, 0.070854664, 9.931404
778726842495165, 4.7653065, -4.052245, 8.096115, 0.4418621, -0.28914714, 10.217489
778726852134540, 4.365705, -4.930411, 7.696514, -0.4103427, 0.30579352, 10.116462
778726861773915, 4.668397, -3.8380876, 8.098508, 0.62221503, -0.28903627, 10.081665
778726871413186, 4.5224347, -5.2366924, 7.6546397, -0.7126088, 0.28342724, 10.289837
778726881052561, 4.6037908, -3.830909, 7.90469, 0.5183096, -0.29832125, 9.899355
778726890691936, 4.618148, -5.1266227, 7.6546397, -0.6472645, 0.17593837, 10.283636
778726900331207, 4.401597, -4.074977, 7.773084, 0.3006363, -0.04250002, 9.813672
778726909970582, 4.7042894, -4.729414, 7.830512, -0.23518896, -0.0117378235, 10.283927
778726919609957, 4.2652063, -4.5188456, 7.624729, -0.09539461, 0.22757149, 9.832983
778726929249228, 4.6408796, -4.2317066, 7.926225, 0.22858381, -0.14030099, 10.109314
778726938888603, 4.3070807, -4.9639106, 7.513463, -0.51565886, 0.3487022, 9.96273
778726948527874, 4.674379, -3.8333018, 7.9226356, 0.53350353, -0.33929706, 9.945472
778726958167249, 4.4721856, -5.1589255, 7.5517483, -0.69994783, 0.30418754, 10.151918
778726967806624, 4.53081, -3.7005002, 7.8628154, 0.6259265, -0.2847793, 9.776141
778726977445895, 4.5690947, -5.0189457, 7.5792656, -0.59589434, 0.19167829, 10.154797
778726987085270, 4.3872404, -3.8991046, 7.7072816, 0.40062952, -0.09784794, 9.678999
778726996724645, 4.638487, -4.613362, 7.77787, -0.17146492, 0.009283304, 10.161913
778727006363915, 4.29392, -4.2999024, 7.6343007, 0.05913925, 0.13531065, 9.756415
778727016003290, 4.7485566, -4.095316, 7.9154572, 0.2801838, -0.27583528, 10.090603
778727025642561, 4.386044, -4.776074, 7.5553374, -0.38417864, 0.2332635, 9.946326
778727035281936, 4.6815577, -3.7507496, 7.987242, 0.60579395, -0.35604048, 9.964306
778727044921311, 4.4662037, -5.0715876, 7.6019974, -0.6155467, 0.31123674, 10.148033
778727054560582, 4.584648, -3.6526437, 7.952546, 0.67889, -0.31057358, 9.851216
778727064199957, 4.540381, -5.0476594, 7.658229, -0.5675969, 0.24987698, 10.215567
778727073839332, 4.3992043, -3.845266, 7.798209, 0.48848295, -0.12107706, 9.731281
778727083478603, 4.6803613, -4.6731825, 7.8400836, -0.20034266, 0.0121405125, 10.255293
778727093117978, 4.3405805, -4.298706, 7.7276206, 0.10327721, 0.10735512, 9.849541
778727102757249, 4.698307, -4.24726, 7.945368, 0.1840539, -0.1727866, 10.1576805
778727112396624, 4.321438, -4.807181, 7.587641, -0.36474228, 0.31544065, 9.956083
778727122035999, 4.6971107, -3.8536408, 8.018349, 0.53325653, -0.32782233, 10.040691
778727131675270, 4.465007, -5.139783, 7.60439, -0.64679337, 0.336442, 10.180809
778727141314645, 4.60738, -3.7363925, 7.982456, 0.61859274, -0.32389498, 9.920717
778727150954020, 4.554738, -5.1421757, 7.649854, -0.6484561, 0.27847993, 10.257186
778727160593290, 4.402794, -3.9338005, 7.798209, 0.4279771, -0.09387696, 9.771359
778727170232665, 4.634897, -4.8251266, 7.798209, -0.32321405, 0.09609151, 10.269494
778727179871936, 4.3405805, -4.319045, 7.6941214, 0.083714485, 0.10219622, 9.832439
778727189511311, 4.7246284, -4.339384, 7.9011, 0.09842825, -0.16505027, 10.1756
778727199150686, 4.3932223, -4.7952166, 7.5409803, -0.38765097, 0.2365036, 9.9475975
778727208789957, 4.76411, -3.8895333, 7.9334035, 0.4609723, -0.39040756, 10.019939
778727218429332, 4.4913282, -5.0620165, 7.5385876, -0.6265788, 0.27604532, 10.107302
778727228068603, 4.6205406, -3.6478581, 7.9298143, 0.6742389, -0.36449575, 9.846357
778727237707978, 4.5188456, -5.063213, 7.617551, -0.57784176, 0.26587677, 10.182267
778727247347353, 4.418347, -3.8261235, 7.795816, 0.50470924, -0.1445396, 9.729342
778727256986624, 4.6229334, -4.8358946, 7.751549, -0.34797955, 0.09963918, 10.232931
778727266625999, 4.3094735, -4.2723846, 7.670193, 0.114403725, 0.111157775, 9.779123
778727276265374, 4.6899323, -4.4446683, 7.82453, -0.0054945946, -0.10702157, 10.147036
778727285904645, 4.3262234, -4.8155556, 7.489535, -0.41328478, 0.2793541, 9.886864
778727295544020, 4.703093, -3.999603, 7.8891363, 0.39014244, -0.29618096, 10.00572
778727305183290, 4.3992043, -5.1158547, 7.5230346, -0.639544, 0.3406651, 10.079483
778727314822665, 4.59063, -3.7304106, 7.9357963, 0.6490679, -0.29490852, 9.872105
778727324462040, 4.54397, -5.111069, 7.6199436, -0.61227703, 0.25333405, 10.217398
778727334101311, 4.4913282, -3.7686956, 7.8699937, 0.5954366, -0.24643767, 9.792683
778727343740686, 4.658826, -4.7952166, 7.826923, -0.2796588, 0.0645076, 10.2896595
778727353379957, 4.398008, -4.113262, 7.8017983, 0.29851675, -0.018625855, 9.850888
778727363019332, 4.8083773, -4.319045, 7.9944205, 0.1539154, -0.23511446, 10.2765
778727372658707, 4.4841495, -4.5415773, 7.6941214, -0.1304264, 0.07386029, 9.995527
778727382297978, 4.834698, -3.8691943, 8.049456, 0.5162134, -0.4401375, 10.133041
778727391937353, 4.4554358, -4.9878387, 7.6223364, -0.52256346, 0.281453, 10.123102
778727401576624, 4.618148, -3.656233, 8.04108, 0.72685003, -0.33434224, 9.935503
778727411215999, 4.5008993, -5.081159, 7.664211, -0.57058, 0.28632522, 10.218064
778727420855374, 4.465007, -3.7866418, 7.8352976, 0.55368805, -0.17340875, 9.763718
778727430494645, 4.6097727, -4.948357, 7.706085, -0.4586296, 0.14251328, 10.24155
778727440134020, 4.347759, -4.206582, 7.6749787, 0.17311287, 0.052208424, 9.770924
778727449773395, 4.664808, -4.570291, 7.800602, -0.10860968, -0.036117315, 10.172724
778727459412665, 4.253242, -4.7629137, 7.4883385, -0.35406494, 0.31810832, 9.829755
778727469052040, 4.6564326, -4.1431723, 7.8317084, 0.24850607, -0.20323181, 10.004042
778727478691311, 4.3274198, -5.1254263, 7.4620175, -0.6524625, 0.4149462, 10.004019
778727488330686, 4.5427737, -3.8117664, 7.9238324, 0.59469175, -0.23675275, 9.876426
778727497970061, 4.4542394, -5.174479, 7.624729, -0.61911774, 0.3694818, 10.209415
778727507609332, 4.473382, -3.731607, 7.9022965, 0.6468873, -0.21791553, 9.793692
778727517248707, 4.6265225, -4.8861437, 7.732406, -0.3805933, 0.11133456, 10.242655
778727526887978, 4.4004006, -4.0438704, 7.77787, 0.34148264, -0.04823184, 9.8026905
778727536527353, 4.755735, -4.4781675, 7.90469, -0.0045638084, -0.13803208, 10.253587
778727546166728, 4.3992043, -4.540381, 7.6366935, -0.13401794, 0.12763691, 9.91226
778727555805999, 4.7856455, -4.063013, 7.954939, 0.33896017, -0.3274958, 10.122717
778727565445374, 4.4446683, -5.0105705, 7.560123, -0.5597286, 0.27818274, 10.080956
778727575084645, 4.682754, -3.7447674, 7.989635, 0.64057827, -0.37301087, 9.961741
778727584724020, 4.490132, -5.168497, 7.60798, -0.66116524, 0.32193005, 10.208587
778727594363395, 4.4949174, -3.778267, 7.895118, 0.60729456, -0.22056985, 9.818097
778727604002665, 4.6301117, -5.020142, 7.6893353, -0.51272297, 0.15959644, 10.270214
778727613642040, 4.438686, -4.080959, 7.7407813, 0.28377342, -0.08057201, 9.807591
778727623281311, 4.741378, -4.578666, 7.856833, -0.09859133, -0.09200823, 10.254583
778727632920686, 4.3465624, -4.516453, 7.618747, -0.102705, 0.16158712, 9.864056
778727642560061, 4.741378, -4.0677986, 7.938189, 0.33770704, -0.2982204, 10.091557
778727652199332, 4.3740797, -4.914858, 7.6199436, -0.42827272, 0.32501817, 10.053004
778727661838707, 4.597809, -3.739982, 8.048259, 0.6853404, -0.29091108, 9.9673195
778727671478082, 4.4410787, -5.099105, 7.658229, -0.562408, 0.35355806, 10.194666
778727681117353, 4.5224347, -3.7124643, 7.9357963, 0.6400552, -0.27142978, 9.835057
778727690756728, 4.6169515, -4.9698925, 7.719246, -0.474576, 0.16290498, 10.264066
778727700395999, 4.45065, -3.9553359, 7.763513, 0.37470293, -0.13816643, 9.775766
778727710035374, 4.709075, -4.581059, 7.8293157, -0.13343239, -0.05859244, 10.219513
778727719674749, 4.308277, -4.4243293, 7.648658, -0.02179718, 0.17369366, 9.8289
778727729314020, 4.6935215, -4.1276193, 7.9537425, 0.30280638, -0.21072531, 10.109021
778727738953395, 4.31067, -4.9340005, 7.5960155, -0.45794773, 0.37991476, 10.013573
778727748592665, 4.6205406, -3.81057, 8.020741, 0.60182333, -0.26422572, 9.988501
778727758232040, 4.447061, -5.1625147, 7.6259255, -0.6624584, 0.3547063, 10.19892
778727767871415, 4.5714874, -3.711268, 7.8891363, 0.6147647, -0.29157734, 9.82077
778727777510686, 4.6265225, -5.042874, 7.624729, -0.5922413, 0.14890671, 10.227359
778727787150061, 4.4004006, -3.9972103, 7.706085, 0.3297782, -0.06961584, 9.726837
778727796789436, 4.6408796, -4.7509494, 7.7850485, -0.27150345, 0.06561375, 10.229282
778727806428707, 4.302295, -4.486542, 7.6630144, -0.05089712, 0.21582472, 9.8646555
778727816068082, 4.709075, -4.2652063, 7.972885, 0.20205593, -0.1632669, 10.191505
778727825707353, 4.3130627, -4.9435716, 7.6343007, -0.43290138, 0.4024788, 10.048611
778727835346728, 4.638487, -3.8440695, 8.068598, 0.60682344, -0.26006722, 10.047828
778727844986103, 4.4685965, -5.1026945, 7.6546397, -0.5840192, 0.35593808, 10.204488
778727854625374, 4.6504507, -3.6191442, 7.940582, 0.6938391, -0.39309788, 9.856053
778727864264749, 4.6552362, -4.9459643, 7.623533, -0.53340816, 0.10601616, 10.195894
778727873904020, 4.4985065, -3.743571, 7.733603, 0.5229466, -0.24486065, 9.681223
778727883543395, 4.7545385, -4.56072, 7.7682986, -0.15637827, -0.11027241, 10.18409
778727893182770, 4.4171505, -4.261617, 7.6223364, 0.06153488, 0.018494248, 9.786139
778727902822040, 4.822734, -4.2364926, 7.9034934, 0.16456795, -0.2716732, 10.176983
778727912461415, 4.503292, -4.883751, 7.5720873, -0.4675994, 0.1986357, 10.060271
778727922100790, 4.81077, -3.9565322, 7.989635, 0.43631697, -0.35684443, 10.115049
778727931740061, 4.473382, -5.2498527, 7.576873, -0.7381444, 0.37585044, 10.212493
778727941379436, 4.558327, -3.8069808, 7.884351, 0.5501747, -0.23260403, 9.852799
778727951018811, 4.564309, -5.144569, 7.6223364, -0.6488271, 0.274917, 10.242214
778727960658082, 4.3968115, -3.8895333, 7.7910304, 0.47244215, -0.075295925, 9.743289
778727970297457, 4.5918264, -4.7676992, 7.813762, -0.24746704, 0.13407159, 10.236771
778727979936728, 4.2867417, -4.3034916, 7.7503524, 0.14542389, 0.1788671, 9.844339
778727989576103, 4.738985, -4.2963133, 7.9800634, 0.18679476, -0.15665793, 10.224396
778727999215478, 4.429115, -4.81077, 7.5936227, -0.37932253, 0.22985387, 10.011342
778728008854749, 4.7952166, -3.8943188, 7.958528, 0.4628706, -0.38129663, 10.056758
778728018494124, 4.505685, -5.103891, 7.550552, -0.6577163, 0.2800846, 10.141533
778728028133499, 4.619344, -3.6993039, 7.9106717, 0.6382363, -0.3019793, 9.854104
778728037772770, 4.5678983, -5.127819, 7.605587, -0.65666056, 0.26789904, 10.222631
778728047412145, 4.4111686, -3.871587, 7.806584, 0.4819064, -0.075942755, 9.754606
778728057051520, 4.6205406, -4.8047876, 7.8317084, -0.2976961, 0.14586473, 10.279161
778728066690790, 4.3357944, -4.210171, 7.746763, 0.1853118, 0.119325995, 9.822853
778728076330165, 4.7222357, -4.254439, 7.9070826, 0.15524244, -0.15170813, 10.142711
778728085969436, 4.3872404, -4.6002016, 7.570891, -0.2401557, 0.19444072, 9.880922
778728095608811, 4.7545385, -3.7686956, 7.946564, 0.54859114, -0.36890197, 9.975949
778728105248186, 4.4925246, -4.941179, 7.568498, -0.54191685, 0.28642368, 10.074942
778728114887457, 4.6839504, -3.566502, 7.9166536, 0.7040081, -0.39230394, 9.832762
778728124526832, 4.618148, -4.9926243, 7.623533, -0.5737753, 0.20967019, 10.197973
778728134166207, 4.536792, -3.7447674, 7.836494, 0.5295763, -0.22139084, 9.781969
778728143805478, 4.743771, -4.8191447, 7.7647095, -0.38666153, 0.0679965, 10.289027
778728153444853, 4.4231324, -4.191029, 7.722835, 0.15479755, 0.050309777, 9.835878
778728163084228, 4.746164, -4.418347, 7.90469, 0.0061774254, -0.07827258, 10.223785
778728172723499, 4.3764725, -4.7365923, 7.5828547, -0.34068823, 0.30021477, 9.943958
778728182362874, 4.773681, -4.0007997, 7.9357963, 0.34035015, -0.28191864, 10.078492
778728192002249, 4.505685, -5.09073, 7.533802, -0.6776457, 0.31893373, 10.119978
778728201641520, 4.666004, -3.682554, 8.048259, 0.6829097, -0.2982819, 9.9775715
778728211280895, 4.5355954, -5.0739803, 7.682157, -0.5853896, 0.3143494, 10.241629
778728220920165, 4.5332026, -3.6789649, 7.85444, 0.62062764, -0.22246814, 9.764338
778728230559540, 4.706682, -4.7174497, 7.7946196, -0.27559614, 0.04243946, 10.2511215
778728240198915, 4.4111686, -3.9098723, 7.756335, 0.3961196, -0.047491312, 9.73381
778728249838186, 4.776074, -4.2448673, 7.8699937, 0.124298096, -0.18708706, 10.134897
778728259477561, 4.4434714, -4.4674, 7.605587, -0.14210033, 0.12285602, 9.874805
778728269116936, 4.7712884, -3.8691943, 7.9573317, 0.46738386, -0.32428217, 10.036503
778728278756207, 4.430311, -4.941179, 7.554141, -0.54102945, 0.33048463, 10.03524
778728288395582, 4.615755, -3.690929, 7.9537425, 0.6320553, -0.26818132, 9.885281
778728298034957, 4.4805603, -5.1469617, 7.6199436, -0.6685257, 0.3779049, 10.200021
778728307674228, 4.490132, -3.7734814, 7.8221374, 0.5411711, -0.17178488, 9.760323
778728317313603, 4.6899323, -4.9698925, 7.685746, -0.5265641, 0.12701964, 10.269987
778728326952978, 4.4662037, -4.1479583, 7.719246, 0.18744421, -0.015213966, 9.833817
778728336592249, 4.813163, -4.537988, 7.844869, -0.11358452, -0.120298386, 10.260336
778728346231624, 4.4458647, -4.5918264, 7.5673018, -0.23701143, 0.14793062, 9.901342
778728355870999, 4.816752, -4.028317, 7.885547, 0.31403542, -0.3272438, 10.069984
778728365510270, 4.415954, -5.0081778, 7.623533, -0.5268016, 0.35589528, 10.114176
778728375149645, 4.604987, -3.7447674, 8.149954, 0.7374487, -0.21630621, 10.0528755
778728384789020, 4.4662037, -5.1349974, 7.756335, -0.5518198, 0.40632606, 10.295937
778728394428290, 4.5738807, -3.7064822, 7.993224, 0.6802645, -0.25031018, 9.900737
778728404067665, 4.7078786, -4.914858, 7.7682986, -0.4401579, 0.10922551, 10.317984
778728413707040, 4.453043, -4.011567, 7.716853, 0.2974105, -0.077831745, 9.766146
778728423346311, 4.7688956, -4.54397, 7.7623167, -0.1616602, -0.103141785, 10.178743
778728432985686, 4.386044, -4.5451665, 7.4787674, -0.23987293, 0.15346801, 9.785028
778728442625061, 4.7198424, -4.1491547, 7.793423, 0.18625736, -0.23105669, 10.007088
778728452264332, 4.3525443, -5.058427, 7.4273214, -0.65470266, 0.38723814, 9.955845
778728461903707, 4.631308, -3.8703907, 7.877172, 0.47920084, -0.24698782, 9.908992
778728471543082, 4.4721856, -5.227121, 7.5816584, -0.7091651, 0.39722538, 10.205101
778728481182353, 4.540381, -3.76391, 7.8496547, 0.57587004, -0.23591852, 9.798565
778728490821728, 4.6552362, -4.995017, 7.6343007, -0.53255033, 0.1418196, 10.227425
778728500461103, 4.4805603, -3.9684963, 7.733603, 0.3686366, -0.13101792, 9.771383
778728510100478, 4.7832522, -4.551149, 7.873583, -0.06718016, -0.11024094, 10.274683
778728519739749, 4.3968115, -4.415954, 7.6893353, 0.009716511, 0.11140072, 9.896767
778728529379124, 4.8239303, -4.054638, 8.001599, 0.37461615, -0.3369956, 10.172615
778728539018499, 4.5128636, -4.8323054, 7.6223364, -0.3870945, 0.1721381, 10.0815525
778728548657770, 4.8035913, -3.6394832, 8.053044, 0.72633505, -0.4781196, 10.020764
778728558297145, 4.5655055, -5.0177493, 7.664211, -0.5313482, 0.20988917, 10.219364
778728567936520, 4.595416, -3.6179478, 7.972885, 0.7266607, -0.33643794, 9.855611
778728577575790, 4.597809, -4.9567323, 7.7383885, -0.4540825, 0.17128634, 10.264315
778728587215165, 4.375276, -3.918247, 7.8460655, 0.46378136, -0.05140066, 9.789724
778728596854540, 4.631308, -4.636094, 7.9154572, -0.10740614, 0.038211346, 10.275402
778728606493915, 4.2592244, -4.4410787, 7.704889, 0.004849434, 0.21968448, 9.858053
778728616133186, 4.6695933, -4.2520456, 7.9561353, 0.22461796, -0.15781403, 10.154295
778728625772561, 4.3178487, -5.0536413, 7.5756764, -0.5550833, 0.3838396, 10.055771
778728635411936, 4.619344, -4.0007997, 7.9908314, 0.46935987, -0.21067238, 10.046565
778728645051207, 4.4434714, -5.3826547, 7.5816584, -0.8287864, 0.40204263, 10.264036
778728654690582, 4.5487556, -3.9816568, 7.8903327, 0.45099163, -0.17389369, 9.928167
778728664329957, 4.5678983, -5.3204412, 7.63789, -0.7748928, 0.29191542, 10.335592
778728673969228, 4.341777, -4.1431723, 7.751549, 0.27889013, 0.033125877, 9.7992115
778728683608603, 4.587041, -4.8861437, 7.8233337, -0.32016182, 0.13644028, 10.295571
778728693247978, 4.210171, -4.5415773, 7.696514, -0.054543495, 0.29258955, 9.874168
778728702887353, 4.62413, -4.3525443, 7.966903, 0.1696372, -0.0734148, 10.186492
778728712526624, 4.2915273, -4.9064827, 7.5792656, -0.43141413, 0.34986854, 9.981359
778728722165999, 4.6839504, -3.8440695, 7.9477606, 0.5427604, -0.34102583, 9.973578
778728731805374, 4.476971, -5.0476594, 7.5720873, -0.5975876, 0.25055408, 10.121203
778728741444645, 4.6265225, -3.5449667, 7.8867435, 0.73996305, -0.43025446, 9.769317
778728751084020, 4.6576295, -4.9052863, 7.6534433, -0.46531963, 0.062464237, 10.203437
778728760723395, 4.4745784, -3.6933217, 7.8556366, 0.6384342, -0.23313189, 9.742257
778728770362770, 4.6552362, -4.6205406, 7.873583, -0.12164116, 0.011488676, 10.246902
778728780002040, 4.334598, -4.2077785, 7.757531, 0.19487, 0.088822365, 9.829932
778728789641415, 4.7688956, -4.165904, 7.9764743, 0.26139736, -0.24523854, 10.178054
778728799280790, 4.45065, -4.7102714, 7.5661054, -0.3452201, 0.14359498, 9.954954
778728808920165, 4.7605205, -3.8333018, 7.960921, 0.5024376, -0.38438225, 10.016626
778728818559436, 4.479364, -5.0775695, 7.5828547, -0.6412306, 0.28869677, 10.141576
778728828198811, 4.618148, -3.662215, 7.975278, 0.69280005, -0.3213339, 9.887415
778728837838186, 4.581059, -5.048856, 7.6953177, -0.5572629, 0.22550058, 10.263213
778728847477561, 4.4518466, -3.81057, 7.891529, 0.5604973, -0.14674354, 9.812233
778728857116832, 4.679165, -4.773681, 7.8891363, -0.24794054, 0.07753563, 10.337003
778728866756207, 4.3704906, -4.2448673, 7.7551384, 0.15329552, 0.08292699, 9.860622
778728876395582, 4.772485, -4.3202415, 7.90469, 0.0846982, -0.19272947, 10.192198
778728886034957, 4.409972, -4.746164, 7.560123, -0.36726046, 0.2234664, 9.947089
778728895674228, 4.7605205, -3.9098723, 7.946564, 0.4225726, -0.35713375, 10.0394945
778728905313603, 4.4446683, -5.0979085, 7.5673018, -0.63536406, 0.3560927, 10.123108
778728914952978, 4.6037908, -3.6849468, 7.9537425, 0.6548395, -0.32202578, 9.8743725
778728924592353, 4.505685, -5.1349974, 7.6606216, -0.63084126, 0.3446418, 10.239033
778728934231624, 4.4111686, -3.8344984, 7.838887, 0.5205431, -0.116817, 9.763471
778728943870999, 4.65404, -4.837091, 7.77787, -0.3533802, 0.10847616, 10.267237
778728953510374, 4.415954, -4.199404, 7.7383885, 0.1691761, 0.022701263, 9.848308
778728963149749, 4.7676992, -4.371687, 7.9477606, 0.074258804, -0.15029597, 10.246045
778728972789020, 4.3561335, -4.7042894, 7.623533, -0.27882957, 0.267568, 9.9536495
778728982428395, 4.74736, -3.938586, 7.999206, 0.44669962, -0.3021922, 10.08694
778728992067770, 4.5188456, -5.0440702, 7.647461, -0.58392763, 0.28391933, 10.194345
778729001707145, 4.718646, -3.6658044, 8.017152, 0.6776068, -0.37479925, 9.968894
778729011346415, 4.59063, -5.0979085, 7.6510506, -0.6271882, 0.25313354, 10.25396
778729020985790, 4.4913282, -3.7818563, 7.8233337, 0.52073884, -0.17079091, 9.7662
778729030625165, 4.6468616, -4.8729835, 7.737192, -0.41342735, 0.13926363, 10.247591
778729040264540, 4.358526, -4.130012, 7.702496, 0.21434784, 0.05579114, 9.763868
778729049903811, 4.645665, -4.575077, 7.8257265, -0.12833357, 0.031573296, 10.185189
778729059543186, 4.49731, -4.31067, 7.7300134, 0.05600691, 0.019520521, 9.927601
778729069182561, 4.5798626, -4.3764725, 7.8029947, 0.03137684, -0.0037039518, 10.0505905
778729078821936, 4.6061835, -4.3357944, 7.737192, 0.017569065, -0.061573386, 9.993801
778729088461311, 4.618148, -4.392026, 7.783852, -0.0028948784, -0.029595256, 10.060053
778729098100582, 4.6325045, -4.371687, 7.7623167, -0.0062098503, -0.054302216, 10.041031
778729107739957, 4.6229334, -4.415954, 7.726424, -0.06084776, -0.031239986, 10.028215
778729117379332, 4.6289153, -4.386044, 7.765906, -0.017219067, -0.04107821, 10.04846
778729127018707, 4.570291, -4.382455, 7.7587276, -0.00564909, 0.007161975, 10.01455
778729136657978, 4.5415773, -4.3669014, 7.798209, 0.038272858, 0.03143978, 10.025236
778729146297353, 4.51406, -4.3405805, 7.8723865, 0.1058259, 0.056673408, 10.0587
778729155936728, 4.506881, -4.345366, 7.8699937, 0.10270548, 0.06498277, 10.0556555
778729165576103, 4.5188456, -4.331009, 7.8687973, 0.10612011, 0.046694994, 10.05396
778729175215478, 4.5930233, -4.3334017, 7.8604226, 0.07236385, -0.014890194, 10.082413
778729184854749, 4.6432724, -4.3334017, 7.816155, 0.031325817, -0.065817714, 10.071014
778729194494124, 4.658826, -4.362116, 7.763513, -0.027404785, -0.0720973, 10.049821
778729204133499, 4.658826, -4.365705, 7.7383885, -0.043335438, -0.07213974, 10.031929
778729213772874, 4.645665, -4.369294, 7.745567, -0.035572052, -0.05481994, 10.033068
778729223412249, 4.5822554, -4.3525443, 7.7383885, 8.773804E-5, -0.01018548, 9.991209
778729233051520, 4.510471, -4.4051867, 7.804191, 0.022547722, 0.09012067, 10.032288
778729242690895, 4.5116673, -4.4614177, 7.7946196, -0.022706032, 0.115715265, 10.049954
778729252330270, 4.564309, -4.4458647, 7.812566, -0.016345978, 0.06608665, 10.081181
778729261969645, 4.627719, -4.432704, 7.8029947, -0.034097195, 0.0057200193, 10.097039
778729271609020, 4.6121655, -4.415954, 7.745567, -0.05128002, -0.0016061068, 10.03812
778729281248290, 4.5918264, -4.395615, 7.726424, -0.04703045, 0.0075911283, 10.005082
778729290887665, 4.6097727, -4.3669014, 7.745567, -0.02006054, -0.018020034, 10.015634
778729300527040, 4.5882373, -4.331009, 7.7790666, 0.030630112, -0.010857105, 10.016106
778729310166415, 4.5966125, -4.328616, 7.84128, 0.067064285, -0.0058276653, 10.0671215
778729319805790, 4.570291, -4.338187, 7.891529, 0.0972414, 0.031507015, 10.098179
778729329445061, 4.578666, -4.3465624, 7.88794, 0.08601618, 0.028833032, 10.102878
778729339084436, 4.6121655, -4.341777, 7.8352976, 0.04887867, -0.008509278, 10.075342
778729348723811, 4.686343, -4.3238306, 7.771888, 0.004398823, -0.089687586, 10.052438
778729358363186, 4.7449675, -4.331009, 7.702496, -0.059846878, -0.1497401, 10.028698
778729368002561, 4.7198424, -4.3525443, 7.672586, -0.07831192, -0.11785698, 10.003506
778729377641936, 4.648058, -4.389633, 7.6797643, -0.07611036, -0.036648393, 9.992246
778729387281207, 4.6229334, -4.4195433, 7.7754774, -0.03423834, 0.020278454, 10.067788
778729396920582, 4.6289153, -4.408776, 7.830512, 0.007907867, 0.021217227, 10.10844
778729406559957, 4.601398, -4.3944187, 7.8496547, 0.03841257, 0.04007721, 10.104345
778729416199332, 4.5619164, -4.3561335, 7.8460655, 0.07337332, 0.05402994, 10.066748
778729425838707, 4.526024, -4.322634, 7.8233337, 0.08417082, 0.06861246, 10.018125
778729435478082, 4.54397, -4.267599, 7.7790666, 0.09284258, 0.016237855, 9.968203
778729445117353, 4.566702, -4.213761, 7.753942, 0.1010952, -0.029616475, 9.935949
778729454756728, 4.5451665, -4.194618, 7.759924, 0.123313904, -0.018879533, 9.92241
778729464396103, 4.5523453, -4.1790648, 7.771888, 0.13982248, -0.030277133, 9.928253
778729474035478, 4.642076, -4.191029, 7.769495, 0.10191059, -0.100811124, 9.97287
778729483674853, 4.6432724, -4.2352962, 7.7671022, 0.07071447, -0.0785799, 9.990716
778729493314228, 4.610969, -4.2963133, 7.7814593, 0.04648018, -0.01822114, 10.013391
778729502953499, 4.644469, -4.347759, 7.789834, 0.0030736923, -0.018976092, 10.057598
778729512592874, 4.694718, -4.3633122, 7.7850485, -0.020985603, -0.056483507, 10.083761
778729522232249, 4.688736, -4.3908296, 7.756335, -0.046524048, -0.047364473, 10.070747
778729531871624, 4.658826, -4.4279184, 7.743174, -0.069122314, -0.008087158, 10.062954
778729541510999, 4.6085763, -4.449454, 7.7407813, -0.069132805, 0.04243946, 10.047374
778729551150374, 4.56072, -4.465007, 7.725228, -0.07723904, 0.08664167, 10.020086
778729560789749, 4.5475593, -4.45065, 7.722835, -0.06092024, 0.08805382, 10.005962
778729570429020, 4.5320063, -4.438686, 7.728817, -0.04144764, 0.09359336, 9.998259
778729580068395, 4.5355954, -4.4195433, 7.7419777, -0.019786835, 0.07759166, 10.001789
778729589707770, 4.5798626, -4.4243293, 7.757531, -0.02669096, 0.043793917, 10.036259
778729599347145, 4.5535417, -4.449454, 7.7742805, -0.028136253, 0.082140565, 10.048099
778729608986520, 4.5535417, -4.4889355, 7.769495, -0.060529232, 0.09789598, 10.0616665
778729618625895, 4.5942197, -4.473382, 7.7910304, -0.04710436, 0.06118667, 10.090204
778729628265270, 4.644469, -4.4578285, 7.798209, -0.04505825, 0.011259079, 10.112036
778729637904540, 4.6672006, -4.4518466, 7.7647095, -0.066357136, -0.01821661, 10.093943
778729647543915, 4.666004, -4.4350967, 7.7419777, -0.06635904, -0.029762268, 10.068497
778729657183290, 4.6959143, -4.4231324, 7.7276206, -0.073717594, -0.062301636, 10.065907
778729666822665, 4.715057, -4.409972, 7.735996, -0.062348366, -0.0829165, 10.0754385
778729676462040, 4.688736, -4.4147577, 7.7347994, -0.056303978, -0.056358933, 10.064547
778729686101415, 4.645665, -4.398008, 7.7682986, -0.011006355, -0.019809723, 10.063332
778729695740790, 4.60738, -4.4195433, 7.793423, -0.002550602, 0.029582858, 10.074567
778729705380165, 4.6061835, -4.4243293, 7.8173513, 0.006438732, 0.0394969, 10.094604
778729715019436, 4.621737, -4.3800616, 7.8556366, 0.058122158, 0.013026714, 10.112018
778729724658811, 4.613362, -4.3633122, 7.8221374, 0.05012703, 0.007000208, 10.074963
778729734298186, 4.618148, -4.336991, 7.765906, 0.030361652, -0.017749786, 10.022219
778729743937561, 4.634897, -4.2975097, 7.7156568, 0.017287254, -0.052488804, 9.973925
778729753576936, 4.6289153, -4.273581, 7.698907, 0.027383327, -0.06292677, 9.947804
778729763216311, 4.627719, -4.2771707, 7.6953177, 0.021294594, -0.057300806, 9.946063
778729772855686, 4.610969, -4.290331, 7.7144604, 0.02755022, -0.03037262, 9.958876
778729782495061, 4.6025944, -4.31067, 7.739585, 0.030798912, -0.0072927475, 9.983282
778729792134332, 4.5738807, -4.328616, 7.763513, 0.041180134, 0.030125022, 9.996342
778729801773707, 4.60738, -4.371687, 7.7814593, 0.011692524, 0.025153875, 10.044397
778729811413082, 4.6325045, -4.369294, 7.7814593, 0.007618904, 0.0010722876, 10.054943
778729821052457, 4.578666, -4.3645086, 7.7671022, 0.018214226, 0.03992462, 10.01694
778729830691832, 4.5427737, -4.3609195, 7.739585, 0.014447689, 0.062034488, 9.977552
778729840331207, 4.5619164, -4.3501515, 7.737192, 0.015663147, 0.03908825, 9.979842
778729849970582, 4.5894337, -4.3537407, 7.732406, 0.003270626, 0.010885596, 9.990393
778729859609957, 4.6061835, -4.3633122, 7.759924, 0.008815289, 0.0039941072, 10.02356
778729869249228, 4.644469, -4.3609195, 7.7874413, 0.017512798, -0.026778579, 10.061408
778729878888603, 4.645665, -4.3357944, 7.8053875, 0.047586918, -0.03920722, 10.064869
778729888527978, 4.62413, -4.3262234, 7.77787, 0.044310093, -0.03231263, 10.02951
778729898167353, 4.638487, -4.3274198, 7.7419777, 0.018497467, -0.054044247, 10.008851
778729907806728, 4.6899323, -4.321438, 7.773084, 0.026927471, -0.09658146, 10.053907
778729917446103, 4.674379, -4.3262234, 7.7814593, 0.0347085, -0.081870794, 10.055309
778729927085478, 4.6432724, -4.3645086, 7.7706914, 0.009413242, -0.041772246, 10.049415
778729936724853, 4.6301117, -4.401597, 7.786245, -0.0053396225, -0.009989858, 10.071617
778729946364228, 4.604987, -4.447061, 7.8257265, -0.009402275, 0.041273594, 10.110512
778729956003603, 4.5523453, -4.449454, 7.8077803, -0.008399487, 0.081151605, 10.073542
778729965642978, 4.5415773, -4.4279184, 7.795816, 0.0038905144, 0.07715738, 10.049934
778729975282249, 4.5738807, -4.406383, 7.84128, 0.03845167, 0.048131227, 10.090513
778729984921624, 4.62413, -4.406383, 7.756335, -0.025078297, -0.015327215, 10.047817
778729994560999, 4.6229334, -4.392026, 7.757531, -0.012970924, -0.021393538, 10.041916
778730004200374, 4.581059, -4.4171505, 7.7886376, -1.7499924E-4, 0.034065843, 10.057785
778730013839749, 4.6097727, -4.447061, 7.776674, -0.032885075, 0.021012306, 10.074794
778730023479124, 4.648058, -4.4482574, 7.780263, -0.04237175, -0.009579182, 10.095646
