timestamp_acc,device_acc_x,device_acc_y,device_acc_z,earth_acc_x,earth_acc_y,earth_acc_z
778161986175788, 1.1676974, 5.337191, 8.295917, -0.07873607, -0.03544259, 9.93297
778161995815163, 1.1581261, 5.3204412, 8.289934, -0.06355834, -0.030586481, 9.917982
778162005454433, 1.1282159, 5.3180485, 8.312666, -0.030511618, -0.040448904, 9.93239
778162015093808, 1.1294123, 5.2833524, 8.331808, -0.005192995, -0.009540796, 9.930172
778162024733183, 1.1437693, 5.2845488, 8.376076, 0.0022420883, 0.013564825, 9.969609
778162034372558, 1.1318051, 5.259424, 8.392825, 0.030729055, 0.026584864, 9.968972
778162044011933, 1.1365907, 5.2773705, 8.383254, 0.013844013, 0.01442337, 9.97101
778162053651308, 1.1581261, 5.2953167, 8.385647, -0.011596918, 0.016424417, 9.985004
778162063290683, 1.146162, 5.2977095, 8.40479, 0.00350523, 0.012102127, 10.000988
778162072930058, 1.14018, 5.2642097, 8.426325, 0.034041166, 0.03756714, 10.000615
778162082569433, 1.1389836, 5.2833524, 8.411968, 0.019343615, 0.018725872, 9.998579
778162092208808, 1.1162517, 5.300102, 8.3784685, 0.013228893, -0.019374609, 9.976736
778162101848183, 1.1090733, 5.2833524, 8.330612, 0.006607771, -0.028285027, 9.926837
778162111487558, 1.1114662, 5.2701917, 8.309076, 0.0029382706, -0.02315545, 9.902045
778162121126933, 1.134198, 5.279763, 8.323434, -0.011863947, -0.009752274, 9.921776
778162130766308, 1.154537, 5.304888, 8.335398, -0.034106016, -0.008866549, 9.947483
778162140405579, 1.1700903, 5.322834, 8.338987, -0.053382635, -0.00939846, 9.9618
778162150044954, 1.1485549, 5.3096733, 8.322237, -0.03675461, -0.019215345, 9.938295
778162159684329, 1.1485549, 5.285745, 8.338987, -0.017287731, 0.002317667, 9.939652
778162169323704, 1.1365907, 5.2701917, 8.367701, 0.011649132, 0.01381731, 9.954138
778162178963079, 1.14018, 5.258228, 8.389236, 0.023210049, 0.030667067, 9.966283
778162188602454, 1.1090733, 5.279763, 8.403593, 0.040997505, -1.385212E-4, 9.986222
778162198241829, 1.1102697, 5.302495, 8.414361, 0.03216076, -0.011104345, 10.007472
778162207881204, 1.0935199, 5.3012986, 8.403593, 0.04077077, -0.024952173, 9.995883
778162217520579, 1.0983056, 5.285745, 8.377272, 0.03359437, -0.019720316, 9.966072
778162227159954, 1.1365907, 5.2869415, 8.3174515, -0.02114582, -0.01591301, 9.920831
778162236799329, 1.180858, 5.316852, 8.298309, -0.077794075, -0.0140480995, 9.925674
778162246438704, 1.1856437, 5.3204412, 8.283952, -0.0886364, -0.018348694, 9.916073
778162256078079, 1.1653047, 5.2929235, 8.306684, -0.04892397, -0.0046243668, 9.918245
778162265717454, 1.1796615, 5.2606206, 8.3581295, -0.021053314, 0.04401827, 9.945937
778162275356829, 1.1688938, 5.2570314, 8.374879, -0.0039658546, 0.04421234, 9.956872
778162284996204, 1.1557333, 5.267799, 8.380861, 0.003512621, 0.029114962, 9.966113
778162294635579, 1.1282159, 5.2809596, 8.394022, 0.02161789, 0.0065042973, 9.981007
778162304274954, 1.1066805, 5.2977095, 8.433503, 0.046288252, -0.004652977, 10.020594
778162313914329, 1.0707881, 5.2737813, 8.471788, 0.1002934, 0.0013303757, 10.035959
778162323553600, 1.0863415, 5.2570314, 8.456235, 0.08901119, 0.01654005, 10.015799
778162333192975, 1.1162517, 5.2845488, 8.383254, 0.022037506, -0.008152723, 9.9725065
778162342832350, 1.1509477, 5.3132625, 8.292327, -0.05670929, -0.033822775, 9.915331
778162352471725, 1.1473584, 5.312066, 8.226524, -0.08009553, -0.055526257, 9.859041
778162362111100, 1.14018, 5.3156557, 8.224132, -0.07717848, -0.06372523, 9.858121
778162371750475, 1.1330016, 5.3144593, 8.29113, -0.04240012, -0.04289341, 9.912941
778162381389850, 1.1353943, 5.306084, 8.34138, -0.018130302, -0.018534899, 9.950959
778162391029225, 1.1294123, 5.291727, 8.394022, 0.015768051, 0.0044386387, 9.9868555
778162400668600, 1.1294123, 5.282156, 8.422736, 0.031851053, 0.019683838, 10.00589
778162410307975, 1.1138589, 5.2701917, 8.437093, 0.05333066, 0.019857645, 10.009841
778162419947350, 1.1138589, 5.2642097, 8.429914, 0.052629232, 0.02085638, 10.000642
778162429586725, 1.1353943, 5.272585, 8.402397, 0.01985526, 0.020622253, 9.984426
778162439226100, 1.1533405, 5.288138, 8.361719, -0.019181252, 0.008873224, 9.9605465
778162448865475, 1.1581261, 5.308477, 8.3377905, -0.04306531, -0.009451866, 9.951784
778162458504850, 1.1688938, 5.3108697, 8.334201, -0.05298829, -0.0053019524, 9.951267
778162468144225, 1.1473584, 5.2905307, 8.335398, -0.024938583, -0.0049114227, 9.9390335
778162477783600, 1.154537, 5.276174, 8.334201, -0.023679256, 0.00910759, 9.931226
778162487422975, 1.1497513, 5.298906, 8.343773, -0.02690053, -0.00611639, 9.950785
778162497062350, 1.1389836, 5.3072805, 8.338987, -0.024785995, -0.019904613, 9.949986
778162506701725, 1.1186446, 5.2977095, 8.336594, -0.005564451, -0.026642084, 9.940581
778162516341100, 1.1114662, 5.2809596, 8.352147, 0.014667749, -0.014404058, 9.943935
778162525980475, 1.1114662, 5.282156, 8.355737, 0.015175819, -0.013822079, 9.947586
778162535619850, 1.125823, 5.2929235, 8.3581295, -6.337166E-4, -0.010324001, 9.956945
778162545259225, 1.14018, 5.316852, 8.350951, -0.0270617, -0.019053936, 9.96525
778162554898600, 1.1090733, 5.304888, 8.372486, 0.011646271, -0.023688555, 9.973451
778162564537871, 1.0911272, 5.2869415, 8.376076, 0.0356884, -0.021205187, 9.9649
778162574177246, 1.1018949, 5.2642097, 8.382058, 0.04099679, 0.0035572052, 9.95908
778162583816621, 1.1330016, 5.2833524, 8.355737, -0.003910303, 6.9999695E-4, 9.95067
778162593455996, 1.1425728, 5.288138, 8.318648, -0.02891326, -0.009688377, 9.923147
778162603095371, 1.1306087, 5.296513, 8.299505, -0.03197527, -0.029105425, 9.910159
778162612734746, 1.14018, 5.2929235, 8.299505, -0.037445545, -0.019459486, 9.909343
778162622374121, 1.166501, 5.278567, 8.303095, -0.04875946, 0.008806467, 9.907721
778162632013496, 1.1377872, 5.271388, 8.335398, -0.009948254, 0.0055143833, 9.92778
778162641652871, 1.1246266, 5.278567, 8.390432, 0.018430233, 0.009977102, 9.976321
778162651292246, 1.125823, 5.2845488, 8.428718, 0.030843735, 0.019422531, 10.0117855
778162660931621, 1.1330016, 5.2689953, 8.435896, 0.035351515, 0.035999537, 10.010386
778162670570996, 1.1449656, 5.279763, 8.392825, 0.0021939278, 0.020854473, 9.981279
778162680210371, 1.174876, 5.2773705, 8.311469, -0.053417683, 0.013935804, 9.915062
778162689849746, 1.1174482, 5.267799, 8.282756, -0.016544819, -0.0258286, 9.879346
778162699489121, 1.0779666, 5.2869415, 8.344969, 0.029464483, -0.042234182, 9.937284
778162709128496, 1.0600204, 5.300102, 8.398808, 0.059072733, -0.043936014, 9.987457
778162718767871, 1.1090733, 5.2893343, 8.373683, 0.015610695, -0.014060974, 9.966205
778162728407246, 1.1330016, 5.245067, 8.359326, 0.01127696, 0.02725625, 9.9333725
778162738046621, 1.1485549, 5.2809596, 8.338987, -0.026159763, 0.003979206, 9.937088
778162747685996, 1.1653047, 5.300102, 8.313862, -0.05835533, -0.00839901, 9.928036
778162757325371, 1.1485549, 5.3072805, 8.313862, -0.04851556, -0.023431063, 9.929945
778162766964746, 1.1066805, 5.276174, 8.333005, 0.00822711, -0.020889997, 9.924778
778162776604121, 1.1521441, 5.2642097, 8.350951, -0.014932632, 0.02106738, 9.938665
778162786243496, 1.166501, 5.291727, 8.355737, -0.037158966, 0.012496471, 9.958912
778162795882871, 1.1557333, 5.2929235, 8.379665, -0.020229578, 0.012546539, 9.978427
778162805522246, 1.1234303, 5.2845488, 8.396415, 0.015818834, 0.004124403, 9.98439
778162815161621, 1.0815558, 5.2642097, 8.413164, 0.06433034, -0.005540371, 9.982926
778162824800996, 1.1066805, 5.265406, 8.407183, 0.042469263, 0.008218527, 9.981386
778162834440267, 1.1186446, 5.2845488, 8.377272, 0.010558128, -0.006570816, 9.967767
778162844079642, 1.1629118, 5.308477, 8.330612, -0.054609776, -0.009550095, 9.946273
778162853719017, 1.1473584, 5.3180485, 8.285149, -0.06689167, -0.04041481, 9.91139
778162863358392, 1.1306087, 5.276174, 8.270791, -0.038324594, -0.02631402, 9.875227
778162872997767, 1.1270195, 5.276174, 8.286345, -0.028222084, -0.022348404, 9.887892
778162882637142, 1.1485549, 5.2666025, 8.303095, -0.032068253, 0.003872633, 9.899326
778162892276517, 1.1330016, 5.2809596, 8.367701, -6.44207E-4, 0.0051283836, 9.959449
778162901915892, 1.1018949, 5.2749777, 8.441878, 0.05696702, 0.012461901, 10.015063
778162911555267, 1.1138589, 5.272585, 8.449057, 0.050853014, 0.022167444, 10.0211935
778162921194642, 1.0923235, 5.2534423, 8.429914, 0.068231106, 0.014189959, 9.992518
778162930834017, 1.1270195, 5.271388, 8.377272, 0.010675192, 0.0076601505, 9.961738
778162940473392, 1.1593226, 5.2941203, 8.328219, -0.045764923, -0.0010659695, 9.936241
778162950112767, 1.1593226, 5.308477, 8.292327, -0.067225695, -0.022057533, 9.913712
778162959752142, 1.1569297, 5.3072805, 8.293523, -0.06430507, -0.022456646, 9.91381
778162969391517, 1.1246266, 5.3036914, 8.3174515, -0.02683568, -0.032694817, 9.9283495
778162979030892, 1.1102697, 5.2869415, 8.318648, -0.005915165, -0.030456781, 9.918843
778162988670267, 1.1066805, 5.291727, 8.318648, -0.005962372, -0.03588724, 9.920973
778162998309642, 1.119841, 5.291727, 8.319844, -0.016060114, -0.026854038, 9.923468
778163007949017, 1.0899308, 5.2869415, 8.359326, 0.025258541, -0.030292034, 9.950703
778163017588392, 1.1006985, 5.3108697, 8.40479, 0.0236063, -0.024717331, 10.0028105
778163027227767, 1.0923235, 5.143372, 8.372486, 0.10124087, 0.072692156, 9.88587
778163036867142, 1.2131611, 5.534599, 8.480164, -0.14114141, -0.081386805, 10.197558
778163046506517, 1.0671989, 4.8035913, 8.29472, 0.25484633, 0.26596498, 9.637432
778163056145892, 1.2981063, 5.9042897, 8.457432, -0.3942058, -0.2935419, 10.384235
778163065785267, 0.9882358, 4.5535417, 8.276773, 0.4190452, 0.3873644, 9.48107
778163075424538, 1.2849457, 5.9880385, 8.413164, -0.4331448, -0.38191152, 10.390165
778163085063913, 0.9798609, 4.6289153, 8.254042, 0.39063835, 0.323215, 9.500481
778163094703288, 1.2119647, 5.7786665, 8.319844, -0.3245964, -0.31422806, 10.192034
778163104342663, 1.0408778, 5.035695, 8.352147, 0.17866063, 0.1101563, 9.805914
778163113982038, 1.0839486, 5.2977095, 8.336594, 0.017751694, -0.047415257, 9.936644
778163123621413, 1.1676974, 5.508278, 8.43111, -0.1134696, -0.11059785, 10.137218
778163133260788, 1.0277174, 4.8251266, 8.267202, 0.25799513, 0.21934628, 9.62133
778163142900163, 1.2873386, 5.879165, 8.452646, -0.37497807, -0.28510308, 10.365671
778163152539538, 1.0025927, 4.5595236, 8.27797, 0.40774775, 0.3902266, 9.486871
778163162178913, 1.2933207, 5.99761, 8.445468, -0.43015385, -0.37436604, 10.423279
778163171818288, 1.0025927, 4.5942197, 8.285149, 0.39542747, 0.3779235, 9.510863
778163181457663, 1.2370893, 5.797809, 8.374879, -0.32316065, -0.29039693, 10.251575
778163191097038, 1.0671989, 4.9878387, 8.361719, 0.18339968, 0.16180968, 9.791629
778163200736413, 1.1174482, 5.367101, 8.318648, -0.049706697, -0.08275914, 9.962181
778163210375788, 1.1377872, 5.4687963, 8.400003, -0.086076975, -0.113432646, 10.086728
778163220015163, 1.038485, 4.8263235, 8.236095, 0.23831582, 0.21197796, 9.597051
778163229654538, 1.2837493, 5.875576, 8.4347, -0.38121867, -0.28695583, 10.34828
778163239293913, 1.018146, 4.578666, 8.289934, 0.4070561, 0.38577056, 9.50838
778163248933183, 1.3244274, 6.023931, 8.4705925, -0.46487284, -0.3541057, 10.461897
778163258572558, 0.9810573, 4.5762734, 8.315059, 0.44183183, 0.37905264, 9.5239725
778163268211933, 1.2454642, 5.812166, 8.374879, -0.3393333, -0.2908032, 10.260182
778163277851308, 1.0432707, 4.914858, 8.344969, 0.23276138, 0.18933415, 9.736156
778163287490683, 1.1353943, 5.4149575, 8.298309, -0.09377599, -0.112491846, 9.972532
778163297130058, 1.1473584, 5.4388857, 8.380861, -0.0850842, -0.09485412, 10.05587
778163306769433, 1.0396814, 4.9292145, 8.232507, 0.18402052, 0.14386654, 9.648715
778163316408808, 1.2418749, 5.825327, 8.422736, -0.32668757, -0.28490877, 10.306855
778163326048183, 0.9882358, 4.5882373, 8.27797, 0.40679526, 0.36246347, 9.50034
778163335687558, 1.294517, 6.000003, 8.457432, -0.4447143, -0.36333394, 10.43428
778163345326933, 0.9762716, 4.5631127, 8.281559, 0.4304893, 0.36943102, 9.48881
778163354966308, 1.2490535, 5.8600225, 8.376076, -0.36736822, -0.317595, 10.287022
778163364605683, 1.0253245, 4.8598228, 8.367701, 0.28750777, 0.2307899, 9.723768
778163374245058, 1.1282159, 5.4460645, 8.372486, -0.07376981, -0.11106992, 10.050535
778163383884433, 1.1282159, 5.375476, 8.43111, -0.019422531, -0.04310155, 10.062306
778163393523704, 1.0588241, 4.9567323, 8.288737, 0.1782465, 0.15508604, 9.712757
778163403163079, 1.2514462, 5.8037915, 8.449057, -0.31289053, -0.2578771, 10.318541
778163412802454, 0.99900347, 4.578666, 8.269595, 0.4049225, 0.3762114, 9.489094
778163422441829, 1.3100704, 5.9952173, 8.43111, -0.45497346, -0.3577795, 10.411894
778163432081204, 0.99900347, 4.5559344, 8.246863, 0.3933878, 0.38615632, 9.4584055
778163441720579, 1.2837493, 5.8935223, 8.323434, -0.4273162, -0.3416028, 10.264593
778163451359954, 1.0241281, 4.85743, 8.295917, 0.25559402, 0.20243979, 9.662266
778163460999329, 1.1497513, 5.5298133, 8.325827, -0.15191293, -0.17591834, 10.058137
778163470638704, 1.1102697, 5.326423, 8.405986, 0.011419535, -0.02755785, 10.013151
778163480278079, 1.0480564, 4.995017, 8.263613, 0.16003418, 0.11477947, 9.71067
778163489917454, 1.2394822, 5.7631135, 8.411968, -0.296443, -0.25051856, 10.264518
778163499556829, 0.9762716, 4.645665, 8.282756, 0.39137816, 0.3247373, 9.53314
778163509196100, 1.2849457, 5.99761, 8.516056, -0.40556073, -0.35493588, 10.481182
778163518835475, 0.9403793, 4.5092745, 8.3377905, 0.5144372, 0.40842772, 9.502902
778163528474850, 1.2705889, 5.8911295, 8.420342, -0.38886547, -0.31898904, 10.342582
778163538114225, 1.0588241, 4.7772703, 8.313862, 0.2725458, 0.28444314, 9.638907
778163547753600, 1.2047862, 5.5597234, 8.3174515, -0.21124864, -0.16188264, 10.073293
778163557392975, 1.1365907, 5.2642097, 8.348558, -0.007602215, 0.008134127, 9.93489
778163567032350, 1.0731809, 5.0656056, 8.244471, 0.09871197, 0.072588205, 9.734905
778163576671725, 1.2382857, 5.743971, 8.402397, -0.29409575, -0.24177742, 10.246067
778163586311100, 1.0001999, 4.6468616, 8.250452, 0.3674066, 0.31849504, 9.509323
778163595950475, 1.2981063, 6.0083776, 8.476574, -0.43191385, -0.3591845, 10.455737
778163605589850, 0.9846465, 4.5415773, 8.30788, 0.45236826, 0.40593934, 9.499838
778163615229121, 1.2693924, 5.9150577, 8.408379, -0.4002552, -0.34194064, 10.34519
778163624868496, 0.997807, 4.7210393, 8.293523, 0.34993458, 0.28114247, 9.584616
778163634507871, 1.1928221, 5.615955, 8.3377905, -0.2224884, -0.19620943, 10.118919
778163644147246, 1.1365907, 5.229514, 8.382058, 0.025126457, 0.043687105, 9.944649
778163653786621, 1.0911272, 5.130212, 8.285149, 0.072244644, 0.05234289, 9.805375
778163663425996, 1.2083755, 5.6781683, 8.437093, -0.22400546, -0.2007556, 10.236982
778163673065371, 0.9762716, 4.666004, 8.267202, 0.38272643, 0.28647947, 9.531149
778163682704746, 1.2717853, 5.98086, 8.471788, -0.41041923, -0.34917784, 10.43403
778163692344121, 0.94277215, 4.5320063, 8.288737, 0.48177052, 0.36207104, 9.474592
778163701983496, 1.2634103, 5.9700923, 8.410771, -0.4206078, -0.37060642, 10.376177
778163711622767, 0.9846465, 4.7042894, 8.321041, 0.3666544, 0.29395986, 9.597852
778163721262142, 1.2179468, 5.6350975, 8.379665, -0.23840308, -0.18759012, 10.166834
778163730901517, 1.125823, 5.151747, 8.407183, 0.07724166, 0.10153103, 9.923329
778163740540892, 1.1353943, 5.1673007, 8.29113, 0.019061089, 0.056536436, 9.83511
778163750180267, 1.2562319, 5.6410794, 8.368897, -0.26792073, -0.17601824, 10.16541
778163759819642, 1.038485, 4.723432, 8.226524, 0.27610183, 0.28718162, 9.534476
778163769459017, 1.2969099, 5.95095, 8.471788, -0.39890862, -0.33172894, 10.421027
778163779098392, 0.94755775, 4.510471, 8.305488, 0.4860971, 0.40003204, 9.477712
778163788737767, 1.2550355, 5.9844494, 8.427522, -0.4186237, -0.39068532, 10.396343
778163798377142, 0.95353985, 4.7007003, 8.288737, 0.3875513, 0.27016163, 9.564822
778163808016413, 1.1736795, 5.703293, 8.353344, -0.24227118, -0.26673722, 10.176128
778163817655788, 1.052842, 5.0979085, 8.38804, 0.15819263, 0.087607145, 9.870342
778163827295163, 1.0899308, 5.2283173, 8.322237, 0.039134264, -0.0029990673, 9.888444
778163836934538, 1.2203395, 5.5944195, 8.422736, -0.2021122, -0.13994408, 10.181788
778163846573913, 1.0815558, 4.7545385, 8.238488, 0.24544144, 0.2883575, 9.565808
778163856213288, 1.3328022, 5.9353967, 8.475378, -0.43104696, -0.28377032, 10.419742
778163865852663, 0.99661064, 4.53081, 8.311469, 0.43757224, 0.41946626, 9.499189
778163875492038, 1.308874, 5.956932, 8.462217, -0.4236307, -0.32144976, 10.417511
778163885131413, 0.997807, 4.610969, 8.304291, 0.40389276, 0.3491497, 9.535872
778163894770683, 1.2131611, 5.7355957, 8.368897, -0.28564572, -0.25701857, 10.210759
778163904410058, 1.0360922, 5.0512486, 8.380861, 0.19428277, 0.100944996, 9.837659
778163914049433, 1.0755738, 5.2570314, 8.301898, 0.028182983, -0.041312933, 9.884952
778163923688808, 1.1676974, 5.5310097, 8.389236, -0.14413881, -0.14168453, 10.114052
778163933328183, 1.012164, 4.8215375, 8.273184, 0.28115606, 0.20774674, 9.622633
778163942967558, 1.2837493, 5.9270215, 8.465807, -0.4037037, -0.3091097, 10.401392
778163952606933, 0.98943216, 4.5248275, 8.286345, 0.44327092, 0.40277982, 9.474062
778163962246308, 1.3268201, 5.9952173, 8.433503, -0.4685297, -0.3451674, 10.415775
778163971885683, 1.012164, 4.5858445, 8.269595, 0.38329482, 0.37300754, 9.494979
778163981524954, 1.2335001, 5.743971, 8.323434, -0.3151436, -0.273885, 10.179388
778163991164329, 1.052842, 4.9770713, 8.323434, 0.19235206, 0.14667988, 9.751962
778164000803704, 1.1174482, 5.3682976, 8.335398, -0.048323154, -0.08215213, 9.976826
778164010443079, 1.1437693, 5.528617, 8.456235, -0.097268105, -0.13361216, 10.166338
778164020082454, 0.99661064, 4.837091, 8.319844, 0.3014953, 0.20391107, 9.668404
778164029721829, 1.2669996, 5.8707905, 8.508878, -0.34215093, -0.2741933, 10.405779
778164039361204, 0.99661064, 4.546363, 8.304291, 0.44330144, 0.3970132, 9.50104
778164049000579, 1.3399807, 6.003592, 8.43111, -0.4908278, -0.3387077, 10.419533
778164058639850, 1.0085747, 4.557131, 8.250452, 0.40639234, 0.3806522, 9.4628
778164068279225, 1.2717853, 5.7894344, 8.343773, -0.36851144, -0.2789948, 10.224476
778164077918600, 1.0588241, 4.9375896, 8.348558, 0.2174313, 0.18662858, 9.752806
778164087557975, 1.1389836, 5.3886366, 8.313862, -0.082405806, -0.091132164, 9.971956
778164097197350, 1.1688938, 5.4484572, 8.384451, -0.10501242, -0.089399815, 10.0663805
778164106836725, 1.0336994, 4.900501, 8.251649, 0.21309233, 0.15966225, 9.648952
778164116476100, 1.2358929, 5.855237, 8.463413, -0.32278347, -0.29653478, 10.356084
778164126115475, 0.9595219, 4.570291, 8.328219, 0.46863604, 0.36695433, 9.529596
778164135754746, 1.2933207, 5.985646, 8.49452, -0.42406464, -0.34475374, 10.457478
778164145394121, 0.99661064, 4.5427737, 8.313862, 0.44712305, 0.39146638, 9.507743
778164155033496, 1.247857, 5.8420763, 8.360522, -0.3691821, -0.31190395, 10.264101
778164164672871, 1.0564312, 4.883751, 8.335398, 0.23316884, 0.2109735, 9.713241
778164174312246, 1.1449656, 5.4149575, 8.338987, -0.086215734, -0.09581494, 10.007738
778164183951621, 1.1389836, 5.383851, 8.402397, -0.044366837, -0.059494495, 10.0438
778164193590996, 1.038485, 4.938786, 8.26481, 0.19593191, 0.13949895, 9.680872
778164203230371, 1.2562319, 5.81097, 8.428718, -0.32766318, -0.27315402, 10.305668
778164212869746, 0.9810573, 4.5738807, 8.283952, 0.4303639, 0.36309576, 9.496824
778164222509017, 1.3040884, 6.0167527, 8.471788, -0.4453776, -0.36738586, 10.45657
778164232148392, 0.9906286, 4.5487556, 8.313862, 0.44644165, 0.39934278, 9.509682
778164241787767, 1.2921243, 5.871987, 8.419147, -0.39674878, -0.29652643, 10.3337555
778164251427142, 1.0683953, 4.84068, 8.376076, 0.2633226, 0.26050806, 9.726001
778164261066517, 1.1952149, 5.4891353, 8.391629, -0.1417954, -0.10462022, 10.096909
778164270705892, 1.1557333, 5.322834, 8.437093, -0.0092020035, 0.0043063164, 10.042545
778164280345267, 1.0660025, 4.968696, 8.26481, 0.16168547, 0.13395452, 9.699861
778164289984642, 1.247857, 5.7559347, 8.377272, -0.31373024, -0.26575565, 10.232182
778164299623913, 0.9738788, 4.6121655, 8.206185, 0.3795228, 0.31177807, 9.450965
778164309263288, 1.2586247, 6.0107703, 8.440681, -0.42363882, -0.41226935, 10.421574
778164318902663, 0.930808, 4.5415773, 8.29472, 0.48669076, 0.36095595, 9.483013
778164328542038, 1.2263216, 5.916254, 8.421539, -0.3637941, -0.373873, 10.351624
778164338181413, 1.0169497, 4.8047876, 8.392825, 0.32400417, 0.26008534, 9.7153
778164347820788, 1.1820544, 5.528617, 8.413164, -0.14609814, -0.13332844, 10.134351
778164357460163, 1.1425728, 5.255835, 8.43111, 0.02707839, 0.039607763, 10.00053
778164367099538, 1.0983056, 5.028517, 8.309076, 0.121199846, 0.1261332, 9.772532
778164376738808, 1.2801601, 5.7260246, 8.443074, -0.3052566, -0.1943829, 10.275248
778164386378183, 1.0289137, 4.618148, 8.273184, 0.36557937, 0.35394096, 9.516963
778164396017558, 1.2981063, 6.000003, 8.480164, -0.4371748, -0.3683288, 10.4533
778164405656933, 0.98584294, 4.5224347, 8.289934, 0.44534492, 0.40882134, 9.475329
778164415296308, 1.282553, 5.9342003, 8.382058, -0.42676425, -0.35936832, 10.334762
778164424935683, 1.0241281, 4.743771, 8.285149, 0.30780196, 0.26093173, 9.593388
778164434575058, 1.1916257, 5.582455, 8.342576, -0.20193434, -0.18688965, 10.104784
778164444214433, 1.0959128, 5.2307105, 8.398808, 0.059953928, 0.013466358, 9.954777
778164453853808, 1.0636097, 5.0943193, 8.295917, 0.112259865, 0.054545403, 9.792346
778164463493079, 1.2011969, 5.6853466, 8.452646, -0.21752715, -0.21648407, 10.25276
778164473132454, 0.9834501, 4.6600223, 8.311469, 0.39208746, 0.31172538, 9.566222
778164482771829, 1.2789637, 5.9724855, 8.518449, -0.4010706, -0.34162116, 10.468655
778164492411204, 0.96430755, 4.5128636, 8.327023, 0.48179913, 0.398571, 9.499693
778164502050579, 1.2849457, 5.9545393, 8.419147, -0.42496657, -0.3615024, 10.37682
778164511689954, 0.98584294, 4.705486, 8.334201, 0.37674356, 0.28880405, 9.609738
778164521329329, 1.1832508, 5.615955, 8.383254, -0.20464635, -0.20717931, 10.155451
778164530968704, 1.0983056, 5.1349974, 8.419147, 0.113117695, 0.09072733, 9.921467
778164540608079, 1.1365907, 5.1361938, 8.303095, 0.03515935, 0.07248354, 9.828898
778164550247350, 1.2514462, 5.6530433, 8.390432, -0.2684977, -0.18793511, 10.188963
778164559886725, 1.032503, 4.723432, 8.219346, 0.2772069, 0.2745893, 9.527973
778164569526100, 1.302892, 5.9521465, 8.453842, -0.41982603, -0.35251808, 10.406368
778164579165475, 0.95473623, 4.4985065, 8.3174515, 0.49317718, 0.41194248, 9.482359
778164588804850, 1.2634103, 5.9617176, 8.489735, -0.38916683, -0.36562133, 10.436895
778164598444225, 0.9726824, 4.6839504, 8.402397, 0.41428447, 0.31843972, 9.6546755
778164608083600, 1.1964114, 5.6650076, 8.4502535, -0.21374536, -0.21193624, 10.239135
778164617722975, 1.0899308, 5.096712, 8.415557, 0.13298655, 0.101876974, 9.897371
778164627362350, 1.1150553, 5.206782, 8.281559, 0.008544445, -0.0014147758, 9.8457155
778164637001621, 1.2251252, 5.5920267, 8.352147, -0.23592377, -0.17645335, 10.121427
778164646640996, 1.0648061, 4.7425747, 8.189436, 0.23615074, 0.2547922, 9.516932
778164656280371, 1.3387842, 5.9521465, 8.427522, -0.46216774, -0.32879782, 10.388543
778164665919746, 0.9822537, 4.5415773, 8.331808, 0.4454944, 0.40139937, 9.521039
778164675559121, 1.2933207, 5.9676995, 8.525627, -0.38837624, -0.33763933, 10.474138
778164685198496, 0.9631111, 4.6145587, 8.391629, 0.45465636, 0.36154056, 9.607485
778164694837871, 1.1796615, 5.697311, 8.437093, -0.21790838, -0.25728965, 10.243135
778164704477246, 1.0408778, 5.0309095, 8.438289, 0.21132922, 0.1316135, 9.876041
778164714116621, 1.0971092, 5.2199426, 8.3581295, 0.0456419, 0.0034053326, 9.915024
778164723755996, 1.1892328, 5.5262237, 8.429914, -0.14610863, -0.13128448, 10.147822
778164733395267, 1.0420742, 4.773681, 8.236095, 0.2505374, 0.24195528, 9.570054
778164743034642, 1.3112668, 5.930611, 8.427522, -0.43594813, -0.34087634, 10.373449
778164752674017, 1.0133604, 4.5355954, 8.248059, 0.38971496, 0.39043808, 9.451174
778164762313392, 1.3136597, 5.994021, 8.416754, -0.47274446, -0.38839698, 10.398144
778164771952767, 1.0157533, 4.60738, 8.311469, 0.37757683, 0.36507106, 9.542768
778164781592142, 1.2311072, 5.733203, 8.40479, -0.28169894, -0.2541113, 10.241182
778164791231517, 1.0624132, 4.9663033, 8.408379, 0.21104908, 0.1735506, 9.819321
778164800870892, 1.105484, 5.2941203, 8.38804, 0.016173124, -0.032969475, 9.980364
778164810510267, 1.1485549, 5.49751, 8.474181, -0.08641815, -0.11876488, 10.165235
778164820149642, 1.0145568, 4.814359, 8.29472, 0.2818966, 0.20596671, 9.6378355
778164829789017, 1.2634103, 5.8540406, 8.492127, -0.34915304, -0.2825215, 10.38174
778164839428288, 0.99302137, 4.520042, 8.303095, 0.45197678, 0.39762092, 9.486618
778164849067663, 1.3232309, 6.0011992, 8.432307, -0.48598623, -0.36077237, 10.41647
778164858707038, 1.0301101, 4.581059, 8.254042, 0.36491132, 0.35819507, 9.48235
778164868346413, 1.2705889, 5.8061843, 8.343773, -0.38320994, -0.29256296, 10.232901
778164877985788, 1.0648061, 4.955536, 8.386844, 0.20846748, 0.16905308, 9.79583
778164887625163, 1.1294123, 5.367101, 8.395218, -0.035722733, -0.06537318, 10.027736
778164897264538, 1.1449656, 5.4580283, 8.4682, -0.06571436, -0.096402645, 10.138926
778164906903913, 1.026521, 4.861019, 8.304291, 0.2531023, 0.1863501, 9.671904
778164916543288, 1.2574283, 5.8504515, 8.475378, -0.34276223, -0.28869438, 10.365333
778164926182663, 0.9834501, 4.5427737, 8.300702, 0.43697166, 0.3762138, 9.495954
778164935822038, 1.3160524, 5.994021, 8.449057, -0.47445798, -0.36352348, 10.425428
778164945461413, 1.012164, 4.554738, 8.268398, 0.3974414, 0.37110734, 9.478442
778164955100788, 1.2693924, 5.8229337, 8.35454, -0.38778448, -0.29834127, 10.250702
778164964740058, 1.0408778, 4.894519, 8.366505, 0.2546339, 0.19265413, 9.74352
778164974379433, 1.1210374, 5.3910294, 8.394022, -0.048400402, -0.09031105, 10.038378
778164984018808, 1.1030912, 5.369494, 8.478967, 0.012080193, -0.05743575, 10.096421
778164993658183, 1.0301101, 4.92084, 8.342576, 0.23444247, 0.15846682, 9.736237
778165003297558, 1.2490535, 5.8241305, 8.510074, -0.31460714, -0.26820612, 10.37936
778165012936933, 0.97507524, 4.5738807, 8.323434, 0.4331119, 0.35931706, 9.530689
778165022576308, 1.3375878, 5.9880385, 8.471788, -0.4712839, -0.33596492, 10.444232
778165032215683, 1.0217353, 4.534399, 8.2660055, 0.39205933, 0.39535737, 9.466867
778165041855058, 1.2957134, 5.837291, 8.336594, -0.41809273, -0.30585265, 10.246134
778165051494433, 1.0755738, 4.843073, 8.300702, 0.21893263, 0.22388768, 9.665185
778165061133808, 1.1784651, 5.4927244, 8.348558, -0.15839148, -0.14259934, 10.06041
778165070773183, 1.1246266, 5.3336015, 8.46461, 0.0077676773, -0.024358511, 10.067825
778165080412558, 1.0241281, 4.938786, 8.3581295, 0.23752809, 0.14732361, 9.758108
778165090051933, 1.2191432, 5.759524, 8.536395, -0.24802876, -0.23559284, 10.363948
778165099691308, 0.991825, 4.60738, 8.370093, 0.42871523, 0.36420965, 9.589248
778165109330683, 1.3040884, 5.9820566, 8.534002, -0.42315006, -0.341501, 10.489002
778165118970058, 0.9906286, 4.5008993, 8.312666, 0.4608922, 0.4159088, 9.484433
778165128609433, 1.288535, 5.8935223, 8.361719, -0.43530083, -0.35387564, 10.295512
778165138248704, 1.0600204, 4.814359, 8.306684, 0.2520635, 0.2399478, 9.653061
778165147888079, 1.18684, 5.521438, 8.336594, -0.18236446, -0.1565764, 10.066573
778165157527454, 1.1282159, 5.2941203, 8.405986, 0.0016713142, -0.013953447, 9.998049
778165167166829, 1.0289137, 5.005785, 8.298309, 0.17457795, 0.086465836, 9.743744
778165176806204, 1.2191432, 5.721239, 8.467003, -0.25193858, -0.23210263, 10.285509
778165186445579, 0.9762716, 4.6037908, 8.3174515, 0.420722, 0.33132958, 9.541552
778165196084954, 1.2837493, 5.9904313, 8.53161, -0.41081476, -0.3474629, 10.489622
778165205724329, 0.9822537, 4.5475593, 8.348558, 0.44972277, 0.38815832, 9.538899
778165215363704, 1.2993027, 5.9246287, 8.433503, -0.4292338, -0.32779384, 10.374087
778165225003079, 1.0540384, 4.74736, 8.331808, 0.2963519, 0.29450393, 9.638096
778165234642454, 1.2227324, 5.564509, 8.346166, -0.22704673, -0.16124249, 10.101474
778165244281829, 1.134198, 5.235496, 8.372486, 0.011333942, 0.019072056, 9.939562
778165253921204, 1.0695918, 5.09073, 8.260024, 0.084573746, 0.038599253, 9.761091
778165263560579, 1.1724831, 5.7020965, 8.449057, -0.2162211, -0.2536664, 10.254953
778165273199954, 0.96430755, 4.6205406, 8.34138, 0.42947054, 0.3306148, 9.568915
778165282839329, 1.2753744, 5.960521, 8.571091, -0.37083578, -0.32252574, 10.50602
778165292478704, 0.9954142, 4.4985065, 8.396415, 0.47985768, 0.44987202, 9.554817
778165302118079, 1.3268201, 5.942575, 8.4682, -0.44305253, -0.3147676, 10.415838
778165311757454, 1.0420742, 4.7102714, 8.311469, 0.30998492, 0.29617715, 9.600485
778165321396829, 1.2239288, 5.599205, 8.328219, -0.2532959, -0.19046116, 10.104846
778165331036204, 1.1246266, 5.168497, 8.359326, 0.042541265, 0.05130768, 9.892019
778165340675579, 1.1138589, 5.1349974, 8.274381, 0.03675127, 0.040955305, 9.801594
778165350314954, 1.2023934, 5.6709895, 8.421539, -0.2342844, -0.2272911, 10.218692
778165359954329, 0.9487542, 4.703093, 8.316256, 0.388247, 0.25929332, 9.589648
778165369593704, 1.2191432, 5.9521465, 8.545966, -0.3341632, -0.3718059, 10.473681
778165379233079, 0.90448695, 4.493721, 8.376076, 0.5467112, 0.4009993, 9.524211
778165388872454, 1.274178, 5.9641104, 8.474181, -0.4045217, -0.36680484, 10.4263
778165398511829, 1.0145568, 4.712664, 8.328219, 0.33846068, 0.29504728, 9.612292
778165408151204, 1.2382857, 5.662615, 8.364112, -0.28784347, -0.21702337, 10.169905
778165417790579, 1.1533405, 5.1146584, 8.372486, 0.049621582, 0.1124537, 9.877922
778165427429954, 1.1676974, 5.180461, 8.274381, -0.029035807, 0.044569016, 9.831747
778165437069329, 1.253839, 5.605187, 8.405986, -0.25280786, -0.14779806, 10.176693
778165446708704, 1.0348958, 4.706682, 8.280363, 0.31523824, 0.28428578, 9.571211
778165456348079, 1.2669996, 5.922236, 8.534002, -0.36975121, -0.30547667, 10.453579
778165465987454, 0.9092726, 4.493721, 8.385647, 0.56512904, 0.3793013, 9.532897
778165475626829, 1.2358929, 5.9342003, 8.5220375, -0.36501288, -0.3474033, 10.445735
778165485266204, 0.96789676, 4.62413, 8.386844, 0.4527459, 0.32846713, 9.609665
778165494905579, 1.2143575, 5.712864, 8.43111, -0.26961756, -0.23350596, 10.250263
778165504544954, 1.1042876, 5.0955157, 8.43111, 0.12658215, 0.11325383, 9.911534
778165514184329, 1.1497513, 5.239085, 8.304291, -0.03579521, 0.0015268326, 9.885844
778165523823704, 1.2311072, 5.556134, 8.360522, -0.23603821, -0.13961267, 10.109866
778165533463079, 1.0576276, 4.7688956, 8.188239, 0.22725868, 0.22618318, 9.529186
778165543102454, 1.302892, 5.922236, 8.409575, -0.44804764, -0.3254876, 10.353004
778165552741829, 0.9667004, 4.5248275, 8.273184, 0.44885373, 0.36181188, 9.461594
778165562381204, 1.2574283, 5.9700923, 8.474181, -0.40118718, -0.37242842, 10.427618
778165572020579, 0.9379865, 4.60738, 8.402397, 0.48006558, 0.343153, 9.610402
778165581659954, 1.1724831, 5.723632, 8.514859, -0.19841981, -0.2462883, 10.321699
778165591299329, 1.0492527, 5.0165524, 8.5016985, 0.22762322, 0.15677404, 9.923167
778165600938704, 1.1270195, 5.3144593, 8.395218, -0.017174482, -0.034665823, 9.999592
778165610578079, 1.2059826, 5.5106707, 8.435896, -0.15999937, -0.10643911, 10.146395
778165620217454, 1.0683953, 4.79402, 8.230113, 0.2064066, 0.23724318, 9.579143
778165629856829, 1.3256238, 5.885147, 8.411968, -0.43954897, -0.30774164, 10.337581
778165639496204, 1.0360922, 4.5355954, 8.269595, 0.38070107, 0.41544843, 9.471736
778165649135579, 1.3351951, 6.01436, 8.444271, -0.4889109, -0.3740313, 10.434656
778165658774954, 0.98943216, 4.6085763, 8.313862, 0.40042496, 0.3513224, 9.542248
778165668414329, 1.2143575, 5.7870417, 8.425129, -0.30050683, -0.30342078, 10.284208
778165678053704, 1.0133604, 4.9292145, 8.43111, 0.26927567, 0.17621684, 9.813466
778165687693079, 1.0947163, 5.345566, 8.400003, -0.0064525604, -0.0752449, 10.016377
778165697332454, 1.1676974, 5.485546, 8.46102, -0.104390144, -0.10742712, 10.149933
778165706971933, 1.0432707, 4.8658047, 8.281559, 0.21566558, 0.18883705, 9.657458
778165716611308, 1.2705889, 5.8504515, 8.46461, -0.35901117, -0.29823995, 10.357313
778165726250683, 0.9702896, 4.5332026, 8.292327, 0.43479538, 0.39141417, 9.482184
778165735890058, 1.3160524, 5.9820566, 8.456235, -0.448761, -0.36709785, 10.42539
778165745529433, 0.99900347, 4.5762734, 8.29113, 0.38915014, 0.37975597, 9.507234
778165755168808, 1.2394822, 5.8504515, 8.38804, -0.36233735, -0.3515141, 10.289239
778165764808183, 1.018146, 4.9160542, 8.410771, 0.25785756, 0.18592978, 9.790008
778165774447558, 1.0983056, 5.3682976, 8.433503, -0.002065897, -0.073936224, 10.057008
778165784086933, 1.14018, 5.377869, 8.495717, -0.020049572, -0.036090374, 10.119142
778165793726308, 1.0540384, 4.8933225, 8.333005, 0.2168467, 0.19011664, 9.716552
778165803365683, 1.2861422, 5.8265233, 8.483752, -0.35813618, -0.25431347, 10.362608
778165813005058, 0.9954142, 4.551149, 8.301898, 0.4220531, 0.36972713, 9.503181
778165822644433, 1.3196417, 5.994021, 8.487342, -0.4727862, -0.34499693, 10.457637
778165832283808, 1.0253245, 4.5475593, 8.281559, 0.39001393, 0.3863721, 9.487593
778165841923183, 1.2981063, 5.8624153, 8.359326, -0.43424487, -0.3078313, 10.278521
778165851562558, 1.0301101, 4.8646083, 8.344969, 0.25624013, 0.19262338, 9.708824
778165861202038, 1.105484, 5.4687963, 8.362915, -0.08697605, -0.16357803, 10.05156
778165870841413, 1.0719845, 5.3407803, 8.458628, 0.03616166, -0.06658244, 10.060603
778165880480788, 1.0049855, 4.9268217, 8.327023, 0.23850155, 0.13303566, 9.723595
778165890120163, 1.2490535, 5.7894344, 8.504091, -0.30126834, -0.24602795, 10.355963
778165899759538, 1.0001999, 4.6145587, 8.361719, 0.41168284, 0.36048388, 9.587151
778165909398913, 1.314856, 5.985646, 8.529217, -0.44437838, -0.33324146, 10.48789
778165919038288, 0.9882358, 4.5128636, 8.306684, 0.45107102, 0.40276003, 9.485665
778165928677663, 1.3220345, 5.869594, 8.373683, -0.45668793, -0.3015387, 10.296553
778165938317038, 1.0731809, 4.820341, 8.310273, 0.23489189, 0.2461183, 9.660865
778165947956413, 1.2107682, 5.5166526, 8.327023, -0.20580697, -0.14328551, 10.05862
778165957595788, 1.1330016, 5.306084, 8.397611, -0.01504612, -0.02417016, 9.997864
778165967235267, 1.0229317, 4.9806604, 8.331808, 0.20042253, 0.11152983, 9.758063
778165976874642, 1.2155539, 5.71765, 8.525627, -0.22833681, -0.21298099, 10.332373
778165986514017, 0.9726824, 4.5822554, 8.372486, 0.45025635, 0.36293888, 9.576389
778165996153392, 1.3016955, 5.99761, 8.543573, -0.4214301, -0.3484254, 10.505208
778166005792767, 1.0241281, 4.7138605, 8.330612, 0.32920742, 0.2981348, 9.616194
778166015432142, 1.166501, 5.4149575, 8.361719, -0.10949898, -0.08894515, 10.029005
778166025071517, 1.0983056, 5.237889, 8.3377905, 0.016183138, -0.02126193, 9.907562
778166034710892, 1.1365907, 5.3108697, 8.376076, -0.033910036, -0.03280139, 9.982666
778166044350267, 1.1389836, 5.2510495, 8.389236, 9.5796585E-4, 0.014327288, 9.962422
778166053989746, 1.1306087, 5.276174, 8.395218, -0.0031311512, -0.006456852, 9.979776
778166063629121, 1.1186446, 5.259424, 8.416754, 0.023412704, 0.004480362, 9.987698
778166073268496, 1.1066805, 5.255835, 8.410771, 0.031826973, -0.003256321, 9.97941
778166082907871, 1.1114662, 5.261817, 8.392825, 0.017394543, -0.009915113, 9.968009
778166092547246, 1.1425728, 5.267799, 8.382058, -0.014155865, 0.003411293, 9.965635
778166102186621, 1.1569297, 5.2869415, 8.374879, -0.03771639, -0.002597332, 9.971331
778166111825996, 1.166501, 5.279763, 8.407183, -0.02715969, 0.018405437, 9.995813
778166121465371, 1.1425728, 5.2510495, 8.407183, 0.005579233, 0.0226686, 9.977934
778166131104850, 1.1306087, 5.2642097, 8.373683, -0.005478859, -0.0057513714, 9.955333
778166140744225, 1.1449656, 5.3012986, 8.3377905, -0.050339937, -0.03300023, 9.946348
778166150383600, 1.125823, 5.296513, 8.34138, -0.031728983, -0.03881097, 9.94468
778166160022975, 1.1102697, 5.2845488, 8.361719, -0.0054707527, -0.034132957, 9.953709
778166169662350, 1.099502, 5.2534423, 8.397611, 0.033816814, -0.008394241, 9.966253
778166179301725, 1.1090733, 5.245067, 8.414361, 0.037389755, 0.0076560974, 9.977014
778166188941100, 1.1330016, 5.2630134, 8.428718, 0.015543938, 0.015963078, 10.001289
778166198580579, 1.1389836, 5.2666025, 8.410771, 9.896755E-4, 0.011681557, 9.98876
778166208219954, 1.1102697, 5.2546387, 8.423932, 0.033853292, 0.0047535896, 9.990265
778166217859329, 1.0983056, 5.231907, 8.419147, 0.05252552, 0.010403633, 9.972876
778166227498704, 1.125823, 5.252246, 8.396415, 0.011683226, 0.0076715946, 9.967606
778166237138079, 1.1629118, 5.2689953, 8.3581295, -0.040780783, 0.008102894, 9.948431
778166246777454, 1.1365907, 5.2737813, 8.338987, -0.031109333, -0.017529964, 9.93187
778166256416829, 1.119841, 5.2893343, 8.338987, -0.026752234, -0.039057493, 9.938188
778166266056308, 1.1222339, 5.2737813, 8.380861, -0.002343893, -0.012719154, 9.965483
778166275695683, 1.1222339, 5.2510495, 8.397611, 0.017092228, 0.008096695, 9.967568
778166285335058, 1.1437693, 5.2689953, 8.398808, -0.007812977, 0.010085583, 9.980497
778166294974433, 1.14018, 5.279763, 8.402397, -0.009687901, 0.0015349388, 9.988798
778166304613808, 1.1090733, 5.2833524, 8.408379, 0.013943434, -0.01873207, 9.992205
778166314253183, 1.099502, 5.252246, 8.419147, 0.04137516, -2.3269653E-4, 9.983753
778166323892663, 1.1294123, 5.239085, 8.403593, 0.01873207, 0.023049116, 9.967102
778166333532038, 1.160519, 5.276174, 8.391629, -0.028845549, 0.013392448, 9.980144
778166343171413, 1.1700903, 5.2845488, 8.367701, -0.050468206, 0.005467415, 9.965511
778166352810788, 1.1210374, 5.2869415, 8.368897, -0.013302803, -0.026173115, 9.962233
778166362450163, 1.1138589, 5.255835, 8.362915, 0.005338669, -0.011704922, 9.939954
778166372089538, 1.1150553, 5.2546387, 8.361719, 0.005185604, -0.0102458, 9.93845
778166381729017, 1.1413764, 5.2689953, 8.376076, -0.015951872, 0.0018153191, 9.961098
778166391368392, 1.1485549, 5.282156, 8.37129, -0.030280352, -0.0041081905, 9.964834
778166401007767, 1.1330016, 5.2737813, 8.397611, -0.00333786, 7.6413155E-4, 9.980799
778166410647142, 1.1114662, 5.2666025, 8.438289, 0.033624887, 0.00507164, 10.008798
778166420286517, 1.1174482, 5.252246, 8.459825, 0.045184135, 0.025454521, 10.020018
778166429925996, 1.1377872, 5.2666025, 8.432307, 0.011005163, 0.019016743, 10.006746
778166439565371, 1.1629118, 5.2737813, 8.3784685, -0.033892155, 0.011210203, 9.96808
778166449204746, 1.160519, 5.2953167, 8.352147, -0.052675962, -0.013819218, 9.957038
778166458844121, 1.1246266, 5.298906, 8.356933, -0.023823261, -0.036788464, 9.958897
778166468483496, 1.1186446, 5.2809596, 8.359326, -0.009370089, -0.02739048, 9.950749
778166478122975, 1.1282159, 5.2510495, 8.349754, -0.0051181316, -0.0035505295, 9.927978
778166487762350, 1.1306087, 5.2845488, 8.349754, -0.02383089, -0.024397135, 9.945953
778166497401725, 1.1246266, 5.2809596, 8.368897, -0.009860277, -0.019383669, 9.959483
778166507041100, 1.099502, 5.258228, 8.419147, 0.041350365, -0.0033285618, 9.9869
778166516680475, 1.0923235, 5.2534423, 8.451449, 0.062372208, 0.0054507256, 10.01074
778166526319954, 1.1162517, 5.2546387, 8.458628, 0.046331882, 0.021342278, 10.020131
778166535959329, 1.1485549, 5.2666025, 8.423932, 8.1539154E-4, 0.022408724, 10.00092
778166545598704, 1.1700903, 5.2666025, 8.394022, -0.027683735, 0.027307987, 9.978191
778166555238079, 1.1389836, 5.2737813, 8.352147, -0.026293516, -0.0122823715, 9.943216
778166564877454, 1.1449656, 5.2570314, 8.359326, -0.018007278, 0.005213022, 9.9410925
778166574516933, 1.1509477, 5.265406, 8.364112, -0.023265362, 0.004586458, 9.950225
778166584156308, 1.1521441, 5.2701917, 8.362915, -0.026790857, 0.0016522408, 9.951881
778166593795683, 1.1270195, 5.2833524, 8.3581295, -0.017080069, -0.025465012, 9.951952
778166603435058, 1.1150553, 5.2570314, 8.400003, 0.023290157, -0.0017592907, 9.971924
778166613074433, 1.079163, 5.2534423, 8.413164, 0.05678177, -0.018626213, 9.977024
778166622713913, 1.0839486, 5.252246, 8.422736, 0.057857037, -0.01141572, 9.984991
778166632353288, 1.1102697, 5.258228, 8.415557, 0.031102419, -8.177757E-4, 9.9851055
778166641992663, 1.1306087, 5.2833524, 8.407183, -0.0012524128, -0.006672859, 9.993637
778166651632038, 1.1282159, 5.2905307, 8.397611, -0.007331848, -0.01572895, 9.989102
778166661271517, 1.1210374, 5.267799, 8.373683, -1.9574165E-4, -0.012174606, 9.956147
778166670910892, 1.1437693, 5.271388, 8.352147, -0.02779007, -0.006520748, 9.942499
778166680550267, 1.1629118, 5.2845488, 8.348558, -0.04979539, -0.003832817, 9.948605
778166690189642, 1.1736795, 5.285745, 8.3377905, -0.062099457, -0.0010282993, 9.941404
778166699829121, 1.1760724, 5.291727, 8.343773, -0.06321764, -9.963512E-4, 9.949879
778166709468496, 1.1413764, 5.2570314, 8.349754, -0.016694069, 7.445812E-4, 9.932635
778166719107871, 1.1174482, 5.2366924, 8.410771, 0.03758025, 0.018898726, 9.970505
778166728747246, 1.1294123, 5.2486563, 8.453842, 0.039801836, 0.030053616, 10.014437
778166738386725, 1.1294123, 5.258228, 8.456235, 0.03488636, 0.023655891, 10.02151
778166748026100, 1.1162517, 5.2689953, 8.451449, 0.036838055, 0.0062692165, 10.021673
778166757665475, 1.1330016, 5.2689953, 8.43111, 0.01515007, 0.010746479, 10.006462
778166767304850, 1.1353943, 5.2689953, 8.392825, -0.0029814243, -7.200241E-5, 9.974514
778166776944329, 1.1533405, 5.2689953, 8.3581295, -0.030392408, 1.938343E-4, 9.947358
778166786583704, 1.1509477, 5.282156, 8.316256, -0.051378727, -0.023098946, 9.91881
778166796223079, 1.1306087, 5.285745, 8.305488, -0.0422225, -0.041152954, 9.90934
778166805862454, 1.1150553, 5.2642097, 8.327023, -0.010583639, -0.029032946, 9.914312
778166815501829, 1.0731809, 5.2546387, 8.349754, 0.03503537, -0.042628527, 9.923623
778166825141308, 1.0923235, 5.2534423, 8.410771, 0.04657221, -0.010513306, 9.976505
778166834780683, 1.1270195, 5.272585, 8.433503, 0.019830227, 0.006611347, 10.009688
778166844420058, 1.1330016, 5.282156, 8.437093, 0.011611223, 0.005066395, 10.018446
778166854059538, 1.1306087, 5.272585, 8.433503, 0.016749859, 0.008856535, 10.0100975
778166863698913, 1.1353943, 5.231907, 8.383254, 0.01267314, 0.022808552, 9.946871
778166873338288, 1.1700903, 5.2259245, 8.350951, -0.02363944, 0.03847146, 9.920471
778166882977663, 1.1964114, 5.2666025, 8.35454, -0.06246376, 0.028450489, 9.947971
778166892617142, 1.1916257, 5.3072805, 8.360522, -0.076517105, -0.0016880035, 9.973951
778166902256517, 1.1437693, 5.291727, 8.392825, -0.018158674, -0.011147976, 9.987474
778166911895892, 1.1210374, 5.259424, 8.403593, 0.021080732, -7.557869E-5, 9.976884
778166921535267, 1.105484, 5.2510495, 8.395218, 0.033542633, -0.007177353, 9.963639
778166931174746, 1.1234303, 5.258228, 8.382058, 0.010263681, -0.005768299, 9.958406
778166940814121, 1.134198, 5.271388, 8.355737, -0.015775442, -0.016360521, 9.944433
778166950453496, 1.1330016, 5.271388, 8.336594, -0.022776842, -0.023330927, 9.928191
778166960092871, 1.1449656, 5.2534423, 8.336594, -0.02254057, -0.0034041405, 9.920076
778166969732350, 1.1318051, 5.258228, 8.355737, -0.006931305, -0.008784771, 9.937211
778166979371725, 1.1617154, 5.282156, 8.395218, -0.024609804, 0.0062696934, 9.986481
