timestamp_acc,device_acc_x,device_acc_y,device_acc_z,earth_acc_x,earth_acc_y,earth_acc_z
778177023632558, 1.146162, 5.2307105, 8.377272, -0.041200638, -0.02875638, 9.942342
778177033271933, 1.1880364, 5.2486563, 8.405986, -0.06846833, -0.004526615, 9.980768
778177042911413, 1.2059826, 5.2498527, 8.439486, -0.068308115, 0.017155886, 10.011759
778177052550788, 1.1760724, 5.229514, 8.445468, -0.031971693, 0.012147188, 10.002786
778177062190267, 1.1473584, 5.176872, 8.451449, 0.020292282, 0.028430462, 9.977085
778177071829642, 1.1210374, 5.151747, 8.429914, 0.043707132, 0.021255255, 9.942753
778177081469121, 1.1353943, 5.156533, 8.397611, 0.016914606, 0.015622854, 9.919592
778177091108496, 1.1377872, 5.194818, 8.368897, -0.017750502, -0.018547535, 9.915567
778177100747975, 1.1174482, 5.1732826, 8.367701, 0.008154154, -0.01778531, 9.90099
778177110387454, 1.1138589, 5.206782, 8.4012, 0.006509781, -0.03246045, 9.946373
778177120026829, 1.1042876, 5.2402816, 8.471788, 0.026002884, -0.038257122, 10.0224285
778177129666308, 1.1078769, 5.211568, 8.544769, 0.06840277, 0.006423235, 10.069568
778177139305683, 1.1389836, 5.237889, 8.534002, 0.02649784, 0.0046908855, 10.077759
778177148945163, 1.18684, 5.2259245, 8.4682, -0.03017044, 0.023922443, 10.021368
778177158584538, 1.1952149, 5.2055855, 8.360522, -0.071252346, 0.007849455, 9.920678
778177168224017, 1.1928221, 5.1936216, 8.316256, -0.078569174, 4.005432E-4, 9.876763
778177177863392, 1.2023934, 5.1900325, 8.310273, -0.086395025, 0.00720191, 9.870934
778177187502871, 1.1629118, 5.176872, 8.35454, -0.028543472, 0.0037732124, 9.896963
778177197142350, 1.1365907, 5.206782, 8.395218, -0.0072557926, -0.020383596, 9.943925
778177206781725, 1.1210374, 5.227121, 8.427522, 0.0061485767, -0.03463292, 9.980051
778177216421204, 1.0827522, 5.1792645, 8.435896, 0.06302118, -0.02490902, 9.957756
778177226060579, 1.1018949, 5.1792645, 8.4502535, 0.053265095, -0.0077347755, 9.972104
778177235700058, 1.1222339, 5.1852465, 8.456235, 0.0369339, 0.003260851, 9.982621
778177245339433, 1.1425728, 5.1792645, 8.439486, 0.018138647, 0.015423536, 9.967678
778177254978913, 1.1497513, 5.1673007, 8.4347, 0.017187834, 0.026365757, 9.958219
778177264618288, 1.166501, 5.1924253, 8.415557, -0.016632318, 0.015091658, 9.957062
778177274257767, 1.1473584, 5.2139606, 8.413164, -0.015786648, -0.012989521, 9.964071
778177283897142, 1.1330016, 5.229514, 8.427522, -0.007480383, -0.028333426, 9.982674
778177293536621, 1.1102697, 5.227121, 8.439486, 0.015835524, -0.03791976, 9.988931
778177303175996, 1.125823, 5.204389, 8.435896, 0.015698671, -0.013316631, 9.975822
778177312815475, 1.174876, 5.2008, 8.398808, -0.032459974, 0.011163235, 9.948239
778177322454954, 1.2011969, 5.1936216, 8.361719, -0.062609434, 0.02191639, 9.916176
778177332094329, 1.1964114, 5.188836, 8.325827, -0.07210088, 0.009862661, 9.882788
778177341733808, 1.1533405, 5.1852465, 8.343773, -0.030115366, -0.011669636, 9.89113
778177351373183, 1.1078769, 5.197211, 8.405986, 0.023543358, -0.032042503, 9.944719
778177361012663, 1.0851451, 5.180461, 8.5016985, 0.08972263, -0.004714966, 10.014267
778177370652038, 1.0983056, 5.1924253, 8.538788, 0.0886395, 0.0062663555, 10.053387
778177380291517, 1.105484, 5.1924253, 8.518449, 0.07186985, 0.0031905174, 10.037041
778177389930892, 1.1318051, 5.198407, 8.495717, 0.03959775, 0.009845257, 10.02397
778177399570371, 1.1473584, 5.215157, 8.440681, -0.0030510426, -0.0077672005, 9.987961
778177409209746, 1.1844472, 5.2342997, 8.347362, -0.07880664, -0.023777246, 9.92333
778177418849225, 1.1760724, 5.235496, 8.287541, -0.09673333, -0.047800064, 9.872452
778177428488704, 1.1880364, 5.221139, 8.262417, -0.10696459, -0.03685546, 9.845124
778177438128079, 1.1712867, 5.215157, 8.287541, -0.080783606, -0.036225796, 9.861303
778177447767558, 1.1676974, 5.1936216, 8.360522, -0.0339334, -0.0016086102, 9.911327
778177457406933, 1.1425728, 5.1756754, 8.4502535, 0.03304434, 0.020333052, 9.974887
778177467046413, 1.14018, 5.178068, 8.505288, 0.056730747, 0.032515764, 10.022377
778177476685788, 1.1425728, 5.180461, 8.500503, 0.050228357, 0.029239893, 10.019871
778177486325267, 1.146162, 5.1960144, 8.472985, 0.026370287, 0.010685921, 10.005145
778177495964642, 1.1593226, 5.2055855, 8.457432, 0.0040125847, 0.007296562, 9.998511
778177505604121, 1.1413764, 5.204389, 8.440681, 0.010733843, -0.009713888, 9.981648
778177515243496, 1.1437693, 5.178068, 8.397611, 0.005209923, -0.0047819614, 9.9317875
778177524882975, 1.1306087, 5.1457653, 8.374879, 0.022603512, 9.198189E-4, 9.894203
778177534522350, 1.1641082, 5.18405, 8.3581295, -0.029227734, -0.00842762, 9.903885
778177544161829, 1.1892328, 5.194818, 8.359326, -0.05247569, 0.0010461807, 9.913425
778177553801308, 1.1712867, 5.178068, 8.383254, -0.019145489, 0.0076310635, 9.922843
778177563440683, 1.160519, 5.1924253, 8.421539, -0.0025413036, 0.0030105114, 9.961445
778177573080163, 1.1557333, 5.2235317, 8.428718, -0.012174606, -0.0193007, 9.983175
778177582719538, 1.1724831, 5.218746, 8.440681, -0.01665759, -0.0014474392, 9.99274
778177592359017, 1.1712867, 5.206782, 8.426325, -0.015543222, 9.5796585E-4, 9.974228
778177601998392, 1.1533405, 5.2031927, 8.437093, 0.004647255, -0.007324934, 9.979374
778177611637871, 1.1533405, 5.168497, 8.435896, 0.022800684, 0.015272856, 9.960279
778177621277246, 1.1389836, 5.1792645, 8.440681, 0.029317617, -7.119179E-4, 9.968265
778177630916725, 1.1425728, 5.1792645, 8.433503, 0.022782803, -0.0020067692, 9.962616
778177640556100, 1.1509477, 5.194818, 8.415557, 5.3834915E-4, -0.012346506, 9.95652
778177650195579, 1.119841, 5.18405, 8.405986, 0.024857283, -0.02919817, 9.939192
778177659834954, 1.1270195, 5.186443, 8.396415, 0.0144023895, -0.028863192, 9.933184
778177669474433, 1.160519, 5.2079782, 8.383254, -0.026951551, -0.02407837, 9.937179
778177679113913, 1.1700903, 5.2055855, 8.368897, -0.038805246, -0.020564556, 9.924907
778177688753288, 1.18684, 5.2008, 8.383254, -0.040547132, -0.0019316673, 9.936509
778177698392767, 1.2083755, 5.194818, 8.384451, -0.052589178, 0.01688385, 9.936914
778177708032142, 1.2131611, 5.2008, 8.398808, -0.052462816, 0.019881964, 9.952734
778177717671621, 1.2071791, 5.186443, 8.414361, -0.03329873, 0.029181004, 9.957711
778177727310996, 1.2047862, 5.1876397, 8.458628, -0.012826204, 0.03939128, 9.995488
778177736950475, 1.1928221, 5.1756754, 8.478967, 0.011088371, 0.04458046, 10.005059
778177746589850, 1.1509477, 5.1816573, 8.456235, 0.029206276, 0.0041611195, 9.984051
778177756229329, 1.1222339, 5.17089, 8.419147, 0.039851427, -0.020019531, 9.943719
778177765868704, 1.1150553, 5.1756754, 8.385647, 0.028465033, -0.038981438, 9.917042
778177775508183, 1.1485549, 5.156533, 8.360522, 0.002515316, -0.011789799, 9.889751
778177785147558, 1.1676974, 5.1924253, 8.349754, -0.035255194, -0.025946617, 9.90158
778177794787038, 1.1700903, 5.224728, 8.367701, -0.046130657, -0.040573597, 9.933857
778177804426413, 1.1557333, 5.218746, 8.368897, -0.031672478, -0.045279503, 9.930077
778177814065892, 1.1318051, 5.1924253, 8.423932, 0.022962809, -0.02578926, 9.960107
778177823705267, 1.1353943, 5.1720862, 8.472985, 0.051091194, 0.0038235188, 9.991419
778177833344746, 1.160519, 5.174479, 8.480164, 0.034418106, 0.021235704, 10.0016775
778177842984121, 1.1509477, 5.15414, 8.467003, 0.04522872, 0.022298336, 9.978848
778177852623600, 1.1676974, 5.174479, 8.455039, 0.017073154, 0.016100168, 9.9812765
778177862262975, 1.1796615, 5.176872, 8.411968, -0.011137724, 0.008384466, 9.9474945
778177871902454, 1.1832508, 5.174479, 8.3581295, -0.034389973, -0.0047957897, 9.9011345
778177881541829, 1.2119647, 5.188836, 8.342576, -0.069725275, -5.092621E-4, 9.898818
778177891181308, 1.2299109, 5.2223353, 8.321041, -0.10840106, -0.018142939, 9.900158
778177900820683, 1.2119647, 5.2079782, 8.3581295, -0.07085991, -0.008325577, 9.921951
778177910460163, 1.180858, 5.1816573, 8.38804, -0.020647287, -0.0029613972, 9.929892
778177920099538, 1.1246266, 5.150551, 8.46102, 0.06781125, 0.002824068, 9.968813
778177929739017, 1.1090733, 5.1326046, 8.495717, 0.103377104, 0.015959501, 9.98699
778177939378392, 1.1150553, 5.1625147, 8.49811, 0.08105683, -0.0028688908, 10.005308
778177949017871, 1.1365907, 5.1673007, 8.486146, 0.05768466, 0.0046827793, 10.000208
778177958657246, 1.1557333, 5.1936216, 8.447861, 0.012269497, -0.011746645, 9.983762
778177968296725, 1.1892328, 5.2139606, 8.40479, -0.041246653, -0.016002655, 9.961838
778177977936100, 1.2107682, 5.2139606, 8.338987, -0.081668615, -0.021313667, 9.90873
778177987575579, 1.2311072, 5.21755, 8.282756, -0.122550726, -0.027862072, 9.86543
778177997215058, 1.2131611, 5.1876397, 8.262417, -0.09920597, -0.025601625, 9.8305855
778178006854433, 1.2239288, 5.178068, 8.316256, -0.07855511, 0.0034832954, 9.872402
778178016493808, 1.1724831, 5.144569, 8.457432, 0.036822557, 0.037107706, 9.968288
778178026133288, 1.1306087, 5.123033, 8.610572, 0.14423895, 0.07062864, 10.081663
778178035772663, 1.0289137, 5.1493545, 8.623733, 0.20901203, -0.014583826, 10.094522
778178045412142, 1.0085747, 5.139783, 8.539984, 0.19119692, -0.046874285, 10.016344
778178055051517, 1.0875379, 5.06082, 8.373683, 0.101124525, 0.006837368, 9.843929
778178064690996, 1.3124632, 5.7403817, 8.312666, -0.4400525, -0.33162642, 10.172086
778178074330371, 1.1377872, 4.5822554, 8.111669, 0.19709015, 0.2829697, 9.3793335
778178083969850, 1.4727824, 5.9030933, 8.285149, -0.64807296, -0.34013867, 10.252979
778178093609225, 1.1796615, 4.5762734, 8.228917, 0.22368121, 0.35129142, 9.480269
778178103248704, 1.3316058, 5.682954, 8.446664, -0.3539853, -0.23272753, 10.258451
778178112888079, 1.0755738, 4.900501, 8.56152, 0.28397655, 0.16573691, 9.917826
778178122527558, 1.1174482, 5.180461, 8.550752, 0.09991479, -0.006837368, 10.059383
778178132166933, 1.1988041, 5.3276196, 8.597412, -0.017603397, -0.042056322, 10.184993
778178141806413, 1.0971092, 4.688736, 8.382058, 0.2924285, 0.2608068, 9.658843
778178151445788, 1.3591232, 5.773881, 8.535198, -0.3886521, -0.2683313, 10.383232
778178161085267, 1.0648061, 4.447061, 8.384451, 0.42766547, 0.41345406, 9.531808
778178170724642, 1.3483555, 5.8743796, 8.565108, -0.410604, -0.33990884, 10.459606
778178180364121, 1.0648061, 4.5116673, 8.367701, 0.38584232, 0.3648932, 9.551196
778178190003496, 1.3316058, 5.723632, 8.382058, -0.4020257, -0.31509042, 10.224045
778178199642975, 1.099502, 4.8586264, 8.280363, 0.15638328, 0.11389303, 9.661372
778178209282350, 1.1449656, 5.2642097, 8.2456665, -0.089903355, -0.14869165, 9.84803
778178218921829, 1.1437693, 5.337191, 8.361719, -0.07697129, -0.15969181, 9.984024
778178228561204, 1.0336994, 4.755735, 8.29113, 0.26654744, 0.15185237, 9.609074
778178238200683, 1.2849457, 5.729614, 8.56152, -0.30872273, -0.2730372, 10.373491
778178247840058, 1.0336994, 4.429115, 8.462217, 0.50910735, 0.42259693, 9.584202
778178257479433, 1.3471591, 5.8743796, 8.6548395, -0.3905666, -0.29155183, 10.535268
778178267118913, 1.0767702, 4.442275, 8.376076, 0.42849302, 0.41561604, 9.52342
778178276758288, 1.2981063, 5.6817575, 8.410771, -0.36796904, -0.2803259, 10.222259
778178286397767, 1.0576276, 4.7712884, 8.407183, 0.28148842, 0.17911863, 9.718702
778178296037142, 1.1832508, 5.337191, 8.391629, -0.11374092, -0.1231668, 10.013842
778178305676621, 1.1724831, 5.3096733, 8.456235, -0.062749624, -0.08774805, 10.05304
778178315315996, 1.0707881, 4.766503, 8.29113, 0.22410798, 0.16198659, 9.619383
778178324955475, 1.2502499, 5.6745787, 8.437093, -0.3159752, -0.2900355, 10.235455
778178334594850, 1.018146, 4.4638104, 8.325827, 0.42518044, 0.35117507, 9.485649
778178344234329, 1.3543376, 5.933004, 8.584251, -0.46697998, -0.3456452, 10.506501
778178353873704, 1.038485, 4.4913282, 8.472985, 0.4600556, 0.38484788, 9.627159
778178363513079, 1.314856, 5.761917, 8.569894, -0.36420202, -0.26678276, 10.400377
778178373152558, 1.099502, 4.7629137, 8.476574, 0.27093244, 0.24573493, 9.778177
778178382791933, 1.2418749, 5.349155, 8.374879, -0.17809582, -0.088656664, 10.01273
778178392431413, 1.2514462, 5.239085, 8.321041, -0.15095472, -0.025002956, 9.911128
778178402070788, 1.134198, 4.863412, 8.199007, 0.08371925, 0.120619535, 9.599028
778178411710267, 1.2813566, 5.682954, 8.467003, -0.33931303, -0.24967027, 10.268909
778178421349642, 1.0109676, 4.5020957, 8.40479, 0.4445517, 0.35412574, 9.571227
778178430989017, 1.2981063, 5.916254, 8.645268, -0.3899405, -0.3424945, 10.543171
778178440628496, 0.9810573, 4.4674, 8.457432, 0.5086422, 0.36742926, 9.594508
778178450267871, 1.2514462, 5.8133626, 8.457432, -0.39795113, -0.3589766, 10.324835
778178459907350, 1.0516455, 4.7485566, 8.313862, 0.24711418, 0.1808536, 9.627111
778178469546725, 1.1976078, 5.4293146, 8.286345, -0.21706176, -0.18824601, 9.974602
778178479186204, 1.1952149, 5.2283173, 8.329415, -0.09588313, -0.03423214, 9.906192
778178488825579, 1.1413764, 4.9363933, 8.22772, 0.049965143, 0.09824991, 9.661985
778178498464954, 1.2813566, 5.660222, 8.459825, -0.32213306, -0.23397446, 10.251347
778178508104433, 0.99302137, 4.5092745, 8.374879, 0.43691516, 0.35616183, 9.546753
778178517743808, 1.2586247, 5.851648, 8.612965, -0.33113885, -0.33053565, 10.47808
778178527383288, 0.9320044, 4.4075794, 8.441878, 0.5516772, 0.40802646, 9.544101
778178537022663, 1.2442678, 5.8265233, 8.53161, -0.3427763, -0.35147953, 10.394417
778178546662142, 1.0432707, 4.7102714, 8.427522, 0.3167069, 0.2657025, 9.701922
778178556301517, 1.2143575, 5.51426, 8.400003, -0.22598577, -0.19213581, 10.117006
778178565940892, 1.160519, 5.174479, 8.391629, -0.019139767, 0.008167028, 9.926785
778178575580371, 1.1006985, 4.979464, 8.2660055, 0.07162809, 0.06346464, 9.712069
778178585219746, 1.2370893, 5.601598, 8.411968, -0.28064728, -0.23193336, 10.175311
778178594859225, 1.0025927, 4.558327, 8.268398, 0.3595338, 0.30006242, 9.483177
778178604498600, 1.2777673, 5.885147, 8.507681, -0.4163704, -0.37264156, 10.408463
778178614137975, 0.92243314, 4.412365, 8.3784685, 0.5324869, 0.38286757, 9.491493
778178623777454, 1.2526426, 5.8624153, 8.502895, -0.39483428, -0.37015915, 10.38958
778178633416829, 1.038485, 4.6767716, 8.389236, 0.31465173, 0.27549458, 9.651686
778178643056308, 1.2418749, 5.54417, 8.402397, -0.2663281, -0.18874145, 10.137743
778178652695683, 1.1724831, 5.131408, 8.400003, -0.0073599815, 0.051213503, 9.912791
778178662335058, 1.1653047, 5.058427, 8.297112, -0.0024032593, 0.065666676, 9.7869
778178671974538, 1.2849457, 5.578866, 8.376076, -0.32206702, -0.1927228, 10.138668
778178681613913, 1.006182, 4.5284166, 8.239685, 0.3622353, 0.30638075, 9.443849
778178691253392, 1.2311072, 5.892326, 8.585447, -0.34599257, -0.3703227, 10.473213
778178700892767, 0.9212367, 4.4889355, 8.462217, 0.532784, 0.35609603, 9.601962
778178710532142, 1.2107682, 5.858826, 8.5938225, -0.31375575, -0.35734272, 10.460376
778178720171621, 1.0145568, 4.5798626, 8.499306, 0.4302714, 0.35937643, 9.691666
778178729810996, 1.262214, 5.5716877, 8.487342, -0.26253915, -0.16658044, 10.226202
778178739450371, 1.146162, 5.087141, 8.398808, 0.03703308, 0.06962299, 9.88567
778178749089850, 1.1138589, 5.099105, 8.246863, -0.0061678886, -0.011273861, 9.759722
778178758729225, 1.1832508, 5.5369916, 8.30788, -0.25381255, -0.24538183, 10.047617
778178768368704, 1.0037891, 4.6289153, 8.187042, 0.29322886, 0.22791195, 9.451148
778178778008079, 1.2909278, 5.8672013, 8.478967, -0.43262458, -0.34713745, 10.376694
778178787647454, 0.99900347, 4.475775, 8.398808, 0.4580493, 0.3953607, 9.5501
778178797286933, 1.3172488, 5.9353967, 8.566305, -0.45535922, -0.3472221, 10.488935
778178806926308, 1.0396814, 4.558327, 8.4502535, 0.40860772, 0.37583566, 9.641466
778178816565788, 1.2167503, 5.5465627, 8.492127, -0.2084701, -0.16057944, 10.212338
778178826205163, 1.1126626, 4.974678, 8.451449, 0.14624906, 0.1425147, 9.867661
778178835844538, 1.134198, 5.1732826, 8.344969, -0.01769042, -0.012812138, 9.883689
778178845484017, 1.2000005, 5.5298133, 8.409575, -0.22709513, -0.19009376, 10.131737
778178855123392, 0.991825, 4.705486, 8.282756, 0.29973245, 0.19506788, 9.570866
778178864762767, 1.2454642, 5.8468623, 8.517252, -0.37441063, -0.3363316, 10.393616
778178874402246, 0.97866446, 4.4315076, 8.380861, 0.48894763, 0.40688968, 9.509481
778178884041621, 1.3495519, 5.9114685, 8.4909315, -0.49045968, -0.32481742, 10.417131
778178893680996, 1.0648061, 4.570291, 8.280363, 0.3078742, 0.33737445, 9.506691
778178903320475, 1.2323036, 5.6530433, 8.359326, -0.3228078, -0.26881766, 10.157625
778178912959850, 1.0313065, 4.910072, 8.423932, 0.22048903, 0.13609385, 9.801424
778178922599329, 1.0408778, 5.17089, 8.416754, 0.07915616, -0.036830664, 9.932554
778178932238704, 1.1389836, 5.4317074, 8.5423765, -0.07593012, -0.11009216, 10.186022
778178941878079, 0.9942178, 4.733003, 8.405986, 0.3288629, 0.23223972, 9.689598
778178951517558, 1.2323036, 5.8229337, 8.608179, -0.31733274, -0.29221416, 10.456567
778178961156933, 0.9391829, 4.4805603, 8.377272, 0.48346353, 0.36005068, 9.527475
778178970796308, 1.3064811, 5.910272, 8.458628, -0.47495484, -0.35474443, 10.384372
778178980435788, 1.0576276, 4.5212383, 8.2456665, 0.31821752, 0.38287497, 9.450045
778178990075163, 1.2861422, 5.7009, 8.273184, -0.43792295, -0.28189397, 10.115769
778178999714538, 1.0588241, 4.875376, 8.27797, 0.15013361, 0.1450553, 9.6629
778179009354017, 1.0887343, 5.21755, 8.331808, -0.015598059, -0.047183514, 9.890638
778179018993392, 1.0899308, 5.3946185, 8.472985, -0.051730394, -0.12141228, 10.102671
778179028632767, 0.9810573, 4.813163, 8.352147, 0.27020884, 0.17434692, 9.684211
778179038272246, 1.2251252, 5.8504515, 8.577073, -0.3376572, -0.31434608, 10.444235
778179047911621, 0.9607183, 4.5451665, 8.402397, 0.44437027, 0.36339998, 9.583958
778179057551100, 1.2454642, 5.9760747, 8.548359, -0.43442988, -0.38489985, 10.4881935
778179067190475, 0.95353985, 4.5212383, 8.342576, 0.42640877, 0.35496068, 9.52059
778179076829850, 1.2107682, 5.716453, 8.366505, -0.3495593, -0.29065633, 10.194878
778179086469329, 1.038485, 4.820341, 8.292327, 0.19156814, 0.1880939, 9.643897
778179096108704, 1.1126626, 5.3276196, 8.285149, -0.11907554, -0.113554, 9.911517
778179105748079, 1.1533405, 5.383851, 8.429914, -0.11833167, -0.07712674, 10.067748
778179115387558, 1.0420742, 4.8658047, 8.236095, 0.151407, 0.14122772, 9.620414
778179125026933, 1.2586247, 5.834898, 8.389236, -0.44636846, -0.31913757, 10.281457
778179134666308, 0.9762716, 4.5690947, 8.271988, 0.3737979, 0.31538272, 9.487694
778179144305788, 1.2610176, 5.9724855, 8.52802, -0.46034098, -0.3574679, 10.471305
778179153945163, 0.9320044, 4.49731, 8.379665, 0.4838159, 0.36252666, 9.536652
778179163584538, 1.2059826, 5.7451673, 8.478967, -0.32094288, -0.2609346, 10.304521
778179173224017, 1.0193424, 4.74736, 8.488539, 0.33501863, 0.2896154, 9.769119
778179182863392, 1.1365907, 5.3407803, 8.483752, -0.0609591, -0.0373075, 10.088841
778179192502767, 1.134198, 5.3156557, 8.49452, -0.04590392, -0.021958351, 10.084488
778179202142246, 1.0085747, 4.9052863, 8.274381, 0.16555905, 0.1073432, 9.669825
778179211781621, 1.174876, 5.7343993, 8.400003, -0.3244486, -0.31542444, 10.228342
778179221420996, 0.9164511, 4.5523453, 8.246863, 0.39931178, 0.28128767, 9.451767
778179231060475, 1.2311072, 5.973682, 8.458628, -0.4592204, -0.41972923, 10.4096985
778179240699850, 0.93320084, 4.4889355, 8.3174515, 0.44582176, 0.36104703, 9.480101
778179250339225, 1.1796615, 5.7487564, 8.506484, -0.29623175, -0.28697944, 10.326178
778179259978704, 0.96430755, 4.715057, 8.492127, 0.3831427, 0.2797091, 9.749504
778179269618079, 1.105484, 5.4017973, 8.504091, -0.06843114, -0.09800887, 10.134434
778179279257454, 1.0971092, 5.2510495, 8.482556, 0.007286787, -0.005042553, 10.036477
778179288896933, 1.0301101, 4.938786, 8.29113, 0.13752079, 0.10033727, 9.703948
778179298536308, 1.1964114, 5.716453, 8.423932, -0.32674646, -0.28262734, 10.241346
778179308175683, 0.96550393, 4.570291, 8.29113, 0.3689711, 0.31489658, 9.5040655
778179317815163, 1.2921243, 5.942575, 8.510074, -0.47852397, -0.34823966, 10.442935
778179327454538, 0.991825, 4.4781675, 8.328219, 0.41174984, 0.4050169, 9.490172
778179337093913, 1.2586247, 5.820541, 8.421539, -0.41750216, -0.31302738, 10.30111
778179346733392, 0.997807, 4.688736, 8.347362, 0.30924773, 0.27037644, 9.617151
778179356372767, 1.1389836, 5.4580283, 8.411968, -0.14822006, -0.14492631, 10.089876
778179366012142, 1.0923235, 5.206782, 8.463413, 0.029455185, 0.015288353, 9.996601
778179375651517, 1.0456635, 5.003392, 8.352147, 0.11970711, 0.08821988, 9.790997
778179385290996, 1.2131611, 5.6877394, 8.493324, -0.29410648, -0.22669506, 10.286926
778179394930371, 0.96550393, 4.618148, 8.37129, 0.38010955, 0.30712485, 9.596832
778179404569746, 1.2586247, 5.940182, 8.584251, -0.41350985, -0.34058833, 10.501061
778179414209225, 0.9523434, 4.442275, 8.390432, 0.49224496, 0.4293232, 9.519113
778179423848600, 1.2646067, 5.8265233, 8.465807, -0.41406035, -0.30860043, 10.341704
778179433487975, 1.018146, 4.65404, 8.327023, 0.29957318, 0.30080628, 9.584142
778179443127454, 1.1700903, 5.511867, 8.329415, -0.24059415, -0.19335818, 10.051552
778179452766829, 1.0755738, 5.1421757, 8.3784685, 0.03703785, 0.017584324, 9.88918
778179462406204, 1.0157533, 5.050052, 8.328219, 0.11084676, 0.028594017, 9.79188
778179472045683, 1.1736795, 5.6303115, 8.488539, -0.23465276, -0.21578407, 10.248493
778179481685058, 0.96789676, 4.6289153, 8.366505, 0.37494445, 0.29605484, 9.598638
778179491324433, 1.2873386, 5.918647, 8.620144, -0.41281748, -0.29144216, 10.523269
778179500963913, 0.9846465, 4.482953, 8.422736, 0.4669342, 0.42409134, 9.571365
778179510603288, 1.282553, 5.8683977, 8.480164, -0.44358158, -0.30496645, 10.378173
778179520242663, 0.9846465, 4.601398, 8.329415, 0.3694148, 0.3088596, 9.554564
778179529882142, 1.1700903, 5.572884, 8.361719, -0.26074958, -0.22527361, 10.110678
778179539521517, 1.0552348, 5.1003013, 8.394022, 0.07842898, 0.03641367, 9.878197
778179549160892, 1.012164, 5.1026945, 8.299505, 0.07531953, -0.02145338, 9.794776
778179558800371, 1.1449656, 5.605187, 8.451449, -0.21694541, -0.23322272, 10.200716
778179568439746, 0.95353985, 4.686343, 8.315059, 0.32941508, 0.23615837, 9.583683
778179578079121, 1.2335001, 5.9042897, 8.571091, -0.38103676, -0.34001684, 10.468283
778179587718600, 0.9415757, 4.426722, 8.419147, 0.5068619, 0.44327664, 9.534728
778179597357975, 1.274178, 5.8947186, 8.53161, -0.42077136, -0.32395864, 10.434443
778179606997350, 1.0157533, 4.575077, 8.384451, 0.357728, 0.37542796, 9.591307
778179616636829, 1.1976078, 5.569295, 8.435896, -0.24602771, -0.1744318, 10.174709
778179626276204, 1.0815558, 5.0069814, 8.438289, 0.12176514, 0.13203788, 9.869756
778179635915579, 1.0875379, 5.17089, 8.349754, 0.002417326, -0.002651453, 9.881257
778179645555058, 1.1581261, 5.5501523, 8.465807, -0.19772506, -0.1778624, 10.18551
778179655194433, 0.97507524, 4.7114677, 8.292327, 0.29841924, 0.22163033, 9.579835
778179664833808, 1.2251252, 5.8600225, 8.49452, -0.39684415, -0.33602524, 10.379174
778179674473288, 0.9164511, 4.447061, 8.327023, 0.48640275, 0.37348056, 9.4646435
778179684112663, 1.2454642, 5.905486, 8.471788, -0.43510318, -0.35889935, 10.386482
778179693752038, 0.9702896, 4.5930233, 8.327023, 0.36521196, 0.31390715, 9.546975
778179703391517, 1.1856437, 5.6757755, 8.394022, -0.3106761, -0.27400732, 10.193536
778179713030892, 1.0707881, 4.9938207, 8.405986, 0.124951124, 0.12565422, 9.83433
778179722670267, 1.1318051, 5.197211, 8.353344, -0.041166544, 0.012474775, 9.902954
778179732309642, 1.166501, 5.474778, 8.46461, -0.16536784, -0.12107015, 10.14601
778179741949121, 0.9619147, 4.7162533, 8.365308, 0.3335533, 0.23221087, 9.642693
778179751588496, 1.180858, 5.814559, 8.622537, -0.28274107, -0.2880206, 10.45891
778179761227871, 0.89491564, 4.447061, 8.456235, 0.5493858, 0.40784717, 9.571676
778179770867350, 1.2287145, 5.8911295, 8.586644, -0.37106156, -0.32467318, 10.473897
778179780506725, 0.97866446, 4.5355954, 8.379665, 0.41284394, 0.37965083, 9.562095
778179790146100, 1.247857, 5.7200427, 8.377272, -0.38678622, -0.26595855, 10.209525
778179799785579, 1.0516455, 4.932804, 8.301898, 0.11993337, 0.12223506, 9.7124
778179809424954, 1.079163, 5.2570314, 8.252846, -0.081135035, -0.09337783, 9.843533
778179819064329, 1.1330016, 5.426922, 8.364112, -0.1614182, -0.13543677, 10.032404
778179828703808, 1.0097711, 4.802395, 8.273184, 0.21250916, 0.18350792, 9.615061
778179838343183, 1.2490535, 5.849255, 8.555537, -0.39186096, -0.2805953, 10.427792
778179847982558, 0.9451649, 4.4925246, 8.429914, 0.4840932, 0.39755487, 9.578476
778179857622038, 1.2311072, 5.9066825, 8.58784, -0.38593817, -0.3193283, 10.483541
778179867261413, 0.9284152, 4.510471, 8.377272, 0.4615357, 0.3565266, 9.541743
778179876900788, 1.1736795, 5.741578, 8.426325, -0.33396196, -0.30569553, 10.2538395
778179886540267, 1.0133604, 4.889733, 8.391629, 0.21168137, 0.16720533, 9.761304
778179896179642, 1.0887343, 5.3587265, 8.4012, -0.08032179, -0.10739827, 10.023147
778179905819017, 1.1270195, 5.3886366, 8.483752, -0.08944011, -0.07458544, 10.112767
778179915458496, 1.0336994, 4.81077, 8.329415, 0.2045052, 0.2148366, 9.669706
778179925097871, 1.2550355, 5.7523456, 8.496913, -0.36164904, -0.24796176, 10.328111
778179934737246, 0.9631111, 4.490132, 8.306684, 0.4065237, 0.38281775, 9.475128
778179944376725, 1.2406785, 5.9246287, 8.465807, -0.44658732, -0.37620354, 10.390835
778179954016100, 0.91884387, 4.496114, 8.29472, 0.4333217, 0.3437581, 9.463391
778179963655475, 1.1892328, 5.804988, 8.427522, -0.37268686, -0.3425324, 10.289755
778179973294954, 0.98943216, 4.861019, 8.443074, 0.26382017, 0.19253588, 9.7871
778179982934329, 1.099502, 5.3826547, 8.469396, -0.07145357, -0.08709979, 10.094547
778179992573704, 1.1090733, 5.316852, 8.52802, -0.026185036, -0.019486666, 10.110638
778180002213183, 1.0169497, 4.85743, 8.366505, 0.21026659, 0.18428302, 9.723633
778180011852558, 1.2227324, 5.7188463, 8.516056, -0.31885004, -0.22453284, 10.323343
778180021491933, 0.930808, 4.475775, 8.30788, 0.44254494, 0.36725974, 9.465153
778180031131413, 1.2418749, 5.9270215, 8.46102, -0.45690656, -0.3729756, 10.38811
778180040770788, 0.9451649, 4.506881, 8.285149, 0.40908957, 0.34291768, 9.463829
778180050410163, 1.2035898, 5.8540406, 8.395218, -0.43342948, -0.36314058, 10.289722
778180060049642, 0.9774681, 4.8287163, 8.366505, 0.26107335, 0.17828202, 9.7041445
778180069689017, 1.0887343, 5.430511, 8.432307, -0.11057234, -0.13821721, 10.087034
778180079328392, 1.0911272, 5.278567, 8.499306, -0.0050120354, -0.009701014, 10.064388
778180088967871, 0.99302137, 4.9064827, 8.385647, 0.21323657, 0.14024544, 9.762869
778180098607246, 1.1772687, 5.6937213, 8.536395, -0.2728021, -0.22485185, 10.322281
778180108246621, 0.9176475, 4.526024, 8.379665, 0.46232796, 0.34046364, 9.550712
778180117886100, 1.227518, 5.9150577, 8.560323, -0.41483474, -0.3234973, 10.464087
778180127525475, 0.94636136, 4.493721, 8.3377905, 0.42947507, 0.3763237, 9.501674
778180137164954, 1.2598212, 5.855237, 8.392825, -0.46980047, -0.3260882, 10.2948265
778180146804329, 1.0193424, 4.759324, 8.303095, 0.23579001, 0.23509932, 9.618771
778180156443704, 1.1389836, 5.4927244, 8.3581295, -0.20657802, -0.16812444, 10.062538
778180166083183, 1.105484, 5.206782, 8.428718, -0.011099577, 0.024709702, 9.968712
778180175722558, 1.0193424, 4.9316072, 8.364112, 0.17051816, 0.13438058, 9.760689
778180185361933, 1.1449656, 5.6506505, 8.584251, -0.20298576, -0.20428276, 10.336693
778180195001413, 0.91525465, 4.6289153, 8.446664, 0.4361658, 0.30338144, 9.660662
778180204640788, 1.2323036, 5.962914, 8.580662, -0.43647838, -0.358855, 10.50635
778180214280163, 0.91405827, 4.462614, 8.347362, 0.4849236, 0.38201928, 9.489352
778180223919642, 1.2526426, 5.881558, 8.422736, -0.46876, -0.33358002, 10.3331175
778180233559017, 1.0313065, 4.7306104, 8.300702, 0.2344234, 0.25383854, 9.603361
778180243198392, 1.174876, 5.532206, 8.322237, -0.26902652, -0.18316936, 10.056807
778180252837871, 1.0719845, 5.1409793, 8.368897, 0.023540735, 0.028031826, 9.880077
778180262477246, 1.0013963, 5.011767, 8.315059, 0.12336421, 0.05661893, 9.759219
778180272116725, 1.1306087, 5.5968122, 8.517252, -0.18486047, -0.19862676, 10.25049
778180281756100, 0.8913264, 4.581059, 8.389236, 0.45066118, 0.30838466, 9.58445
778180291395475, 1.2071791, 5.918647, 8.62134, -0.36424565, -0.33381963, 10.515278
778180301034954, 0.90807617, 4.4745784, 8.432307, 0.5010507, 0.41546535, 9.566954
778180310674329, 1.2119647, 5.8636117, 8.544769, -0.3724432, -0.31947923, 10.422242
778180320313704, 0.9954142, 4.65404, 8.40479, 0.3349886, 0.32078218, 9.647607
778180329953183, 1.1940185, 5.5776696, 8.383254, -0.2877288, -0.1930213, 10.133852
778180339592558, 1.0899308, 5.1182475, 8.394022, 0.032503366, 0.06465721, 9.891349
778180349231933, 1.0612168, 5.0847483, 8.293523, 0.029046774, 0.03447628, 9.785771
778180358871413, 1.1856437, 5.568098, 8.420342, -0.25842285, -0.17276883, 10.159478
778180368510788, 0.9667004, 4.6504507, 8.29472, 0.32296753, 0.27496958, 9.549014
778180378150267, 1.2335001, 5.9138613, 8.529217, -0.42509937, -0.33529758, 10.437898
778180387789642, 0.9200403, 4.4817567, 8.376076, 0.47681618, 0.39035034, 9.524261
778180397429017, 1.2203395, 5.9377894, 8.52443, -0.42165542, -0.36937833, 10.445013
778180407068496, 0.951147, 4.62413, 8.385647, 0.38645244, 0.3117609, 9.6104
778180416707871, 1.1425728, 5.5968122, 8.440681, -0.22857404, -0.21256566, 10.187122
778180426347350, 1.0360922, 5.042874, 8.465807, 0.13489628, 0.103097916, 9.906823
778180435986725, 1.0229317, 5.1409793, 8.398808, 0.06901336, 0.0057251453, 9.900061
778180445626100, 1.1377872, 5.5477595, 8.49811, -0.18360925, -0.1656928, 10.209256
778180455265579, 0.94636136, 4.638487, 8.3174515, 0.34947634, 0.27593398, 9.559963
778180464904954, 1.2370893, 5.84088, 8.530413, -0.39225197, -0.2999277, 10.400499
778180474544329, 0.96909314, 4.45065, 8.325827, 0.42366362, 0.42008853, 9.4715805
778180484183808, 1.3052847, 5.9557357, 8.452646, -0.5242789, -0.36033535, 10.402744
778180493823183, 0.9954142, 4.6145587, 8.30788, 0.31946683, 0.32509375, 9.544536
778180503462663, 1.1449656, 5.6793647, 8.423932, -0.27584386, -0.27808666, 10.216426
778180513102038, 0.9846465, 4.999803, 8.484949, 0.20249915, 0.10634017, 9.894929
778180522741413, 1.0073783, 5.204389, 8.443074, 0.06640649, -0.030808449, 9.968984
778180532380892, 1.1234303, 5.4843497, 8.535198, -0.122326136, -0.12347722, 10.205861
778180542020267, 0.9619147, 4.7162533, 8.329415, 0.29402375, 0.24638224, 9.612511
778180551659642, 1.2215359, 5.8133626, 8.492127, -0.3750391, -0.31278968, 10.3520565
778180561299121, 0.9296116, 4.4446683, 8.292327, 0.43435097, 0.40949273, 9.435339
778180570938496, 1.2562319, 5.933004, 8.437093, -0.4842255, -0.39461398, 10.37174
778180580577975, 0.971486, 4.570291, 8.3174515, 0.3477962, 0.34548497, 9.527382
778180590217350, 1.1796615, 5.727221, 8.4502535, -0.31511116, -0.283206, 10.267422
778180599856829, 1.0109676, 4.968696, 8.520842, 0.20899606, 0.16702461, 9.91177
778180609496204, 1.0420742, 5.24746, 8.499306, 0.037472248, -0.022129297, 10.042812
778180619135579, 1.0959128, 5.4029937, 8.547162, -0.06175375, -0.078727484, 10.170416
778180628775058, 0.94396853, 4.755735, 8.350951, 0.29908633, 0.2074666, 9.649558
778180638414433, 1.2239288, 5.814559, 8.482556, -0.3967681, -0.29966593, 10.344739
778180648053808, 0.9415757, 4.482953, 8.256434, 0.40254092, 0.36406446, 9.426429
778180657693288, 1.2382857, 5.9641104, 8.414361, -0.5105064, -0.41675353, 10.366829
778180667332663, 0.9343972, 4.5272202, 8.286345, 0.3996849, 0.33942842, 9.474037
778180676972142, 1.1712867, 5.7320065, 8.439486, -0.33397722, -0.2888918, 10.25952
778180686611517, 1.032503, 4.910072, 8.493324, 0.21226525, 0.20100403, 9.860323
778180696250996, 1.1090733, 5.339584, 8.504091, -0.058182, -0.04068923, 10.102263
778180705890371, 1.1425728, 5.406583, 8.550752, -0.09813881, -0.049948692, 10.180365
778180715529746, 0.9774681, 4.79402, 8.3377905, 0.24892378, 0.1954186, 9.662127
778180725169225, 1.2035898, 5.8013983, 8.477771, -0.37160563, -0.30907035, 10.331691
778180734808600, 0.93679005, 4.5475593, 8.269595, 0.3780079, 0.3234806, 9.470826
778180744448079, 1.2203395, 5.930611, 8.445468, -0.4570098, -0.39116025, 10.374269
778180754087454, 0.8853444, 4.490132, 8.313862, 0.45712495, 0.34173083, 9.473104
778180763726933, 1.1676974, 5.753542, 8.459825, -0.32142138, -0.29742956, 10.288033
778180773366308, 1.0049855, 4.8179483, 8.463413, 0.27181935, 0.24053478, 9.783673
778180783005683, 1.1174482, 5.3443694, 8.458628, -0.08212805, -0.049176693, 10.067284
778180792645163, 1.0911272, 5.3336015, 8.496913, -0.04414749, -0.048502445, 10.09114
778180802284538, 0.9762716, 4.881358, 8.335398, 0.20694971, 0.13317227, 9.70562
778180811924017, 1.174876, 5.761917, 8.505288, -0.3216076, -0.28254914, 10.331345
778180821563392, 0.9092726, 4.505685, 8.352147, 0.4468453, 0.35786676, 9.516228
778180831202767, 1.2562319, 5.9342003, 8.532805, -0.46183658, -0.34580207, 10.45317
778180840842246, 0.9403793, 4.4805603, 8.362915, 0.44040084, 0.39485025, 9.515684
778180850481621, 1.1928221, 5.7655063, 8.451449, -0.35533524, -0.29103684, 10.289797
778180860121100, 0.9738788, 4.782056, 8.419147, 0.28514266, 0.22826385, 9.724461
778180869760475, 1.0947163, 5.4173503, 8.422736, -0.121264935, -0.13171244, 10.072563
778180879399954, 1.0899308, 5.3012986, 8.462217, -0.04364705, -0.040848732, 10.044764
778180889039329, 1.0157533, 4.935197, 8.299505, 0.13238955, 0.1121974, 9.707708
778180898678808, 1.247857, 5.751149, 8.480164, -0.37873316, -0.24203587, 10.312324
778180908318183, 0.95473623, 4.5487556, 8.342576, 0.39580917, 0.35314178, 9.535192
778180917957558, 1.2346965, 5.919843, 8.57468, -0.41511297, -0.3274529, 10.479248
778180927597038, 0.89371926, 4.4339004, 8.419147, 0.52654314, 0.4105549, 9.533857
778180937236413, 1.1772687, 5.820541, 8.535198, -0.33371758, -0.31574035, 10.387648
778180946875892, 0.9343972, 4.755735, 8.435896, 0.3425944, 0.22746491, 9.720357
778180956515267, 1.0767702, 5.4867425, 8.413164, -0.15131712, -0.19094896, 10.0988
778180966154746, 1.0624132, 5.237889, 8.414361, -0.009920597, -0.025638103, 9.968196
778180975794121, 1.038485, 4.985446, 8.2660055, 0.07557678, 0.08089423, 9.708126
778180985433600, 1.2454642, 5.6997037, 8.402397, -0.38810587, -0.23008132, 10.21932
778180995072975, 0.97507524, 4.5834517, 8.29113, 0.33723712, 0.32321382, 9.512278
778181004712350, 1.2586247, 5.9270215, 8.566305, -0.44614887, -0.3262267, 10.478065
778181014351829, 0.88295156, 4.470989, 8.446664, 0.5205233, 0.39893317, 9.575249
778181023991204, 1.1509477, 5.845666, 8.575876, -0.32122898, -0.3398552, 10.431849
778181033630683, 0.9020941, 4.682754, 8.4909315, 0.4093852, 0.28538895, 9.725678
778181043270058, 1.1078769, 5.6099725, 8.537591, -0.18577552, -0.21656656, 10.271722
778181052909538, 1.0229317, 5.1050873, 8.397611, 0.07518959, 0.038355827, 9.880336
778181062548913, 1.0863415, 5.2498527, 8.347362, -0.06614232, -0.039569378, 9.920361
778181072188392, 1.1018949, 5.21755, 8.3377905, -0.065915585, -0.01079917, 9.897034
778181081827767, 1.1162517, 5.258228, 8.347362, -0.09245229, -0.023997068, 9.927956
778181091467246, 1.0899308, 5.2342997, 8.379665, -0.04638982, -0.012899876, 9.939936
778181101106621, 1.052842, 5.227121, 8.467003, 0.022077322, -0.0022928715, 10.006044
778181110746100, 1.0253245, 5.198407, 8.5016985, 0.07176852, 0.010570049, 10.017405
778181120385475, 1.052842, 5.1876397, 8.493324, 0.051876545, 0.03276038, 10.007641
778181130024954, 1.0671989, 5.2031927, 8.452646, 0.014694929, 0.017652988, 9.982927
778181139664329, 1.0660025, 5.2055855, 8.432307, 0.004848957, 0.008859634, 9.966854
778181149303808, 1.0432707, 5.2055855, 8.433503, 0.022125244, -0.0045382977, 9.965441
778181158943183, 1.0348958, 5.215157, 8.425129, 0.020169497, -0.018394232, 9.962477
778181168582558, 1.0169497, 5.2342997, 8.426325, 0.023820877, -0.042095184, 9.971596
778181178222038, 1.0480564, 5.245067, 8.411968, -0.011690855, -0.03205204, 9.968409
778181187861413, 1.0516455, 5.2283173, 8.409575, -0.006720066, -0.018272161, 9.958005
778181197500892, 1.0313065, 5.229514, 8.408379, 0.0068774223, -0.032631636, 9.955458
778181207140267, 1.0540384, 5.2342997, 8.425129, -0.005472183, -0.015019178, 9.97454
778181216779746, 1.0540384, 5.2366924, 8.449057, 0.003534317, -0.008221388, 9.996022
778181226419121, 1.0707881, 5.2127643, 8.447861, 0.0037827492, 0.018545628, 9.984262
778181236058600, 1.0971092, 5.2103715, 8.40479, -0.03138709, 0.024573088, 9.949399
778181245697975, 1.1126626, 5.218746, 8.384451, -0.055701017, 0.023202896, 9.938245
778181255337454, 1.1270195, 5.221139, 8.372486, -0.07141352, 0.027529716, 9.930918
778181264976829, 1.0959128, 5.2199426, 8.380861, -0.04268217, 0.008390188, 9.934072
778181274616308, 1.0683953, 5.215157, 8.402397, -0.010824919, 2.7561188E-4, 9.946834
778181284255683, 1.0432707, 5.218746, 8.4347, 0.019158602, -0.009363413, 9.973335
778181293895163, 1.0336994, 5.2331033, 8.445468, 0.02311039, -0.021864414, 9.988937
778181303534538, 1.0336994, 5.2163534, 8.443074, 0.029857397, -0.011798143, 9.978144
778181313174017, 1.0360922, 5.2127643, 8.456235, 0.034558058, -0.0040519238, 9.987647
778181322813392, 1.0564312, 5.21755, 8.46102, 0.01844716, 0.0076367855, 9.996368
778181332452871, 1.0695918, 5.2163534, 8.4502535, 0.004210949, 0.013727903, 9.988042
778181342092246, 1.0648061, 5.2008, 8.4347, 0.009672642, 0.0153028965, 9.966242
778181351731725, 1.0648061, 5.2127643, 8.41795, -0.0038452148, 0.0019466877, 9.958343
778181361371100, 1.0851451, 5.197211, 8.384451, -0.024377346, 0.015173912, 9.9240465
778181371010579, 1.0947163, 5.2127643, 8.385647, -0.03864169, 0.011159658, 9.934222
778181380649954, 1.0803595, 5.1924253, 8.389236, -0.015337944, 0.015555143, 9.925083
778181390289433, 1.0588241, 5.2055855, 8.411968, 0.0027124882, -5.943775E-4, 9.948892
778181399928913, 1.018146, 5.1924253, 8.467003, 0.061797142, -0.0024650097, 9.984199
778181409568288, 1.012164, 5.186443, 8.513663, 0.088139534, 0.011202335, 10.019891
778181419207767, 1.0049855, 5.1996036, 8.534002, 0.09491444, 0.0034446716, 10.043209
778181428847142, 1.0289137, 5.2235317, 8.5220375, 0.0582726, 1.8525124E-4, 10.048167
778181438486621, 1.0492527, 5.221139, 8.472985, 0.023108244, 0.001907587, 10.007606
778181448125996, 1.0743774, 5.2283173, 8.425129, -0.018711329, -2.4437904E-4, 9.973568
778181457765475, 1.105484, 5.215157, 8.3581295, -0.061766386, 0.008696318, 9.913345
778181467404850, 1.14018, 5.1924253, 8.313862, -0.09370279, 0.032591105, 9.867713
778181477044329, 1.1509477, 5.198407, 8.325827, -0.09707546, 0.041352272, 9.882123
778181486683704, 1.1569297, 5.206782, 8.382058, -0.08243632, 0.05710244, 9.934683
778181496323183, 1.1150553, 5.235496, 8.43111, -0.04590249, 0.024956942, 9.986725
778181505962558, 1.0408778, 5.2103715, 8.507681, 0.05321002, 0.015943289, 10.030401
778181515602038, 0.9822537, 5.227121, 8.555537, 0.10775924, -0.018234015, 10.073374
778181525241413, 0.94277215, 5.2342997, 8.532805, 0.12169027, -0.056435823, 10.053732
778181534880892, 0.9523434, 5.2438707, 8.46461, 0.07901454, -0.07709336, 10.00213
778181544520267, 0.9906286, 5.2235317, 8.373683, 0.021272182, -0.06064415, 9.918724
778181554159746, 1.0360922, 5.218746, 8.315059, -0.033536673, -0.04604864, 9.871462
778181563799121, 1.0683953, 5.2235317, 8.305488, -0.06375718, -0.02794218, 9.869298
778181573438600, 1.099502, 5.21755, 8.344969, -0.06437254, 0.01190567, 9.902824
778181583078079, 1.1330016, 5.2462635, 8.386844, -0.086432695, 0.029364347, 9.956795
778181592717454, 1.1473584, 5.2570314, 8.428718, -0.083993435, 0.044821024, 9.999353
778181602356933, 1.0612168, 5.218746, 8.426325, -4.1222572E-4, 0.009416819, 9.968166
778181611996308, 1.0372887, 5.2139606, 8.449057, 0.0285573, 0.0031080246, 9.982338
778181621635788, 1.0540384, 5.2331033, 8.447861, 0.0055217743, 0.0016543865, 9.993133
778181631275163, 1.0707881, 5.229514, 8.451449, -0.004537821, 0.015247583, 9.996056
778181640914642, 1.0516455, 5.21755, 8.447861, 0.014399767, 0.009069443, 9.984732
778181650554017, 1.0432707, 5.2235317, 8.441878, 0.01489377, -0.002614975, 9.981923
778181660193496, 1.0660025, 5.2426744, 8.420342, -0.020634174, -0.0052895546, 9.976157
778181669832975, 1.0743774, 5.235496, 8.380861, -0.038746595, -0.0069630146, 9.939918
778181679472350, 1.052842, 5.2259245, 8.364112, -0.024118423, -0.019964695, 9.918476
778181689111829, 1.0420742, 5.2342997, 8.370093, -0.018158913, -0.030797243, 9.926783
778181698751204, 1.0277174, 5.2570314, 8.408379, -0.0036623478, -0.042313576, 9.969534
778181708390683, 1.0013963, 5.2570314, 8.4502535, 0.032807827, -0.045980692, 10.002138
778181718030058, 0.9834501, 5.2486563, 8.446664, 0.04895711, -0.053560257, 9.992819
778181727669538, 1.0049855, 5.2331033, 8.437093, 0.036197186, -0.031671762, 9.978857
778181737308913, 1.0468599, 5.218746, 8.400003, -0.0027301311, -0.00586462, 9.944408
778181746948392, 1.0695918, 5.2103715, 8.364112, -0.030038595, 0.0033352375, 9.9120865
778181756587871, 1.079163, 5.221139, 8.368897, -0.04041338, 0.0042903423, 9.922787
778181766227246, 1.0827522, 5.2283173, 8.383254, -0.03954625, 0.004839897, 9.939064
778181775866725, 1.0719845, 5.227121, 8.420342, -0.015364885, 0.010199547, 9.968639
778181785506100, 1.0480564, 5.241478, 8.419147, -0.0059194565, -0.017641544, 9.972622
778181795145579, 1.0348958, 5.2366924, 8.411968, 0.0031757355, -0.025681734, 9.962654
778181804784954, 1.0109676, 5.2283173, 8.416754, 0.026813984, -0.034837484, 9.959778
778181814424433, 1.0073783, 5.1936216, 8.449057, 0.06015539, -0.005501747, 9.968522
778181824063913, 1.032503, 5.1828537, 8.475378, 0.058410883, 0.027542353, 9.987787
778181833703288, 1.0492527, 5.1996036, 8.472985, 0.03514886, 0.025249958, 9.996321
778181843342767, 1.0660025, 5.204389, 8.4682, 0.017599821, 0.029429674, 9.996563
778181852982142, 1.0803595, 5.2139606, 8.456235, -0.0022759438, 0.028256416, 9.992981
778181862621621, 1.0624132, 5.2223353, 8.413164, -0.010877371, -0.0035734177, 9.959051
778181872260996, 1.0743774, 5.2342997, 8.37129, -0.042853117, -0.016348362, 9.931192
778181881900475, 1.0420742, 5.239085, 8.32463, -0.042114973, -0.0562706, 9.890827
778181891539954, 1.0396814, 5.2235317, 8.303095, -0.0396688, -0.054385185, 9.864232
778181901179329, 1.018146, 5.209175, 8.350951, 0.004917145, -0.04377842, 9.8948765
778181910818808, 1.006182, 5.204389, 8.419147, 0.045864344, -0.029509783, 9.948724
778181920458183, 1.0313065, 5.2259245, 8.477771, 0.04033017, -0.009333849, 10.012231
778181930097663, 1.1114662, 5.2510495, 8.459825, -0.039982557, 0.019475698, 10.018759
778181939737038, 1.1413764, 5.2606206, 8.439486, -0.07568121, 0.026153564, 10.009764
778181949376517, 1.1437693, 5.2426744, 8.390432, -0.0860033, 0.02079606, 9.959187
778181959015996, 1.1389836, 5.2199426, 8.383254, -0.07223511, 0.028630257, 9.940724
778181968655371, 1.1078769, 5.1852465, 8.41795, -0.016113281, 0.042565107, 9.948567
778181978294850, 1.0839486, 5.178068, 8.480164, 0.032720327, 0.049021482, 9.99485
778181987934225, 1.0671989, 5.1613183, 8.478967, 0.05273962, 0.04403639, 9.983301
778181997573704, 1.0731809, 5.148158, 8.472985, 0.052963972, 0.0547781, 9.972008
778182007213183, 1.0612168, 5.186443, 8.451449, 0.030879974, 0.0132136345, 9.972525
778182016852558, 1.0863415, 5.2199426, 8.419147, -0.019943237, -0.0041127205, 9.965418