timestamp_acc,device_acc_x,device_acc_y,device_acc_z,earth_acc_x,earth_acc_y,earth_acc_z
787157285904729, -7.9513497, 0.5347959, 4.662415, -0.676774, 0.16134727, 9.206739
787157295543479, -8.020741, 0.57188463, 4.503292, -0.8186667, 0.110228896, 9.17914
787157305182229, -8.165507, 0.3397808, 4.7748775, -0.5748048, -0.0132501125, 9.447743
787157314820979, -8.26122, 0.051445685, 5.454439, 0.0131447315, -0.0064918995, 9.8995495
787157324459729, -8.228917, -0.0526421, 6.1627145, 0.58150744, 0.2211144, 10.26206
787157334098479, -8.161918, -0.07776674, 6.6568327, 0.9616041, 0.45261383, 10.478875
787157343737229, -8.069795, -0.0059820567, 6.6245294, 0.9479761, 0.5346775, 10.383712
787157353375979, -7.9764743, 0.13998012, 6.096912, 0.55092764, 0.4654281, 10.014785
787157363014729, -7.982456, 0.2536392, 5.4699926, 0.05366397, 0.29616785, 9.675441
787157372653479, -7.999206, 0.2644069, 5.035695, -0.2607925, 0.11825776, 9.451635
787157382292229, -8.087741, 0.13399807, 4.9136615, -0.31557512, -0.06915593, 9.458817
787157391930979, -8.228917, -0.034695927, 5.143372, -0.12814069, -0.14061356, 9.702287
787157401569729, -8.331808, -0.1902294, 5.584848, 0.22017813, -0.11604023, 10.029148
787157411208479, -8.391629, -0.29910284, 5.925825, 0.49795866, -0.06921363, 10.265064
787157420847229, -8.292327, -0.22372891, 5.877969, 0.48354506, 0.00960207, 10.155263
787157430485979, -8.202596, -0.0526421, 5.4341, 0.13459325, 0.0041885376, 9.838529
787157440124729, -8.202596, 0.13160525, 4.9806604, -0.28766084, -0.02594304, 9.592885
787157449763479, -8.219346, 0.2009971, 4.5690947, -0.6110859, -0.1391257, 9.385196
787157459402229, -8.249256, 0.18903299, 4.395615, -0.7145493, -0.2283982, 9.319048
787157469040979, -8.2253275, 0.20817557, 4.5044885, -0.6344657, -0.15837538, 9.357464
787157478679729, -8.248059, 0.09332009, 4.8658047, -0.32045245, -0.096642256, 9.570957
787157488318479, -8.233703, -0.03708875, 5.2139606, 0.0036554337, -0.04693699, 9.745686
787157497957229, -8.166703, -0.09451649, 5.4843497, 0.247154, 0.050643682, 9.834551
787157507595979, -8.048259, -0.061016977, 5.7786665, 0.4933343, 0.24057746, 9.892923
787157517234729, -7.9477606, -0.08973085, 5.9234324, 0.6589565, 0.30289125, 9.886153
787157526873479, -7.867601, -0.09092726, 5.802595, 0.60815597, 0.27355456, 9.753607
787157536512229, -7.91785, -0.05383851, 5.4233327, 0.2906735, 0.13751054, 9.591892
787157546150979, -8.145168, -0.029910283, 5.194818, 0.011056662, 0.012235403, 9.660773
787157555789625, -8.380861, -0.07058827, 5.231907, -0.039710045, -0.03353548, 9.879978
787157565428375, -8.27797, -0.04426722, 5.4233327, 0.14246535, 0.11394262, 9.894748
787157575067125, -8.199007, -0.047856454, 5.736792, 0.41965222, 0.26880598, 9.994419
787157584705875, -8.189436, -0.034695927, 6.029913, 0.6410825, 0.39318478, 10.142107
787157594344625, -8.29472, -0.14356937, 6.0921264, 0.6929455, 0.29518557, 10.264975
787157603983375, -8.298309, -0.12562318, 5.9210396, 0.5571394, 0.23716974, 10.176925
787157613622125, -8.148758, 0.09451649, 5.5405807, 0.26225924, 0.29789197, 9.846405
787157623260875, -7.9334035, 0.4235296, 5.0679984, -0.13606572, 0.46249604, 9.411188
787157632899625, -7.751549, 0.634098, 4.666004, -0.431499, 0.52667975, 9.0441475
787157642538375, -7.8831544, 0.48933223, 4.5690947, -0.50205755, 0.32303202, 9.10515
787157652177125, -8.175078, 0.25124636, 4.834698, -0.3158033, 0.18153381, 9.494033
787157661815875, -8.389236, 0.0047856453, 5.2199426, -0.0071389675, 0.10098505, 9.880126
787157671454625, -8.664411, -0.31106696, 5.6961145, 0.37213778, -0.045161724, 10.366966
787157681093375, -8.618947, -0.47377887, 6.3589263, 0.96586394, 0.12370229, 10.677006
787157690732125, -8.568698, -0.52522457, 6.7298136, 1.3114572, 0.2844262, 10.825341
787157700370875, -8.155936, -0.276371, 6.4606214, 1.2121196, 0.5203421, 10.324501
787157710009625, -7.940582, 0.0071784677, 5.5202417, 0.5159676, 0.44429994, 9.646882
787157719648375, -8.084151, 0.28953153, 4.7748775, -0.23283362, 0.3323052, 9.384676
787157729287125, -8.19781, 0.47736812, 4.4817567, -0.55109596, 0.3588643, 9.331968
787157738925875, -8.268398, 0.36251262, 4.4243293, -0.52327275, 0.24312913, 9.366942
787157748564625, -9.12503, -0.5479564, 2.7194428, -1.6575425, -1.4833508, 9.274374
787157758203375, -9.937392, -0.19980069, 2.4358935, -2.3063748, -1.4722507, 9.860952
787157767842125, -9.267402, -0.55393845, 4.1347976, -0.58659196, -0.813565, 10.113462
787157777480875, -8.489735, -0.5766702, 5.5166526, 0.7698462, 0.012341261, 10.1118145
787157787119625, -7.877172, -0.17706887, 6.2919273, 1.4093888, 0.88489676, 9.944855
787157796758375, -7.765906, -0.2117648, 6.265606, 1.4667094, 0.8492403, 9.835626
787157806397021, -8.060223, -0.35653058, 5.6327047, 0.95731497, 0.4211607, 9.784059
787157816035771, -8.508878, -0.35413775, 5.1326046, 0.40461445, 0.10703373, 9.934529
787157825674521, -8.669196, -0.27517462, 4.8119664, 0.05624008, -0.0072250366, 9.918795
787157835313271, -8.444271, -0.36610186, 5.0847483, 0.41862607, 0.096214056, 9.854435
787157844952021, -8.52443, -0.35413775, 5.188836, 0.4582851, 0.13075805, 9.974379
787157854590771, -8.787642, -0.32542387, 4.9531426, 0.16086912, -0.0044248104, 10.091396
787157864229521, -8.666803, -0.20338993, 4.7976093, 0.046825886, 0.05590725, 9.907905
787157873868271, -8.457432, 0.029910283, 4.7222357, -0.0059256554, 0.25726378, 9.683096
787157883507021, -8.191829, 0.35653058, 4.581059, -0.14973259, 0.52839386, 9.376442
787157893145771, -8.059027, 0.5766702, 4.1958146, -0.48343325, 0.5862534, 9.072371
787157902784521, -8.209774, 0.5802595, 3.9852462, -0.6826391, 0.47763515, 9.106326
787157912423271, -8.411968, 0.54317075, 4.2041893, -0.5748992, 0.5137913, 9.388129
787157922062021, -8.411968, 0.2955136, 4.935197, 0.10422945, 0.6147821, 9.737346
787157931700771, -8.633304, 0.09212367, 5.656633, 0.66105676, 0.70233727, 10.276654
787157941339521, -8.65125, 0.010767702, 6.1710896, 1.0915928, 0.8464993, 10.53653
787157950978271, -8.678768, 0.023928227, 6.2548385, 1.1439152, 0.88100886, 10.599995
787157960617021, -8.725428, 0.12921242, 5.6650076, 0.61688375, 0.73342013, 10.359713
787157970255771, -8.800801, 0.23928227, 4.918447, -0.032968044, 0.50282216, 10.072167
787157979894521, -8.8701935, 0.5347959, 4.5188456, -0.47620153, 0.5638536, 9.941913
787157989533271, -8.804391, 0.66041905, 4.7485566, -0.32609487, 0.7709129, 9.990076
787157999172021, -8.842676, 0.73579293, 5.056034, -0.14648914, 0.96113825, 10.166246
787158008810771, -8.801998, 0.83030945, 5.517849, 0.18910122, 1.2270932, 10.34745
787158018449521, -8.879765, 0.9403793, 5.7631135, 0.30142736, 1.4119108, 10.529182
787158028088271, -8.987442, 1.0671989, 5.615955, 0.09277916, 1.4124446, 10.556912
787158037726916, -8.961121, 1.2933207, 5.255835, -0.26358128, 1.3951097, 10.372191
787158047365666, -8.851051, 1.6342978, 4.7976093, -0.7349274, 1.515942, 10.059369
787158057004416, -8.69791, 1.8137596, 4.3525443, -1.1164982, 1.4574063, 9.722007
787158066643166, -8.836694, 1.9106688, 4.0845485, -1.4099817, 1.3620929, 9.7251215
787158076281916, -8.973084, 1.7790636, 4.186243, -1.3027847, 1.2587693, 9.895666
787158085920666, -9.217153, 1.4967105, 4.418347, -1.0579967, 1.0831785, 10.218865
787158095559416, -9.513863, 1.0073783, 4.816752, -0.61389804, 0.79546356, 10.66395
787158105198166, -9.644272, 0.4953143, 5.505885, 0.10930538, 0.6323334, 11.097761
787158114836916, -9.76152, 0.111266255, 6.040681, 0.6471076, 0.51048577, 11.450334
787158124475666, -9.8835535, -0.016749758, 6.279963, 0.8386617, 0.47185206, 11.670341
787158134114416, -9.749556, 0.27158538, 5.9760747, 0.5312147, 0.6343117, 11.408617
787158143753166, -9.556933, 0.49052864, 5.12423, -0.15508223, 0.53317034, 10.840897
787158153391916, -9.930214, 0.4953143, 4.078566, -1.1083665, 0.029170632, 10.68924
787158163030666, -10.013963, 0.61734825, 3.8775692, -1.334445, 0.018710017, 10.673098
787158172669416, -9.802198, 0.7322037, 4.6779685, -0.64420366, 0.43169093, 10.858235
787158182308166, -9.609575, 0.88414794, 5.3503513, -0.07226944, 0.83797884, 11.002021
787158191946916, -9.375079, 0.9954142, 5.4963136, 0.12741232, 0.9944093, 10.8668
787158201585666, -8.974281, 1.3818551, 5.186443, -0.10477114, 1.2461499, 10.38184
787158211224416, -8.039884, 2.012364, 4.5188456, -0.51333046, 1.7665023, 9.258795
787158220863166, -7.155736, 2.6572297, 3.1657043, -1.472533, 1.9218633, 7.900962
787158230501916, -6.946364, 2.658426, 1.8843478, -2.4119434, 1.4392587, 7.1401005
787158240140666, -7.7312098, 2.181058, 1.7898313, -2.5615244, 0.84058607, 7.775867
787158249779416, -8.451449, 1.477568, 2.5112674, -1.9092295, 0.35788345, 8.726021
787158259418166, -8.7780695, 0.9834501, 3.879962, -0.684916, 0.4236591, 9.613907
787158269056812, -9.047262, 0.5910272, 5.156533, 0.44033456, 0.5141201, 10.408358
787158278695562, -9.139386, 0.18424734, 5.4759746, 0.85307384, 0.24204767, 10.618959
787158288334312, -9.001799, -0.01794617, 5.3611193, 0.8957536, 0.034418583, 10.438906
787158297973062, -8.148758, 0.43070808, 4.962714, 0.74156666, 0.44349527, 9.511557
787158307611812, -6.6652074, 1.442872, 3.6957145, -0.11883354, 1.1903275, 7.6638217
787158317250562, -5.9521465, 2.1020947, 1.7563318, -1.6973296, 1.2188344, 6.210078
787158326889312, -6.375676, 1.9740787, 0.3062813, -2.9887092, 0.41792953, 5.9609566
787158336528062, -7.3567333, 1.3076776, 0.50488555, -2.9242747, -0.30443427, 6.887844
787158346166812, -8.151151, 0.6221339, 2.2157538, -1.5625085, -0.49308473, 8.309832
787158355805562, -8.560323, 0.14356937, 4.749753, 0.5775647, -0.19313204, 9.771849
787158365444312, -8.29472, -0.14955142, 6.619744, 2.2804458, 0.21633816, 10.363324
787158375083062, -8.608179, -0.17467605, 7.706085, 3.073166, 0.45425725, 11.129434
787158384721812, -7.288538, 1.0037891, 7.308877, 2.7875414, 1.6567657, 9.850625
787158394360562, -6.6448684, 1.052842, 5.966503, 1.9323592, 1.3030863, 8.685038
787158403999312, -5.2235317, 2.9623144, 3.5150564, -0.29925394, 2.5888925, 6.4516897
787158413638062, -5.79422, 1.4584254, 0.6867401, -2.2872257, 0.08842768, 5.5616894
787158423276812, -6.617351, 1.7766708, 0.80518484, -2.6418476, 0.15888211, 6.370999
787158432915562, -7.59123, -0.49172506, 1.7407784, -1.3900081, -1.8049147, 7.463849
787158442554312, -8.240881, -0.5563313, 4.21735, 0.43021584, -1.252788, 9.178949
787158452192958, -7.905886, -1.3866407, 5.814559, 2.1008425, -1.419796, 9.581522
787158461831812, -8.243274, -1.6331015, 7.135397, 3.0923018, -1.3977125, 10.488878
787158471470458, -7.2897344, -0.92243314, 6.687939, 2.8711922, -0.5843611, 9.493916
787158481109208, -7.32443, -1.3842479, 5.3766723, 1.8926375, -1.4725628, 8.872515
787158490747958, -6.2344995, 0.46061835, 3.5318062, 0.17259717, -0.06787777, 7.1777725
787158500386708, -6.754938, -0.63170516, 1.1102697, -1.710424, -1.8546915, 6.39496
787158510025458, -6.908079, 0.6580262, 1.0145568, -2.2946067, -0.73603, 6.586117
787158519664208, -7.274181, -0.8327023, 1.7264216, -1.3381535, -2.0536728, 7.11192
787158529302958, -7.609176, -0.13040884, 4.2556353, 0.3027792, -0.8204394, 8.67538
787158538941708, -6.9678993, -0.36011982, 5.942575, 2.058919, -0.5061815, 8.916285
787158548580458, -7.0672016, 0.4749753, 6.698707, 2.3803108, 0.38212597, 9.446255
787158558219208, -6.047859, 1.922633, 5.1003013, 1.0805137, 1.6193739, 7.905461
787158567857958, -6.617351, 1.253839, 3.0089746, -0.77706337, 0.44820797, 7.3219304
787158577496708, -6.971489, 1.8053846, 1.7982062, -2.1089838, 0.68384314, 7.083726
787158587135458, -8.334201, -0.8757731, 2.1595225, -1.7153524, -2.048186, 8.231155
787158596774208, -8.85823, -0.6867401, 4.7688956, 0.14948916, -1.3417592, 9.992975
787158606412958, -9.810573, -3.0113673, 6.1854467, 1.4379411, -3.182496, 11.462089
787158616051708, -10.602597, -2.7553353, 7.3627152, 1.7999392, -2.7939873, 12.773816
787158625690458, -10.177871, -3.3810585, 6.95115, 1.8751731, -3.3737683, 12.183617
787158635329208, -10.055838, -2.565106, 6.9726853, 1.6764998, -2.5431654, 12.125991
787158644967958, -8.338987, -1.1581261, 6.2309103, 1.4977818, -1.1652254, 10.300636
787158654606604, -8.020741, -0.9942178, 4.90409, 0.5043919, -1.1819711, 9.365864
787158664245354, -6.9678993, 1.0600204, 3.67059, -0.48441076, 0.69713956, 7.9011292
787158673884104, -7.092326, 0.1794617, 2.757728, -1.1643908, -0.3942424, 7.5117993
787158683522854, -7.058827, 1.6450655, 3.4073794, -0.90185714, 1.1232326, 7.878358
787158693161604, -7.4739814, 0.21774685, 4.1671004, -0.23326659, -0.26337355, 8.552705
787158702800354, -8.270791, 1.0779666, 5.68415, 0.39806032, 0.6726946, 10.06313
787158712439104, -9.226724, 0.38404804, 6.1304116, 0.3397479, -0.04016137, 11.079027
787158722077854, -11.154142, 0.43669012, 7.542177, 0.45018435, 0.027405202, 13.464272
787158731716604, -11.386247, -0.0071784677, 9.677772, 2.0944762, -0.11735362, 14.795448
787158741355354, -11.5106735, -2.9802606, 11.333605, 3.9336205, -2.7265124, 15.713717
787158750994104, -10.680364, -3.8967116, 10.767702, 3.8297033, -3.622294, 14.744841
787158760632854, -11.454442, -5.3096733, 8.029117, 1.2795372, -5.2398357, 13.956019
787158770271604, -10.924432, -2.71705, 6.6568327, 0.19700956, -2.6751642, 12.800144
787158779910354, -10.219746, -2.8199415, 5.9246287, 0.021017075, -2.7585611, 11.827358
787158789549104, -9.707682, -1.1150553, 6.7130637, 0.8339443, -0.8451824, 11.795671
787158799187854, -8.959925, -1.7467605, 6.216553, 1.0113764, -1.4457935, 10.902466
787158808826604, -9.406186, -1.7048861, 5.8217373, 0.56248426, -1.4693289, 11.08153
787158818465250, -8.924032, -1.5577276, 5.1469617, 0.20538902, -1.4089402, 10.321278
787158828104000, -9.678967, -2.1822543, 4.8586264, -0.20029783, -2.1108541, 10.84228
787158837742750, -9.120243, -1.1760724, 4.6695933, -0.16228819, -1.0882397, 10.254582
787158847381500, -9.585648, -2.5088747, 4.141976, -0.4175465, -2.5239701, 10.43026
787158857020250, -9.239884, -0.9343972, 4.2759743, -0.41543388, -0.9366888, 10.172638
787158866659000, -9.255438, -2.0662024, 3.493521, -0.7202816, -2.2158184, 9.834043
787158876297750, -9.314062, -0.7716853, 3.548556, -0.9405701, -0.9977986, 9.902487
787158885936500, -8.950353, -1.4560326, 2.8965118, -1.0952222, -1.77454, 9.288172
787158895575250, -9.15494, -0.9092726, 3.0269206, -1.0362799, -1.3371904, 9.536246
787158905214000, -8.311469, -0.54317075, 2.7026932, -1.086261, -0.9359017, 8.638532
787158914852750, -8.898908, -0.8985049, 2.8223343, -1.0621927, -1.3669083, 9.217742
787158924491500, -8.310273, 0.465404, 3.1070802, -0.89330316, -8.481741E-4, 8.839299
787158934130250, -8.755338, -0.3493521, 3.286542, -0.6398244, -0.8477767, 9.297915
787158943769000, -8.199007, 1.5026926, 4.1383867, -0.24378419, 1.167932, 9.229548
787158953407750, -8.023134, 0.34217364, 4.1407795, 0.19742894, 0.09247756, 9.032514
787158963046500, -7.82453, 1.6438692, 4.9064827, 0.5728967, 1.441322, 9.2516775
787158972685250, -7.600801, 0.99661064, 4.3130627, 0.3559363, 0.66781235, 8.763291
787158982324000, -8.135597, 1.5960127, 4.506881, 0.11387539, 1.159702, 9.364257
787158991962750, -7.5996046, 1.7599211, 4.2257247, 0.06923437, 1.3148971, 8.773501
787159001601396, -8.269595, 1.1964114, 4.5822554, 0.29584932, 0.72854686, 9.497177
787159011240146, -8.075776, 2.143969, 4.9268217, 0.3636341, 1.7444488, 9.534832
787159020878896, -9.007781, 1.2430713, 4.7401814, 0.14188099, 0.65851116, 10.232346
787159030517646, -8.681161, 2.9156544, 5.629115, 0.49227, 2.524125, 10.437289
787159040156396, -8.325827, 1.7862421, 5.631508, 1.002336, 1.5101421, 10.046826
787159049795146, -7.6343007, 3.2841492, 6.017949, 1.1886101, 3.0839827, 9.713916
787159059433896, -7.1186476, 2.6775684, 4.9974103, 0.69533753, 2.3595023, 8.761728
787159069072646, -7.5062847, 3.3128629, 4.549952, 0.014593601, 2.7567508, 8.967806
787159078711396, -7.079166, 3.1226335, 3.7208393, -0.4700365, 2.4720833, 8.208406
787159088350146, -7.8352976, 2.3138595, 3.67059, -0.55562544, 1.5683134, 8.800611
787159097988896, -7.470392, 2.7421749, 3.7184465, -0.41843724, 2.0780392, 8.524071
787159107627646, -8.260024, 0.97866446, 3.566502, -0.3744402, 0.2395755, 9.039255
787159117266396, -8.050652, 1.8340986, 4.113262, -0.023290396, 1.3295523, 9.128395
787159126905146, -8.562716, -0.0023928226, 3.5617166, -0.19954109, -0.6449511, 9.249332
787159136543896, -8.916854, 0.9762716, 3.8847475, -0.32763147, 0.36251795, 9.762985
787159146182646, -8.95155, -0.2847459, 3.566502, -0.2912562, -0.87104344, 9.596233
787159155821396, -9.431311, 0.051445685, 4.2053857, -0.032514334, -0.38208932, 10.319423
787159165460146, -9.055637, -0.2620141, 4.0091743, 0.019675732, -0.6742801, 9.883909
787159175098896, -9.661021, -0.80159557, 4.2652063, 0.1495452, -1.1818647, 10.523816
787159184737541, -9.142975, -0.17228323, 4.334598, 0.22783351, -0.41362494, 10.108878
787159194376291, -9.917053, -1.430908, 3.9744785, -0.06449032, -1.807479, 10.626418
787159204015041, -9.462418, -0.029910283, 4.213761, -0.040538073, -0.30359268, 10.353752
787159213653791, -9.524631, -1.3686945, 3.7124643, -0.19167352, -1.6824417, 10.173838
787159223292541, -9.153743, 0.23330021, 4.0869412, -0.0787406, 0.029105902, 10.027039
787159232931291, -8.801998, -0.6999006, 3.4827533, -0.22438955, -0.9613633, 9.440341
787159242570041, -9.066405, 0.059820566, 3.7914274, -0.2547474, -0.17507297, 9.822559
787159252208791, -8.4909315, -0.07537391, 3.4432719, -0.2995615, -0.31577593, 9.152501
787159261847541, -9.160921, -0.35653058, 3.5377884, -0.40077162, -0.61827, 9.799116
787159271486291, -8.831908, 0.23928227, 3.5126636, -0.44165444, 0.007699609, 9.497554
787159281125041, -9.47797, -1.1353943, 3.4695928, -0.36373162, -1.3933725, 10.05412
787159290763791, -9.212367, 0.12323037, 3.8811584, -0.23684001, -0.045505702, 9.994404
787159300402541, -9.444471, -1.174876, 3.554538, -0.25476503, -1.3918927, 10.060361
787159310041291, -9.15494, 0.44985065, 4.35733, 0.10227752, 0.40361702, 10.140426
787159319680041, -8.915657, -0.35174492, 3.946961, 0.045327663, -0.441374, 9.746501
787159329318791, -8.956335, 0.70229346, 4.347759, 0.09932065, 0.6549808, 9.95858
787159338957541, -8.190632, 0.54436713, 4.1694937, 0.29120493, 0.534422, 9.186789
787159348596291, -8.810373, 0.4019942, 4.085745, 8.2826614E-4, 0.2946934, 9.71549
787159358235041, -8.429914, 1.0660025, 3.7615173, -0.3039739, 0.90754133, 9.242988
787159367873791, -9.165708, -0.29671, 3.7794633, -0.2443564, -0.49048108, 9.90365
787159377512541, -8.754142, 0.72502524, 4.3800616, 0.18361187, 0.6925108, 9.789398
787159387151291, -9.005388, -0.8781659, 4.0881376, 0.23992705, -0.9438256, 9.880926
787159396790041, -8.825927, 0.6329016, 4.412365, 0.21300387, 0.62577826, 9.865573
787159406428791, -8.774481, -0.24526432, 3.702893, -0.15895891, -0.3747841, 9.518266
787159416067541, -8.980264, 0.7585248, 4.0438704, -0.20065928, 0.6504733, 9.854441
787159425706291, -8.330612, 0.40917268, 3.8620157, -0.01569581, 0.34496236, 9.184903
787159435345041, -8.82473, 0.3804588, 4.2329035, 0.12187886, 0.34589398, 9.7879305
787159444983791, -8.303095, 0.82672024, 4.101298, 0.08033943, 0.8177711, 9.261226
787159454622541, -9.107083, -0.39481574, 3.9924245, -0.023418903, -0.47852504, 9.940061
787159464261291, -8.7673025, 0.59342, 4.2999024, 0.13275266, 0.6142366, 9.762787
787159473900041, -9.199206, -1.1700903, 4.005585, 0.13681626, -1.208669, 10.027941
787159483538687, -9.456435, 0.526421, 4.321438, -0.0932188, 0.5090444, 10.397515
787159493177541, -8.902496, -1.0145568, 4.109673, 0.3063972, -0.97983617, 9.804041
787159502816187, -9.29492, -0.10049855, 4.4542394, 0.24580264, -0.046296835, 10.304529
787159512454937, -9.107083, -0.17108682, 3.4600215, -0.5311794, -0.3105622, 9.724268
787159522093687, -9.243474, -0.0741775, 3.851248, -0.2651906, -0.1398015, 10.009473
787159531732437, -8.440681, 0.317049, 3.9864426, 0.081958055, 0.34584957, 9.333328
787159541371187, -9.162118, -0.57547385, 3.760321, -0.20659804, -0.63918674, 9.897695
787159551009937, -8.372486, 0.41635114, 4.1814575, 0.25863767, 0.48906383, 9.351493
787159560648687, -8.829515, -1.0277174, 3.731607, 0.010321617, -1.055188, 9.582689
787159570287437, -8.8187475, 0.6687939, 3.8644085, -0.26193666, 0.61863476, 9.62808
787159579926187, -8.740981, -0.6017949, 3.5126636, -0.21245575, -0.6865898, 9.412183
787159589564937, -9.020942, 0.424726, 4.113262, -0.045238256, 0.41819075, 9.914625
787159599203687, -8.644072, -0.07776674, 3.851248, -0.020934582, -0.09618354, 9.463004
787159608842437, -9.104691, 0.043070808, 4.1874394, 0.06415963, 0.04837072, 10.02125
787159618481187, -8.547162, 0.4989035, 3.9146578, -0.06854677, 0.4837682, 9.401527
787159628119937, -9.201599, -0.276371, 3.8727834, -0.19422841, -0.3470286, 9.979284
787159637758687, -8.699107, 0.66041905, 4.348955, 0.2125926, 0.7104533, 9.71978
787159647397437, -9.280562, -0.89371926, 4.1001015, 0.09999061, -0.90602326, 10.144334
787159657036187, -9.090333, 0.5491528, 4.4554358, 0.1849823, 0.5911319, 10.119436
787159666674937, -9.071191, -0.70348984, 3.9888353, 0.048764706, -0.71764153, 9.908321
787159676313687, -9.110672, 0.43429732, 4.4339004, 0.17939591, 0.46904427, 10.129178
787159685952437, -8.720642, -0.14955142, 3.987639, 0.065075636, -0.15080857, 9.588861
787159695591187, -9.15494, 0.23569304, 4.112066, -0.08994198, 0.19194168, 10.036564
787159705229937, -8.416754, 0.58504516, 3.926622, -0.043893576, 0.5590637, 9.289127
787159714868687, -8.857033, -0.12801601, 3.979264, 0.0042455196, -0.16649121, 9.709285
787159724507541, -8.1679, 0.8757731, 4.243671, 0.2536626, 0.93494564, 9.195208
787159734146291, -8.72782, -0.5838487, 3.839284, 0.05690527, -0.6302385, 9.531811
787159743785041, -8.560323, 0.8063812, 4.1180477, 3.7574768E-4, 0.801192, 9.499779
787159753423791, -8.749356, -0.60777694, 3.6227336, -0.13576269, -0.7024003, 9.462189
787159763062541, -8.965906, 0.43669012, 4.121637, -0.06326079, 0.40220833, 9.869158
787159772701291, -8.752945, -0.32063824, 3.743571, -0.13161445, -0.38766634, 9.516489
787159782340041, -9.262616, -0.009571291, 4.1479583, -0.049604177, -0.051516414, 10.148724
787159791978791, -8.641679, 0.24047868, 4.042674, 0.039512157, 0.22999382, 9.540712
787159801617541, -9.238688, -0.35174492, 4.085745, -0.02217102, -0.39761215, 10.100089
787159811256291, -8.678768, 0.66041905, 4.290331, 0.13814068, 0.6853853, 9.678598
787159820895041, -9.150154, -0.7190432, 4.054638, 0.06952739, -0.7509141, 10.005686
787159830533791, -8.827123, 0.6113662, 4.473382, 0.24062133, 0.6640257, 9.889601
787159840172541, -8.950353, -0.7956135, 3.897908, 0.010624409, -0.83794904, 9.758753
787159849811291, -9.114262, 0.44147578, 4.237689, -0.04922366, 0.41559052, 10.052239
787159859450041, -8.784052, -0.34217364, 3.7411783, -0.16943097, -0.4176588, 9.543056
787159869088791, -9.144172, 0.05503492, 4.132405, -0.06864476, -4.810691E-4, 10.034488
787159878727541, -8.562716, 0.2656033, 3.9314077, -0.058147907, 0.22113621, 9.423074
787159888366291, -9.110672, -0.2739782, 3.888337, -0.21269321, -0.38494867, 9.899755
787159898005041, -8.4347, 0.71665037, 4.1551366, 0.06409311, 0.70215315, 9.403498
787159907643791, -8.823533, -0.50368917, 3.9493537, -0.002657652, -0.5757129, 9.663042
787159917282541, -8.458628, 0.9020941, 4.4434714, 0.25026083, 0.92650074, 9.549112
787159926921291, -8.58784, -0.43070808, 4.054638, 0.15163898, -0.47093302, 9.493777
787159936560041, -8.785249, 0.77766734, 4.473382, 0.15161967, 0.77027977, 9.858002
787159946198896, -8.691928, -0.11485548, 4.054638, 0.025606632, -0.17710626, 9.590144
787159955837646, -9.120243, 0.38404804, 4.510471, 0.13893604, 0.36022824, 10.174557
787159965476396, -8.52802, 0.42711884, 4.51406, 0.3806796, 0.4588527, 9.640065
787159975115146, -9.0029955, 0.016749758, 4.5284166, 0.27392077, 0.0059641004, 10.074012
787159984753896, -8.4909315, 0.8889336, 4.4350967, 0.2148807, 0.89061296, 9.576891
787159994392646, -9.042477, -0.5395815, 3.802195, -0.2797978, -0.672781, 9.797109
787160004031396, -8.664411, 0.62452674, 4.1024942, -0.112293005, 0.5439141, 9.590832
787160013670146, -8.91805, -0.83988076, 3.5042887, -0.43615866, -1.003427, 9.556148
787160023308896, -9.042477, 0.5132605, 4.061816, -0.26535583, 0.42692316, 9.9134
787160032947646, -8.790034, -0.37088752, 4.034299, 0.009006977, -0.42105162, 9.669563
787160042586396, -9.165708, 0.20817557, 4.664808, 0.27875018, 0.23781943, 10.280064
787160052225146, -8.720642, 0.17108682, 4.57747, 0.39041162, 0.22408646, 9.840196
787160061863896, -9.156136, -0.106480606, 4.621737, 0.30012846, -0.087049246, 10.252267
787160071502646, -8.413164, 0.73818576, 4.7102714, 0.5001793, 0.83068967, 9.6214695
787160081141396, -8.837891, -0.47018966, 4.0534415, 0.0076937675, -0.5182392, 9.720655
787160090780250, -8.49811, 0.8769695, 4.23051, 0.031237364, 0.8500638, 9.495292
787160100419000, -8.755338, -0.5312066, 3.4612179, -0.4912498, -0.6783394, 9.392372
787160110057750, -8.840283, 0.73340017, 3.8751762, -0.38568115, 0.62516636, 9.652247
787160119696500, -8.653643, -0.38165522, 3.5437703, -0.3921044, -0.50636744, 9.336989
787160129335250, -9.0233345, 0.25603202, 4.037888, -0.22915387, 0.17658389, 9.884683
787160138974000, -8.615358, 0.10887343, 3.9146578, -0.1397345, 0.057758987, 9.462448
787160148612750, -9.107083, -0.2213361, 4.159922, -0.057476282, -0.26181453, 10.011048
787160158251500, -8.55793, 0.44865423, 4.5224347, 0.35456443, 0.50769174, 9.669976
787160167890250, -9.160921, -0.6855437, 4.2257247, 0.065671444, -0.6993336, 10.087409
787160177529104, -8.885747, 0.58504516, 4.5116673, 0.17291784, 0.61929715, 9.961952
787160187167854, -9.217153, -0.8961121, 3.798606, -0.29262996, -0.9782597, 9.957194
787160196806604, -9.036494, 0.4019942, 4.150351, -0.17394066, 0.37578335, 9.94353
787160206445354, -8.803194, -0.7513463, 3.7292142, -0.19804668, -0.8092336, 9.553728
787160216084104, -9.050852, -0.02871387, 4.1072803, -0.1286807, -0.04860151, 9.938289
787160225722854, -8.4682, -0.2656033, 4.1347976, 0.18270802, -0.21517795, 9.42326
787160235361604, -8.955139, -0.36011982, 4.389633, 0.22069979, -0.29664344, 9.972782
787160245000458, -8.488539, 0.30987054, 4.51406, 0.39472508, 0.41519243, 9.602077
787160254639208, -9.136993, -0.71665037, 4.1958146, 0.027332067, -0.70500416, 10.055113
787160264277958, -8.723035, 0.5814559, 4.564309, 0.2790227, 0.66332287, 9.835877
787160273916708, -8.880961, -0.8255238, 4.113262, 0.08581281, -0.7968244, 9.789261
787160283555458, -8.7780695, 0.6664011, 4.45065, 0.13551259, 0.71436083, 9.837592
787160293194208, -8.690732, -0.40558344, 3.839284, -0.16853309, -0.43704104, 9.498107
787160302832958, -8.939586, 0.47736812, 4.197011, -0.12961245, 0.46686965, 9.875435
787160312471708, -8.523234, 0.04546363, 4.089334, 0.036809444, 0.05822718, 9.453333
787160322110562, -9.157332, -0.061016977, 4.1276193, -0.17044377, -0.1023612, 10.042818
787160331749312, -8.725428, 0.44626144, 4.1108694, -0.102561474, 0.4294091, 9.645547
787160341388062, -9.281759, -0.552742, 3.891926, -0.31319332, -0.6491969, 10.054062
787160351026812, -8.812766, 0.6329016, 4.2975097, -0.011158705, 0.6319872, 9.80482
787160360665562, -9.099904, -0.90807617, 3.798606, -0.22781396, -1.0019331, 9.849188
787160370304312, -8.885747, 0.4534399, 4.26401, -0.03138542, 0.43823153, 9.856513
787160379943166, -8.745767, -0.654437, 3.8297126, -0.12569594, -0.7125469, 9.542532
787160389581916, -8.932407, 0.36729828, 4.2687955, -0.021412373, 0.34393322, 9.900843
787160399220666, -8.5016985, -0.023928227, 4.082155, 0.07862377, -0.037571907, 9.43058
787160408859416, -9.069994, 0.14117654, 4.1922255, -0.09397864, 0.0752731, 9.992246
787160418498166, -8.633304, 0.7298109, 4.194618, -0.035101175, 0.6850143, 9.601608
787160428136916, -9.107083, -0.061016977, 4.0474596, -0.19654894, -0.17118788, 9.962766
787160437775771, -8.517252, 1.0540384, 4.5894337, 0.30265498, 1.0718963, 9.668346
787160447414521, -8.872586, -0.33260235, 4.2257247, 0.11299324, -0.40193462, 9.824247
787160457053271, -8.82473, 1.0468599, 4.506881, 0.094403744, 1.0062277, 9.912738
787160466692021, -8.902496, -0.28235307, 3.8787656, -0.20799613, -0.40909582, 9.704039
787160476330771, -9.152547, 0.71306115, 4.176672, -0.24522734, 0.5949223, 10.065193
787160485969625, -8.672786, 0.12921242, 3.845266, -0.20912099, 0.0105496645, 9.485576
787160495608375, -9.157332, 0.30867413, 3.9278183, -0.36391973, 0.14660251, 9.961218
787160505247125, -8.463413, 0.6376872, 4.0558343, -0.03499937, 0.5598172, 9.389952
787160514885875, -8.889337, -0.2656033, 4.0977087, 0.039289474, -0.36244172, 9.785151
787160524524625, -8.305488, 0.74416786, 4.4889355, 0.38958693, 0.765515, 9.431207
787160534163479, -8.7469635, -0.79920274, 3.9673, 0.11534524, -0.88429725, 9.596473
787160543802229, -8.620144, 0.46061835, 4.3034916, 0.16347218, 0.4312807, 9.6346445
787160553440979, -8.645268, -0.8817552, 3.7304106, -0.07519293, -0.992678, 9.404417
787160563079729, -8.912068, 0.2009971, 4.223332, 0.03360033, 0.14657623, 9.863028
787160572718583, -8.635697, -0.46660042, 4.061816, 0.13947153, -0.51179665, 9.539913
787160582357333, -9.177671, -0.21774685, 4.368098, 0.13418508, -0.2634173, 10.162183
787160591996083, -8.611769, 0.059820566, 4.436293, 0.3688531, 0.085644245, 9.680055
787160601634833, -9.23151, -0.6029913, 4.302295, 0.12982917, -0.6431907, 10.18153
787160611273583, -8.690732, 0.52522457, 4.5044885, 0.30076456, 0.5471834, 9.782906
787160620912437, -9.136993, -0.8602197, 4.0307097, -0.037992716, -0.94178367, 9.97912
787160630551187, -8.925228, 0.47138608, 4.386044, 0.0799346, 0.4618604, 9.944827
787160640189937, -8.965906, -0.9595219, 3.863212, -0.07274842, -1.0551257, 9.752642
787160649828687, -9.163314, 0.13160525, 4.2664027, -0.041413784, 0.06940067, 10.108378
787160659467541, -8.867801, -0.6329016, 3.9960139, 0.01807332, -0.6894173, 9.722703
787160669106291, -9.340384, -0.27996024, 4.2795634, -0.0070049763, -0.3479659, 10.272034
787160678745041, -8.718249, -0.016749758, 4.156333, 0.08400297, -0.066342115, 9.657733
787160688383791, -9.1872425, -0.4546363, 3.888337, -0.24236655, -0.59717494, 9.965738
787160698022646, -8.435896, 0.71306115, 4.126423, 8.6069107E-4, 0.6508079, 9.395563
787160707661396, -8.754142, -0.51445687, 3.8356948, -0.087946415, -0.6740816, 9.547258
787160717300146, -8.440681, 0.991825, 4.173083, -0.017232656, 0.8917426, 9.425918
787160726938896, -8.585447, -0.38285163, 3.5617166, -0.29154086, -0.61826426, 9.277665
787160736577750, -8.950353, 0.73340017, 4.0773697, -0.26222706, 0.5361781, 9.844562
787160746216500, -8.842676, -0.1052842, 3.851248, -0.21407914, -0.3312685, 9.637455
787160755855250, -9.237492, 0.3493521, 4.4231324, 0.019207716, 0.17926264, 10.246214
787160765494104, -8.675179, 0.4354937, 4.3968115, 0.20430136, 0.3250563, 9.727946
787160775132854, -9.2590275, -0.058624156, 4.125226, -0.14851475, -0.31386757, 10.130644
787160784771604, -8.628518, 0.9559326, 4.274778, -1.4829636E-4, 0.78033024, 9.645204
787160794410354, -8.88455, -0.31465617, 4.208975, 0.13898134, -0.5242677, 9.8211775
787160804049208, -8.400003, 1.0552348, 4.924429, 0.6529367, 1.0011253, 9.720855
787160813687958, -8.523234, -0.3074777, 4.267599, 0.333107, -0.46196747, 9.519878
787160823326708, -8.732606, 0.9343972, 4.4195433, 0.090210915, 0.73638433, 9.803747
787160832965562, -8.598608, -0.013160525, 3.9230328, -0.06397486, -0.27313358, 9.447102
787160842604312, -9.0951185, 0.40677986, 4.2687955, -0.05642104, 0.14274067, 10.054141
787160852243062, -8.499306, 0.29790643, 4.319045, 0.26188684, 0.11308503, 9.534136
787160861881916, -9.102298, -0.0849452, 4.2484565, 0.04027915, -0.3459865, 10.039277
787160871520666, -8.6141615, 0.9774681, 4.3525443, 0.110323906, 0.7648008, 9.669889
787160881159416, -9.0029955, -0.14356937, 4.2484565, 0.08814788, -0.39347428, 9.947931
787160890798166, -8.416754, 1.2693924, 5.127819, 0.8429513, 1.1780258, 9.831038
787160900437021, -8.482556, -0.061016977, 4.587041, 0.5686178, -0.23000151, 9.624043
787160910075771, -8.630911, 1.2933207, 4.7102714, 0.349236, 1.0898583, 9.851
787160919714625, -8.573483, 0.29910284, 4.004389, -0.059061766, 0.005446434, 9.467085
787160929353375, -9.017352, 0.84107715, 4.2257247, -0.14512086, 0.518765, 9.97931
787160938992125, -8.5423765, 0.56350976, 4.0414777, -0.05879903, 0.26989, 9.462927
787160948630979, -9.237492, -0.03589234, 3.9493537, -0.29445672, -0.40619743, 10.0338545
787160958269729, -8.7266245, 0.78723866, 3.8165522, -0.36416626, 0.43775827, 9.540207
787160967908479, -9.176475, -0.27756742, 3.2039895, -0.8457985, -0.76402605, 9.656666
787160977547333, -8.646464, 1.079163, 3.6131623, -0.5824721, 0.678977, 9.390453
787160987186083, -8.841479, -0.40677986, 3.1800613, -0.6977997, -0.8509776, 9.340178
787160996824833, -8.876176, 0.8350951, 3.8141594, -0.42071748, 0.46705478, 9.676598
787161006463687, -8.72782, -0.30987054, 3.6191442, -0.29159617, -0.664151, 9.425653
787161016102437, -9.11785, 0.3278167, 4.348955, 0.05157447, 0.037739635, 10.107026
787161025741187, -8.770891, 0.0526421, 4.229314, 0.13391757, -0.21503252, 9.734179
787161035380041, -9.500702, -0.2656033, 4.3202415, -0.024172544, -0.5975931, 10.423082
787161045018791, -8.983852, 0.40797627, 4.517649, 0.21191049, 0.15668696, 10.060603
787161054657541, -9.474381, -0.6903293, 4.15394, -0.102368355, -1.0427139, 10.314938
787161064296396, -8.9108715, 0.7429714, 4.3908296, 0.055345535, 0.4644881, 9.950688
787161073935146, -8.975478, -0.5766702, 3.7591243, -0.24396992, -0.9653376, 9.696979
787161083573896, -8.717052, 0.93679005, 4.1958146, -0.08642554, 0.60912234, 9.700048
787161093212750, -8.365308, -0.11724831, 3.6610186, -0.17749381, -0.4888057, 9.117277
787161102851500, -8.612965, 0.70588267, 4.2125645, 0.019722223, 0.3857646, 9.606139
787161112490354, -8.199007, 0.37447673, 4.132405, 0.18984222, 0.09130716, 9.186747
787161122129104, -9.047262, 0.1902294, 4.2352962, -0.03394103, -0.1870299, 9.989532
787161131767854, -8.659625, 0.7860422, 4.4554358, 0.17864132, 0.48091125, 9.756777
787161141406708, -9.232706, -0.21296121, 4.5355954, 0.23740292, -0.5563051, 10.271027
787161151045458, -8.68475, 1.2023934, 5.218746, 0.7482486, 1.0070305, 10.125805
787161160684312, -8.792427, -0.0526421, 4.597809, 0.42267394, -0.3509817, 9.906944
787161170323062, -8.598608, 1.4356936, 4.7102714, 0.28682137, 1.1317217, 9.839762
787161179961916, -8.415557, 0.26799613, 3.8488553, -0.14732623, -0.15251148, 9.255384
787161189600666, -8.644072, 1.105484, 4.1754756, -0.1422975, 0.69180214, 9.637314
787161199239416, -8.185846, 0.59700924, 3.879962, -0.092983484, 0.20568258, 9.075664
787161208878271, -8.813962, 0.42711884, 4.001996, -0.2091806, -0.022265673, 9.687108
787161218517021, -8.32463, 0.8961121, 3.9888353, -0.11712289, 0.5044677, 9.259863
787161228155875, -8.968299, -0.07178468, 3.845266, -0.29737735, -0.5526406, 9.737956
787161237794625, -8.571091, 1.1090733, 4.426722, 0.1111033, 0.7614086, 9.679743
787161247433375, -8.88814, -0.38404804, 4.210171, 0.10419059, -0.767277, 9.811854
787161257072229, -8.855837, 1.0671989, 4.723432, 0.26224303, 0.73965716, 10.06279
787161266710979, -8.825927, -0.2213361, 4.223332, 0.07725334, -0.59546524, 9.768416
787161276349833, -9.0951185, 0.72502524, 4.7425747, 0.23180938, 0.3855223, 10.273096
787161285988583, -8.691928, 0.20458634, 4.354937, 0.16138673, -0.13660014, 9.72174
787161295627437, -9.18126, 0.25722843, 4.418347, 0.0038273335, -0.13174772, 10.191474
787161305266187, -8.623733, 0.6161518, 4.2664027, 0.03251362, 0.27067977, 9.637233
787161314905041, -9.162118, -0.20219351, 4.0354953, -0.21744943, -0.6385037, 9.990772
787161324543791, -8.71466, 0.44147578, 4.202993, -0.016273737, 0.08279252, 9.684948
787161334182646, -8.848659, 0.2620141, 4.0558343, -0.15692067, -0.13895297, 9.735156
787161343821396, -8.860622, 0.22372891, 3.9517467, -0.24458599, -0.19792771, 9.699381
787161353460146, -8.863015, 0.24047868, 3.9948175, -0.21407318, -0.17051941, 9.72083
787161363099000, -8.843872, 0.34217364, 4.091727, -0.14509177, -0.0584749, 9.749304
787161372737750, -8.781659, 0.45224348, 4.2795634, 0.02795434, 0.085758686, 9.778988
787161382376604, -8.6548395, 0.48454657, 4.503292, 0.268291, 0.1494326, 9.763522
787161392015354, -8.578269, 0.56590253, 4.508078, 0.29278684, 0.2296623, 9.700067
787161401654208, -8.539984, 0.65922266, 4.2999024, 0.11464548, 0.30012795, 9.57872
787161411292958, -8.556734, 0.6843473, 4.1635113, -0.018309116, 0.30769005, 9.535505
787161420931812, -8.612965, 0.5383851, 4.26401, 0.068314075, 0.1673415, 9.624039
787161430570562, -8.713464, 0.43429732, 4.322634, 0.09135032, 0.06732941, 9.735777
787161440209416, -8.769695, 0.37806597, 4.334598, 0.084843874, 0.007735759, 9.789381
787161449848166, -8.7780695, 0.33140594, 4.421936, 0.16568756, -0.024949312, 9.833097
787161459487021, -8.82114, 0.3182454, 4.3501515, 0.084130764, -0.049211413, 9.840129
787161469125771, -8.874979, 0.30867413, 4.334598, 0.042595387, -0.05850306, 9.881499
787161478764625, -8.941978, 0.28115666, 4.3070807, -0.00937438, -0.090614825, 9.9287815
787161488403375, -8.874979, 0.25603202, 4.278367, -0.0025203228, -0.112510145, 9.85508
787161498042229, -8.864211, 0.28235307, 4.1874394, -0.08379364, -0.09048939, 9.806804
787161507680979, -8.976674, 0.33379877, 4.0534415, -0.25408077, -0.055419177, 9.851644
787161517319833, -8.886943, 0.357727, 4.0235314, -0.24492073, -0.027772605, 9.75878
787161526958583, -8.833105, 0.35533416, 4.0642095, -0.17946887, -0.025019199, 9.72805
787161536597437, -8.799605, 0.39720857, 4.1168513, -0.11840963, 0.021467954, 9.722389
787161546236187, -8.673982, 0.42831525, 4.197011, 0.0062720776, 0.06907681, 9.645283
787161555875041, -8.645268, 0.4642076, 4.4207397, 0.21602559, 0.12310898, 9.717884
787161565513791, -8.734999, 0.5096712, 4.4781675, 0.22406006, 0.16484135, 9.825303
787161575152646, -8.793623, 0.526421, 4.421936, 0.14252448, 0.1682075, 9.854431
787161584791500, -8.801998, 0.46061835, 4.3728833, 0.100436926, 0.09448889, 9.838213
787161594430250, -8.781659, 0.49172506, 4.241278, -0.013397694, 0.11125395, 9.763976
787161604069104, -8.730213, 0.46181476, 4.0761733, -0.1321702, 0.07119197, 9.644818
787161613707854, -8.762517, 0.40079778, 3.9218364, -0.2724452, -0.0054185092, 9.6046295
787161623346708, -8.773284, 0.3469593, 3.8703907, -0.3120737, -0.057962418, 9.590102
787161632985458, -8.7984085, 0.25962126, 3.9481573, -0.2401731, -0.13900054, 9.643152
787161642624312, -8.817552, 0.20578274, 4.078566, -0.12490201, -0.18240929, 9.714803
787161652263062, -8.813962, 0.19142582, 4.2041893, -0.009031773, -0.18618366, 9.765399
787161661901916, -8.785249, 0.25244278, 4.3058844, 0.08524084, -0.113968104, 9.785946
787161671540771, -8.816355, 0.36251262, 4.2951164, 0.038406372, -0.009199649, 9.813563
787161681179521, -8.889337, 0.45822555, 4.3070807, 0.0011463165, 0.07834974, 9.888129
787161690818375, -8.811569, 0.4941179, 4.4255257, 0.13619971, 0.13119671, 9.87104
787161700457125, -8.720642, 0.49172506, 4.469793, 0.20507002, 0.13733211, 9.808645
787161710095979, -8.79123, 0.5204389, 4.302295, 0.019386053, 0.13972092, 9.800328
787161719734729, -8.817552, 0.48095736, 4.287938, 0.002370596, 0.095014304, 9.816207
787161729373583, -8.754142, 0.42951167, 4.3764725, 0.117887735, 0.05850905, 9.795695
787161739012437, -8.796016, 0.357727, 4.3178487, 0.057611942, -0.022935867, 9.80499
787161748651187, -8.82832, 0.3278167, 4.188636, -0.06532502, -0.072420955, 9.776598
787161758290041, -8.743374, 0.3278167, 4.159922, -0.05507779, -0.06713474, 9.687697
787161767928791, -8.694321, 0.38404804, 4.168297, -0.032533646, -0.008667052, 9.649469
787161777567646, -8.663215, 0.44745782, 4.1084766, -0.08162427, 0.047465295, 9.59803
787161787206500, -8.636893, 0.55513483, 4.2831526, 0.071249485, 0.17063671, 9.654807
787161796845250, -8.59143, 0.63888365, 4.459025, 0.23761106, 0.26311547, 9.694227
787161806484104, -8.596215, 0.6879365, 4.5272202, 0.291543, 0.31009054, 9.730505
787161816122854, -8.646464, 0.695115, 4.505685, 0.24870038, 0.31268644, 9.766582
787161825761708, -8.719446, 0.6759724, 4.395615, 0.11848569, 0.27727932, 9.783466
787161835400562, -8.779266, 0.6197411, 4.2891345, 0.003796339, 0.20834553, 9.788404
787161845039312, -8.640483, 0.5407779, 4.3465624, 0.12655091, 0.14628708, 9.685327
787161854678166, -8.72782, 0.5192425, 4.1982074, -0.03686309, 0.108888835, 9.698257
787161864316916, -8.857033, 0.5024927, 3.9661036, -0.29043913, 0.06996387, 9.712891
787161873955771, -8.9013, 0.4139583, 3.9625144, -0.30241227, -0.027243406, 9.747504
787161883594625, -8.829515, 0.33738798, 4.1108694, -0.118973255, -0.0713366, 9.744443
787161893233375, -8.827123, 0.28235307, 4.2687955, 0.03067851, -0.109276146, 9.808544
787161902872229, -8.885747, 0.29312077, 4.240082, -0.02192831, -0.09449887, 9.849434
787161912510979, -8.904889, 0.29671, 4.156333, -0.10480714, -0.09642404, 9.83056
787161922149833, -8.880961, 0.27876383, 4.237689, -0.019977331, -0.103226304, 9.843583
787161931788687, -8.843872, 0.25603202, 4.2951164, 0.050252438, -0.11255288, 9.834249
787161941427437, -8.878569, 0.19142582, 4.253242, 0.007090807, -0.17862463, 9.844984
787161951066291, -8.956335, 0.11006984, 4.145565, -0.11153746, -0.2646825, 9.865661
787161960705146, -8.9312105, 0.1471586, 4.130012, -0.11812663, -0.22728062, 9.83766
787161970343896, -8.945567, 0.148355, 4.1228333, -0.12610698, -0.22375405, 9.847688
787161979982750, -8.971889, 0.20338993, 4.1587257, -0.10491037, -0.16594845, 9.889014
787161989621604, -8.864211, 0.30867413, 4.3130627, 0.06948733, -0.04177642, 9.862326
787161999260354, -8.71466, 0.49292147, 4.331009, 0.12640095, 0.15652612, 9.741941
787162008899208, -8.671589, 0.56590253, 4.325027, 0.12814546, 0.21989247, 9.703493
787162018538062, -8.659625, 0.5766702, 4.290331, 0.098572016, 0.2292434, 9.678137
787162028176812, -8.689535, 0.5312066, 4.1694937, -0.01714015, 0.15712509, 9.65142
787162037815666, -8.669196, 0.5096712, 4.193422, 0.015300512, 0.13729218, 9.642635
787162047454521, -8.605786, 0.46181476, 4.3118663, 0.15574598, 0.109342426, 9.634771
787162057093271, -8.675179, 0.44027936, 4.219743, 0.048261642, 0.067949474, 9.6567
787162066732125, -8.809176, 0.38285163, 4.1108694, -0.0973475, -0.0121386945, 9.728196
787162076370979, -8.861818, 0.35294133, 4.1479583, -0.083119154, -0.041547358, 9.79047
787162086009729, -8.900104, 0.30269206, 4.243671, -0.005520344, -0.08496997, 9.864327
787162095648583, -8.955139, 0.32183465, 4.3704906, 0.08347368, -0.059051096, 9.969394
787162105287437, -8.979067, 0.37208393, 4.341777, 0.041562796, -0.013617367, 9.980541
787162114926187, -8.9348, 0.39601216, 4.301099, 0.02026987, 0.008661211, 9.924034
787162124565041, -8.819944, 0.41874397, 4.2927237, 0.058941126, 0.031137854, 9.817831
787162134203896, -8.751749, 0.424726, 4.1024942, -0.08322644, 0.02830875, 9.674515
787162143842750, -8.689535, 0.44626144, 3.9146578, -0.22160125, 0.035409823, 9.538415
787162153481500, -8.597412, 0.44027936, 3.9218364, -0.16904664, 0.035410017, 9.458347
787162163120354, -8.58784, 0.40917268, 3.9625144, -0.120649815, 0.0068039, 9.46601
787162172759208, -8.646464, 0.37208393, 3.9984066, -0.11016464, -0.03234458, 9.53278
787162182397958, -8.696713, 0.33379877, 4.211368, 0.067448854, -0.059742004, 9.668079
787162192036812, -8.7780695, 0.3074777, 4.365705, 0.17515445, -0.08031574, 9.806697
787162201675666, -8.827123, 0.3361916, 4.499703, 0.26581573, -0.045116216, 9.909883
787162211314416, -8.801998, 0.37567315, 4.5738807, 0.3397262, 0.0022050738, 9.92075
787162220953271, -8.87139, 0.45104706, 4.469793, 0.19799924, 0.06843969, 9.94184
787162230592125, -8.861818, 0.4223332, 4.3944187, 0.13720965, 0.0365642, 9.899543
787162240230979, -8.829515, 0.37806597, 4.287938, 0.062036037, -0.01725319, 9.822706
787162249869729, -8.836694, 0.3385844, 4.141976, -0.06305742, -0.072334856, 9.764658
787162259508583, -8.787642, 0.2440679, 4.034299, -0.12076759, -0.1720843, 9.670243
787162269147437, -8.8187475, 0.19740787, 3.8967116, -0.25177813, -0.23492536, 9.637172
787162278786187, -8.894122, 0.19262223, 3.8751762, -0.28958297, -0.24777457, 9.696095
787162288425041, -8.94796, 0.19740787, 4.0558343, -0.14731312, -0.22750545, 9.82249
