timestamp_acc,device_acc_x,device_acc_y,device_acc_z,earth_acc_x,earth_acc_y,earth_acc_z
771874851296538, -0.25603202, 3.9900317, 9.19801, 0.027052402, -0.003706932, 10.029386
771874860936329, -0.26081768, 4.007978, 9.135797, 0.015926242, 0.03640175, 9.979635
771874870576121, -0.2955136, 3.9960139, 9.134601, -0.018680692, 0.02181673, 9.974748
771874880215913, -0.28235307, 3.9816568, 9.182457, -8.6438656E-4, -0.008597136, 10.01253
771874889855704, -0.26081768, 3.9900317, 9.1872425, 0.019196332, -6.482601E-4, 10.019654
771874899495496, -0.276371, 3.9696927, 9.133404, 6.0904026E-4, -2.3794174E-4, 9.962625
771874909135288, -0.29192436, 3.952943, 9.064013, -0.020666778, 0.006533861, 9.892767
771874918775079, -0.2428715, 3.970889, 9.007781, 0.021868408, 0.049573183, 9.847038
771874928414871, -0.2548356, 3.9744785, 8.992228, 0.008217752, 0.05748892, 9.834542
771874938054663, -0.26919255, 3.9445682, 9.075976, 0.003437221, -0.0046691895, 9.899768
771874947694454, -0.25004998, 3.9756749, 9.199206, 0.029165149, -0.020920515, 10.024601
771874957334246, -0.2847459, 3.9613178, 9.236296, 1.5336275E-4, -0.050848484, 10.053841
771874966974038, -0.317049, 3.979264, 9.195618, -0.036611438, -0.021811962, 10.024601
771874976613829, -0.31944183, 4.0091743, 9.147761, -0.046251833, 0.024436474, 9.992714
771874986253621, -0.2955136, 4.007978, 9.1465645, -0.022311151, 0.027140856, 9.990478
771874995893413, -0.28953153, 3.993621, 9.090333, -0.018992305, 0.036240578, 9.9330435
771875005533204, -0.27517462, 3.9625144, 9.105886, -2.577901E-4, 0.0034046173, 9.934506
771875015172996, -0.2321038, 3.9565322, 9.084352, 0.040886402, 0.01076889, 9.911189
771875024812788, -0.23449662, 3.952943, 9.050852, 0.035798848, 0.020922184, 9.879117
771875034452579, -0.29312077, 3.9314077, 9.085547, -0.018057168, -0.018912554, 9.903957
771875044092371, -0.27158538, 3.958925, 9.142975, 0.0043777823, -0.013701677, 9.966977
771875053732163, -0.24526432, 4.024728, 9.156136, 0.025807977, 0.04569912, 10.00453
771875063371954, -0.28713873, 4.0271206, 9.123833, -0.017774701, 0.055917025, 9.977026
771875073011746, -0.3290131, 3.9984066, 9.111869, -0.057573617, 0.02973342, 9.955776
771875082651538, -0.33140594, 3.9696927, 9.141779, -0.054575443, -0.008105516, 9.971828
771875092291329, -0.29671, 3.9421754, 9.159725, -0.015195966, -0.036608934, 9.976362
771875101931121, -0.29910284, 3.9242291, 9.169296, -0.014491677, -0.05627227, 9.97806
771875111570913, -0.26799613, 3.9601214, 9.147761, 0.009954572, -0.010217905, 9.9717455
771875121210704, -0.24646074, 3.9613178, 9.129815, 0.029084206, 0.0010559559, 9.9551735
771875130850496, -0.21774685, 3.9397824, 9.110672, 0.05759865, -0.007875919, 9.928257
771875140490288, -0.21774685, 3.9625144, 9.101101, 0.053477526, 0.015746593, 9.928537
771875150130079, -0.2644069, 3.958925, 9.110672, 0.0071465373, 0.0019443035, 9.937167
771875159769871, -0.2440679, 3.9673, 9.09153, 0.024304152, 0.017715216, 9.922402
771875169409663, -0.2548356, 3.9744785, 9.099904, 0.013775587, 0.01937604, 9.933232
771875179049454, -0.29312077, 3.9661036, 9.085547, -0.02417159, 0.011839867, 9.917777
771875188689246, -0.32063824, 3.9445682, 9.096315, -0.047760308, -0.015829563, 9.919822
771875198329038, -0.29192436, 3.9613178, 9.160921, -0.015025437, -0.022547245, 9.984939
771875207968829, -0.26081768, 3.9661036, 9.225528, 0.020635128, -0.039021015, 10.045218
771875217608621, -0.25842485, 3.9768713, 9.208778, 0.021025777, -0.02136755, 10.034091
771875227248413, -0.26919255, 3.9840498, 9.182457, 0.0071288347, -0.005606413, 10.013119
771875236888204, -0.25124636, 3.987639, 9.097511, 0.016456664, 0.03029728, 9.9361925
771875246527996, -0.28953153, 3.9828532, 9.032906, -0.026634634, 0.045505047, 9.876111
771875256167788, -0.33379877, 3.9816568, 9.004191, -0.07257092, 0.050024986, 9.850518
771875265807579, -0.2847459, 3.9804604, 9.050852, -0.019674897, 0.03704834, 9.891477
771875275447371, -0.2656033, 4.011567, 9.132208, 0.0033268332, 0.03635192, 9.977931
771875285087163, -0.23330021, 3.9804604, 9.136993, 0.039592206, 0.009977818, 9.969027
771875294726954, -0.2548356, 3.9290147, 9.140582, 0.024276257, -0.04103875, 9.952391
771875304366746, -0.2727818, 3.9314077, 9.145369, 0.0064507127, -0.043532133, 9.958221
771875314006538, -0.29312077, 3.952943, 9.127422, -0.016330123, -0.018652678, 9.950926
771875323646329, -0.32422748, 3.95055, 9.18485, -0.04252726, -0.04736042, 10.00347
771875333286121, -0.30269206, 3.9864426, 9.180064, -0.02478975, -0.010229349, 10.012801
771875342925913, -0.3182454, 4.0007997, 9.139386, -0.04418099, 0.0160563, 9.981677
771875352565704, -0.34456646, 3.987639, 9.052048, -0.074774325, 0.033931732, 9.897113
771875362205496, -0.3361916, 4.0067816, 9.050852, -0.06719369, 0.052795887, 9.903431
771875371845288, -0.28235307, 3.9816568, 9.086744, -0.0090277195, 0.021742105, 9.924802
771875381485079, -0.19621146, 4.007978, 9.103494, 0.07518047, 0.049596786, 9.948259
771875391124871, -0.20338993, 4.0091743, 9.152547, 0.07151204, 0.031064034, 9.993892
771875400764663, -0.20697916, 3.9828532, 9.162118, 0.070133924, 0.0036642551, 9.992269
771875410404454, -0.22851457, 3.9613178, 9.128618, 0.04729849, -0.0073640347, 9.953574
771875420044246, -0.26679972, 3.9541395, 9.108279, 0.00867492, -0.011150122, 9.933125
771875429684038, -0.31106696, 3.9673, 9.098708, -0.037748456, -0.0023157597, 9.930827
771875439323829, -0.33140594, 3.9852462, 9.079565, -0.06064117, 0.019198895, 9.921012
771875448963621, -0.32662028, 4.007978, 9.098708, -0.05698538, 0.033149958, 9.947496
771875458603413, -0.29072794, 3.9720855, 9.059227, -0.019280791, 0.021666288, 9.895997
771875468243204, -0.2955136, 3.9457645, 9.067601, -0.01920557, -0.0063643456, 9.893301
771875477882996, -0.29072794, 3.9541395, 9.108279, -0.012000859, -0.014201641, 9.933788
771875487522788, -0.2548356, 3.9649072, 9.160921, 0.0267694, -0.020656109, 9.985327
771875497162579, -0.2416751, 3.9756749, 9.172886, 0.039606154, -0.014368534, 10.000225
771875506802371, -0.27876383, 3.970889, 9.144172, 0.001224339, -0.012235403, 9.973033
771875516442163, -0.29671, 3.9684963, 9.109476, -0.018675208, -0.0023698807, 9.940784
771875526081954, -0.29072794, 3.987639, 9.144172, -0.011727631, 0.0037295818, 9.980055
771875535721746, -0.27038896, 4.001996, 9.189635, 0.0100515485, 0.0022864342, 10.026881
771875545361538, -0.23449662, 3.987639, 9.141779, 0.04266715, 0.0118021965, 9.976294
771875555001329, -0.276371, 3.9780676, 9.062816, -0.004725218, 0.027065992, 9.901278
771875564641121, -0.27876383, 3.9720855, 9.037691, -0.009945631, 0.029769182, 9.875933
771875574280913, -0.2644069, 3.9493537, 9.056833, 0.008155465, 0.0030646324, 9.884002
771875583920704, -0.25244278, 3.9625144, 9.12144, 0.02361238, -0.007591963, 9.948132
771875593560496, -0.25962126, 3.9493537, 9.165708, 0.021110535, -0.03787422, 9.983644
771875603200288, -0.2727818, 3.9900317, 9.135797, 0.0018286109, 0.009169817, 9.972835
771875612840079, -0.29910284, 3.9852462, 9.0951185, -0.026528895, 0.016898632, 9.934378
771875622479871, -0.33738798, 3.9864426, 9.049655, -0.06746173, 0.029602528, 9.894261
771875632119663, -0.32422748, 3.9960139, 9.101101, -0.049539447, 0.019428253, 9.944872
771875641759454, -0.28594232, 4.0163527, 9.136993, -0.010631084, 0.029043913, 9.984816
771875651399246, -0.29671, 3.993621, 9.157332, -0.017302036, -0.0015964508, 9.994674
771875661039038, -0.31465617, 3.9948175, 9.134601, -0.037053704, 0.0053539276, 9.974824
771875670678725, -0.29671, 3.991228, 9.099904, -0.021991074, 0.01657319, 9.941099
771875680318517, -0.25722843, 3.9852462, 9.096315, 0.016752005, 0.016810656, 9.934322
771875689958308, -0.2440679, 3.9637108, 9.083155, 0.029833019, 0.0036196709, 9.913294
771875699598100, -0.2644069, 3.9864426, 9.138189, 0.011437535, 1.3422966E-4, 9.973366
771875709237892, -0.2440679, 3.9684963, 9.148957, 0.03280151, -0.017763376, 9.975498
771875718877683, -0.23688944, 3.9541395, 9.111869, 0.038365424, -0.015281677, 9.935582
771875728517475, -0.24526432, 3.940979, 9.079565, 0.028874695, -0.015172243, 9.900956
771875738157267, -0.24885355, 3.9601214, 9.103494, 0.024207115, -0.0067954063, 9.9306345
771875747797058, -0.2644069, 3.9816568, 9.105886, 0.006667793, 0.009828091, 9.941858
771875757436850, -0.30269206, 4.004389, 9.120243, -0.03266895, 0.020115137, 9.965145
771875767076642, -0.2955136, 4.005585, 9.078369, -0.028960526, 0.03771615, 9.927062
771875776716433, -0.30867413, 3.9888353, 9.069994, -0.038675785, 0.024359226, 9.913061
771875786356225, -0.3074777, 3.9577286, 9.080762, -0.032485545, -0.0071251392, 9.910464
771875795996017, -0.33020952, 4.005585, 9.126225, -0.056287408, 0.016026974, 9.971876
771875805635808, -0.31465617, 4.0187454, 9.159725, -0.039477527, 0.01608324, 10.0074005
771875815275600, -0.28115666, 4.0271206, 9.109476, -0.010855019, 0.046563387, 9.963786
771875824915392, -0.28235307, 3.9984066, 9.084352, -0.011321723, 0.028879404, 9.929324
771875834555183, -0.2656033, 3.9613178, 9.073584, 0.008590043, 0.0012187958, 9.904163
771875844194975, -0.2428715, 3.9565322, 9.103494, 0.03406, -0.011728287, 9.929021
771875853834767, -0.25603202, 3.9541395, 9.140582, 0.023980677, -0.030121803, 9.962406
771875863474558, -0.25603202, 3.9553359, 9.127422, 0.02256751, -0.022930622, 9.950832
771875873114350, -0.2548356, 3.9433718, 9.067601, 0.02052927, -0.009691715, 9.891208
771875882754142, -0.28594232, 3.9625144, 9.092726, -0.010509133, -0.006696224, 9.922742
771875892393829, -0.30508488, 4.2161536, 9.160921, -0.053313494, 0.1953144, 10.087146
771875902033621, -0.26679972, 3.3714871, 9.001799, 0.064480364, -0.50480294, 9.602682
771875911673413, -0.36490545, 4.6097727, 9.335598, -0.14337057, 0.47423792, 10.406301
771875921313204, -0.18185452, 3.5090744, 8.935996, 0.12984717, -0.33711696, 9.595216
771875930952996, -0.44626144, 4.31067, 9.300901, -0.1905917, 0.21166825, 10.25703
771875940592788, -0.11844472, 3.9756749, 8.958728, 0.14510101, 0.0822885, 9.800561
771875950232579, -0.46301118, 3.7064822, 9.131011, -0.15497935, -0.27625728, 9.860396
771875959872371, -0.15672988, 4.421936, 9.089137, 0.072045386, 0.42761803, 10.099627
771875969512163, -0.38883367, 3.3224342, 9.005388, -0.048145413, -0.5652673, 9.589835
771875979151954, -0.23090738, 4.7341995, 9.268599, -0.025426686, 0.64042664, 10.390483
771875988791746, -0.28115666, 3.176472, 8.912068, 0.06280911, -0.6446698, 9.443221
771875998431538, -0.33140594, 4.6959143, 9.340384, -0.115244925, 0.5536027, 10.444351
771876008071329, -0.16630118, 3.4456646, 8.915657, 0.15277815, -0.38347483, 9.550854
771876017711121, -0.41994038, 4.3238306, 9.296116, -0.16696799, 0.22991657, 10.257138
771876027350913, -0.0526421, 3.9074793, 8.957532, 0.21856591, 0.027893305, 9.770363
771876036990600, -0.37686956, 3.7734814, 9.150154, -0.07814336, -0.21159601, 9.902304
771876046630392, -0.12083755, 4.3800616, 9.056833, 0.10301387, 0.4145515, 10.052029
771876056270183, -0.43070808, 3.3080773, 9.071191, -0.08605367, -0.6143215, 9.645238
771876065909975, -0.2321038, 4.7222357, 9.352347, -0.022118032, 0.5982146, 10.462382
771876075549767, -0.28953153, 3.1728828, 8.986245, 0.047863543, -0.67728496, 9.510134
771876085189558, -0.36131623, 4.694718, 9.305687, -0.142102, 0.565366, 10.412823
771876094829350, -0.2428715, 3.3296127, 8.796016, 0.069039226, -0.4636433, 9.396566
771876104469142, -0.4546363, 4.338187, 9.267402, -0.20195305, 0.2463181, 10.237668
771876114108933, -0.12562318, 3.863212, 8.958728, 0.1451968, -0.0208714, 9.755894
771876123748725, -0.40079778, 3.8500516, 9.233903, -0.101878405, -0.17764735, 10.010323
771876133388517, -0.047856454, 4.421936, 9.105886, 0.19027251, 0.43278527, 10.111849
771876143028308, -0.32183465, 3.400201, 9.050852, 0.0017369986, -0.50221944, 9.66078
771876152667996, -0.15433706, 4.686343, 9.284152, 0.06350362, 0.5898273, 10.384085
771876162307788, -0.26679972, 3.150151, 8.985049, 0.066682816, -0.6981859, 9.499147
771876171947579, -0.30508488, 4.703093, 9.377472, -0.06866938, 0.55117965, 10.480488
771876181587371, -0.20937198, 3.32722, 8.880961, 0.096696794, -0.4994197, 9.472432
771876191227163, -0.45702913, 4.426722, 9.251849, -0.21187586, 0.3329053, 10.258936
771876200866954, -0.16031912, 3.8117664, 8.874979, 0.106389105, -0.04433918, 9.659567
771876210506746, -0.46181476, 3.9218364, 9.115458, -0.18240541, -0.07944441, 9.932073
771876220146538, -0.11724831, 4.3274198, 8.950353, 0.10773057, 0.39786983, 9.933742
771876229786329, -0.38285163, 3.4217365, 9.065208, -0.047849834, -0.50252795, 9.683906
771876239426121, -0.13998012, 4.7341995, 9.270991, 0.0594818, 0.6378217, 10.391014
771876249065808, -0.32183465, 3.211168, 9.006584, 0.045306027, -0.6579907, 9.544565
771876258705600, -0.29671, 4.7653065, 9.381062, -0.08985984, 0.6112156, 10.5080385
771876268345392, -0.14955142, 3.3200414, 8.873783, 0.18594861, -0.49216747, 9.461092
771876277985183, -0.41515473, 4.4315076, 9.275777, -0.18357241, 0.32893968, 10.281477
771876287624975, -0.1698904, 3.6646078, 8.953942, 0.127325, -0.2114098, 9.673179
771876297264767, -0.47258246, 3.9230328, 9.276974, -0.17890018, -0.13966775, 10.080886
771876306904558, -0.12323037, 4.2520456, 9.099904, 0.12368941, 0.2769127, 10.040484
771876316544350, -0.4546363, 3.397808, 9.104691, -0.12564874, -0.547528, 9.712447
771876326184142, -0.1698904, 4.6325045, 9.189635, 0.046895564, 0.57720876, 10.276333
771876335823829, -0.25962126, 3.2410784, 8.876176, 0.06715977, -0.58217955, 9.43478
771876345463621, -0.22851457, 4.8011985, 9.220742, -0.03461337, 0.7166693, 10.373573
771876355103413, -0.18424734, 3.3032916, 8.810373, 0.13408881, -0.48064876, 9.397839
771876364743204, -0.42711884, 4.5128636, 9.304491, -0.19068897, 0.38677645, 10.340986
771876374382996, -0.17706887, 3.6813576, 9.010174, 0.11305034, -0.2167213, 9.731764
771876384022788, -0.47976094, 4.0438704, 9.275777, -0.19926804, -0.030839682, 10.128299
771876393662579, -0.17587246, 4.210171, 9.022138, 0.063231945, 0.26233435, 9.954025
771876403302371, -0.4546363, 3.5533416, 9.086744, -0.1318093, -0.39788198, 9.75839
771876412942058, -0.16749759, 4.6552362, 9.27817, 0.045033634, 0.5678456, 10.366255
771876422581850, -0.3074777, 3.1860433, 9.047262, 0.0584684, -0.6988914, 9.571128
771876432221642, -0.2009971, 4.7808595, 9.312865, 0.00407815, 0.6610961, 10.449373
771876441861433, -0.1471586, 3.2099717, 8.842676, 0.18827981, -0.57726526, 9.388813
771876451501225, -0.31106696, 4.4781675, 9.300901, -0.079392195, 0.37416506, 10.320428
771876461141017, -0.021535404, 3.5605202, 8.933603, 0.27652726, -0.26739788, 9.609321
771876470780808, -0.36610186, 4.028317, 9.2997055, -0.096467435, -0.03540325, 10.140775
771876480420496, -0.06699903, 4.1144586, 9.022138, 0.17115825, 0.19010949, 9.91296
771876490060288, -0.44147578, 3.5449667, 9.071191, -0.14329225, -0.39577436, 9.740175
771876499700079, -0.19740787, 4.5595236, 9.178867, 0.016126156, 0.5140183, 10.237936
771876509339871, -0.4031906, 3.245864, 9.006584, -0.07930583, -0.6314721, 9.560947
771876518979663, -0.29910284, 4.8490553, 9.318848, -0.09665334, 0.71149755, 10.484663
771876528619454, -0.28115666, 3.298506, 8.848659, 0.029711545, -0.50583196, 9.434047
771876538259246, -0.44147578, 4.658826, 9.270991, -0.22316378, 0.53847814, 10.368755
771876547898933, -0.19381863, 3.60718, 8.867801, 0.09382498, -0.22425008, 9.572258
771876557538725, -0.45583272, 4.1431723, 9.268599, -0.19049376, 0.065341234, 10.16071
771876567178517, -0.0849452, 4.0295134, 8.992228, 0.16584814, 0.12178731, 9.852007
771876576818308, -0.37447673, 3.5377884, 9.159725, -0.05389452, -0.43187308, 9.816688
771876586458100, -0.069391854, 4.5272202, 9.238688, 0.14337605, 0.4779086, 10.276428
771876596097892, -0.30269206, 3.2398818, 9.035298, 0.038830876, -0.6445055, 9.581658
771876605737683, -0.22851457, 4.749753, 9.280562, -0.043896675, 0.6422062, 10.408018
771876615377371, -0.2321038, 3.2015967, 8.835498, 0.097379506, -0.5805824, 9.38209
771876625017163, -0.3182454, 4.6408796, 9.2997055, -0.10928702, 0.5379207, 10.38375
771876634656954, -0.12083755, 3.5198421, 8.914461, 0.17561686, -0.30729532, 9.578425
771876644296746, -0.44745782, 4.2053857, 9.334401, -0.18890852, 0.0993402, 10.245535
771876653936538, -0.16031912, 4.048656, 9.056833, 0.08822799, 0.112300396, 9.920845
771876663576329, -0.47377887, 3.65384, 9.205189, -0.15907472, -0.35229588, 9.907628
771876673216017, -0.13519448, 4.496114, 9.114262, 0.062017202, 0.49844694, 10.151395
771876682855808, -0.3493521, 3.2590244, 8.876176, -0.014237821, -0.5728519, 9.444652
771876692495600, -0.2213361, 4.753342, 9.177671, -0.054317057, 0.69491315, 10.31441
771876702135392, -0.25722843, 3.158526, 8.863015, 0.0923242, -0.63498497, 9.390621
771876711775183, -0.3385844, 4.6396832, 9.389436, -0.13865167, 0.49498844, 10.466067
771876721414871, -0.13758731, 3.4803605, 8.952746, 0.17132825, -0.35749817, 9.598248
771876731054663, -0.43429732, 4.29392, 9.348758, -0.18471247, 0.17942762, 10.293656
771876740694454, -0.13519448, 3.970889, 9.026923, 0.12336415, 0.056820154, 9.8617
771876750334246, -0.39481574, 3.7220356, 9.148957, -0.09824574, -0.2515297, 9.881292
771876759974038, -0.07178468, 4.4231324, 9.077172, 0.13758886, 0.45821118, 10.086399
771876769613829, -0.357727, 3.2303107, 8.962317, -0.031219006, -0.620183, 9.513171
771876779253517, -0.22253251, 4.7162533, 9.288938, -0.031871557, 0.6275244, 10.401063
771876788893308, -0.23928227, 3.1573296, 9.010174, 0.09987873, -0.6857531, 9.525175
771876798533100, -0.28713873, 4.6839504, 9.394221, -0.081172824, 0.53895926, 10.486954
771876808172892, -0.11006984, 3.4325042, 8.849854, 0.18630609, -0.3636949, 9.484047
771876817812683, -0.39960137, 4.348955, 9.219545, -0.17313725, 0.28729844, 10.196106
771876827452475, -0.09212367, 3.888337, 8.85464, 0.15679961, 0.05646658, 9.669774
771876837092163, -0.43070808, 3.7304106, 9.176475, -0.13533664, -0.2603922, 9.910753
771876846731954, -0.15314065, 4.386044, 9.193225, 0.06448001, 0.3752694, 10.179943
771876856371746, -0.48215377, 3.249453, 9.193225, -0.13549727, -0.70872545, 9.735819
771876866011538, -0.26919255, 4.6755753, 9.382257, -0.05935961, 0.5547936, 10.471337
771876875651329, -0.26799613, 3.1357942, 8.902496, 0.069456875, -0.66059375, 9.419038
771876885291017, -0.27996024, 4.727021, 9.280562, -0.08116132, 0.6294241, 10.399478
771876894930808, -0.11964113, 3.4492538, 8.852247, 0.18350929, -0.3337474, 9.493624
771876904570600, -0.38404804, 4.4578285, 9.340384, -0.15138233, 0.3573532, 10.349486
771876914210392, -0.05742774, 3.9553359, 9.014959, 0.20053196, 0.060650826, 9.842438
771876923850183, -0.31345975, 3.9948175, 9.328419, -0.035490096, -0.05684948, 10.152426
771876933489871, -0.13399807, 4.395615, 8.974281, 0.078529, 0.46402717, 9.982765
771876943129663, -0.5371887, 3.2386854, 8.96471, -0.21258485, -0.6341083, 9.523465
771876952769454, -0.23330021, 4.57747, 9.242277, -0.023913622, 0.50229, 10.304101
771876962409246, -0.3385844, 2.975475, 8.851051, -0.010231316, -0.80722404, 9.309
771876972049038, -0.40797627, 4.4578285, 9.314062, -0.17651522, 0.3490076, 10.326543
771876981688829, -0.11724831, 3.205186, 9.108279, 0.21986622, -0.6656678, 9.631007
771876991328517, -0.22731815, 4.4817567, 9.54497, 0.010890424, 0.32469988, 10.542235
771877000968308, -0.16390835, 3.8356948, 8.900104, 0.09186071, -0.004173994, 9.69241
771877010608100, -0.44027936, 4.0031924, 9.272188, -0.17192906, -0.04033208, 10.107506
771877020247892, -0.0071784677, 4.549952, 8.940782, 0.16305482, 0.64343023, 10.009952
771877029887683, -0.4869394, 3.5006995, 8.88814, -0.18691063, -0.3596642, 9.556505
771877039527371, -0.20578274, 4.699504, 9.236296, -0.023214936, 0.62914515, 10.346036
771877049167163, -0.2105684, 3.2243285, 8.969496, 0.1286692, -0.6077461, 9.5134945
771877058806954, -0.29910284, 4.6552362, 9.341579, -0.10301024, 0.5245359, 10.427849
771877068446746, -0.19142582, 3.1680973, 8.924032, 0.14206898, -0.63764143, 9.449078
771877078086538, -0.30149564, 4.319045, 9.381062, -0.07110298, 0.21855831, 10.329403
771877087726225, -0.078963146, 3.6179478, 8.96471, 0.19891137, -0.22542048, 9.6628895
771877097366017, -0.38165522, 3.9517467, 9.3104725, -0.115886986, -0.0992198, 10.120453
771877107005808, -0.03708875, 4.3848476, 9.067601, 0.15901089, 0.43620944, 10.061517
771877116645600, -0.3900301, 3.5808592, 8.971889, -0.09978026, -0.30730247, 9.662559
771877126285392, -0.20937198, 4.7246284, 9.080762, -0.042018056, 0.71257234, 10.213554
771877135925079, -0.35653058, 3.1812577, 8.88455, -0.032330036, -0.6351788, 9.422221
771877145564871, -0.3397808, 4.6899323, 9.336794, -0.15058708, 0.5512538, 10.438395
771877155204663, -0.2739782, 3.1860433, 9.048459, 0.069366395, -0.68927884, 9.571866
771877164844454, -0.38644084, 4.4781675, 9.497113, -0.15591747, 0.29631877, 10.50173
771877174484246, -0.05383851, 3.690929, 8.987442, 0.21667701, -0.16783023, 9.712099
771877184123933, -0.3469593, 4.068995, 9.188439, -0.09750426, 0.05505085, 10.05445
771877193763725, 0.0023928226, 4.2652063, 8.94796, 0.2092616, 0.3724153, 9.903307
771877203403517, -0.34456646, 3.5653057, 9.093923, -0.056330323, -0.37285447, 9.766645
771877213043308, -0.17826529, 4.6037908, 9.243474, 0.0068989396, 0.53527665, 10.314161
771877222683100, -0.36490545, 3.1429725, 9.006584, -0.036464274, -0.729306, 9.518233
771877232322788, -0.29072794, 4.7114677, 9.284152, -0.11969751, 0.59789467, 10.397409
771877241962579, -0.21535404, 3.1896327, 8.797213, 0.079453945, -0.5758796, 9.3420105
771877251602371, -0.3589234, 4.526024, 9.284152, -0.16868818, 0.4312396, 10.324476
771877261242163, -0.10289137, 3.5641093, 8.924032, 0.17070633, -0.2671628, 9.604755
771877270881850, -0.3696911, 4.063013, 9.366704, -0.11715722, -0.024322987, 10.215947
771877280521642, 0.0011964113, 4.126423, 9.148957, 0.22315365, 0.174433, 10.0324745
771877290161433, -0.31944183, 3.548556, 9.177671, -0.015629172, -0.41285467, 9.836324
771877299801225, -0.07776674, 4.581059, 9.21476, 0.09163684, 0.5467465, 10.276022
771877309441017, -0.31226337, 3.2350962, 8.988638, 0.021269321, -0.6270685, 9.537574
771877319080704, -0.25124636, 4.7605205, 9.284152, -0.11748856, 0.6478069, 10.415745
771877328720496, -0.25603202, 3.1920254, 8.867801, 0.07835841, -0.6096468, 9.408223
771877338360288, -0.44027936, 4.5523453, 9.383454, -0.25593632, 0.38915706, 10.428326
771877348000079, -0.16749759, 3.5294135, 8.968299, 0.12514812, -0.31777453, 9.633202
771877357639871, -0.39720857, 4.1001015, 9.296116, -0.15331912, 0.02377224, 10.166725
771877367279558, -0.025124637, 4.040281, 8.955139, 0.18761843, 0.17223454, 9.821108
771877376919350, -0.35294133, 3.5928233, 9.077172, -0.05235958, -0.33902717, 9.762701
771877386559142, -0.06460621, 4.554738, 9.195618, 0.09012455, 0.54023147, 10.247402
771877396198933, -0.2727818, 3.2745779, 9.101101, 0.06568599, -0.6193018, 9.656059
771877405838725, -0.17826529, 4.7976093, 9.337991, -0.033397317, 0.6748109, 10.478093
771877415478413, -0.13878371, 3.2961133, 8.804391, 0.17114884, -0.4614892, 9.389284
771877425118204, -0.35533416, 4.7102714, 9.158528, -0.20388114, 0.6348574, 10.283335
771877434757996, -0.20219351, 3.473182, 8.790034, 0.07719296, -0.31386328, 9.447969
771877444397788, -0.4546363, 4.191029, 9.293723, -0.22361743, 0.10072327, 10.202184
771877454037475, -0.11246266, 4.019942, 9.116654, 0.12442136, 0.06675434, 9.963235
771877463677267, -0.44027936, 3.7100716, 9.281759, -0.15184855, -0.32676744, 9.998986
771877473317058, -0.106480606, 4.5487556, 9.159725, 0.076798856, 0.53145146, 10.213459
771877482956850, -0.31585258, 3.3044882, 8.968299, 0.0047050714, -0.5536411, 9.546898
771877492596642, -0.20458634, 4.814359, 9.219545, -0.0499385, 0.73649645, 10.3766575
771877502236329, -0.27038896, 3.2338998, 8.852247, 0.03983891, -0.5765736, 9.4106045
771877511876121, -0.36490545, 4.6612186, 9.343972, -0.18465221, 0.5147555, 10.43412
771877521515913, -0.148355, 3.4516466, 8.920443, 0.13445169, -0.3784926, 9.557657
771877531155704, -0.38644084, 4.202993, 9.35833, -0.15122414, 0.09532523, 10.2645445
771877540795496, -0.058624156, 3.888337, 9.01137, 0.17914838, -0.0069162846, 9.813016
771877550435183, -0.3589234, 3.6753755, 9.160921, -0.08486241, -0.29732466, 9.872391
771877560074975, -0.07178468, 4.415954, 9.104691, 0.12660515, 0.43293405, 10.109291
771877569714767, -0.32063824, 3.2889347, 9.052048, -0.023108423, -0.6014025, 9.617549
771877579354558, -0.15792629, 4.733003, 9.357133, 0.03487295, 0.61352897, 10.46922
771877588994350, -0.23090738, 3.1477582, 8.989835, 0.07319993, -0.6851189, 9.502846
771877598634038, -0.317049, 4.682754, 9.416953, -0.11196202, 0.5443773, 10.507085
771877608273829, -0.14356937, 3.377469, 8.974281, 0.14439568, -0.45539927, 9.577964
771877617913621, -0.4139583, 4.269992, 9.401401, -0.1802563, 0.1500361, 10.331288
771877627553413, -0.086141616, 3.8668015, 9.005388, 0.1549434, -0.016654253, 9.799609
771877637193204, -0.4127619, 3.760321, 9.211171, -0.13926333, -0.2384634, 9.953884
771877646832892, -0.111266255, 4.334598, 9.044869, 0.08286774, 0.39149737, 10.022507
771877656472683, -0.3684947, 3.3008988, 8.993423, -0.060071886, -0.57037735, 9.569977
771877666112475, -0.16390835, 4.7988057, 9.29133, 0.0037695765, 0.7140877, 10.434285
771877675752267, -0.27996024, 3.2470603, 9.050852, 0.033299983, -0.62062216, 9.599657
771877685392058, -0.29910284, 4.7306104, 9.381062, -0.11914986, 0.5982268, 10.492873
771877695031746, -0.14237295, 3.32722, 8.793623, 0.13723236, -0.44366956, 9.391635
771877704671538, -0.37328035, 4.29392, 9.280562, -0.15526831, 0.22513342, 10.228935
771877714311329, -0.06580263, 3.7770705, 8.956335, 0.18324888, -0.08459759, 9.718321
771877723951121, -0.4139583, 3.818945, 9.270991, -0.14420235, -0.21248889, 10.032
771877733590913, -0.096909314, 4.325027, 9.182457, 0.11213142, 0.3279531, 10.144588
771877743230600, -0.36490545, 3.377469, 9.153743, -0.055173278, -0.5580361, 9.747669
771877752870392, -0.14237295, 4.738985, 9.297313, 0.017853737, 0.6550009, 10.415804
771877762510183, -0.25603202, 3.1956146, 8.955139, 0.06858611, -0.63088775, 9.490484
771877772149975, -0.25842485, 4.7748775, 9.304491, -0.09350932, 0.66582155, 10.43972
771877781789767, -0.16510476, 3.3714871, 8.849854, 0.12954015, -0.43067575, 9.46107
771877791429454, -0.40558344, 4.4279184, 9.290133, -0.20203346, 0.3313098, 10.292084
771877801069246, -0.05503492, 3.7423747, 8.928818, 0.19461346, -0.104843855, 9.679014
771877810709038, -0.37806597, 3.888337, 9.221938, -0.12151688, -0.13159347, 10.013697
771877820348829, -0.09092726, 4.314259, 9.064013, 0.101035476, 0.35603714, 10.031971
771877829988621, -0.4031906, 3.4169507, 9.079565, -0.10632795, -0.50542545, 9.695869
771877839628413, -0.14356937, 4.6767716, 9.225528, 0.017055333, 0.61121535, 10.326146
771877849268100, -0.2620141, 3.1776686, 8.9348, 0.05770719, -0.64697576, 9.464406
771877858907892, -0.2847459, 4.7688956, 9.269794, -0.12325603, 0.65475297, 10.407145
771877868547683, -0.21415763, 3.2877383, 8.867801, 0.08753312, -0.525167, 9.445079
771877878187475, -0.39601216, 4.496114, 9.391829, -0.19260699, 0.34159064, 10.412711
771877887827267, -0.12083755, 3.7471602, 8.989835, 0.13685423, -0.13473105, 9.738381
771877897466954, -0.44506502, 3.9816568, 9.297313, -0.18696296, -0.08392811, 10.121744
771877907106746, -0.10289137, 4.26401, 9.02812, 0.11004865, 0.3192935, 9.97924
771877916746538, -0.38883367, 3.475575, 9.064013, -0.10652202, -0.4492228, 9.704329
771877926386329, -0.10767702, 4.6695933, 9.23151, 0.08174747, 0.60316133, 10.327972
771877936026121, -0.2883351, 3.1932218, 8.995817, 0.023064137, -0.6706557, 9.526501
771877945665808, -0.22253251, 4.6899323, 9.363115, -0.034763575, 0.5687411, 10.458883
771877955305600, -0.13040884, 3.211168, 8.962317, 0.18439841, -0.6093991, 9.499809
771877964945392, -0.2955136, 4.5008993, 9.383454, -0.08841586, 0.3791256, 10.403994
771877974585183, -0.08015956, 3.6335013, 8.961121, 0.18751463, -0.21759343, 9.6658125
771877984224975, -0.4223332, 4.0091743, 9.267402, -0.17022318, -0.043215513, 10.104739
771877993864767, -0.0849452, 4.2041893, 9.020942, 0.12089831, 0.27696514, 9.948293
771878003504454, -0.4127619, 3.5437703, 9.113065, -0.11338085, -0.4052453, 9.777502
771878013144246, -0.17347965, 4.6229334, 9.189635, 0.0012595057, 0.57555866, 10.272281
771878022784038, -0.35294133, 3.2135608, 8.983852, -0.02213192, -0.65356207, 9.525414
771878032423829, -0.27996024, 4.766503, 9.284152, -0.10794181, 0.6628809, 10.418367
771878042063621, -0.19860429, 3.229114, 8.921639, 0.11768657, -0.59468126, 9.470732
771878051703413, -0.34456646, 4.5726843, 9.407382, -0.14271408, 0.4166541, 10.456245
771878061343100, -0.104087785, 3.5856447, 8.957532, 0.1733914, -0.26172447, 9.643989
771878070982892, -0.4211368, 4.06062, 9.303294, -0.16614467, -0.014727116, 10.15822
771878080622683, -0.076570325, 4.080959, 9.053245, 0.15439725, 0.15302467, 9.92845
771878090262475, -0.39720857, 3.5509489, 9.175279, -0.091447294, -0.419904, 9.837077
771878099902267, -0.12562318, 4.5535417, 9.273384, 0.06727666, 0.49439096, 10.319751
771878109542058, -0.29671, 3.2327034, 9.030513, 0.025672078, -0.6452, 9.574529
771878119181746, -0.22851457, 4.759324, 9.257831, -0.06089437, 0.66367173, 10.390699
771878128821538, -0.22253251, 3.2147572, 8.801998, 0.0797528, -0.56484795, 9.355957
771878138461329, -0.3481557, 4.6229334, 9.296116, -0.15795612, 0.5067179, 10.37443
771878148101121, -0.10887343, 3.5772698, 8.967103, 0.16687125, -0.27540588, 9.649555
771878157740913, -0.4139583, 4.1778684, 9.382257, -0.16761225, 0.05917144, 10.277212
771878167380704, -0.0741775, 4.058227, 9.085547, 0.1621558, 0.11538029, 9.948982
771878177020392, -0.37088752, 3.6251264, 9.171689, -0.07703757, -0.34969616, 9.862594
771878186660183, -0.083748795, 4.554738, 9.1669035, 0.09931034, 0.53479075, 10.221982
771878196299975, -0.27158538, 3.2566316, 9.044869, 0.055210352, -0.6176095, 9.597115
771878205939767, -0.13280165, 4.7772703, 9.315259, 0.030746818, 0.6801095, 10.447513
771878215579558, -0.2009971, 3.1836505, 8.878569, 0.11794168, -0.6075704, 9.413923
771878225219350, -0.34456646, 4.6169515, 9.29133, -0.16611546, 0.5130062, 10.3669195
771878234859142, -0.18185452, 3.4672, 8.914461, 0.09706819, -0.37247276, 9.558976
771878244498829, -0.4833502, 4.214957, 9.353543, -0.24538672, 0.10060358, 10.267325
771878254138621, -0.19142582, 4.0067816, 8.997013, 0.03767115, 0.09279132, 9.850238
771878263778413, -0.47258246, 3.7005002, 9.136993, -0.19481945, -0.27795935, 9.863391
771878273418204, -0.104087785, 4.5332026, 9.101101, 0.0848518, 0.53783274, 10.153537
771878283057996, -0.31585258, 3.2913275, 9.0341015, -0.012803793, -0.5882013, 9.6021595
771878292697788, -0.19142582, 4.766503, 9.3104725, -0.003158629, 0.65418386, 10.440936
771878302337579, -0.22492532, 3.1357942, 8.938389, 0.081235796, -0.6809459, 9.450306
771878311977267, -0.3062813, 4.5738807, 9.376275, -0.09975588, 0.43942833, 10.42716
771878321617058, -0.09810573, 3.3667014, 8.980264, 0.20053193, -0.4669571, 9.577641
771878331256850, -0.40079778, 4.24726, 9.389436, -0.15805662, 0.13240361, 10.311103
771878340896642, -0.14117654, 3.912265, 9.008977, 0.103018224, 0.016841173, 9.822245
771878350536433, -0.49292147, 3.7076788, 9.2075815, -0.2023068, -0.2977574, 9.931759
771878360176225, -0.16151553, 4.4638104, 9.122637, 0.022796333, 0.47625327, 10.146272
771878369816017, -0.40677986, 3.3487554, 9.068798, -0.0745756, -0.5601456, 9.659369
771878379455704, -0.19501504, 4.8119664, 9.326026, -0.037282765, 0.70024085, 10.472634
771878389095496, -0.22013968, 3.2566316, 8.894122, 0.107801974, -0.5379274, 9.458254
771878398735288, -0.2548356, 4.753342, 9.275777, -0.09481299, 0.6642592, 10.40428
771878408375079, -0.0741775, 3.4217365, 8.868998, 0.23464376, -0.3539486, 9.496976
771878418014871, -0.317049, 4.334598, 9.300901, -0.093387365, 0.25363111, 10.2627
771878427654663, -0.0741775, 3.8500516, 8.924032, 0.17576188, 0.0053009987, 9.717811
771878437294454, -0.46660042, 3.743571, 9.153743, -0.17876947, -0.24222016, 9.896083
771878446934246, -0.13758731, 4.3525443, 9.107083, 0.067472994, 0.38661313, 10.087048
771878456573933, -0.41156548, 3.2877383, 9.126225, -0.059987724, -0.63038087, 9.688428
771878466213725, -0.21774685, 4.7078786, 9.391829, -0.020163476, 0.59622765, 10.491048
771878475853517, -0.29192436, 3.199204, 9.049655, 0.06503743, -0.66126347, 9.579922
771878485493308, -0.26081768, 4.725825, 9.467203, -0.052852213, 0.56912947, 10.56895
771878495133100, -0.10049855, 3.333202, 8.87139, 0.21899122, -0.431664, 9.465073
771878504772892, -0.37686956, 4.375276, 9.333204, -0.1345712, 0.29068637, 10.309762
771878514412683, -0.104087785, 3.8333018, 8.965906, 0.16352916, -0.020148754, 9.750148
771878524052475, -0.46061835, 3.900301, 9.241081, -0.17499125, -0.11710286, 10.038815
771878533692267, -0.15074782, 4.359723, 9.083155, 0.066821635, 0.40909767, 10.06786
771878543332058, -0.43788654, 3.4013975, 9.049655, -0.11335546, -0.4957552, 9.66431
771878552971746, -0.22851457, 4.715057, 9.219545, -0.036303878, 0.6714616, 10.335948
771878562611538, -0.2943172, 3.1752756, 8.9312105, 0.037237823, -0.63852024, 9.461842
771878572251329, -0.2835495, 4.712664, 9.38465, -0.07375932, 0.58730435, 10.488609
771878581891121, -0.17228323, 3.2566316, 8.956335, 0.15081364, -0.5482137, 9.51462
771878591530913, -0.41515473, 4.336991, 9.44806, -0.16628325, 0.21397209, 10.400683
771878601170704, -0.11964113, 3.6885362, 9.0436735, 0.16466299, -0.18936872, 9.76446
771878610810496, -0.39960137, 3.8955152, 9.318848, -0.11183214, -0.14141512, 10.106588
771878620450288, -0.08255238, 4.2568316, 9.142975, 0.1488738, 0.297904, 10.080204
771878630090079, -0.36251262, 3.3990045, 9.162118, -0.035378456, -0.5256865, 9.764808
771878639729767, -0.1268196, 4.6169515, 9.316455, 0.07830298, 0.54797626, 10.383749
771878649369558, -0.24765715, 3.1549366, 8.963513, 0.085306525, -0.664948, 9.482094
771878659009350, -0.23569304, 4.755735, 9.286545, -0.048843443, 0.6688268, 10.414547
771878668649142, -0.1471586, 3.3128629, 8.76491, 0.14567736, -0.42303586, 9.360565
771878678288933, -0.35533416, 4.546363, 9.196814, -0.16188318, 0.49269104, 10.252225
771878687928725, -0.12562318, 3.7423747, 8.865408, 0.12522334, -0.07477808, 9.622647
771878697568517, -0.40797627, 4.0091743, 9.274581, -0.15184027, -0.026106358, 10.111085
771878707208308, -0.10289137, 4.202993, 9.132208, 0.12561229, 0.2392242, 10.049873
771878716848100, -0.4534399, 3.367898, 9.203992, -0.14231169, -0.5931897, 9.792331
771878726487892, -0.2321038, 4.5487556, 9.38465, -0.018330634, 0.44632626, 10.421956
771878736127683, -0.3469593, 3.1106694, 9.105886, -0.015755773, -0.77025485, 9.59793
771878745767475, -0.30987054, 4.6707897, 9.47797, -0.10538137, 0.5016248, 10.55848
771878755407267, -0.24885355, 3.176472, 8.977871, 0.056297004, -0.64758205, 9.504291
771878765046954, -0.36370903, 4.503292, 9.431311, -0.14900625, 0.3721199, 10.449923
771878774686746, -0.0526421, 3.6550367, 8.95155, 0.20606488, -0.18034744, 9.665263
771878784326538, -0.3469593, 4.0845485, 9.219545, -0.10842985, 0.06590748, 10.088997
771878793966329, 0.0011964113, 4.2448673, 8.902496, 0.18898827, 0.37404776, 9.853816
771878803606121, -0.34217364, 3.583252, 8.991031, -0.083901346, -0.3039961, 9.6796665
771878813245913, -0.05383851, 4.6396832, 9.129815, 0.11558443, 0.6330941, 10.2210045
771878822885704, -0.24047868, 3.2135608, 8.950353, 0.047335446, -0.61700845, 9.492666
771878832525496, -0.16510476, 4.770092, 9.284152, -0.015735567, 0.6795654, 10.4170265
771878842165288, -0.20578274, 3.2422748, 8.843872, 0.07063329, -0.5449512, 9.405679
771878851805079, -0.40917268, 4.5655055, 9.363115, -0.2281478, 0.43334675, 10.413422
771878861444871, -0.19860429, 3.6047873, 8.967103, 0.054910004, -0.2613175, 9.662898
771878871084663, -0.48095736, 4.1778684, 9.337991, -0.25720423, 0.07926941, 10.237751
771878880724454, -0.26081768, 3.8548372, 8.995817, -0.029814243, -0.055348158, 9.790227
771878890364246, -0.33020952, 4.063013, 9.159725, -0.10400766, 0.059789658, 10.025133
771878900004038, -0.25842485, 3.9864426, 9.165708, -0.022530735, -0.0027692318, 9.998412
771878909643829, -0.2620141, 3.9637108, 9.18126, -0.023505092, -0.029664993, 10.003687
771878919283517, -0.20817557, 3.8811584, 9.217153, 0.03862053, -0.112645626, 10.002422
771878928923308, -0.14596218, 3.8751762, 9.269794, 0.104839265, -0.13140464, 10.046848
771878938563100, -0.11485548, 3.8536408, 9.276974, 0.13319206, -0.15129423, 10.04417
771878948202892, -0.13040884, 3.8739798, 9.229117, 0.11132401, -0.11262131, 10.008808
771878957842683, -0.17587246, 3.8955152, 9.178867, 0.057020366, -0.077424526, 9.97238
771878967482475, -0.14356937, 3.9613178, 9.131011, 0.07657623, 0.0055286884, 9.9539995
771878977122267, -0.12921242, 4.005585, 9.073584, 0.0807451, 0.06937218, 9.91867
771878986762058, -0.16390835, 4.0307097, 8.989835, 0.033926368, 0.11577463, 9.852718
771878996401850, -0.23569304, 4.019942, 8.961121, -0.038238823, 0.108389854, 9.823644
771879006041642, -0.2428715, 4.0366917, 9.01137, -0.042422414, 0.09884858, 9.876593
771879015681433, -0.28713873, 4.031906, 9.067601, -0.08049685, 0.06687093, 9.927194
771879025321225, -0.29910284, 4.024728, 9.122637, -0.08629304, 0.03755927, 9.975047
771879034961017, -0.30987054, 4.042674, 9.190832, -0.09227514, 0.027354002, 10.044967
771879044600808, -0.32303107, 4.022335, 9.194421, -0.10341692, 0.0060236454, 10.040426
771879054240600, -0.2943172, 3.9924245, 9.195618, -0.06910694, -0.01790142, 10.028977
771879063880392, -0.22612174, 3.9565322, 9.21476, 0.0031139255, -0.051700592, 10.030673
771879073520183, -0.21774685, 3.952943, 9.199206, 0.011190116, -0.04753828, 10.014797
771879083159975, -0.2321038, 3.9230328, 9.215957, -0.0015171766, -0.081314564, 10.018547
771879092799767, -0.22731815, 3.9361932, 9.223135, 0.003292203, -0.07160711, 10.0302725
771879102439558, -0.18544376, 3.9696927, 9.202796, 0.039197743, -0.02793622, 10.024071
771879112079350, -0.17467605, 3.9804604, 9.119047, 0.04025954, 0.012563705, 9.951374
771879121719142, -0.14356937, 4.004389, 9.040084, 0.061798096, 0.066108465, 9.887905
771879131358933, -0.13280165, 4.024728, 8.99821, 0.066107035, 0.09951639, 9.857465
771879140998725, -0.15074782, 4.031906, 8.993423, 0.045504153, 0.104338646, 9.856354
771879150638517, -0.18903299, 3.9948175, 9.040084, 0.01493901, 0.04673314, 9.885091
771879160278308, -0.2009971, 3.9637108, 9.102298, 0.010359168, -0.0075576305, 9.929907
771879169918100, -0.21774685, 3.9900317, 9.183653, -0.0013417602, -0.016013145, 10.015337
771879179557892, -0.26799613, 4.005585, 9.212367, -0.050885916, -0.019438028, 10.048944
771879189197683, -0.276371, 4.0091743, 9.153743, -0.060124338, 0.0053880215, 9.9968605
771879198837475, -0.25722843, 4.0271206, 9.113065, -0.045012236, 0.039441824, 9.966356
771879208477267, -0.25842485, 3.987639, 9.090333, -0.043313563, 0.012376785, 9.929763
771879218117058, -0.24885355, 3.9744785, 9.103494, -0.030816495, -0.0043947697, 9.93635
771879227756850, -0.22851457, 3.9768713, 9.144172, -0.008148611, -0.015257359, 9.974133
771879237396642, -0.19980069, 3.9852462, 9.129815, 0.018153548, 0.0019886494, 9.963699
771879247036433, -0.19860429, 3.9960139, 9.122637, 0.017356694, 0.015120745, 9.961402
771879256676225, -0.19501504, 3.9445682, 9.12503, 0.02792573, -0.030831337, 9.942942
771879266316017, -0.16749759, 3.9074793, 9.169296, 0.06324589, -0.07787871, 9.968068
771879275955808, -0.20219351, 3.9110687, 9.201599, 0.02984649, -0.09121966, 9.999878
771879285595600, -0.23928227, 3.912265, 9.215957, -0.0060474873, -0.09813547, 10.014353
771879295235392, -0.23449662, 3.979264, 9.23151, -0.0077938437, -0.039425135, 10.055283
771879304875183, -0.23808585, 4.0235314, 9.189635, -0.01800567, 0.017110586, 10.034656
771879314514975, -0.19262223, 4.046263, 9.122637, 0.019576848, 0.065974236, 9.9813385
771879324154767, -0.18783657, 4.0797625, 9.02812, 0.013701141, 0.13105512, 9.908045
771879333794558, -0.21894327, 4.080959, 8.956335, -0.021610439, 0.15709329, 9.843422
771879343434350, -0.22013968, 4.06062, 8.946764, -0.021050334, 0.13869143, 9.826595
771879353074142, -0.2536392, 4.011567, 8.963513, -0.049455345, 0.081030846, 9.823062
771879362713933, -0.2727818, 3.9960139, 9.055637, -0.061471164, 0.026772738, 9.901648
771879372353725, -0.276371, 3.9816568, 9.175279, -0.05403036, -0.033350706, 10.005583
771879381993517, -0.2739782, 3.987639, 9.267402, -0.043747365, -0.061193228, 10.092345
771879391633308, -0.276371, 3.9900317, 9.296116, -0.041869044, -0.068067074, 10.119689
771879401273100, -0.28115666, 3.9661036, 9.230313, -0.047249496, -0.062551975, 10.049953
771879410912892, -0.24885355, 3.9613178, 9.195618, -0.015749395, -0.04870057, 10.015525
771879420552683, -0.18903299, 3.9517467, 9.142975, 0.040172458, -0.029855013, 9.962106
771879430192475, -0.17587246, 3.9278183, 9.142975, 0.05469507, -0.05010271, 9.952244
771879439832267, -0.16390835, 3.938586, 9.107083, 0.062821984, -0.024096966, 9.923394
771879449472058, -0.14955142, 3.958925, 9.093923, 0.071933925, 0.0012285709, 9.919161
771879459111850, -0.14237295, 3.9445682, 9.109476, 0.07980311, -0.016370296, 9.927528
771879468751642, -0.13878371, 3.952943, 9.138189, 0.084625185, -0.019110441, 9.957109
771879478391433, -0.17108682, 3.9948175, 9.109476, 0.044561088, 0.026650667, 9.948252
771879488031225, -0.21415763, 4.001996, 9.102298, 6.494522E-4, 0.0295043, 9.945491
771879497671017, -0.23330021, 4.0307097, 9.085547, -0.022483826, 0.058698416, 9.942046
771879507310808, -0.23808585, 4.0510488, 9.109476, -0.024702013, 0.06744838, 9.972214
771879516950600, -0.2644069, 4.0331025, 9.171689, -0.043964624, 0.023328066, 10.022636
771879526590392, -0.23928227, 4.034299, 9.189635, -0.017012954, 0.02012539, 10.0390005
771879536230183, -0.2440679, 4.0091743, 9.135797, -0.02144301, 0.01611042, 9.979734
771879545869975, -0.28594232, 3.9673, 9.0747795, -0.061671495, -0.0043082237, 9.90803
771879555509871, -0.2847459, 3.958925, 9.06162, -0.06049657, -0.0065755844, 9.892595
771879565149663, -0.26919255, 4.0007997, 9.102298, -0.045651972, 0.018012047, 9.94627
771879574789454, -0.24526432, 4.0366917, 9.120243, -0.023715913, 0.04732895, 9.976526
771879584429246, -0.23090738, 4.0677986, 9.109476, -0.013516843, 0.08042073, 9.978789
771879594069038, -0.24765715, 4.024728, 9.0951185, -0.025937438, 0.04273224, 9.948793
771879603708829, -0.23808585, 3.9720855, 9.139386, -0.0066464543, -0.022129774, 9.968049
771879613348621, -0.2321038, 3.9170506, 9.233903, 0.013965309, -0.10829687, 10.032457
771879622988413, -0.24047868, 3.92064, 9.237492, 0.003092587, -0.10554409, 10.037397
771879632628204, -0.2548356, 3.900301, 9.229117, -0.009584427, -0.122718096, 10.021913
771879642267996, -0.1902294, 3.8739798, 9.211171, 0.055825114, -0.12888122, 9.993492
771879651907788, -0.13160525, 3.970889, 9.174082, 0.09615028, -0.01731205, 9.996975
771879661547579, -0.14237295, 4.0366917, 9.090333, 0.07218522, 0.07309055, 9.9467945
771879671187371, -0.16031912, 4.048656, 8.988638, 0.043524623, 0.119502544, 9.858841
771879680827163, -0.19262223, 4.0510488, 8.941978, 0.0051478744, 0.1327138, 9.817812
771879690466954, -0.2440679, 4.0761733, 9.031709, -0.041723073, 0.113301516, 9.911204
771879700106746, -0.27756742, 4.0331025, 9.1465645, -0.062348783, 0.023626804, 9.999909
771879709746538, -0.2321038, 4.0414777, 9.140582, -0.018765748, 0.037902117, 9.996793
771879719386329, -0.18903299, 4.0151563, 9.078369, 0.022731483, 0.042334557, 9.928328
771879729026121, -0.21774685, 3.9338005, 9.046066, 7.867813E-4, -0.024966002, 9.866757
771879738666017, -0.24047868, 3.926622, 9.098708, -0.017157257, -0.055252314, 9.912584
771879748305808, -0.2105684, 3.9457645, 9.255438, 0.020816743, -0.09148741, 10.063189
771879757945600, -0.25004998, 3.9900317, 9.476774, -0.008115709, -0.14371204, 10.284523
771879767585392, -0.2416751, 3.918247, 9.26142, -0.008700907, -0.12286401, 10.058321
771879777225183, -0.21296121, 3.958925, 9.132208, 0.0044291615, -0.034042597, 9.9556265
771879786864975, -0.18903299, 3.9457645, 9.013762, 0.020680666, 0.0028948784, 9.841355
771879796504767, -0.22492532, 3.9649072, 9.012567, -0.017223656, 0.015853643, 9.8487
771879806144558, -0.22971097, 4.005585, 9.108279, -0.01979351, 0.016101122, 9.952767
771879815784350, -0.18424734, 4.0390844, 9.1465645, 0.024748802, 0.03729534, 10.00029
771879825424142, -0.2105684, 4.0354953, 9.150154, -7.196665E-4, 0.029221058, 10.002703
771879835063933, -0.20219351, 4.052245, 9.06162, -7.0148706E-4, 0.07818246, 9.928164
771879844703725, -0.19980069, 4.0534415, 9.071191, 0.002944827, 0.07122278, 9.937389
771879854343517, -0.22492532, 4.0211387, 9.0951185, -0.016649008, 0.0291152, 9.94687
