timestamp_acc,device_acc_x,device_acc_y,device_acc_z,earth_acc_x,earth_acc_y,earth_acc_z
771607698919911, 0.38763726, 6.984649, 6.916454, -0.02664712, 0.06732082, 9.837057
771607708558869, 0.34576288, 6.987042, 6.95115, -0.06501123, 0.038363934, 9.861597
771607718197932, 0.3074777, 6.987042, 7.0301127, -0.09598732, -0.02204895, 9.915951
771607727836890, 0.31585258, 6.9990063, 7.103094, -0.08494192, -0.06341553, 9.9764
771607737475952, 0.38524446, 7.01097, 7.1186476, -0.014181018, -0.057044983, 9.99869
771607747114911, 0.42951167, 7.021738, 7.0935225, 0.028338522, -0.025804996, 9.99029
771607756753973, 0.49172506, 7.0193453, 7.076773, 0.08932608, -0.008042812, 9.979263
771607766392932, 0.47138608, 7.0348988, 7.1066833, 0.068570316, -0.02112341, 10.010586
771607776031994, 0.45702913, 7.024131, 7.117451, 0.055209547, -0.03786373, 10.010042
771607785670952, 0.43788654, 7.0265236, 7.082755, 0.033109963, -0.015050888, 9.986384
771607795310015, 0.39601216, 7.0229344, 6.99781, -0.013316035, 0.032969475, 9.922022
771607804948973, 0.3804588, 7.01097, 6.9320073, -0.030853778, 0.06917143, 9.866381
771607814588036, 0.36251262, 7.0061846, 6.8745794, -0.051009297, 0.10118723, 9.821663
771607824226994, 0.3792624, 7.0133634, 6.8685975, -0.036601663, 0.109232426, 9.823212
771607833866057, 0.38763726, 6.987042, 6.9152575, -0.023290426, 0.056580544, 9.837992
771607843505015, 0.39481574, 6.943971, 6.98106, -0.00849691, -0.021615028, 9.854404
771607853144077, 0.4223332, 6.948757, 6.9966135, 0.018800586, -0.026406765, 9.869911
771607862783140, 0.43669012, 6.95115, 6.9906316, 0.03259626, -0.018530846, 9.867964
771607872422098, 0.40677986, 6.9415784, 7.0097737, 0.005736023, -0.043370247, 9.8735
771607882061161, 0.4103691, 6.937989, 6.9798636, 0.010199338, -0.02687931, 9.849962
771607891700119, 0.4139583, 6.95115, 6.91765, 0.008287221, 0.025353909, 9.815447
771607901339182, 0.44985065, 6.9523463, 6.9116683, 0.043372363, 0.035025597, 9.813538
771607910978140, 0.47138608, 6.977471, 6.95115, 0.06319553, 0.026307106, 9.860077
771607920617202, 0.45224348, 6.9858456, 6.983453, 0.041252613, 0.0077900887, 9.888044
771607930256161, 0.44626144, 7.0193453, 7.036095, 0.033192873, -0.0062036514, 9.948663
771607939895223, 0.4319045, 7.021738, 7.0325055, 0.018479794, -0.003718853, 9.947219
771607949534182, 0.3804588, 7.0085773, 6.9858456, -0.033528894, 0.013876438, 9.902809
771607959173244, 0.37208393, 6.995417, 6.927222, -0.042643845, 0.04378128, 9.85175
771607968812202, 0.36131623, 6.9738817, 6.882954, -0.051885962, 0.056885242, 9.80483
771607978451265, 0.33140594, 6.9655066, 6.8709903, -0.07903391, 0.053173065, 9.789258
771607988090223, 0.3684947, 6.983453, 6.9116683, -0.042249322, 0.04118061, 9.832197
771607997729286, 0.39720857, 6.984649, 6.9344, -0.0116147995, 0.02938795, 9.85028
771608007368244, 0.43788654, 6.9894347, 6.9655066, 0.030463725, 0.01597166, 9.8773
771608017007307, 0.4438686, 6.9942207, 6.9966135, 0.03847879, -0.002055645, 9.902893
771608026646369, 0.43908295, 7.0025954, 7.0229344, 0.03451085, -0.015338898, 9.9272
771608036285327, 0.42951167, 7.0133634, 6.9942207, 0.023353755, 0.010386467, 9.914143
771608045924390, 0.41156548, 7.025327, 6.984649, 0.0052945316, 0.022144794, 9.915112
771608055563348, 0.38644084, 7.0468626, 6.99781, -0.019245863, 0.022653103, 9.938615
771608065202411, 0.39481574, 7.056434, 7.0133634, -0.010964036, 0.019620419, 9.956702
771608074841369, 0.39720857, 7.0636125, 7.02772, -0.008499116, 0.0146455765, 9.972009
771608084480432, 0.39361933, 7.0528445, 7.0600233, -0.009409457, -0.016185284, 9.987047
771608094119390, 0.36610186, 7.0229344, 7.0731835, -0.033603013, -0.04971361, 9.974064
771608103758452, 0.36251262, 7.0205417, 7.0528445, -0.038329065, -0.037439823, 9.957869
771608113397411, 0.36490545, 6.995417, 7.0002027, -0.03606543, -0.017798424, 9.903042
771608123036473, 0.39361933, 6.977471, 6.9344, -0.009350032, 0.01908493, 9.845074
771608132675432, 0.44865423, 7.003792, 6.8853474, 0.039269924, 0.07616854, 9.831331
771608142314494, 0.4642076, 7.0325055, 6.9224358, 0.053046018, 0.07010889, 9.878462
771608151953452, 0.3684947, 7.0061846, 6.9858456, -0.03527206, -0.004564762, 9.900668
771608161592515, 0.36131623, 7.003792, 6.954739, -0.042438626, 0.011611462, 9.876746
771608171231577, 0.37567315, 6.9906316, 6.8865438, -0.03006056, 0.05031538, 9.819934
771608180870536, 0.40438703, 6.9619174, 6.855437, -4.811585E-4, 0.054423332, 9.778849
771608190509598, 0.43429732, 6.9655066, 6.8662047, 0.02939576, 0.053010464, 9.790199
771608200148557, 0.43788654, 6.9678993, 6.9535427, 0.03664705, -0.006511688, 9.853617
771608209787619, 0.41994038, 6.963114, 7.0348988, 0.023018539, -0.0685277, 9.906859
771608219426577, 0.44506502, 6.991828, 7.036095, 0.042834908, -0.04506111, 9.929075
771608229065640, 0.4211368, 6.991828, 7.0289164, 0.018591553, -0.04189682, 9.923033
771608238704598, 0.3912265, 7.0193453, 6.9858456, -0.017065704, 0.0032019615, 9.910902
771608248343661, 0.36729828, 7.0348988, 6.960721, -0.041075736, 0.026731491, 9.903231
771608257982619, 0.38644084, 7.0229344, 6.9583282, -0.01939115, 0.021276474, 9.893858
771608267621682, 0.41994038, 7.0169525, 6.957132, 0.014263928, 0.02213335, 9.890146
771608277260744, 0.39481574, 7.0205417, 6.987042, -0.008897543, -4.849434E-4, 9.912748
771608286899702, 0.37328035, 7.0229344, 7.001399, -0.030026823, -0.0119485855, 9.923683
771608296538765, 0.40677986, 7.0337024, 6.9738817, 4.8315525E-4, 0.019082546, 9.9132805
771608306177723, 0.4319045, 7.0504518, 6.937989, 0.021320075, 0.058820248, 9.900868
771608315816786, 0.39960137, 7.0301127, 6.9116683, -0.010411799, 0.058333397, 9.866601
771608325455744, 0.3696911, 7.0193453, 6.914061, -0.039741248, 0.042619705, 9.859448
771608335094807, 0.36490545, 6.9882383, 6.879365, -0.043100655, 0.044741154, 9.812769
771608344733765, 0.3804588, 6.9738817, 6.8685975, -0.0263744, 0.043226242, 9.795654
771608354372827, 0.39601216, 6.954739, 6.8614187, -0.008883476, 0.03585148, 9.777676
771608364011786, 0.3924229, 6.957132, 6.9296145, -0.0078042448, -0.011870384, 9.827259
771608373650848, 0.3792624, 6.9523463, 6.977471, -0.016000539, -0.050020695, 9.857042
771608383289807, 0.39840496, 6.9822564, 7.0205417, 0.0035030246, -0.05607128, 9.909364
771608392928869, 0.45224348, 7.0133634, 7.042077, 0.055484205, -0.042084217, 9.948758
771608402567827, 0.49292147, 7.038488, 6.99781, 0.089940965, 0.0121741295, 9.93702
771608412206890, 0.48095736, 7.04447, 6.9786673, 0.07589504, 0.028386116, 9.92729
771608421845848, 0.42592242, 7.0492554, 6.9415784, 0.016053706, 0.049352646, 9.902334
771608431484911, 0.40677986, 7.0540414, 6.975078, -0.0025197864, 0.026370049, 9.928545
771608441123973, 0.37806597, 7.0576305, 6.9762745, -0.031396925, 0.024445057, 9.9307575
771608450762932, 0.3385844, 7.055238, 7.0133634, -0.06886044, -0.008271694, 9.953567
771608460401994, 0.3182454, 7.0372915, 6.977471, -0.087895066, 0.001964569, 9.914743
771608470040952, 0.3684947, 7.018149, 6.9009004, -0.039087802, 0.047947884, 9.849305
771608479680015, 0.39960137, 7.007381, 6.8446693, -0.0101778805, 0.08353853, 9.803341
771608489318973, 0.43788654, 7.001399, 6.863812, 0.028962731, 0.06922722, 9.814154
771608498958036, 0.42711884, 6.9882383, 6.942775, 0.022956133, 0.0025353432, 9.859994
771608508596994, 0.39960137, 6.975078, 6.9894347, -0.0010905862, -0.042734146, 9.882398
771608518236057, 0.4331009, 6.969096, 6.9523463, 0.030354947, -0.016070843, 9.853417
771608527875015, 0.49052864, 6.98106, 6.942775, 0.085154206, 0.0060515404, 9.857517
771608537514077, 0.42592242, 6.9798636, 6.963114, 0.022509247, -0.017294407, 9.868336
771608547153036, 0.37447673, 6.9762745, 6.9595246, -0.027737588, -0.024002075, 9.861149
771608556792098, 0.37088752, 6.99781, 6.96431, -0.03152436, -0.01316452, 9.8796425
771608566431057, 0.34576288, 7.0193453, 6.942775, -0.05840105, 0.013792515, 9.878729
771608576070119, 0.3589234, 7.0145597, 6.8889365, -0.04682058, 0.049680233, 9.83797
771608585709077, 0.42711884, 7.0576305, 6.876972, 0.016118288, 0.095924854, 9.862852
771608595348140, 0.44745782, 7.075577, 6.9355965, 0.034910023, 0.068948746, 9.917688
771608604987098, 0.43669012, 7.0301127, 6.960721, 0.030331701, 0.018251896, 9.902706
771608614626161, 0.44147578, 7.0097737, 6.9619174, 0.03559935, 0.0042266846, 9.88933
771608624265119, 0.41156548, 6.9762745, 6.971489, 0.008715928, -0.028196335, 9.8710985
771608633904182, 0.37328035, 6.966703, 6.954739, -0.02997151, -0.025825977, 9.850946
771608643543140, 0.37686956, 6.9726853, 6.899704, -0.02931577, 0.017935753, 9.816574
771608653182202, 0.39720857, 6.977471, 6.893722, -0.009895623, 0.027702332, 9.816589
771608662821161, 0.4438686, 7.01097, 6.8925257, 0.03301525, 0.05810833, 9.8414
771608672460223, 0.42592242, 7.0289164, 6.9619174, 0.016853154, 0.01949358, 9.902256
771608682099286, 0.40797627, 7.0468626, 7.0002027, 3.361702E-5, 0.003938675, 9.941206
771608691738244, 0.37447673, 7.055238, 6.995417, -0.033564597, 0.00916481, 9.942396
771608701377307, 0.37088752, 7.045666, 6.960721, -0.037415266, 0.026303291, 9.91103
771608711016265, 0.39720857, 7.0348988, 6.9559355, -0.01020056, 0.025424957, 9.901105
771608720655327, 0.40438703, 7.007381, 6.9535427, -3.001094E-4, 0.009195328, 9.880212
771608730294286, 0.424726, 7.0097737, 6.991828, 0.021974355, -0.013577938, 9.909708
771608739933348, 0.36370903, 6.5886374, 6.9332037, 0.007908016, -0.27229166, 9.567526
771608749572307, 0.50009996, 7.62114, 7.068398, 0.031288087, 0.37281942, 10.399719
771608759211369, 0.27876383, 6.3254266, 6.8865438, -0.05187303, -0.42804623, 9.344909
771608768850327, 0.44865423, 7.722835, 7.0145597, -0.033640504, 0.46873665, 10.432003
771608778489390, 0.26679972, 6.4701924, 6.8542404, -0.08007637, -0.30548573, 9.424194
771608788128348, 0.4127619, 7.399804, 6.9212394, -0.03497854, 0.31052446, 10.135748
771608797767411, 0.4139583, 6.876972, 6.8865438, 0.021762937, -0.029192924, 9.74101
771608807406369, 0.4019942, 6.910472, 6.8685975, 0.0031714737, 0.0015354156, 9.751608
771608817045432, 0.51565325, 7.332805, 7.042077, 0.07591617, 0.18951225, 10.177677
771608826684390, 0.32183465, 6.458228, 6.936793, -0.023644656, -0.36697865, 9.476084
771608836323452, 0.5288138, 7.6977105, 7.18445, 0.050842106, 0.35097027, 10.536837
771608845962411, 0.27876383, 6.282356, 6.954739, -0.05025047, -0.5032902, 9.362599
771608855601473, 0.50129634, 7.726424, 7.082755, 0.01821512, 0.43924856, 10.484325
771608865240432, 0.3278167, 6.4199433, 6.826723, -0.017351061, -0.31143045, 9.371767
771608874879494, 0.45583272, 7.472785, 6.937989, -0.0027281642, 0.35718584, 10.200903
771608884518452, 0.3900301, 6.8243303, 6.96431, 0.0043724775, -0.12125301, 9.757587
771608894157411, 0.33260235, 6.9499536, 6.957132, -0.06980944, -0.04051876, 9.839088
771608903796473, 0.4426722, 7.301698, 7.0576305, 0.0043462515, 0.15004063, 10.163582
771608913435432, 0.3062813, 6.5048885, 6.890133, -0.051493764, -0.30266047, 9.475603
771608923074494, 0.5300102, 7.655836, 7.1066833, 0.04894972, 0.36965132, 10.452686
771608932713452, 0.29192436, 6.236892, 6.884151, -0.032164305, -0.4874668, 9.280998
771608942352515, 0.53359944, 7.745567, 7.0731835, 0.046211958, 0.45884418, 10.492655
771608951991473, 0.3792624, 6.367301, 6.835098, 0.043061674, -0.35910606, 9.34206
771608961630536, 0.5132605, 7.495517, 6.910472, 0.049201727, 0.3937297, 10.200166
771608971269494, 0.4211368, 6.788438, 6.876972, 0.030452788, -0.091619015, 9.671797
771608980908557, 0.3696911, 7.042077, 6.910472, -0.047738433, 0.05755949, 9.873022
771608990547515, 0.4139583, 7.2897344, 7.004988, -0.026403606, 0.167171, 10.116956
771609000186577, 0.24885355, 6.509674, 6.8243303, -0.11007926, -0.27197027, 9.429911
771609009825536, 0.4833502, 7.6307116, 7.0229344, 0.0016339123, 0.39619064, 10.374297
771609019464598, 0.2644069, 6.2309103, 6.826723, -0.05439931, -0.46968746, 9.234431
771609029103557, 0.48454657, 7.6953177, 7.082755, 0.0016955733, 0.39510822, 10.46241
771609038742619, 0.32422748, 6.2955165, 6.899704, -0.0023762286, -0.4606123, 9.334474
771609048381577, 0.5180461, 7.5266237, 7.0504518, 0.046844244, 0.30847597, 10.321335
771609058020640, 0.44027936, 6.775277, 7.0289164, 0.0639846, -0.19994926, 9.770353
771609067659598, 0.4354937, 7.1270223, 7.0325055, 0.013425708, 0.040602207, 10.021896
771609077298661, 0.45224348, 7.2957163, 7.048059, 0.010566473, 0.14879513, 10.153073
771609086937619, 0.30388847, 6.62094, 6.8482585, -0.06438291, -0.20118046, 9.528023
771609096576682, 0.48933223, 7.678568, 6.9930243, -0.011978984, 0.45169115, 10.3874
771609106215640, 0.25603202, 6.3086767, 6.7740808, -0.071124375, -0.37552118, 9.252408
771609115854598, 0.5024927, 7.757531, 7.001399, -0.007939398, 0.49537373, 10.450163
771609125493661, 0.28594232, 6.3074803, 6.8255267, -0.037486553, -0.40933657, 9.288968
771609135132619, 0.4749753, 7.5385876, 6.995417, -0.014165044, 0.34377956, 10.289478
771609144771682, 0.3804588, 6.602994, 6.91765, 0.016919017, -0.26008606, 9.567144
771609154410640, 0.45942193, 7.068398, 6.910472, 0.029547215, 0.07944012, 9.895492
771609164049702, 0.5312066, 7.164111, 6.95115, 0.09080511, 0.13214731, 9.994972
771609173688661, 0.3397808, 6.587441, 6.867401, -0.024840891, -0.23894835, 9.519102
771609183327723, 0.5515456, 7.578069, 7.0863442, 0.067454815, 0.32179737, 10.384581
771609192966682, 0.29072794, 6.306284, 6.930811, -0.02230233, -0.49030638, 9.3621025
771609202605744, 0.5694918, 7.789834, 7.133004, 0.06391609, 0.4425745, 10.568144
771609212244702, 0.32662028, 6.3158555, 6.863812, -2.3382902E-4, -0.4318962, 9.323202
771609221883765, 0.5024927, 7.605587, 7.0145597, 0.008383751, 0.38751173, 10.35139
771609231522723, 0.35174492, 6.6484575, 6.9355965, -0.013132334, -0.24199247, 9.610905
771609241161682, 0.38883367, 7.1892357, 6.983453, -0.048256516, 0.09842062, 10.029602
771609250800744, 0.44745782, 7.1569324, 6.9966135, 0.014406323, 0.079351425, 10.018383
771609260439702, 0.30149564, 6.6628146, 6.812366, -0.078021884, -0.15638685, 9.532145
771609270078765, 0.49172506, 7.5696945, 6.983453, 0.0063329637, 0.37820387, 10.303767
771609279717723, 0.2955136, 6.326623, 6.7728844, -0.038597524, -0.3692689, 9.265398
771609289356786, 0.53240305, 7.739585, 7.015756, 0.026316434, 0.47135782, 10.449047
771609298995744, 0.32063824, 6.2715883, 6.818348, -0.009640694, -0.42971992, 9.259629
771609308634807, 0.51206404, 7.6103725, 7.001399, 0.024839848, 0.39543056, 10.34614
771609318273765, 0.357727, 6.5455666, 6.899704, -0.001954496, -0.2920661, 9.512782
771609327912723, 0.424726, 7.1629148, 6.927222, -0.012419164, 0.1190567, 9.972955
771609337551786, 0.48454657, 7.0576305, 6.896115, 0.058127493, 0.08077097, 9.878838
771609347190744, 0.37088752, 6.6999035, 6.7740808, -0.018751055, -0.098656654, 9.534378
771609356829807, 0.5276174, 7.536195, 6.977471, 0.045968056, 0.35791302, 10.277524
771609366468765, 0.29790643, 6.3625154, 6.862615, -0.045117795, -0.40235043, 9.354246
771609376107827, 0.52522457, 7.7790666, 7.1282187, 0.024360865, 0.4266572, 10.555502
771609385746786, 0.29192436, 6.303891, 6.8817577, -0.04048252, -0.4540515, 9.326041
771609395385744, 0.5084748, 7.664211, 7.0133634, 0.015878677, 0.41901064, 10.392792
771609405024807, 0.37208393, 6.552745, 6.8889365, 0.0077324808, -0.27429724, 9.510996
771609414663765, 0.41874397, 7.2825556, 6.9738817, -0.030518562, 0.17195177, 10.090366
771609424302827, 0.41754755, 7.0372915, 7.0145597, 7.945895E-4, -0.021809578, 9.944918
771609433941786, 0.317049, 6.7848487, 6.9116683, -0.07426965, -0.13975286, 9.689211
771609443580848, 0.5084748, 7.5146594, 7.064809, 0.03794378, 0.28783894, 10.322591
771609453219807, 0.33020952, 6.390033, 6.855437, -0.020100772, -0.3722582, 9.370143
771609462858765, 0.5694918, 7.757531, 7.0875406, 0.072517335, 0.44320488, 10.513569
771609472497827, 0.29910284, 6.2608204, 6.8506513, -0.038071305, -0.46339655, 9.273758
771609482136786, 0.5072784, 7.6749787, 7.01097, 0.015148342, 0.43164158, 10.398548
771609491775848, 0.37806597, 6.521638, 6.8865438, 0.016537458, -0.2899723, 9.487616
771609501414807, 0.37567315, 7.3136625, 6.9738817, -0.076738864, 0.1916871, 10.11055
771609511053869, 0.39840496, 6.9595246, 6.948757, -0.014723331, -0.02970934, 9.842653
771609520692827, 0.37447673, 6.8111696, 6.838687, -0.026007354, -0.061068535, 9.65896
771609530331786, 0.5371887, 7.4620175, 6.983453, 0.065101, 0.3096552, 10.229309
771609539970848, 0.29910284, 6.3864436, 6.8865438, -0.046386957, -0.39809847, 9.388289
771609549609807, 0.5347959, 7.732406, 7.152147, 0.03773254, 0.38321877, 10.539498
771609559248869, 0.29790643, 6.2309103, 6.9020967, -0.023164809, -0.52035093, 9.288736
771609568887827, 0.552742, 7.68455, 7.0205417, 0.058483034, 0.43790245, 10.413965
771609578526786, 0.39601216, 6.4295144, 6.832705, 0.032998294, -0.31244946, 9.385235
771609588165848, 0.50368917, 7.3256264, 6.969096, 0.041077256, 0.2213769, 10.121074
771609597804807, 0.47018966, 6.9009004, 6.9990063, 0.059494466, -0.09595108, 9.839555
771609607443869, 0.38763726, 6.8865438, 6.954739, -0.023188889, -0.084599495, 9.794664
771609617082827, 0.5192425, 7.4536424, 7.062416, 0.050727814, 0.25148773, 10.278049
771609626721890, 0.2632105, 6.4677997, 6.8889365, -0.09142843, -0.348814, 9.446118
771609636360848, 0.4534399, 7.7647095, 7.068398, -0.04479915, 0.45478392, 10.499989
771609645999807, 0.26081768, 6.2727847, 6.769295, -0.072409004, -0.40494585, 9.223339
771609655638869, 0.50129634, 7.7180495, 6.930811, -0.014852583, 0.51574945, 10.372536
771609665277827, 0.31226337, 6.3888364, 6.792027, -0.03168571, -0.3275118, 9.32406
771609674916890, 0.43788654, 7.368697, 6.9248285, -0.029976845, 0.26752853, 10.117817
771609684555848, 0.44985065, 6.8195443, 6.9451675, 0.0567109, -0.11851311, 9.743031
771609694194807, 0.40079778, 6.8518476, 6.95115, 0.003405869, -0.10683441, 9.768086
771609703833869, 0.5084748, 7.332805, 7.092326, 0.059299916, 0.14121819, 10.213041
771609713472827, 0.33260235, 6.4677997, 6.948757, -0.019246906, -0.3778658, 9.49132
771609723111890, 0.5946164, 7.771888, 7.1653075, 0.09850967, 0.4065199, 10.579342
771609732750848, 0.30029923, 6.3218374, 6.9355965, -0.040669173, -0.4698968, 9.377411
771609742389807, 0.49292147, 7.7814593, 7.079166, -0.0020188093, 0.46010923, 10.521263
771609752028869, 0.28594232, 6.4331036, 6.8685975, -0.073782414, -0.35280514, 9.408203
771609761667827, 0.44626144, 7.463214, 6.9738817, -0.019469768, 0.30805874, 10.219513
771609771306890, 0.38165522, 6.8039913, 6.9296145, -0.01691547, -0.12537432, 9.718205
771609780945848, 0.36370903, 6.9475603, 6.8781686, -0.05312583, 0.011056423, 9.783003
771609790584807, 0.4881358, 7.3052874, 6.9056864, 0.02890724, 0.25574303, 10.061202
771609800223869, 0.31465617, 6.4965134, 6.7561345, -0.05509135, -0.22633076, 9.375222
771609809862827, 0.5515456, 7.68455, 7.0145597, 0.05447781, 0.4511528, 10.409325
771609819501890, 0.30867413, 6.2309103, 6.8662047, -0.0208987, -0.48554468, 9.264345
771609829140848, 0.5455636, 7.7216387, 7.115058, 0.050058216, 0.39818, 10.506397
771609838779807, 0.34456646, 6.2991056, 6.95115, 0.015009373, -0.49105024, 9.3741455
771609848418869, 0.506082, 7.4416785, 7.0815587, 0.045484334, 0.2246275, 10.282539
771609858057827, 0.4319045, 6.7441707, 7.0468626, 0.052591324, -0.23549223, 9.760657
771609867696890, 0.38165522, 7.0301127, 6.98106, -0.03703755, 0.0022330284, 9.914734
771609877335848, 0.485743, 7.2849483, 6.9726853, 0.037140578, 0.1968646, 10.093792
771609886974807, 0.34097722, 6.576673, 6.780063, -0.03832221, -0.17693949, 9.450151
771609896613869, 0.5383851, 7.6953177, 7.0145597, 0.048233777, 0.4585986, 10.416294
771609906252827, 0.30388847, 6.2919273, 6.859026, -0.04489422, -0.44157028, 9.302145
771609915891890, 0.5084748, 7.753942, 7.119844, 0.02156964, 0.4145832, 10.531001
771609925530848, 0.2955136, 6.3050876, 6.9056864, -0.053536713, -0.45823765, 9.344364
771609935169911, 0.4761717, 7.4739814, 6.9786673, 0.014563277, 0.31768513, 10.231705
771609944808869, 0.4019942, 6.634101, 6.8578296, 0.012118116, -0.18833256, 9.548147
771609954447827, 0.39720857, 6.9990063, 6.855437, -0.025795385, 0.07184219, 9.804849
771609964086890, 0.47736812, 7.18445, 6.923632, 0.037962496, 0.15990973, 9.987686
771609973725848, 0.30029923, 6.573084, 6.814759, -0.082757175, -0.20701456, 9.470314
771609983364807, 0.4749753, 7.6630144, 7.0600233, -0.011053652, 0.39460897, 10.422834
771609993003869, 0.21894327, 6.309873, 6.847062, -0.12502187, -0.42276525, 9.303243
771610002642827, 0.5192425, 7.8257265, 7.0863442, 0.030478984, 0.49793434, 10.558363
771610012281890, 0.34456646, 6.385247, 6.869794, -0.0040842593, -0.37931538, 9.377648
771610021920848, 0.5204389, 7.584051, 7.0803623, 0.059797555, 0.3256898, 10.383187
771610031559807, 0.41994038, 6.6652074, 7.068398, 0.051247597, -0.31220007, 9.719234
771610041198869, 0.4031906, 7.1545396, 7.1413794, -0.013675094, -0.024410248, 10.116745
771610050837827, 0.4331009, 7.1485577, 7.1449685, 0.015426859, -0.022670746, 10.116286
771610060476890, 0.33260235, 6.6017976, 6.9116683, -0.042136982, -0.24993896, 9.560402
771610070115848, 0.53359944, 7.578069, 7.048059, 0.07475045, 0.3570013, 10.35635
771610079754807, 0.27996024, 6.303891, 6.8542404, -0.06437382, -0.42653704, 9.306555
771610089393869, 0.4869394, 7.7671022, 7.071987, 0.006477624, 0.46877623, 10.50515
771610099032827, 0.2536392, 6.2991056, 6.8542404, -0.083016664, -0.43538046, 9.302001
771610108671890, 0.44865423, 7.623533, 6.9858456, -0.026455522, 0.42343044, 10.341257
771610118310848, 0.35533416, 6.617351, 6.8889365, -0.017054856, -0.220047, 9.556377
771610127949911, 0.44147578, 7.135397, 6.9020967, 0.013014495, 0.13775444, 9.936226
771610137588869, 0.506082, 7.051648, 6.9212394, 0.08764875, 0.07393026, 9.893042
771610147227827, 0.3696911, 6.602994, 6.8111696, -0.005481124, -0.1792407, 9.491897
771610156866890, 0.51565325, 7.4416785, 6.9678993, 0.055524886, 0.31028557, 10.202782
771610166505848, 0.32303107, 6.250053, 6.786045, -0.016844928, -0.4096241, 9.222246
771610176144807, 0.55513483, 7.7443705, 7.045666, 0.06055993, 0.47081232, 10.473755
771610185783869, 0.31106696, 6.2727847, 6.8422766, -0.034609407, -0.4300456, 9.277673
771610195422827, 0.49172506, 7.665407, 7.062416, 0.0034993887, 0.39956713, 10.426807
771610205061890, 0.30388847, 6.5958157, 6.9930243, -0.063672364, -0.3092432, 9.612484
771610214700848, 0.3505485, 7.2550383, 7.0839515, -0.08608857, 0.08417225, 10.14526
771610224339807, 0.44147578, 7.076773, 7.036095, 0.026827753, 0.010343075, 9.989065
771610233978869, 0.37088752, 6.6963143, 6.873383, -0.00636968, -0.14865255, 9.602054
771610243617827, 0.5778667, 7.493124, 7.031309, 0.10828897, 0.32643986, 10.286003
771610253256890, 0.3493521, 6.320641, 6.8925257, 0.017649204, -0.42162466, 9.348871
771610262895848, 0.5706882, 7.7383885, 7.172486, 0.07736534, 0.3936491, 10.558976
771610272534807, 0.27996024, 6.2751775, 6.9798636, -0.05131176, -0.51685476, 9.375765
771610282173869, 0.45942193, 7.6678, 7.1413794, -0.026998073, 0.3670454, 10.4818945
771610291812827, 0.30149564, 6.552745, 7.003792, -0.06872597, -0.33823538, 9.589753
771610301451890, 0.39720857, 7.3136625, 7.0169525, -0.054508954, 0.19394732, 10.141226
771610311090848, 0.44506502, 7.0372915, 6.948757, 0.02144292, 0.05606699, 9.899656
771610320729807, 0.3290131, 6.745367, 6.8039913, -0.06826478, -0.05950117, 9.586153
771610330368869, 0.4977071, 7.426125, 6.9212394, 0.033475578, 0.35174036, 10.15745
771610340007827, 0.30029923, 6.2979093, 6.74776, -0.056658596, -0.3334999, 9.22885
771610349646890, 0.58265233, 7.6678, 6.9894347, 0.08264297, 0.4802742, 10.380239
771610359285848, 0.3792624, 6.178268, 6.820741, 0.044620365, -0.46105146, 9.199063
771610368924911, 0.573081, 7.6331043, 7.075577, 0.07426232, 0.3975234, 10.415995
771610378563869, 0.33738798, 6.422336, 7.004988, -0.015350014, -0.42121983, 9.500127
771610388202827, 0.38763726, 7.268199, 7.135397, -0.0568209, 0.091851234, 10.192115
771610397841890, 0.4031906, 6.927222, 7.123433, -0.0018571615, -0.1373024, 9.94351
771610407480848, 0.3696911, 6.8279195, 6.966703, -0.033047587, -0.09992933, 9.7612
771610417119911, 0.56111693, 7.4309106, 7.04447, 0.08952904, 0.29344082, 10.25006
771610426758869, 0.34337005, 6.3828545, 6.8925257, -0.009733498, -0.35583878, 9.3935585
771610436397827, 0.5587241, 7.732406, 7.1581287, 0.06215146, 0.4235053, 10.543142
771610446036890, 0.2883351, 6.2787666, 6.9595246, -0.059818834, -0.4802866, 9.3651905
771610455675848, 0.47736812, 7.7419777, 7.146165, -0.021135539, 0.44373226, 10.537383
771610465314911, 0.29312077, 6.4773707, 6.969096, -0.070804626, -0.33973312, 9.512629
771610474953869, 0.39361933, 7.3746796, 7.0372915, -0.07372457, 0.24580145, 10.197964
771610484592932, 0.3924229, 6.8781686, 6.96431, -0.02140513, -0.04435873, 9.796038
771610494231890, 0.39601216, 6.815955, 6.8913293, -0.016324222, -0.037900448, 9.700659
771610503870848, 0.55393845, 7.342376, 7.0408807, 0.09116268, 0.24276686, 10.184504
771610513509911, 0.33020952, 6.375676, 6.914061, -0.035663456, -0.3674512, 9.403524
771610523148869, 0.552742, 7.6426754, 7.1677003, 0.059977323, 0.37078857, 10.485744
771610532787932, 0.317049, 6.186643, 6.9224358, -0.026251346, -0.5090399, 9.275525
771610542426890, 0.5599205, 7.6594253, 7.1042905, 0.06767589, 0.42980194, 10.452845
771610552065848, 0.3924229, 6.350551, 6.914061, 0.026060581, -0.37840176, 9.388496
771610561704911, 0.485743, 7.3639116, 7.055238, 0.017822832, 0.24938917, 10.206713
771610571343869, 0.41754755, 6.8650084, 7.015756, -4.2238832E-4, -0.08415699, 9.824277
771610580982932, 0.20697916, 6.9786673, 6.666404, -0.23815712, 0.22341776, 9.647743
771610590621890, 0.46301118, 7.3052874, 6.789634, -0.018958122, 0.39139986, 9.976333
771610600260952, 0.3505485, 6.5072813, 6.8865438, -0.052543133, -0.24121428, 9.477929
771610609899911, 0.5180461, 7.648658, 7.225128, 0.008180022, 0.33954668, 10.528887
771610619538869, 0.2883351, 6.161518, 7.0337024, -0.07603398, -0.580791, 9.33688
771610629177932, 0.6412765, 7.649854, 7.186843, 0.09601328, 0.41705227, 10.507096
771610638816890, 0.4426722, 6.279963, 7.0337024, 0.050347745, -0.46119022, 9.428236
771610648455952, 0.48933223, 7.3639116, 7.0731835, -0.041240484, 0.27700377, 10.218519
771610658094911, 0.4953143, 6.6568327, 7.042077, 0.045383126, -0.186481, 9.701175
771610667733973, 0.5240282, 6.9355965, 7.0815587, 0.038461685, -0.0121302605, 9.925925
771610677372932, 0.63529444, 7.2095747, 7.200003, 0.12063953, 0.1113615, 10.207579
771610687011994, 0.41515473, 6.4091754, 7.0935225, 0.008728385, -0.40475798, 9.560547
771610696650952, 0.6580262, 7.597212, 7.233503, 0.10026774, 0.3641219, 10.503883
771610706289911, 0.39960137, 6.1770716, 6.940382, 0.017147183, -0.46377468, 9.288134
771610715928973, 0.6233303, 7.688139, 7.123433, 0.04724568, 0.48947668, 10.48797
771610725567932, 0.34217364, 6.3086767, 6.9535427, -0.049497575, -0.39241123, 9.386789
771610735206994, 0.46301118, 7.457232, 7.117451, -0.074181825, 0.31486464, 10.313978
771610744845952, 0.4127619, 6.704689, 7.0600233, -0.029889226, -0.17910385, 9.743419
771610754485015, 0.42831525, 6.9726853, 7.0492554, -0.05165091, 0.01989603, 9.924248
771610764123973, 0.55752766, 7.1916285, 7.1162543, 0.052185178, 0.14313316, 10.131546
771610773763036, 0.40079778, 6.4881387, 6.9786673, -0.028629899, -0.2761817, 9.533168
771610783401994, 0.6089734, 7.5732837, 7.2095747, 0.05814618, 0.3508134, 10.467903
771610793040952, 0.3469593, 6.2201424, 7.0169525, -0.0468269, -0.49458122, 9.370238
771610802680015, 0.526421, 7.706085, 7.207182, -0.034577012, 0.43112373, 10.555437
771610812318973, 0.30269206, 6.253642, 6.910472, -0.09553316, -0.40313435, 9.3157215
771610821958036, 0.506082, 7.4548388, 7.018149, -0.028351367, 0.38617134, 10.24379
771610831596994, 0.4438686, 6.5982084, 6.966703, 0.012530953, -0.1874814, 9.603803
771610841236057, 0.5096712, 7.012167, 7.001399, 0.026554793, 0.08131027, 9.921821
771610850875015, 0.59940207, 7.115058, 7.129415, 0.10382563, 0.081115246, 10.089328
771610860514077, 0.45702913, 6.4941206, 7.031309, 0.031315655, -0.30515242, 9.577459
771610870153036, 0.654437, 7.5230346, 7.259824, 0.11463112, 0.28642464, 10.470635
771610879792098, 0.37567315, 6.2117677, 7.056434, -0.01719591, -0.527122, 9.393738
771610889431057, 0.5491528, 7.6666036, 7.2287173, -0.0048574507, 0.3887291, 10.544269
771610899070015, 0.2835495, 6.2416778, 6.91765, -0.09943637, -0.43428564, 9.31098
771610908709077, 0.45583272, 7.5230346, 6.9523463, -0.08234617, 0.46791506, 10.242716
771610918348036, 0.36131623, 6.5886374, 6.8542404, -0.068937, -0.1316266, 9.513108
771610927987098, 0.44626144, 7.076773, 6.942775, -0.039646447, 0.15562057, 9.92251
771610937626057, 0.53359944, 7.09113, 7.0935225, 0.053047508, 0.0712657, 10.043857
771610947265119, 0.45822555, 6.5946193, 7.071987, 0.033251643, -0.27109194, 9.676641
771610956904077, 0.6867401, 7.533802, 7.2969127, 0.15252218, 0.26221895, 10.506317
771610966543140, 0.38165522, 6.212964, 7.097112, 2.874732E-4, -0.55897903, 9.423541
771610976182098, 0.5910272, 7.6833534, 7.2658057, 0.047643334, 0.3807149, 10.584326
771610985821161, 0.276371, 6.235696, 6.942775, -0.118047774, -0.4471178, 9.32462
771610995460119, 0.42831525, 7.5589266, 6.963114, -0.10800743, 0.47718382, 10.274551
771611005099182, 0.36490545, 6.5778694, 6.7836523, -0.06799346, -0.100935936, 9.455403
771611014738140, 0.465404, 7.204789, 6.8853474, -0.03531739, 0.2823062, 9.972595
771611024377202, 0.5479564, 7.062416, 7.0061846, 0.06717342, 0.10758734, 9.962357
771611034016161, 0.4331009, 6.631708, 6.995417, -0.0010086, -0.2033763, 9.646845
771611043655223, 0.6269195, 7.440482, 7.237092, 0.10846701, 0.21790552, 10.395674
771611053294182, 0.38524446, 6.175875, 7.0133634, 0.009229153, -0.5379505, 9.337432
771611062933244, 0.6329016, 7.62114, 7.1916285, 0.09356359, 0.38147163, 10.490356
771611072572202, 0.37567315, 6.1639113, 6.9020967, -0.0029280484, -0.46950197, 9.24951
771611082211265, 0.4761717, 7.5529447, 7.0396843, -0.052028894, 0.41813707, 10.32731
771611091850223, 0.32063824, 6.518049, 6.9188466, -0.09498432, -0.2489624, 9.507216
771611101489286, 0.44626144, 7.2562346, 7.0061846, -0.04683873, 0.22211647, 10.093918
771611111128244, 0.48454657, 7.056434, 7.0528445, 0.013699502, 0.056480408, 9.988357
771611120767307, 0.40677986, 6.7369924, 7.001399, -0.032868117, -0.13906431, 9.72377
771611130406265, 0.6161518, 7.4943204, 7.1772714, 0.10269117, 0.2914467, 10.390486
771611140045223, 0.4019942, 6.3134627, 6.9798636, 0.011509299, -0.41906357, 9.410853
771611149684286, 0.6364908, 7.6773715, 7.1712894, 0.094991535, 0.42544842, 10.515917
771611159323348, 0.38165522, 6.1639113, 6.8865438, 0.006056398, -0.46911812, 9.238173
771611168962307, 0.5180461, 7.5960155, 7.04447, -0.027581632, 0.44053602, 10.363278
771611178601369, 0.3182454, 6.4211397, 6.876972, -0.086788744, -0.29140997, 9.409178
771611188240327, 0.41874397, 7.2263246, 6.995417, -0.08316603, 0.20651102, 10.063866
771611197879390, 0.45822555, 6.930811, 7.0396843, -6.0617924E-4, -0.025080204, 9.889521
771611207518348, 0.38165522, 6.759724, 6.969096, -0.05834177, -0.10822582, 9.715591
771611217157411, 0.5706882, 7.426125, 7.146165, 0.052528054, 0.26132822, 10.318413
771611226796369, 0.38644084, 6.3517475, 6.9942207, 0.0036091208, -0.4076929, 9.447059
771611236435432, 0.6233303, 7.7312098, 7.2646093, 0.06921762, 0.39602518, 10.619467
771611246074390, 0.3469593, 6.233303, 7.018149, -0.015874892, -0.5200348, 9.378603
771611255713452, 0.5587241, 7.6534433, 7.166504, 0.011549234, 0.39794397, 10.492268
771611265352411, 0.36729828, 6.4331036, 7.0002027, -0.022970647, -0.3578353, 9.507576
771611274991473, 0.44985065, 7.318448, 7.088737, -0.052771807, 0.20830774, 10.196375
771611284630432, 0.4534399, 6.8745794, 7.0528445, 0.008992553, -0.07594204, 9.8591175
771611294269494, 0.40797627, 6.751349, 6.9248285, -0.027671516, -0.083203316, 9.6795025
771611303908452, 0.5479564, 7.3435726, 7.04447, 0.03692913, 0.2672944, 10.18725
771611313547515, 0.34456646, 6.355337, 6.8721867, -0.041095316, -0.33624315, 9.360622
771611323186473, 0.58624154, 7.6259255, 7.0839515, 0.03348714, 0.43749142, 10.415771
771611332825536, 0.3804588, 6.172286, 6.806384, 0.008844793, -0.40839005, 9.187049
771611342464494, 0.573081, 7.6271224, 6.9882383, 0.019652665, 0.50745916, 10.3478985
771611352103557, 0.40677986, 6.3601227, 6.882954, 0.008605152, -0.3337307, 9.374447
771611361742619, 0.50368917, 7.353144, 7.0863442, -0.0052726865, 0.2307415, 10.221812
771611371381577, 0.465404, 6.859026, 7.119844, 0.01827386, -0.14016962, 9.896214
771611381020640, 0.41515473, 6.8614187, 7.075577, -0.030785829, -0.111913204, 9.864165
771611390659598, 0.56111693, 7.34118, 7.143772, 0.06006956, 0.194386, 10.256699
771611400298661, 0.35413775, 6.410372, 6.9188466, -0.03657639, -0.32700968, 9.432946
771611409937619, 0.552742, 7.670193, 7.1581287, 0.008682013, 0.40671158, 10.498129
771611419576682, 0.2632105, 6.2416778, 6.8925257, -0.095446885, -0.44255447, 9.291382
771611429215640, 0.485743, 7.732406, 7.0815587, -0.06774908, 0.49574423, 10.484473
771611438854702, 0.3074777, 6.424729, 6.916454, -0.070241034, -0.32665062, 9.439142
771611448493661, 0.43788654, 7.446464, 7.045666, -0.0747695, 0.30724907, 10.255877
771611458132723, 0.43788654, 6.838687, 7.0432734, 0.0021521747, -0.111872196, 9.826218
771611467771786, 0.45224348, 6.9391856, 7.0528445, 0.004505098, -0.04645872, 9.904406
771611477410744, 0.59342, 7.2873416, 7.1581287, 0.10659647, 0.14400959, 10.230553
771611487049807, 0.40079778, 6.3888364, 6.9966135, 0.0146816075, -0.3952322, 9.474915
771611496688765, 0.64247286, 7.5696945, 7.159325, 0.12372798, 0.3418932, 10.432486
771611506327827, 0.37806597, 6.1244297, 6.8709903, 0.02079454, -0.50320196, 9.198285
771611515966786, 0.5910272, 7.6271224, 7.0265236, 0.055977196, 0.46487713, 10.376661
771611525605848, 0.31226337, 6.2847486, 6.8398833, -0.06329203, -0.3804922, 9.286053
771611535244807, 0.4019942, 7.4129643, 6.940382, -0.113893986, 0.34814358, 10.156197
771611544883869, 0.35294133, 6.7441707, 6.9212394, -0.07621536, -0.104701996, 9.669292
771611554522932, 0.4223332, 6.9942207, 6.971489, -0.036572605, 0.03923273, 9.884142
771611564161890, 0.55393845, 7.2705917, 7.1210403, 0.067682296, 0.14960575, 10.190713
771611573800952, 0.4103691, 6.498906, 7.0097737, 0.014834762, -0.32907915, 9.562041
771611583439911, 0.6580262, 7.649854, 7.239485, 0.13520709, 0.3481841, 10.546274
771611593078973, 0.38763726, 6.229714, 6.9930243, 0.02279815, -0.5055394, 9.359802
771611602718036, 0.5946164, 7.725228, 7.1784678, 0.06845543, 0.42682076, 10.553494
771611612356994, 0.31585258, 6.289534, 6.916454, -0.061539114, -0.42036676, 9.344242
771611621996057, 0.44865423, 7.4739814, 7.0468626, -0.054442555, 0.3243556, 10.276758
771611631635015, 0.3792624, 6.7166533, 6.987042, -0.043792933, -0.17140245, 9.697666
771611641274077, 0.35174492, 7.075577, 6.9762745, -0.111805975, 0.08882046, 9.9416065
771611650913036, 0.4426722, 7.2323065, 7.055238, -0.03218025, 0.15370607, 10.11207
771611660552098, 0.33260235, 6.5718875, 6.899704, -0.08403076, -0.21364117, 9.531713
771611670191161, 0.57427746, 7.648658, 7.115058, 0.064363346, 0.41312551, 10.453756
771611679830119, 0.33738798, 6.276374, 6.9248285, -0.056427598, -0.4347701, 9.341721
771611689469182, 0.5706882, 7.713264, 7.1246295, 0.051977143, 0.4464364, 10.506115
771611699108140, 0.37208393, 6.2548385, 6.8685975, -0.0074905455, -0.42063808, 9.287739
771611708747202, 0.55034924, 7.4907312, 6.9906316, 0.04874319, 0.38356733, 10.253456
771611718386265, 0.40438703, 6.4474607, 6.856633, 0.0030515194, -0.26891327, 9.416708
771611728025223, 0.4941179, 7.0301127, 6.963114, 0.038370192, 0.066854954, 9.90685
771611737664286, 0.43070808, 6.879365, 6.9906316, -0.0099089, -0.05851984, 9.817158
771611747303244, 0.43908295, 6.9595246, 7.003792, -0.01077874, -0.010184288, 9.883353
771611756942307, 0.4881358, 6.9248285, 6.9894347, 0.037900567, -0.014904022, 9.850992
771611766581369, 0.47976094, 6.9990063, 7.015756, 0.021934882, 0.019108295, 9.921503
771611776220327, 0.465404, 7.0025954, 7.0408807, 0.0081411, 0.0025291443, 9.94117
771611785859390, 0.46779683, 7.051648, 7.0540414, 0.0073172003, 0.02786827, 9.985152
771611795498348, 0.43070808, 7.0408807, 7.048059, -0.026649207, 0.02010107, 9.971636
771611805137411, 0.4103691, 7.0289164, 7.0025954, -0.043952882, 0.039288044, 9.930103
771611814776473, 0.41515473, 7.0061846, 6.966703, -0.034768194, 0.046228886, 9.888913
771611824415432, 0.41635114, 6.98106, 6.930811, -0.03120011, 0.051239014, 9.845867
771611834054494, 0.46061835, 6.9559355, 6.984649, 0.017870635, 4.8446655E-4, 9.868242
771611843693557, 0.45942193, 6.9595246, 7.048059, 0.01710838, -0.039966583, 9.915609
771611853332515, 0.47856453, 6.9559355, 7.0983086, 0.035903305, -0.07196903, 9.949551
771611862971577, 0.47018966, 6.943971, 7.079166, 0.024497926, -0.065149784, 9.927212
771611872610640, 0.43070808, 6.9523463, 7.066005, -0.01758641, -0.052654266, 9.921995
771611882249598, 0.42711884, 6.9332037, 6.977471, -0.021265537, -0.004351616, 9.845629
771611891888661, 0.43429732, 6.9188466, 6.91765, -0.011388928, 0.02625513, 9.793474
771611901527619, 0.41874397, 6.9248285, 6.903293, -0.019444257, 0.033015728, 9.786857
771611911166682, 0.3900301, 6.927222, 6.9391856, -0.04637593, 0.006099224, 9.812676
771611920805744, 0.43070808, 6.9344, 6.9344, -0.002358675, 0.018652916, 9.816158
771611930444702, 0.4977071, 6.9858456, 6.991828, 0.061240166, 0.021979809, 9.896019
771611940083765, 0.4941179, 7.0229344, 7.036095, 0.054742813, 0.018209457, 9.953344
771611949722827, 0.4426722, 7.0205417, 7.09113, 0.0024181902, -0.022500992, 9.988373
771611959361786, 0.4211368, 7.051648, 7.1282187, -0.020609438, -0.02928114, 10.035604
771611969000848, 0.4127619, 7.0504518, 7.111469, -0.029710919, -0.015678406, 10.022529
771611978639911, 0.38644084, 7.0229344, 7.0672016, -0.053721726, -0.007209301, 9.970623
771611988278869, 0.38285163, 7.01097, 7.012167, -0.056838423, 0.021503925, 9.923058
771611997917932, 0.39960137, 6.975078, 6.960721, -0.03694144, 0.032877445, 9.862078
771612007556994, 0.3589234, 6.946364, 6.91765, -0.07618153, 0.038579464, 9.809556
771612017195952, 0.38763726, 6.942775, 6.879365, -0.048878193, 0.0651741, 9.781177
771612026835015, 0.4426722, 6.927222, 6.8865438, 0.0071514845, 0.056128502, 9.777711
771612036474077, 0.4881358, 6.948757, 6.9738817, 0.051993072, 0.01693058, 9.856751
771612046113036, 0.5132605, 6.948757, 7.0803623, 0.07896775, -0.052205086, 9.93334
771612055752098, 0.50129634, 6.9355965, 7.1270223, 0.06834194, -0.092469215, 9.956657
771612065391161, 0.4989035, 6.9391856, 7.079166, 0.062538594, -0.054361343, 9.925167
771612075030119, 0.51445687, 6.9451675, 6.9930243, 0.073872775, 0.012403011, 9.86898
771612084669182, 0.47976094, 6.946364, 6.954739, 0.03986925, 0.034618855, 9.8411255
771612094308244, 0.40797627, 6.9702926, 6.9930243, -0.029180288, 0.014743328, 9.881941
771612103947202, 0.3696911, 6.991828, 7.0097737, -0.06595224, 0.012949467, 9.907307
771612113586265, 0.3589234, 7.0133634, 7.0061846, -0.07767856, 0.031119823, 9.91946
771612123225327, 0.39960137, 7.0145597, 7.0325055, -0.038072884, 0.020210743, 9.940725
771612132864286, 0.44147578, 7.02772, 7.070791, 0.0039711297, 0.0075154305, 9.978966
771612142503348, 0.50129634, 7.0169525, 7.109076, 0.063660175, -0.017080307, 10.001177
771612152142411, 0.4761717, 6.9990063, 7.105487, 0.0378381, -0.027406693, 9.984917
771612161781369, 0.424726, 6.9894347, 7.055238, -0.016375035, -0.003364563, 9.940256
771612171420432, 0.3804588, 6.9726853, 6.984649, -0.061789602, 0.028944492, 9.876425
771612181059494, 0.34097722, 6.936793, 6.875776, -0.100666046, 0.07372141, 9.772211
771612190698452, 0.38165522, 6.928418, 6.8111696, -0.060500294, 0.11610508, 9.722322
771612200337515, 0.47377887, 6.923632, 6.8279195, 0.033008605, 0.11114597, 9.734896
771612209976577, 0.5096712, 6.9499536, 6.9475603, 0.0704698, 0.05111122, 9.8398485
771612219615640, 0.46061835, 6.937989, 7.112665, 0.02812457, -0.07554865, 9.946426
771612229254598, 0.4534399, 6.9451675, 7.1413794, 0.021201283, -0.088555336, 9.971558
771612238893661, 0.4426722, 6.9702926, 7.111469, 0.0058703125, -0.05105877, 9.967512
771612248532723, 0.4546363, 6.9882383, 7.0265236, 0.014268488, 0.023536682, 9.920355
771612258171682, 0.46301118, 7.02772, 6.991828, 0.019969717, 0.07636213, 9.923843
771612267810744, 0.43788654, 7.038488, 7.0528445, -0.004233107, 0.038859844, 9.973623
771612277449807, 0.4761717, 7.0432734, 7.125826, 0.03598112, -0.005868435, 10.0304785
771612287088765, 0.4319045, 7.068398, 7.23111, -0.0063475072, -0.06539059, 10.120939
771612296727827, 0.3804588, 7.064809, 7.283752, -0.052136987, -0.10964155, 10.153549
771612306366890, 0.35653058, 7.0540414, 7.243074, -0.076694936, -0.090899944, 10.116056
771612316005952, 0.37328035, 7.048059, 7.0983086, -0.06374884, 0.0062332153, 10.009814
771612325644911, 0.37567315, 7.018149, 7.025327, -0.06107843, 0.0347023, 9.937095
771612335283973, 0.38524446, 6.9942207, 7.01097, -0.051990718, 0.025242805, 9.910494
771612344923036, 0.40677986, 6.9583282, 7.0325055, -0.02566734, -0.012732506, 9.90147
771612354561994, 0.4223332, 6.9391856, 7.0492554, -0.014544904, -0.036050797, 9.900563
771612364201057, 0.465404, 6.896115, 7.042077, 0.031974614, -0.057074547, 9.867096
771612373840119, 0.5312066, 6.8817577, 7.0133634, 0.08935177, -0.039779663, 9.839638
771612383479182, 0.58504516, 6.8913293, 6.960721, 0.14005876, 0.010503769, 9.811454
771612393118140, 0.56350976, 6.8817577, 6.9212394, 0.11399755, 0.029932022, 9.775777
771612402757202, 0.4989035, 6.875776, 6.893722, 0.046346396, 0.03645754, 9.749109
771612412396265, 0.45104706, 6.8745794, 6.843473, -0.0048435926, 0.06294489, 9.710428
771612422035327, 0.43908295, 6.875776, 6.8099732, -0.01728484, 0.082952976, 9.686983
771612431674286, 0.42711884, 6.8985076, 6.815955, -0.028012216, 0.08735752, 9.706735
771612441313348, 0.424726, 6.946364, 6.847062, -0.03382641, 0.096254826, 9.762388
771612450952411, 0.39481574, 6.966703, 6.9248285, -0.058950722, 0.050043583, 9.830467
771612460591369, 0.37806597, 6.983453, 7.0145597, -0.068416476, -0.0034928322, 9.905095
771612470230432, 0.39601216, 6.98106, 7.0576305, -0.04494691, -0.031358242, 9.934747
771612479869494, 0.45104706, 6.983453, 7.09113, 0.011368632, -0.044723034, 9.962634
771612489508557, 0.51445687, 6.983453, 7.1222367, 0.076481074, -0.056259155, 9.987518
771612499147515, 0.5204389, 7.001399, 7.194021, 0.084438264, -0.090985775, 10.051317
771612508786577, 0.47976094, 7.0265236, 7.24786, 0.042046994, -0.11167574, 10.105416
771612518425640, 0.44985065, 7.070791, 7.21436, 0.0028449595, -0.060652256, 10.111467
771612528064702, 0.4235296, 7.0815587, 7.135397, -0.029171556, -0.0010085106, 10.061854
771612537703661, 0.3912265, 7.07438, 7.0265236, -0.06692493, 0.065536976, 9.978136
771612547342723, 0.39361933, 7.0396843, 6.943971, -0.065274954, 0.097206116, 9.895308
771612556981786, 0.39720857, 6.9966135, 6.8913293, -0.060575992, 0.101361275, 9.827861
771612566620848, 0.40438703, 6.957132, 6.8925257, -0.04962921, 0.07131243, 9.801253
771612576259807, 0.41994038, 6.8889365, 6.8602223, -0.028947711, 0.0456357, 9.73106
771612585898869, 0.44027936, 6.875776, 6.890133, -0.006292939, 0.015768528, 9.74391
771612595537932, 0.4438686, 6.8817577, 6.869794, -0.0047853887, 0.03305435, 9.733889
771612605176994, 0.44027936, 6.879365, 6.88774, -0.0060094297, 0.017130852, 9.74475
771612614815952, 0.4223332, 6.906883, 6.9344, -0.022718608, -2.2792816E-4, 9.796366
771612624455015, 0.41635114, 6.9391856, 6.9451675, -0.030170947, 0.013482571, 9.826489
771612634094077, 0.44985065, 6.963114, 6.963114, 0.0026590526, 0.022840023, 9.857574
771612643733140, 0.52283174, 7.0025954, 6.9966135, 0.07129392, 0.038891315, 9.912401
771612653372098, 0.5599205, 7.001399, 7.1078796, 0.11030346, -0.03018713, 9.992096
771612663011161, 0.55513483, 6.984649, 7.1784678, 0.11272547, -0.09212828, 10.03009
771612672650223, 0.5419743, 6.984649, 7.219146, 0.09821278, -0.121119976, 10.058371
771612682289286, 0.5276174, 6.9906316, 7.1784678, 0.0817135, -0.087760925, 10.033112
771612691928244, 0.46779683, 6.9882383, 7.103094, 0.019911975, -0.04639387, 9.975254
