timestamp_acc,device_acc_x,device_acc_y,device_acc_z,earth_acc_x,earth_acc_y,earth_acc_z
771743468033459, 0.80997044, 6.936793, 7.071987, 0.052458048, -0.00667572, 9.939081
771743477672938, 0.75493556, 6.879365, 7.0145597, 0.0037730038, -0.0064020157, 9.853914
771743487312417, 0.66999036, 6.863812, 6.971489, -0.07747793, 0.011059284, 9.805935
771743496951948, 0.64008003, 6.8853474, 6.960721, -0.10734981, 0.034494877, 9.811047
771743506591480, 0.6843473, 6.8542404, 6.983453, -0.06301397, -0.0062088966, 9.80885
771743516230959, 0.7465607, 6.9128647, 7.0408807, -0.007695496, -0.00457716, 9.895401
771743525870438, 0.82672024, 6.9655066, 7.0779696, 0.06726903, 0.0063323975, 9.96468
771743535509917, 0.8542377, 7.012167, 7.0348988, 0.095600426, 0.071395874, 9.96874
771743545149448, 0.8602197, 7.0145597, 7.0348988, 0.10173589, 0.072579384, 9.970867
771743554788980, 0.8530413, 6.9858456, 7.0528445, 0.09296614, 0.040017605, 9.9630375
771743564428459, 0.7908279, 6.9355965, 7.0337024, 0.033212304, 0.018387318, 9.909563
771743574067938, 0.7118647, 6.9044895, 6.987042, -0.039748758, 0.030779839, 9.848602
771743583707469, 0.66041905, 6.8482585, 6.991828, -0.08820993, -0.010555744, 9.8088
771743593347000, 0.67477596, 6.808777, 7.015756, -0.07426974, -0.056783676, 9.79933
771743602986480, 0.64845496, 6.832705, 7.024131, -0.100423455, -0.043525696, 9.82002
771743612625959, 0.67836523, 6.876972, 7.0636125, -0.07475972, -0.038107395, 9.881321
771743622265438, 0.7585248, 6.9344, 7.1485577, -0.003324449, -0.056800365, 9.9879875
771743631904969, 0.8566305, 6.987042, 7.194021, 0.08645439, -0.050389767, 10.064617
771743641544500, 0.849452, 6.991828, 7.1688967, 0.08103567, -0.029211998, 10.049522
771743651183980, 0.82672024, 6.971489, 7.1425757, 0.058098853, -0.025570393, 10.014864
771743660823459, 0.7692925, 6.91765, 7.0325055, 0.011616588, 0.013158798, 9.89452
771743670462990, 0.7118647, 6.876972, 6.9224358, -0.035121888, 0.06079769, 9.783389
771743680102521, 0.6867401, 6.8709903, 6.862615, -0.054577768, 0.099534035, 9.734718
771743689742000, 0.66759753, 6.849455, 6.862615, -0.071908, 0.08352709, 9.718233
771743699381480, 0.7082755, 6.910472, 6.943971, -0.040528893, 0.0680275, 9.82185
771743709020959, 0.782453, 6.9320073, 7.04447, 0.024756134, 0.01088047, 9.91407
771743718660490, 0.8243274, 6.960721, 7.1342006, 0.056984067, -0.031486034, 10.001186
771743728300021, 0.8458628, 6.984649, 7.210771, 0.06760359, -0.06434393, 10.074091
771743737939500, 0.8530413, 6.9930243, 7.1916285, 0.07521933, -0.043566227, 10.066877
771743747578980, 0.82313097, 6.9595246, 7.1545396, 0.04915285, -0.04096794, 10.014782
771743757218511, 0.75254273, 6.9212394, 7.070791, -0.013230026, -0.007344246, 9.922991
771743766858042, 0.6831509, 6.8805614, 6.9702926, -0.07162362, 0.035782814, 9.817709
771743776497521, 0.6448657, 6.847062, 6.9092755, -0.09950739, 0.053158283, 9.747999
771743786137000, 0.6364908, 6.8374906, 6.903293, -0.10599664, 0.049306393, 9.736436
771743795776532, 0.6771688, 6.8650084, 6.9655066, -0.070875615, 0.02412939, 9.8030405
771743805416063, 0.6987042, 6.8889365, 7.056434, -0.05726403, -0.02285862, 9.8861065
771743815055542, 0.74416786, 6.9391856, 7.1186476, -0.020618677, -0.030831814, 9.968945
771743824695021, 0.83030945, 6.957132, 7.172486, 0.058879077, -0.05805683, 10.026407
771743834334500, 0.89013004, 6.9858456, 7.170093, 0.115840495, -0.03795576, 10.049365
771743843974032, 0.8709874, 6.977471, 7.0863442, 0.102066875, 0.014212608, 9.982453
771743853613563, 0.8039884, 6.9523463, 7.0193453, 0.040824592, 0.04499817, 9.912067
771743863253042, 0.79800636, 6.9344, 6.9762745, 0.039383948, 0.057366848, 9.868448
771743872892521, 0.7573284, 6.8853474, 6.9391856, 0.0030558705, 0.04958105, 9.804661
771743882532053, 0.7286145, 6.876972, 6.9248285, -0.023141682, 0.05137682, 9.786404
771743892171584, 0.6879365, 6.876972, 6.916454, -0.06281006, 0.058694363, 9.777318
771743901811063, 0.65922266, 6.873383, 6.9415784, -0.093173385, 0.038493156, 9.79047
771743911450542, 0.7118647, 6.893722, 7.0432734, -0.049394906, -0.019641876, 9.881044
771743921090073, 0.77647096, 6.9296145, 7.1688967, 0.004121721, -0.08252239, 10.000437
771743930729605, 0.80159557, 6.954739, 7.1916285, 0.02661407, -0.07878256, 10.036112
771743940369084, 0.85064846, 6.983453, 7.210771, 0.071187615, -0.07104111, 10.073595
771743950008563, 0.86859465, 6.9930243, 7.1677003, 0.09081587, -0.03372717, 10.05104
771743959648042, 0.8255238, 6.98106, 7.066005, 0.054873586, 0.026064396, 9.967018
771743969287573, 0.7501499, 6.930811, 6.9344, -0.009429187, 0.08354902, 9.832481
771743978927105, 0.6975078, 6.8781686, 6.8458657, -0.05238378, 0.10030413, 9.728762
771743988566584, 0.6628119, 6.8650084, 6.8614187, -0.08688891, 0.080982685, 9.72793
771743998206063, 0.6975078, 6.8949184, 6.8913293, -0.055088967, 0.07754803, 9.77281
771744007845542, 0.73100734, 6.926025, 6.942775, -0.024888664, 0.062613964, 9.833706
771744017485073, 0.72382885, 6.9116683, 7.0025954, -0.03553608, 0.011007786, 9.8656
771744027124605, 0.78843504, 6.920043, 7.0863442, 0.021291018, -0.04192257, 9.93593
771744036764084, 0.8709874, 6.9858456, 7.2119675, 0.09079826, -0.0829339, 10.077599
771744046403563, 0.88414794, 7.0002027, 7.2670026, 0.097872436, -0.109041214, 10.127804
771744056043094, 0.83988076, 7.0265236, 7.2466636, 0.05417806, -0.072583675, 10.128345
771744065682625, 0.8327023, 6.984649, 7.1186476, 0.05807942, -0.013251781, 10.007513
771744075322105, 0.7537391, 6.923632, 6.9344, -0.002182424, 0.06529951, 9.827841
771744084961584, 0.6556334, 6.8721867, 6.7405815, -0.08099502, 0.1622181, 9.646727
771744094601063, 0.60658056, 6.836294, 6.6999035, -0.12550014, 0.16662025, 9.588955
771744104240594, 0.6759724, 6.855437, 6.8339014, -0.062586725, 0.08053684, 9.702873
771744113880125, 0.72502524, 6.9009004, 7.003792, -0.026869118, -0.0050063133, 9.859029
771744123519605, 0.7704889, 6.9523463, 7.0899334, 0.010382593, -0.02995491, 9.959665
771744133159084, 0.81834537, 6.9882383, 7.1270223, 0.05254537, -0.026249886, 10.014798
771744142798563, 0.83988076, 6.99781, 7.099505, 0.074111044, 6.67572E-6, 10.003611
771744152438094, 0.83748794, 6.995417, 7.045666, 0.07600087, 0.03604412, 9.963512
771744162077625, 0.7860422, 6.9726853, 7.0803623, 0.023046196, -0.0027298927, 9.96831
771744171717105, 0.7190432, 6.96431, 7.042077, -0.040180326, 0.020982742, 9.930129
771744181356584, 0.6987042, 6.942775, 6.983453, -0.050207734, 0.04548073, 9.871896
771744190996115, 0.71665037, 6.879365, 6.8985076, -0.02219516, 0.057148457, 9.768566
771744200635646, 0.6963114, 6.8422766, 6.8339014, -0.036310196, 0.076611996, 9.695185
771744210275125, 0.7190432, 6.876972, 6.903293, -0.018821895, 0.05152273, 9.770477
771744219914605, 0.78364944, 6.897311, 7.02772, 0.035135746, -0.022380352, 9.877962
771744229554084, 0.8530413, 6.8925257, 7.196414, 0.090201676, -0.14369345, 9.999708
771744239193615, 0.87218386, 6.910472, 7.292127, 0.0949406, -0.19213867, 10.081891
771744248833146, 0.86141616, 6.91765, 7.2670026, 0.0870924, -0.16851091, 10.068232
771744258472625, 0.81236327, 6.9320073, 7.29452, 0.032833934, -0.17426538, 10.094119
771744268112105, 0.782453, 6.9595246, 7.2897344, 0.0023768544, -0.15118504, 10.107649
771744277751584, 0.75972116, 6.9595246, 7.1677003, -0.007421732, -0.06788206, 10.019152
771744287391115, 0.72382885, 6.9415784, 7.018149, -0.031425357, 0.024971008, 9.897587
771744297030646, 0.67118675, 6.9092755, 6.8410797, -0.06516552, 0.112681866, 9.745359
771744306670125, 0.64247286, 6.903293, 6.678368, -0.081508964, 0.2234168, 9.623528
771744316309605, 0.6233303, 6.8662047, 6.623333, -0.09072915, 0.22344828, 9.55739
771744325949084, 0.67118675, 6.884151, 6.715457, -0.049119115, 0.17058516, 9.638874
771744335588563, 0.7322037, 6.946364, 6.8985076, -0.0037711263, 0.08214474, 9.81686
771744345228094, 0.7716853, 7.0133634, 7.0875406, 0.014793694, -0.0028104782, 10.00079
771744354867625, 0.802792, 7.025327, 7.2023964, 0.035353124, -0.076282024, 10.092926
771744364507105, 0.79920274, 7.025327, 7.1784678, 0.031509757, -0.0586648, 10.075709
771744374146584, 0.7046863, 6.987042, 7.0600233, -0.05308938, -8.201599E-5, 9.957733
771744383786063, 0.6867401, 6.9224358, 6.9858456, -0.061469436, 0.0045576096, 9.858498
771744393425594, 0.69152576, 6.8745794, 6.920043, -0.05016321, 0.016137123, 9.778664
771744403065125, 0.6520442, 6.8721867, 6.8506513, -0.08177298, 0.063268185, 9.724857
771744412704605, 0.65084773, 6.903293, 6.8542404, -0.08169654, 0.08127737, 9.749174
771744422344084, 0.70947194, 6.957132, 6.869794, -0.026218235, 0.10643816, 9.802401
771744431983563, 0.78723866, 7.001399, 6.9128647, 0.04520592, 0.105856895, 9.869843
771744441623094, 0.86141616, 7.007381, 6.9655066, 0.11133897, 0.07335472, 9.916952
771744451262625, 0.8889336, 6.9882383, 7.0205417, 0.13234207, 0.021389961, 9.944632
771744460902105, 0.86261255, 6.9906316, 7.085148, 0.101365626, -0.022160053, 9.990075
771744470541584, 0.84825563, 6.971489, 7.1677003, 0.079058945, -0.09188652, 10.034063
771744480181063, 0.8171489, 6.9320073, 7.172486, 0.048036575, -0.11822033, 10.007433
771744489820542, 0.7573284, 6.8781686, 7.140183, -0.0065360963, -0.1323924, 9.9422035
771744499460073, 0.6999006, 6.873383, 7.0983086, -0.058649093, -0.1037159, 9.904798
771744509099605, 0.66759753, 7.1138616, 7.0863442, -0.0985201, 0.07772541, 10.062468
771744518739084, 0.5587241, 6.2751775, 6.897311, -0.16912085, -0.38685703, 9.331919
771744528378563, 0.6472585, 7.5146594, 7.0612197, -0.12028515, 0.3772893, 10.324393
771744538018042, 0.56470615, 6.3314085, 6.867401, -0.16116348, -0.3292513, 9.350533
771744547657521, 0.7573284, 7.368697, 6.9762745, 0.002112925, 0.32376862, 10.170292
771744557297053, 0.8135597, 6.855437, 6.9942207, 0.06571221, -0.05288124, 9.827049
771744566936584, 0.83748794, 6.9798636, 6.853044, 0.09779012, 0.12870312, 9.81621
771744576576063, 0.95473623, 7.4356966, 7.0935225, 0.1874547, 0.27252913, 10.315512
771744586215542, 0.81595254, 6.546763, 6.7298136, 0.08744395, -0.10262489, 9.423275
771744595855021, 0.92243314, 7.7001033, 7.0540414, 0.15230548, 0.48581886, 10.471045
771744605494500, 0.7082755, 6.2117677, 6.6329045, -0.00974071, -0.2719121, 9.110935
771744615134032, 0.8458628, 7.645068, 6.946364, 0.08485997, 0.5192394, 10.350735
771744624773563, 0.6843473, 6.2811594, 6.768099, -0.043513656, -0.30897188, 9.253708
771744634413042, 0.7848458, 7.3567333, 7.0229344, 0.0236817, 0.2782359, 10.197114
771744644052521, 0.72263247, 6.7034926, 7.099505, -0.03730291, -0.23700571, 9.787975
771744653692000, 0.72741807, 6.9044895, 7.071987, -0.03122443, -0.064612865, 9.910044
771744663331480, 0.80997044, 7.2586274, 7.402197, 0.015134215, -0.04185295, 10.398762
771744672970959, 0.67118675, 6.4091754, 7.1246295, -0.07423732, -0.44693518, 9.595995
771744682610490, 0.80997044, 7.584051, 7.470392, 0.002406299, 0.14361048, 10.675207
771744692250021, 0.57427746, 6.1232333, 6.99781, -0.15531391, -0.55744267, 9.298294
771744701889500, 0.7190432, 7.6103725, 7.203593, -0.05923605, 0.35313797, 10.497538
771744711528980, 0.59342, 6.1998034, 6.8279195, -0.1253854, -0.37890482, 9.233142
771744721168459, 0.7286145, 7.355537, 6.9044895, -0.011413217, 0.37389994, 10.107761
771744730807938, 0.6999006, 6.680761, 6.8315086, -0.024911225, -0.05274391, 9.580633
771744740447417, 0.72741807, 7.0193453, 6.7226353, 0.0094640255, 0.25386858, 9.743185
771744750086948, 0.87936234, 7.2969127, 7.001399, 0.1284405, 0.24673939, 10.146942
771744759726480, 0.83030945, 6.5754766, 6.715457, 0.10904378, -0.06816912, 9.434359
771744769365959, 0.9822537, 7.7156568, 7.1246295, 0.21039033, 0.44502068, 10.536331
771744779005438, 0.7537391, 6.290731, 6.7633133, 0.023335576, -0.30366898, 9.262345
771744788644917, 0.8925229, 7.713264, 7.123433, 0.11424053, 0.45593882, 10.526796
771744798284396, 0.6903293, 6.236892, 6.869794, -0.048039675, -0.4055419, 9.295304
771744807923875, 0.7932207, 7.402197, 7.0983086, 0.024126232, 0.2520628, 10.28317
771744817563355, 0.70588267, 6.5443697, 7.099505, -0.054195106, -0.3446474, 9.675138
771744827202886, 0.68075806, 6.916454, 7.0528445, -0.0771963, -0.03750658, 9.901314
771744836842417, 0.75254273, 7.0695944, 7.27777, -0.028549671, -0.088344574, 10.173633
771744846481896, 0.6113662, 6.4666033, 6.995417, -0.13770032, -0.3115449, 9.539946
771744856121375, 0.76331043, 7.52782, 7.351948, -0.027528524, 0.18703651, 10.548276
771744865760855, 0.567099, 6.216553, 6.930811, -0.17185777, -0.43792057, 9.315683
771744875400334, 0.75613195, 7.7096744, 7.2287173, -0.02160883, 0.4005847, 10.587929
771744885039813, 0.587438, 6.1998034, 6.8374906, -0.13698298, -0.38853455, 9.239275
771744894679292, 0.7178468, 7.48116, 6.9451675, -0.031389415, 0.43171358, 10.224043
771744904318823, 0.66041905, 6.567102, 6.853044, -0.071006835, -0.1562686, 9.51303
771744913958355, 0.77647096, 7.0863442, 6.8243303, 0.04352653, 0.22610521, 9.865984
771744923597834, 0.8913264, 7.1377897, 7.0695944, 0.13249213, 0.08759403, 10.084465
771744933237313, 0.79800636, 6.6053867, 6.798009, 0.06902081, -0.09872913, 9.511381
771744942876792, 0.90807617, 7.576873, 7.1808605, 0.12768853, 0.31622124, 10.472921
771744952516271, 0.7262217, 6.257231, 6.800402, -0.0065683722, -0.34513855, 9.263187
771744962155750, 0.9212367, 7.7108707, 7.1916285, 0.12187159, 0.40146828, 10.575901
771744971795230, 0.72263247, 6.250053, 6.856633, -0.014089942, -0.38865662, 9.297716
771744981434709, 0.8207382, 7.5661054, 7.0396843, 0.040180504, 0.4164691, 10.35865
771744991074188, 0.6831509, 6.533602, 6.930811, -0.066791475, -0.2422905, 9.54608
771745000713719, 0.71306115, 7.079166, 6.882954, -0.046715796, 0.17702436, 9.897706
771745010353250, 0.7537391, 6.9858456, 7.038488, -0.013835013, 0.0050959587, 9.945364
771745019992730, 0.72023964, 6.593423, 6.849455, -0.01986155, -0.13731289, 9.533507
771745029632209, 0.88295156, 7.5182486, 7.3292155, 0.07314873, 0.18625975, 10.534754
771745039271688, 0.72382885, 6.2847486, 7.082755, -0.026237547, -0.51495504, 9.482698
771745048911167, 0.8889336, 7.7036924, 7.4309106, 0.065779746, 0.25006676, 10.737255
771745058550646, 0.6580262, 6.196214, 6.9655066, -0.077898085, -0.49063683, 9.332607
771745068190125, 0.7298109, 7.5409803, 7.071987, -0.067876756, 0.38076496, 10.356758
771745077829605, 0.6029913, 6.422336, 6.8721867, -0.13422853, -0.26573515, 9.420632
771745087469084, 0.63888365, 7.0935225, 6.836294, -0.121213794, 0.22277164, 9.868983
771745097108563, 0.67118675, 6.9224358, 6.942775, -0.08427611, 0.029008865, 9.826738
771745106748094, 0.6664011, 6.629315, 6.6939216, -0.060650438, -0.008794785, 9.444402
771745116387625, 0.8578269, 7.4440713, 7.112665, 0.07073963, 0.27151632, 10.327698
771745126027105, 0.75972116, 6.3421764, 6.820741, 0.029313505, -0.30471706, 9.339655
771745135666584, 1.0037891, 7.789834, 7.2993054, 0.18292898, 0.38226128, 10.71398
771745145306063, 0.80518484, 6.29432, 6.9822564, 0.04785329, -0.4547286, 9.423885
771745154945542, 0.9212367, 7.678568, 7.164111, 0.107945025, 0.4061222, 10.53361
771745164585021, 0.72502524, 6.4821568, 6.9619174, -0.037719607, -0.30543852, 9.535072
771745174224500, 0.7118647, 7.2023964, 6.916454, -0.058715522, 0.24235868, 10.007818
771745183863980, 0.6376872, 6.8339014, 6.946364, -0.12601078, -0.037650585, 9.764401
771745193503459, 0.6053841, 6.6041903, 6.678368, -0.12868613, -0.017968655, 9.410925
771745203142938, 0.7968099, 7.338787, 7.0289164, 0.0122997165, 0.2532816, 10.189899
771745212782417, 0.74177504, 6.34098, 6.7812595, 0.010668784, -0.27890253, 9.309448
771745222421896, 1.018146, 7.759924, 7.2861447, 0.19295168, 0.36880064, 10.684928
771745232061375, 0.8709874, 6.320641, 7.0193453, 0.11718416, -0.45930958, 9.473946
771745241700855, 1.026521, 7.795816, 7.2418776, 0.20113605, 0.42751408, 10.679422
771745251340386, 0.84107715, 6.5312095, 6.98106, 0.07946676, -0.28272057, 9.592345
771745260979917, 0.8171489, 7.3567333, 6.9451675, 0.026014984, 0.32963896, 10.144718
771745270619396, 0.6987042, 6.8721867, 6.8949184, -0.06736541, 0.02635336, 9.759601
771745280258875, 0.5694918, 6.71426, 6.6460648, -0.16509491, 0.08591795, 9.462618
771745289898355, 0.66400826, 7.21436, 7.007381, -0.11248273, 0.18664217, 10.076894
771745299537834, 0.50129634, 6.1734824, 6.79442, -0.22030613, -0.40225887, 9.182428
771745309177313, 0.7298109, 7.524231, 7.3304124, -0.0793587, 0.17653751, 10.528254
771745318816792, 0.62811595, 6.070591, 7.0600233, -0.11468136, -0.65433216, 9.3085575
771745328456271, 0.93559366, 7.6307116, 7.4189467, 0.11193049, 0.20463943, 10.681267
771745338095750, 0.8913264, 6.411568, 7.2287173, 0.11701864, -0.53323746, 9.688085
771745347735230, 1.0217353, 7.4440713, 7.237092, 0.21194994, 0.19113398, 10.428431
771745357374709, 0.93679005, 6.9296145, 7.1425757, 0.14847606, -0.10068512, 9.994064
771745367014188, 0.8769695, 6.9092755, 6.7968125, 0.11056802, 0.123698235, 9.730175
771745376653667, 0.90807617, 7.3579297, 6.897311, 0.11706787, 0.35755348, 10.119048
771745386293146, 0.71306115, 6.4151573, 6.5168524, -0.011924058, -0.049708843, 9.172211
771745395932625, 0.82672024, 7.6163545, 6.927222, 0.018723726, 0.51201344, 10.315824
771745405572105, 0.59700924, 6.113662, 6.6017976, -0.121310115, -0.3279004, 9.010815
771745415211584, 0.7704889, 7.6103725, 6.9930243, -0.038670868, 0.4545784, 10.354017
771745424851063, 0.66400826, 6.283552, 6.897311, -0.085079014, -0.4075656, 9.344705
771745434490542, 0.77647096, 7.3782687, 7.1306114, -0.030600846, 0.21151781, 10.28794
771745444130021, 0.71665037, 6.808777, 7.2155566, -0.08401048, -0.24975395, 9.943232
771745453769553, 0.75613195, 6.983453, 7.0576305, -0.03340721, -0.016729832, 9.957363
771745463409084, 0.86141616, 7.3746796, 7.268199, 0.04723364, 0.11368132, 10.389393
771745473048563, 0.6580262, 6.4594245, 6.855437, -0.11260253, -0.23231173, 9.43862
771745482688042, 0.79441714, 7.594819, 7.1916285, 3.412962E-4, 0.32612753, 10.484539
771745492327521, 0.5910272, 6.0957155, 6.765706, -0.17149013, -0.4321108, 9.11404
771745501967000, 0.80997044, 7.611569, 7.062416, 0.033400595, 0.41739225, 10.406461
771745511606480, 0.7118647, 6.2775702, 6.800402, -0.057136357, -0.3330016, 9.276096
771745521245959, 0.8925229, 7.4333034, 6.9822564, 0.11975926, 0.3372903, 10.2310505
771745530885438, 0.85184485, 6.7501526, 7.021738, 0.060694337, -0.1703577, 9.775599
771745540524917, 0.83748794, 6.975078, 6.9128647, 0.062696695, 0.071629524, 9.855545
771745550164396, 0.91166544, 7.2646093, 7.1306114, 0.10939729, 0.12232399, 10.218824
771745559803875, 0.7692925, 6.512067, 6.8015985, 0.006822169, -0.17494965, 9.446159
771745569443355, 0.9236295, 7.62114, 7.1916285, 0.09670454, 0.33885098, 10.513335
771745579082834, 0.6999006, 6.186643, 6.836294, -0.046144813, -0.4299054, 9.23647
771745588722313, 0.8530413, 7.682157, 7.207182, 0.009378076, 0.37675905, 10.561471
771745598361792, 0.6759724, 6.233303, 6.96431, -0.06452215, -0.4868331, 9.357962
771745608001271, 0.7752745, 7.4249287, 7.1282187, -0.05177763, 0.24261475, 10.318943
771745617640750, 0.6963114, 6.5682983, 7.068398, -0.06374642, -0.3154993, 9.6688175
771745627280230, 0.6939186, 6.9116683, 6.942775, -0.08692725, 0.011629105, 9.820747
771745636919709, 0.78364944, 7.1306114, 7.153343, -0.02138099, 0.02504301, 10.130596
771745646559188, 0.7513463, 6.5718875, 6.8865438, -0.0065290034, -0.1840992, 9.546977
771745656198667, 0.9200403, 7.6331043, 7.2526455, 0.07941607, 0.31252003, 10.564452
771745665838146, 0.695115, 6.265606, 6.8374906, -0.045219988, -0.36618137, 9.292801
771745675477625, 0.8566305, 7.719246, 7.0899334, 0.025678426, 0.48215485, 10.50498
771745685117105, 0.65324056, 6.202196, 6.6855464, -0.08009645, -0.31719732, 9.136929
771745694756584, 0.8255238, 7.515856, 6.8805614, 0.020877182, 0.47485828, 10.212042
771745704396063, 0.8063812, 6.6424756, 6.908079, 0.0390445, -0.1644001, 9.6159115
771745714035542, 0.849452, 7.1342006, 6.920043, 0.059681773, 0.18064451, 9.973425
771745723675021, 0.8781659, 7.149754, 7.1425757, 0.07177207, 0.035856247, 10.1439705
771745733314500, 0.73818576, 6.5276203, 6.800402, -0.019356579, -0.16520071, 9.453704
771745742953980, 0.82313097, 7.5146594, 7.1342006, -6.546378E-4, 0.2992301, 10.390135
771745752593459, 0.6376872, 6.229714, 6.7932234, -0.104180306, -0.36674786, 9.231386
771745762232938, 0.8865408, 7.7156568, 7.2490563, 0.052297413, 0.36007214, 10.617616
771745771872417, 0.72263247, 6.206982, 7.001399, -0.03081122, -0.5286832, 9.369523
771745781511896, 0.8207382, 7.539784, 7.173682, 3.347993E-4, 0.30493927, 10.43507
771745791151375, 0.6735796, 6.515656, 7.0097737, -0.09404963, -0.30566025, 9.588646
771745800790855, 0.66161543, 7.0396843, 6.9020967, -0.11857283, 0.14346218, 9.8792305
771745810430334, 0.7046863, 6.9738817, 6.9894347, -0.08001661, 0.032763958, 9.898298
771745820069813, 0.6999006, 6.5718875, 6.7872415, -0.054837286, -0.11143589, 9.472633
771745829709292, 0.94396853, 7.524231, 7.3052874, 0.11426616, 0.20301676, 10.527018
771745839348771, 0.8362915, 6.306284, 7.02772, 0.07261777, -0.46621037, 9.467567
771745848988250, 1.0313065, 7.7826557, 7.393822, 0.18588644, 0.3246441, 10.777848
771745858627730, 0.81236327, 6.250053, 6.910472, 0.054192007, -0.41953564, 9.343381
771745868267209, 0.8805587, 7.60439, 6.99781, 0.0767203, 0.4708495, 10.36069
771745877906688, 0.7322037, 6.4737816, 6.843473, -0.030235827, -0.21546173, 9.446255
771745887546167, 0.77766734, 7.131808, 6.884151, -0.010344207, 0.21346235, 9.940489
771745897185646, 0.78723866, 6.966703, 7.001399, -0.0019260645, 0.017380714, 9.9082775
771745906825125, 0.715454, 6.6149583, 6.734599, -0.037199944, -0.04422331, 9.466839
771745916464605, 0.81834537, 7.4189467, 7.119844, 0.0017886162, 0.2587185, 10.311921
771745926104084, 0.71306115, 6.265606, 6.8099732, -0.02333635, -0.34246206, 9.274924
771745935743563, 0.93679005, 7.7180495, 7.318448, 0.092304796, 0.3410883, 10.67149
771745945383042, 0.75613195, 6.2081785, 7.058827, 0.012957394, -0.55288315, 9.414585
771745955022521, 0.89371926, 7.6139617, 7.361519, 0.04677999, 0.2339077, 10.625733
771745964662000, 0.7429714, 6.4570317, 7.1784678, -0.018941283, -0.45242977, 9.673191
771745974301480, 0.7896315, 7.1712894, 7.079166, -0.014164001, 0.11835909, 10.106992
771745983940959, 0.75972116, 6.8506513, 7.02772, -0.020726144, -0.06941366, 9.843383
771745993580490, 0.6771688, 6.6352973, 6.728617, -0.06992015, -0.018620491, 9.4739
771746003219969, 0.8362915, 7.361519, 7.117451, 0.027119756, 0.22442436, 10.271239
771746012859396, 0.6903293, 6.253642, 6.8135624, -0.034995615, -0.34966326, 9.267456
771746022498875, 0.86261255, 7.672586, 7.2442703, 0.024475694, 0.3511939, 10.581504
771746032138407, 0.6963114, 6.2057858, 6.8614187, -0.032251775, -0.41812658, 9.268215
771746041777938, 0.88414794, 7.6809607, 7.111469, 0.05674094, 0.452734, 10.494935
771746051417417, 0.73459655, 6.4199433, 6.927222, -0.014522523, -0.32094717, 9.46776
771746061056896, 0.782453, 7.2562346, 6.977471, -0.014545351, 0.23744965, 10.094241
771746070696375, 0.73818576, 6.869794, 7.02772, -0.041176528, -0.07243061, 9.854994
771746080335855, 0.70229346, 6.77767, 6.8422766, -0.06099415, -0.0051960945, 9.656242
771746089975334, 0.8422736, 7.3770723, 7.1581287, 0.02827987, 0.19621468, 10.311649
771746099614813, 0.6687939, 6.364908, 6.8506513, -0.07668725, -0.3045535, 9.369745
771746109254292, 0.849452, 7.685746, 7.259824, 0.016971856, 0.34321547, 10.600906
771746118893771, 0.6795616, 6.172286, 6.800402, -0.0578506, -0.40609503, 9.199791
771746128533250, 0.86261255, 7.6534433, 7.0325055, 0.04797712, 0.47870398, 10.418446
771746138172730, 0.71665037, 6.385247, 6.890133, -0.035958767, -0.3271804, 9.415443
771746147812209, 0.802792, 7.322037, 6.9858456, 0.008434415, 0.27470636, 10.148066
771746157451688, 0.73100734, 6.8195443, 6.9822564, -0.044364274, -0.08299065, 9.78691
771746167091167, 0.6771688, 6.829116, 6.748956, -0.08072841, 0.09010506, 9.624405
771746176730646, 0.8554341, 7.3340015, 6.991828, 0.06132424, 0.27419758, 10.164944
771746186370125, 0.80518484, 6.4474607, 6.7058854, 0.06150514, -0.1535244, 9.335932
771746196009605, 0.99302137, 7.786245, 7.2658057, 0.15390664, 0.40850306, 10.687053
771746205649084, 0.7956135, 6.2608204, 7.012167, 0.03725326, -0.49735308, 9.42086
771746215288563, 0.91166544, 7.7036924, 7.318448, 0.07342446, 0.3197193, 10.659742
771746224928042, 0.66041905, 6.314659, 7.003792, -0.09155464, -0.44959068, 9.4421215
771746234567521, 0.6867401, 7.30768, 6.9726853, -0.1101515, 0.28281116, 10.119289
771746244207000, 0.6329016, 6.658029, 6.884151, -0.1192269, -0.12243986, 9.59647
771746253846480, 0.6448657, 6.782456, 6.748956, -0.106125, 0.066149235, 9.589073
771746263485959, 0.78843504, 7.207182, 7.111469, -0.006678939, 0.11415005, 10.155048
771746273125438, 0.7190432, 6.4271216, 6.910472, -0.012072355, -0.2955265, 9.460025
771746282764917, 0.96909314, 7.7120676, 7.3902326, 0.12289798, 0.2937045, 10.72051
771746292404396, 0.8039884, 6.2775702, 7.0229344, 0.08116731, -0.46932888, 9.441875
771746302043875, 0.9343972, 7.7551384, 7.21436, 0.0878969, 0.45218086, 10.623091
771746311683355, 0.72263247, 6.3158555, 6.8662047, -0.0029302835, -0.33713484, 9.351114
771746321322834, 0.8243274, 7.381858, 7.038488, 0.015942514, 0.30035543, 10.228449
771746330962313, 0.73459655, 6.6424756, 7.075577, -0.021014959, -0.24572992, 9.729599
771746340601792, 0.6735796, 6.8398833, 6.9116683, -0.08197278, 0.008180618, 9.746902
771746350241271, 0.7477571, 7.1306114, 7.129415, -0.034344524, 0.06448507, 10.110785
771746359880750, 0.6448657, 6.381658, 6.814759, -0.07376942, -0.24875307, 9.354948
771746369520230, 0.83389866, 7.5529447, 7.2346992, 0.025454283, 0.29701805, 10.48782
771746379159709, 0.6723832, 6.157929, 6.8602223, -0.042144537, -0.4352064, 9.23275
771746388799188, 0.8805587, 7.6570325, 7.222735, 0.0653235, 0.37720108, 10.555895
771746398438667, 0.7262217, 6.2668023, 7.02772, 0.0014300644, -0.46607542, 9.432489
771746408078146, 0.8578269, 7.4775705, 7.2023964, 0.054745644, 0.2780671, 10.413652
771746417717625, 0.75613195, 6.652047, 7.097112, 0.0041863024, -0.236691, 9.75369
771746427357105, 0.7405786, 6.9702926, 6.9619174, -0.020066291, 0.0831666, 9.878988
771746436996584, 0.7788638, 7.099505, 7.119844, 0.0040156245, 0.06281662, 10.084534
771746446636063, 0.64606214, 6.4343, 6.802795, -0.074213475, -0.18937397, 9.383723
771746456275542, 0.80159557, 7.5026956, 7.196414, 0.0012610555, 0.2999072, 10.42264
771746465915021, 0.64845496, 6.1447687, 6.815955, -0.050902307, -0.4018922, 9.190855
771746475554500, 0.8769695, 7.7120676, 7.192825, 0.06547129, 0.45609713, 10.572109
771746485193980, 0.71665037, 6.2584276, 6.899704, 4.54247E-4, -0.37494802, 9.335247
771746494833459, 0.8530413, 7.499106, 7.152147, 0.053495318, 0.32738733, 10.392664
771746504472938, 0.7393822, 6.5694947, 7.112665, -0.006154418, -0.2987442, 9.70596
771746514112417, 0.71665037, 6.9966135, 7.021738, -0.048550874, 0.065514565, 9.938024
771746523751896, 0.74177504, 7.045666, 7.1712894, -0.03396049, 8.883476E-4, 10.080569
771746533391428, 0.6771688, 6.454639, 6.8614187, -0.05121237, -0.204741, 9.442217
771746543030959, 0.8530413, 7.475178, 7.2993054, 0.04516682, 0.21699667, 10.4803
771746552670438, 0.6652047, 6.209375, 6.937989, -0.06309044, -0.42788935, 9.324562
771746562309917, 0.83988076, 7.7001033, 7.2622166, 0.026670277, 0.40297985, 10.610076
771746571949396, 0.64008003, 6.227321, 6.9152575, -0.085504234, -0.39743042, 9.319054
771746581588875, 0.7956135, 7.564909, 7.133004, -0.005847156, 0.39506435, 10.420389
771746591228355, 0.7369894, 6.5611196, 7.038488, -0.009004056, -0.24860954, 9.647273
771746600867834, 0.7716853, 7.117451, 7.024131, -8.9782476E-4, 0.15653181, 10.028336
771746610507313, 0.79441714, 7.055238, 7.160522, 0.018223614, 0.012196541, 10.083654
771746620146792, 0.6855437, 6.573084, 6.838687, -0.047759622, -0.10560799, 9.509448
771746629786271, 0.7645068, 7.452446, 7.1102724, -0.029718459, 0.32621145, 10.323377
771746639425750, 0.5587241, 6.1794643, 6.715457, -0.1468007, -0.302835, 9.136852
771746649065230, 0.7860422, 7.635497, 7.152147, -0.018185437, 0.42114305, 10.483044
771746658704709, 0.6436693, 6.148358, 6.843473, -0.05831024, -0.4202237, 9.212479
771746668344188, 0.8207382, 7.5720873, 7.075577, 0.024526924, 0.43207836, 10.386847
771746677983667, 0.76570326, 6.5443697, 6.9535427, 0.035585582, -0.20526981, 9.577236
771746687623146, 0.87936234, 7.2179494, 6.916454, 0.10964066, 0.30071402, 10.030302
771746697262625, 0.92482597, 7.0695944, 7.003792, 0.15100986, 0.13537884, 9.992319
771746706902105, 0.8350951, 6.6939216, 6.7537417, 0.09821671, 0.040308475, 9.545036
771746716541584, 0.9236295, 7.4943204, 7.1880393, 0.10950738, 0.31331444, 10.419966
771746726181063, 0.7405786, 6.3086767, 6.890133, 0.018180221, -0.32667446, 9.365616
771746735820542, 0.92482597, 7.7156568, 7.3363943, 0.09708515, 0.37611246, 10.679815
771746745460073, 0.71425754, 6.1471615, 7.04447, -0.009074181, -0.54164314, 9.361029
771746755099605, 0.8362915, 7.5146594, 7.2705917, 0.029529154, 0.28987455, 10.485519
771746764739084, 0.65682983, 6.3361945, 7.117451, -0.07181087, -0.44919968, 9.540962
771746774378563, 0.6939186, 7.0875406, 7.1210403, -0.07780677, 0.09396458, 10.070208
771746784018042, 0.70588267, 6.782456, 7.2215385, -0.053642035, -0.19436502, 9.930255
771746793657521, 0.6652047, 6.5479593, 6.9678993, -0.06599262, -0.18083858, 9.582945
771746803297000, 0.75493556, 7.2993054, 7.3256264, -0.033612043, 0.10750818, 10.368313
771746812936480, 0.6329016, 6.1842504, 6.977471, -0.08459425, -0.44301367, 9.334194
771746822575959, 0.83030945, 7.6067834, 7.314859, 0.028074741, 0.34501648, 10.580167
771746832215438, 0.6879365, 6.1399827, 6.9212394, -0.02531445, -0.43637276, 9.267424
771746841854917, 0.8985049, 7.649854, 7.1856465, 0.09918243, 0.4660716, 10.5230255
771746851494396, 0.80159557, 6.454639, 6.987042, 0.06777364, -0.25875187, 9.542126
771746861133875, 0.8554341, 7.308877, 7.0492554, 0.07407829, 0.31419945, 10.185247
771746870773355, 0.7968099, 6.8985076, 7.103094, 0.034160435, -0.023589611, 9.933607
771746880412834, 0.6999006, 6.7334027, 6.8482585, -0.039644867, 0.036187172, 9.629347
771746890052365, 0.7070791, 7.2765737, 7.123433, -0.07579544, 0.23241663, 10.20451
771746899691896, 0.51206404, 6.1902323, 6.759724, -0.18654138, -0.29379892, 9.173546
771746909331375, 0.72023964, 7.550552, 7.222735, -0.075256854, 0.3627491, 10.467102
771746918970855, 0.54675996, 6.094519, 6.8817577, -0.15250903, -0.44613504, 9.196651
771746928610334, 0.7573284, 7.57448, 7.2059855, -0.045325786, 0.38635683, 10.474789
771746938249813, 0.6939186, 6.34098, 7.070791, -0.023696303, -0.3921914, 9.514791
771746947889292, 0.8709874, 7.312466, 7.204789, 0.08291152, 0.2080388, 10.299982
771746957528771, 0.87936234, 6.8255267, 7.253842, 0.11825895, -0.1658163, 9.996893
771746967168250, 0.8350951, 6.789634, 7.0289164, 0.0838339, -0.03256941, 9.807859
771746976807730, 0.9164511, 7.314859, 7.2622166, 0.12276611, 0.1802473, 10.34598
771746986447209, 0.76331043, 6.3290157, 6.876972, 0.04573959, -0.25727654, 9.373556
771746996086688, 0.8865408, 7.594819, 7.268199, 0.071448565, 0.37943745, 10.542526
771747005726167, 0.66999036, 6.1028943, 6.8745794, -0.03988436, -0.41672182, 9.2075405
771747015365698, 0.8327023, 7.6031938, 7.1569324, 0.02979371, 0.4558468, 10.464939
771747025005230, 0.6735796, 6.233303, 6.9355965, -0.04029107, -0.36941385, 9.34196
771747034644709, 0.7585248, 7.2861447, 7.0959153, -0.023280978, 0.2811985, 10.194885
771747044284188, 0.73818576, 6.7058854, 7.1976104, -0.01573065, -0.20537043, 9.862909
771747053923667, 0.75493556, 6.8458657, 7.1066833, 7.1009994E-4, -0.04467964, 9.896402
771747063563146, 0.8446664, 7.2670026, 7.428518, 0.051378727, 0.037606716, 10.426006
771747073202625, 0.6903293, 6.381658, 7.0779696, -0.038285136, -0.3530078, 9.5484915
771747082842105, 0.81236327, 7.580462, 7.385447, 0.007925183, 0.28901386, 10.610587
771747092481584, 0.55752766, 6.0693946, 6.873383, -0.14171767, -0.4347973, 9.175111
771747102121063, 0.7405786, 7.5254273, 7.0731835, -0.03726223, 0.45995378, 10.343958
771747111760594, 0.51445687, 6.1363935, 6.759724, -0.174656, -0.320045, 9.136789
771747121400125, 0.66161543, 7.271788, 6.927222, -0.08436614, 0.38243055, 10.05732
771747131039605, 0.67118675, 6.6364937, 7.055238, -0.055214822, -0.1678114, 9.707663
771747140679084, 0.7908279, 6.8853474, 7.0863442, 0.048473716, -0.011573315, 9.911973
771747150318563, 0.930808, 7.198807, 7.4392858, 0.14796868, -0.02412939, 10.392773
771747159958042, 0.8362915, 6.4666033, 7.1186476, 0.105921656, -0.32734585, 9.647441
771747169597521, 0.98943216, 7.6678, 7.4847493, 0.1780034, 0.27822447, 10.755768
771747179237000, 0.76570326, 6.235696, 7.0061846, 0.04528612, -0.4224887, 9.400866
771747188876480, 0.8709874, 7.702496, 7.164111, 0.07365617, 0.5184026, 10.5421715
771747198516011, 0.58265233, 6.212964, 6.7118673, -0.1106171, -0.24344778, 9.160681
771747208155542, 0.6436693, 7.3256264, 6.8219376, -0.114445895, 0.47563314, 10.018913
771747217795021, 0.567099, 6.4881387, 6.8315086, -0.14237064, -0.12873268, 9.436644
771747227434500, 0.59700924, 6.8195443, 6.849455, -0.12627381, 0.097343445, 9.682572
771747237073980, 0.7046863, 7.079166, 7.219146, -0.054371715, 0.026187897, 10.135265
771747246713459, 0.6723832, 6.4606214, 7.103094, -0.05214122, -0.33499002, 9.619291
771747256352938, 0.89491564, 7.578069, 7.6067834, 0.08365789, 0.12308979, 10.773535
771747265992417, 0.7513463, 6.224928, 7.2011995, 0.03687173, -0.563601, 9.53166
771747275631948, 0.9499506, 7.726424, 7.4344997, 0.14137444, 0.34831142, 10.7578125
771747285271480, 0.74895346, 6.2668023, 6.9523463, 0.035701096, -0.3599949, 9.382856
771747294910959, 0.80877405, 7.475178, 6.98106, 0.038072973, 0.47347164, 10.248999
771747304550438, 0.68075806, 6.5539412, 6.8039913, -0.035218537, -0.07193518, 9.471297
771747314189917, 0.6687939, 6.954739, 6.7334027, -0.053298175, 0.26523447, 9.699547
771747323829396, 0.7178468, 7.024131, 7.0002027, -0.028862238, 0.123556614, 9.941853
771747333468875, 0.6029913, 6.4366927, 6.829116, -0.1078949, -0.1752367, 9.4015465
771747343108355, 0.7860422, 7.5062847, 7.347162, -0.00219509, 0.22579813, 10.530525
771747352747886, 0.66041905, 6.218946, 7.021738, -0.058621824, -0.4596281, 9.391568
771747362387417, 0.84347, 7.698907, 7.3543406, 0.045053273, 0.36231184, 10.674158
771747372026896, 0.63529444, 6.189036, 6.969096, -0.07830393, -0.43769646, 9.331579
771747381666375, 0.8063812, 7.4919276, 7.119844, 0.03510478, 0.37942886, 10.359838
771747391305855, 0.7645068, 6.498906, 6.9882383, 0.03812635, -0.23320484, 9.570784
771747400945334, 0.7920243, 7.024131, 6.9344, 0.04587072, 0.17781591, 9.900398
771747410584865, 0.83748794, 6.9906316, 7.1485577, 0.08090174, 0.0028390884, 10.033228
771747420224396, 0.73340017, 6.5347986, 6.95115, 0.0065194666, -0.18603659, 9.566886
771747429863875, 0.88414794, 7.4739814, 7.3806615, 0.08872479, 0.1853857, 10.539166
771747439503355, 0.6903293, 6.245267, 6.991828, -0.03510797, -0.41509676, 9.391062
771747449142834, 0.84825563, 7.726424, 7.328019, 0.052982688, 0.4116397, 10.674492
771747458782313, 0.6843473, 6.1842504, 6.9332037, -0.037634075, -0.41381693, 9.306446
771747468421792, 0.78843504, 7.55773, 7.129415, 0.012884557, 0.4223156, 10.411097
771747478061323, 0.6759724, 6.4905314, 7.031309, -0.06650865, -0.27334452, 9.58875
771747487700855, 0.71425754, 7.243074, 7.1282187, -0.045133352, 0.19840002, 10.1854
771747497340334, 0.5922236, 6.6963143, 7.196414, -0.17126799, -0.23136568, 9.843621
771747506979813, 0.53599226, 6.8315086, 7.2765737, -0.23199457, -0.19394779, 9.99069
771747516619292, 0.47856453, 6.7728844, 7.1569324, -0.27136335, -0.15142584, 9.860331
771747526258771, 0.5288138, 6.8913293, 6.91765, -0.19566628, 0.09382486, 9.776341
771747535898303, 0.64247286, 6.9655066, 6.739385, -0.0644421, 0.26141882, 9.709679
771747545537834, 0.8566305, 7.0983086, 6.6017976, 0.16238332, 0.43579102, 9.720455
771747555177313, 1.0624132, 7.140183, 6.519245, 0.3664379, 0.5107584, 9.706511
771747564816792, 1.1880364, 7.186843, 6.6101727, 0.47332513, 0.47621965, 9.813547
771747574456271, 1.1976078, 7.129415, 6.79442, 0.46894246, 0.3061781, 9.905216
771747584095750, 1.1018949, 7.0025954, 7.0408807, 0.34951013, 0.050163746, 9.984982
771747593735282, 0.91884387, 6.8662047, 7.281359, 0.14407277, -0.19486713, 10.047313
771747603374813, 0.73340017, 6.7262244, 7.4620175, -0.050425828, -0.40189552, 10.064671
771747613014292, 0.5132605, 6.6388865, 7.5696945, -0.26549914, -0.5214138, 10.064599
771747622653771, 0.37447673, 6.562316, 7.6139617, -0.40462625, -0.60320854, 10.0324
771747632293250, 0.36610186, 6.530013, 7.54457, -0.39982584, -0.5666852, 9.960656
771747641932782, 0.43070808, 6.599405, 7.469196, -0.3254196, -0.45632792, 9.960543
771747651572313, 0.54675996, 6.6999035, 7.3663044, -0.19737357, -0.30934334, 9.9657135
771747661211792, 0.62093747, 6.798009, 7.32443, -0.1249733, -0.21085835, 10.00928
771747670851271, 0.6161518, 6.8614187, 7.2502527, -0.13048267, -0.12229967, 9.999644
771747680490750, 0.5766702, 6.9619174, 7.099505, -0.16274506, 0.046762943, 9.958672
771747690130282, 0.60658056, 7.056434, 6.8542404, -0.11844072, 0.28350925, 9.851264
771747699769813, 0.74416786, 7.1342006, 6.593423, 0.03668952, 0.49036837, 9.730469
771747709409292, 0.9296116, 7.1748786, 6.4677997, 0.2230654, 0.5864787, 9.684099
771747719048771, 1.0492527, 7.196414, 6.4558353, 0.34211773, 0.6067834, 9.699583
771747728688250, 1.134198, 7.196414, 6.498906, 0.41828698, 0.56098986, 9.737602
771747738327730, 1.14018, 7.135397, 6.643672, 0.4078216, 0.40851212, 9.798932
771747747967261, 1.1090733, 7.045666, 6.8075805, 0.36155427, 0.22619867, 9.850519
771747757606792, 1.026521, 6.9355965, 6.9655066, 0.26561344, 0.041427135, 9.879387
771747767246271, 0.90089774, 6.8853474, 7.1389866, 0.12459773, -0.09718084, 9.957899
771747776885750, 0.80757767, 6.806384, 7.2861447, 0.021717131, -0.2526965, 10.00013
771747786525282, 0.70229346, 6.754938, 7.4584284, -0.08868176, -0.3820529, 10.079519
771747796164813, 0.57906306, 6.6999035, 7.5936227, -0.21497396, -0.500412, 10.128698
771747805804292, 0.4223332, 6.6628146, 7.624729, -0.3666289, -0.5341878, 10.113763
771747815443771, 0.31106696, 6.6711893, 7.533802, -0.47745883, -0.45464993, 10.046145
771747825083250, 0.30508488, 6.707082, 7.322037, -0.46300533, -0.26730204, 9.9199
771747834722782, 0.41515473, 6.7429743, 7.111469, -0.32071647, -0.10276556, 9.803041
771747844362313, 0.5371887, 6.8303123, 6.96431, -0.18530387, 0.052790165, 9.767611
771747854001792, 0.6472585, 6.9248285, 6.9009004, -0.07028937, 0.15203094, 9.796252
771747863641271, 0.7704889, 6.9894347, 6.8949184, 0.05015713, 0.18895102, 9.846194
771747873280803, 0.849452, 7.02772, 6.957132, 0.11894822, 0.16134691, 9.923303
771747882920334, 0.93320084, 7.085148, 7.01097, 0.18334717, 0.14707136, 10.008429
771747892559813, 0.9798609, 7.112665, 6.9942207, 0.2246955, 0.16845179, 10.019501
771747902199292, 0.9846465, 7.112665, 6.975078, 0.22842956, 0.18508339, 10.006237
771747911838771, 0.9846465, 7.0301127, 6.8925257, 0.22885108, 0.18026066, 9.8901005
771747921478303, 0.9379865, 6.942775, 6.847062, 0.1849722, 0.14503956, 9.793312
771747931117834, 0.8781659, 6.8913293, 6.856633, 0.12302309, 0.09658289, 9.759639
771747940757313, 0.78364944, 6.799206, 6.9678993, 0.02286309, -0.04438591, 9.766905
771747950396792, 0.7118647, 6.782456, 7.0983086, -0.060994208, -0.13940334, 9.842322
771747960036323, 0.7070791, 6.8219376, 7.1485577, -0.07173729, -0.14569521, 9.905266
771747969675855, 0.6999006, 6.8506513, 7.159325, -0.079481184, -0.12656116, 9.932517
771747979315334, 0.71665037, 6.942775, 7.183254, -0.06632614, -0.07351923, 10.01524
771747988954813, 0.73340017, 7.0002027, 7.111469, -0.043979585, 0.020898342, 10.005564
771747998594344, 0.73818576, 7.058827, 7.123433, -0.04154271, 0.052689075, 10.055384
771748008233875, 0.7645068, 7.058827, 7.119844, -0.015297353, 0.05058241, 10.0548935
771748017873355, 0.7645068, 6.9702926, 7.056434, -0.007915676, 0.031445026, 9.9479475
771748027512834, 0.6939186, 6.8865438, 7.01097, -0.07141572, 0.0018186569, 9.851629
771748037152365, 0.67836523, 6.800402, 6.9702926, -0.07835403, -0.037620544, 9.761305
771748046791896, 0.66999036, 6.765706, 6.9882383, -0.0869934, -0.07440567, 9.749155
771748056431375, 0.6795616, 6.8339014, 7.09113, -0.08699006, -0.099048615, 9.870703
771748066070855, 0.77647096, 6.8949184, 7.1653075, 0.002693355, -0.10948992, 9.973587
771748075710386, 0.8662018, 6.940382, 7.1617184, 0.087354034, -0.07534981, 10.009801
771748085349917, 0.90329057, 6.9990063, 7.105487, 0.1229803, 0.0027337074, 10.013733
771748094989396, 0.89730847, 7.025327, 6.9966135, 0.120611876, 0.09501648, 9.954367
771748104628875, 0.87936234, 7.0289164, 6.890133, 0.10890573, 0.17313623, 9.87983
771748114268407, 0.8327023, 7.0265236, 6.843473, 0.06227532, 0.20026398, 9.841473
771748123907938, 0.8279166, 7.015756, 6.7836523, 0.060530573, 0.22951698, 9.791214
771748133547417, 0.81236327, 7.0025954, 6.7932234, 0.04498017, 0.20713854, 9.787708
771748143186896, 0.7896315, 6.9678993, 6.8853474, 0.018595904, 0.117835045, 9.826948
771748152826428, 0.7501499, 6.9248285, 6.9415784, -0.020013243, 0.04970169, 9.833546
771748162465959, 0.7286145, 6.8985076, 7.015756, -0.04313737, -0.016952991, 9.866051
771748172105438, 0.73459655, 6.9020967, 7.117451, -0.04329261, -0.085817814, 9.9412
771748181744917, 0.76570326, 6.897311, 7.2622166, -0.02125752, -0.18588734, 10.043106
771748191384448, 0.7501499, 6.862615, 7.322037, -0.04234928, -0.2469778, 10.060201
771748201023980, 0.71665037, 6.856633, 7.342376, -0.0760892, -0.2574091, 10.068041
771748210663459, 0.6879365, 6.8709903, 7.2670026, -0.099637866, -0.1936593, 10.022259
771748220302990, 0.695115, 6.855437, 7.2011995, -0.08707082, -0.15747881, 9.965195
771748229942521, 0.6879365, 6.8745794, 7.109076, -0.08530754, -0.08332491, 9.91251
771748239582000, 0.70348984, 6.9056864, 6.9822564, -0.059469163, 0.022449017, 9.845369
771748249221480, 0.7393822, 6.9499536, 6.8721867, -0.016453445, 0.12988758, 9.800936
771748258861011, 0.79441714, 6.9990063, 6.8255267, 0.04040575, 0.19029951, 9.806484
771748268500542, 0.80518484, 7.01097, 6.802795, 0.0487988, 0.20317173, 9.799816
771748278140021, 0.863809, 7.0229344, 6.8099732, 0.106276035, 0.2047019, 9.817858
771748287779500, 0.8709874, 7.0348988, 6.814759, 0.11080086, 0.20537329, 9.830305
771748297419032, 0.8566305, 7.0325055, 6.899704, 0.084011614, 0.1391263, 9.887844
771748307058563, 0.87218386, 7.0145597, 7.0025954, 0.09150869, 0.0536294, 9.949365
771748316698042, 0.8530413, 6.9726853, 7.0731835, 0.06466538, -0.023695469, 9.968512
771748326337573, 0.8135597, 6.936793, 7.133004, 0.022110999, -0.087319374, 9.9826145
771748335977105, 0.7692925, 6.8781686, 7.1449685, -0.020798862, -0.1362381, 9.9464855
771748345616584, 0.715454, 6.855437, 7.1066833, -0.06972247, -0.121797085, 9.899199
771748355256063, 0.6963114, 6.8602223, 7.051648, -0.08114788, -0.0753088, 9.862099
771748364895594, 0.7106683, 6.8865438, 7.0229344, -0.064051956, -0.035295486, 9.861329
771748374535125, 0.7286145, 6.9248285, 6.9858456, -0.044202447, 0.018620968, 9.863258
771748384174605, 0.7393822, 6.954739, 6.987042, -0.03472522, 0.039024353, 9.885905
771748393814136, 0.7501499, 6.966703, 7.003792, -0.025465906, 0.035742283, 9.90701
771748403453667, 0.80877405, 6.9894347, 7.0372915, 0.029104114, 0.026010036, 9.951294
771748413093146, 0.80997044, 6.991828, 7.051648, 0.028201997, 0.016301155, 9.963251
771748422732625, 0.77766734, 6.9583282, 7.0504518, -0.0038001537, -0.0070939064, 9.936392
771748432372157, 0.7908279, 6.927222, 7.0229344, 0.011909664, -0.011755943, 9.896116
771748442011688, 0.7716853, 6.8865438, 6.9822564, -0.0025770962, -0.0118608475, 9.837263
771748451651167, 0.77766734, 6.908079, 6.96431, 0.003607303, 0.015691757, 9.840107
771748461290698, 0.8039884, 6.9535427, 6.936793, 0.029091299, 0.066744804, 9.85454