timestamp_acc,device_acc_x,device_acc_y,device_acc_z,earth_acc_x,earth_acc_y,earth_acc_z
773557506566105, -1.8065811, 4.1276193, 8.72782, -0.003937006, -0.00603652, 9.822207
773557516206105, -1.8017955, 4.135994, 8.732606, -0.009394884, -9.771585E-4, 9.829102
773557525846105, -1.7826529, 4.1551366, 8.792427, -0.0050079823, 0.029482841, 9.886804
773557535486209, -1.7778672, 4.186243, 8.830712, -0.018262625, 0.04138124, 9.933019
773557545126209, -1.7790636, 4.2017965, 8.847462, -0.025820017, 0.042899728, 9.9546585
773557554766209, -1.7886349, 4.193422, 8.855837, -0.013212681, 0.035393715, 9.960342
773557564406313, -1.8245273, 4.188636, 8.833105, -0.013172388, -0.00423944, 9.944704
773557574046313, -1.8520447, 4.1671004, 8.807981, -3.8433075E-4, -0.035303712, 9.918369
773557583686313, -1.8424734, 4.1671004, 8.804391, -0.0017931461, -0.025728703, 9.913429
773557593326418, -1.8508483, 4.1754756, 8.840283, 0.0062630177, -0.025546074, 9.950386
773557602966418, -1.8903298, 4.173083, 8.8701935, 0.024693966, -0.05703914, 9.983207
773557612606418, -1.9166509, 4.180261, 8.882157, 0.025902033, -0.07968497, 10.001692
773557622246522, -1.8891335, 4.1982074, 8.85464, -0.004442692, -0.059153438, 9.979726
773557631886522, -1.861616, 4.2125645, 8.805588, -0.03998947, -0.04336679, 9.937113
773557641526626, -1.8484555, 4.2017965, 8.770891, -0.043929815, -0.03709495, 9.899349
773557651166626, -1.8281165, 4.197011, 8.720642, -0.060758352, -0.02793324, 9.848962
773557660806626, -1.8161523, 4.1898327, 8.681161, -0.07186699, -0.024242043, 9.808666
773557670446730, -1.7874385, 4.1778684, 8.687142, -0.060455084, 0.0051369667, 9.803687
773557680086730, -1.7970098, 4.168297, 8.751749, -0.024701834, 0.010357857, 9.85882
773557689726730, -1.7874385, 4.1551366, 8.810373, 0.009104013, 0.033176184, 9.903616
773557699366834, -1.7862421, 4.1443686, 8.85823, 0.037598133, 0.04541111, 9.941389
773557709006834, -1.7527425, 4.1479583, 8.868998, 0.034731388, 0.08012855, 9.946314
773557718646834, -1.7443677, 4.1443686, 8.853444, 0.029496431, 0.083905816, 9.92946
773557728286938, -1.7527425, 4.150351, 8.885747, 0.037248373, 0.08123922, 9.962229
773557737926938, -1.7850457, 4.1551366, 8.915657, 0.04894018, 0.056081414, 9.996746
773557747567043, -1.8376877, 4.156333, 8.915657, 0.052490473, 0.0025571585, 10.006917
773557757207043, -1.8687944, 4.1479583, 8.852247, 0.038052082, -0.040156722, 9.952747
773557766847043, -1.8628124, 4.17069, 8.840283, 0.0118916035, -0.037600875, 9.950567
773557776487147, -1.8711873, 4.1718864, 8.803194, -0.0026113987, -0.05293715, 9.919647
773557786127147, -1.8496519, 4.1850467, 8.796016, -0.018721342, -0.033788204, 9.914848
773557795767147, -1.8317057, 4.214957, 8.810373, -0.042149067, -0.014321208, 9.936886
773557805407251, -1.8592232, 4.2185464, 8.805588, -0.042720318, -0.04297054, 9.939193
773557815047251, -1.8903298, 4.2053857, 8.804391, -0.02395916, -0.07130778, 9.938322
773557824687251, -1.8927227, 4.202993, 8.758927, -0.039409637, -0.08380473, 9.897362
773557834327355, -1.8592232, 4.193422, 8.745767, -0.03724718, -0.051021934, 9.875523
773557843967355, -1.8604196, 4.1754756, 8.742178, -0.022683144, -0.05188036, 9.865001
773557853607459, -1.820938, 4.1754756, 8.760123, -0.019171715, -0.008805513, 9.873688
773557863247459, -1.7635103, 4.1611185, 8.810373, 0.0055832863, 0.059259057, 9.901717
773557872887459, -1.7443677, 4.180261, 8.825927, -0.008176565, 0.08030903, 9.920074
773557882527563, -1.7886349, 4.1611185, 8.782856, -0.001390934, 0.027990222, 9.881898
773557892167563, -1.7850457, 4.1647077, 8.7673025, -0.010865927, 0.02728188, 9.868938
773557901807563, -1.774278, 4.1874394, 8.811569, -0.014544487, 0.04604745, 9.9158535
773557911447668, -1.7886349, 4.173083, 8.839087, 0.010705709, 0.035936594, 9.936895
773557921087668, -1.8101703, 4.173083, 8.879765, 0.02997899, 0.023962498, 9.976977
773557930727772, -1.8233309, 4.1850467, 8.897711, 0.027597189, 0.013174653, 10.000374
773557940367772, -1.8125632, 4.193422, 8.87139, 0.0075409412, 0.01690805, 9.978548
773557950007772, -1.7838492, 4.194618, 8.800801, -0.025750637, 0.028709412, 9.911082
773557959647876, -1.8221345, 4.1874394, 8.76491, -0.026876211, -0.01638031, 9.883192
773557969287876, -1.8173488, 4.1754756, 8.720642, -0.03298807, -0.020908833, 9.837958
773557978927876, -1.8197416, 4.1467614, 8.738588, 0.0027775764, -0.0157516, 9.842243
773557988567980, -1.8436699, 4.141976, 8.755338, 0.017893314, -0.03447652, 9.859489
773557998207980, -1.8580267, 4.1587257, 8.797213, 0.021163702, -0.039769173, 9.906372
773558007847980, -1.8448663, 4.182654, 8.810373, 0.0019991398, -0.025500536, 9.925732
773558017488084, -1.8580267, 4.2053857, 8.813962, -0.014977694, -0.039072514, 9.940911
773558027128084, -1.8508483, 4.2341, 8.800801, -0.047634125, -0.036921263, 9.940007
773558036768188, -1.8221345, 4.23051, 8.819944, -0.041373253, -0.0037733316, 9.950232
773558046408188, -1.814956, 4.237689, 8.819944, -0.048126698, 0.0016777515, 9.951942
773558056048188, -1.8029919, 4.1982074, 8.831908, -0.008465052, 0.017970443, 9.943737
773558065688293, -1.8293129, 4.1778684, 8.806784, 0.0033643246, -0.012334466, 9.917673
773558075328293, -1.8221345, 4.1431723, 8.768498, 0.01912713, -0.012187123, 9.86773
773558084968293, -1.7910278, 4.1371903, 8.750552, 0.0140275955, 0.015662909, 9.843569
773558094608397, -1.7802601, 4.1443686, 8.766106, 0.013028145, 0.031132579, 9.858427
773558104248397, -1.8065811, 4.145565, 8.769695, 0.0170362, 0.006141782, 9.866947
773558113888501, -1.7862421, 4.1635113, 8.822337, 0.017827272, 0.03639579, 9.917534
773558123528501, -1.8113668, 4.191029, 8.879765, 0.018292665, 0.022737622, 9.984745
773558133168501, -1.820938, 4.2053857, 8.874979, 0.0044198036, 0.011485696, 9.988302
773558142808605, -1.814956, 4.202993, 8.860622, 6.263256E-4, 0.014309049, 9.973446
773558152448605, -1.8281165, 4.206582, 8.837891, -0.00934267, -0.0033473969, 9.957188
773558162088605, -1.8376877, 4.206582, 8.810373, -0.017979383, -0.0182333, 9.934507
773558171728709, -1.8137596, 4.1982074, 8.760123, -0.031980276, -0.0053822994, 9.881973
773558181368709, -1.8113668, 4.1814575, 8.749356, -0.019949675, -0.0050326586, 9.86491
773558191008813, -1.8125632, 4.1850467, 8.766106, -0.015398264, -0.002518773, 9.881517
773558200648813, -1.7958134, 4.1922255, 8.779266, -0.018479586, 0.016412497, 9.893161
773558210288813, -1.8173488, 4.1694937, 8.775677, 0.0045571327, -0.00434041, 9.884327
773558219928918, -1.8125632, 4.1838503, 8.790034, -0.003308773, 0.0028535128, 9.902256
773558229568918, -1.8125632, 4.1850467, 8.7780695, -0.009143114, 3.5238266E-4, 9.892139
773558239208918, -1.8161523, 4.182654, 8.768498, -0.010298252, -0.0051116943, 9.883291
773558248849022, -1.8089739, 4.1898327, 8.7673025, -0.018569708, 0.0010876656, 9.883944
773558258489022, -1.8221345, 4.194618, 8.743374, -0.030385971, -0.017527819, 9.867136
773558268129126, -1.7994026, 4.194618, 8.816355, -0.0049135685, 0.020576, 9.927757
773558277769126, -1.8065811, 4.2017965, 8.863015, 0.007949114, 0.02216494, 9.973531
773558287409126, -1.835295, 4.182654, 8.842676, 0.01952362, -0.012322068, 9.952654
773558297049230, -1.8687944, 4.1754756, 8.807981, 0.01565504, -0.05201447, 9.924948
773558306689230, -1.9010975, 4.202993, 8.725428, -0.038873434, -0.10245931, 9.869164
773558316329230, -1.8592232, 4.219743, 8.672786, -0.08120179, -0.07120013, 9.821838
773558325969334, -1.8293129, 4.208975, 8.665607, -0.0760479, -0.040076494, 9.8054695
773558335609334, -1.7802601, 4.206582, 8.666803, -0.07888651, 0.008144259, 9.796522
773558345249334, -1.7647067, 4.2017965, 8.736196, -0.047961712, 0.03821242, 9.853254
773558354889438, -1.7814565, 4.186243, 8.8187475, 7.944107E-4, 0.03902781, 9.923056
773558364529438, -1.7874385, 4.1778684, 8.868998, 0.029490948, 0.044250727, 9.965231
773558374169543, -1.8197416, 4.1479583, 8.88455, 0.0657084, 0.017631888, 9.972343
773558383809543, -1.7706888, 4.135994, 8.880961, 0.0678637, 0.06511915, 9.955121
773558393449543, -1.7575282, 4.1467614, 8.894122, 0.060488224, 0.079144716, 9.968952
773558403089647, -1.7826529, 4.139583, 8.903693, 0.07356882, 0.05701399, 9.9790325
773558412729647, -1.8197416, 4.162315, 8.892925, 0.05116248, 0.016138792, 9.985868
773558422369647, -1.8604196, 4.1898327, 8.920443, 0.03944564, -0.020614147, 10.029366
773558432009751, -1.9070797, 4.211368, 8.895318, 0.016425848, -0.07232642, 10.024658
773558441649751, -1.8879371, 4.21735, 8.819944, -0.019805908, -0.06983137, 9.956732
773558451289751, -1.8592232, 4.2053857, 8.720642, -0.0529027, -0.06374586, 9.858231
773558460929855, -1.8735801, 4.2053857, 8.685946, -0.062269688, -0.08499408, 9.830062
773558470569855, -1.8580267, 4.188636, 8.678768, -0.04858303, -0.07005906, 9.813801
773558480209855, -1.8771694, 4.1635113, 8.685946, -0.019633532, -0.085472584, 9.813083
773558489849959, -1.8496519, 4.182654, 8.676374, -0.044168234, -0.062244177, 9.807623
773558499489959, -1.7970098, 4.1838503, 8.669196, -0.056437492, -0.012773991, 9.792111
773558509130063, -1.8077775, 4.1814575, 8.707481, -0.037683487, -0.0141118765, 9.827068
773558518770063, -1.7491534, 4.1814575, 8.736196, -0.03539896, 0.049544454, 9.841825
773558528410063, -1.7383857, 4.182654, 8.811569, -0.0080935955, 0.07664955, 9.9072895
773558538050168, -1.753939, 4.180261, 8.833105, 0.0051562786, 0.06645882, 9.928251
773558547690168, -1.7838492, 4.1180477, 8.878569, 0.082009315, 0.04963565, 9.947876
773558557330168, -1.7084754, 4.6432724, 8.95155, -0.37444758, 0.11606431, 10.220344
773558566970272, -1.8580267, 3.6167514, 8.785249, 0.5121732, -0.02490592, 9.666996
773558576610272, -1.7575282, 4.648058, 8.974281, -0.36644363, 0.08003354, 10.251361
773558586250272, -1.881955, 3.891926, 8.810373, 0.27450657, -0.05037141, 9.809874
773558595890376, -1.8520447, 4.2652063, 8.800801, -0.0751977, -0.036397815, 9.953351
773558605530376, -1.8029919, 4.3704906, 8.781659, -0.18485045, 0.0025043488, 9.971727
773558615170376, -1.855634, 3.802195, 8.62134, 0.27748084, -0.057475805, 9.599339
773558624810480, -1.7204394, 4.7712884, 8.809176, -0.54375434, 0.06233585, 10.15023
773558634450480, -1.8831514, 3.5198421, 8.620144, 0.541626, -0.05561018, 9.483986
773558644090480, -1.7300107, 4.9172506, 8.876176, -0.6446798, 0.052034616, 10.27329
773558653730584, -1.9274186, 3.528217, 8.632108, 0.54660726, -0.09407592, 9.506257
773558663370584, -1.7922242, 4.7042894, 8.834301, -0.46931553, -0.010922432, 10.15711
773558673010584, -1.9034904, 3.8440695, 8.729017, 0.28582478, -0.07029295, 9.721586
773558682650688, -1.8448663, 4.3034916, 8.816355, -0.09786582, -0.032789707, 9.982035
773558692290688, -1.8329022, 4.2999024, 8.805588, -0.1067307, -0.023528576, 9.968706
773558701930688, -1.9178474, 3.8009987, 8.76132, 0.34278202, -0.0679059, 9.734699
773558711570793, -1.7563318, 4.723432, 8.922835, -0.45552373, 0.04818678, 10.237318
773558721210793, -1.8999012, 3.4971104, 8.754142, 0.6046705, -0.025617123, 9.597298
773558730850793, -1.6953149, 4.881358, 8.992228, -0.5926974, 0.106591225, 10.353706
773558740490897, -1.9166509, 3.4983068, 8.705089, 0.59230494, -0.061862707, 9.556968
773558750130897, -1.7563318, 4.7377887, 8.900104, -0.4885273, 0.04068637, 10.222664
773558759770897, -1.896312, 3.7914274, 8.745767, 0.33783698, -0.05973077, 9.712962
773558769411001, -1.814956, 4.347759, 8.889337, -0.12697387, 0.01640582, 10.059869
773558779051001, -1.7910278, 4.2891345, 8.839087, -0.09795618, 0.030097961, 9.986161
773558788691001, -1.8233309, 3.8668015, 8.742178, 0.25371337, 0.0055947304, 9.728205
773558798331105, -1.7036897, 4.685147, 8.848659, -0.4614694, 0.08703542, 10.145511
773558807971105, -1.8771694, 3.505485, 8.617751, 0.54601, -0.055184603, 9.475054
773558817611105, -1.7084754, 4.8526444, 8.851051, -0.6060746, 0.073022604, 10.219369
773558827251209, -1.8831514, 3.4289148, 8.584251, 0.6032119, -0.059740067, 9.414121
773558836891209, -1.7001005, 4.7174497, 8.865408, -0.4928887, 0.08377862, 10.173014
773558846531209, -1.8460627, 3.7411783, 8.725428, 0.36654687, -0.0133497715, 9.664518
773558856171313, -1.8029919, 4.406383, 8.855837, -0.19748211, 0.011163473, 10.052549
773558865811313, -1.8520447, 4.2520456, 8.809176, -0.06853843, -0.036747456, 9.955176
773558875451313, -1.8951155, 3.9421754, 8.705089, 0.1806035, -0.07955217, 9.740218
773558885091418, -1.7886349, 4.6695933, 8.877372, -0.43037248, 0.013458967, 10.179717
773558894731418, -1.9070797, 3.5772698, 8.743374, 0.529515, -0.054340124, 9.622738
773558904371418, -1.7443677, 4.8729835, 8.922835, -0.6081042, 0.051959038, 10.297247
773558914011418, -1.8329022, 3.4253256, 8.487342, 0.5507653, -0.039845586, 9.317855
773558923651522, -1.7898313, 4.7605205, 9.044869, -0.44322634, 0.04044676, 10.36714
773558933291522, -1.9537396, 3.7196429, 8.7577305, 0.40207434, -0.11643243, 9.704405
773558942931522, -1.8388842, 4.412365, 8.883354, -0.19406247, -0.024540186, 10.08594
773558952571626, -1.7922242, 4.1288157, 8.925228, 0.06360173, 0.048897266, 9.995623
773558962211626, -1.8185452, 3.979264, 8.768498, 0.14382815, -0.0026319027, 9.798345
773558971851626, -1.7503498, 4.5966125, 8.849854, -0.3956716, 0.04793954, 10.116999
773558981491730, -1.9034904, 3.5892339, 8.647661, 0.46540284, -0.09150565, 9.542691
773558991131730, -1.7324036, 4.8969116, 8.805588, -0.6887212, 0.04075384, 10.200165
773559000771730, -1.8987048, 3.4540396, 8.53161, 0.5335953, -0.10482252, 9.382331
773559010411834, -1.6917256, 4.8047876, 8.817552, -0.6061597, 0.0951699, 10.164679
773559020051834, -1.8317057, 3.6466618, 8.6548395, 0.40573502, -0.022269726, 9.560041
773559029691834, -1.7347964, 4.4542394, 8.903693, -0.25002122, 0.08011222, 10.102306
773559039331834, -1.7659031, 4.0558343, 8.849854, 0.09453964, 0.061059237, 9.893204
773559048971938, -1.820938, 3.9684963, 8.799605, 0.16292596, 0.003136158, 9.82198
773559058611938, -1.7659031, 4.479364, 8.920443, -0.26394463, 0.050519943, 10.133372
773559068251938, -1.9322042, 3.5653057, 8.816355, 0.5484686, -0.0768168, 9.688458
773559077892043, -1.7910278, 4.8011985, 9.078369, -0.48539972, 0.045962334, 10.413375
773559087532043, -1.9585253, 3.4372897, 8.834301, 0.6776569, -0.07858634, 9.655581
773559097172043, -1.7623138, 4.8095737, 9.037691, -0.5169971, 0.054998636, 10.375322
773559106812043, -1.9046868, 3.609573, 8.766106, 0.4745407, -0.058988094, 9.657784
773559116452147, -1.7886349, 4.566702, 8.9013, -0.34848952, 0.0122663975, 10.157043
773559126092147, -1.8568304, 4.0474596, 8.723035, 0.05620861, -0.052716017, 9.793629
773559135732147, -1.8424734, 4.0773697, 8.669196, 0.013757467, -0.053587675, 9.755591
773559145372251, -1.8005991, 4.486542, 8.736196, -0.33752728, -0.031533957, 9.978849
773559155012251, -1.9058832, 3.6335013, 8.665607, 0.4248314, -0.07528472, 9.578171
773559164652251, -1.7288144, 4.796413, 8.94796, -0.5430677, 0.061390877, 10.284051
773559174292355, -1.9034904, 3.4277184, 8.705089, 0.6310501, -0.056693792, 9.52626
773559183932355, -1.7312071, 4.843073, 8.926425, -0.60094523, 0.06663275, 10.284353
773559193572355, -1.8867407, 3.5521452, 8.647661, 0.4829805, -0.06306863, 9.524825
773559203212355, -1.7359928, 4.5714874, 8.8701935, -0.36630416, 0.06271458, 10.121975
773559212852459, -1.8113668, 3.9744785, 8.7984085, 0.1494627, 0.015149832, 9.82176
773559222492459, -1.835295, 4.098905, 8.82114, 0.055860996, -0.010969877, 9.898416
773559232132459, -1.8364913, 4.406383, 8.883354, -0.20061493, -0.019123554, 10.082773
773559241772563, -1.8987048, 3.6490545, 8.779266, 0.45359588, -0.04625082, 9.684435
773559251412563, -1.707279, 4.772485, 9.022138, -0.49651027, 0.11125207, 10.335932
773559261052563, -1.8903298, 3.4432719, 8.748159, 0.6233089, -0.010008097, 9.569282
773559270692563, -1.6965113, 4.8382874, 8.927621, -0.5944898, 0.08383846, 10.277604
773559280332668, -1.8448663, 3.5401812, 8.633304, 0.48157024, -0.011983871, 9.499384
773559289972668, -1.7180467, 4.634897, 8.82473, -0.44539666, 0.061534166, 10.1048355
773559299612668, -1.8508483, 3.9146578, 8.715857, 0.17789721, -0.034848213, 9.730545
773559309252668, -1.867598, 4.162315, 8.790034, -0.011828423, -0.05486512, 9.90325
773559318892772, -1.847259, 4.4004006, 8.819944, -0.21875763, -0.043941975, 10.025845
773559328532772, -1.9058832, 3.7220356, 8.695518, 0.359869, -0.0831089, 9.641658
773559338172772, -1.7718852, 4.7485566, 8.8905325, -0.51897836, 0.034085512, 10.220541
773559347812772, -1.9070797, 3.434897, 8.662018, 0.59991574, -0.08253753, 9.492066
773559357452876, -1.6941184, 4.84068, 8.906086, -0.5994618, 0.10413349, 10.259161
773559367092876, -1.8580267, 3.4995031, 8.669196, 0.54416585, -0.03170705, 9.516126
773559376732876, -1.7491534, 4.664808, 8.908479, -0.4335494, 0.054181337, 10.197553
773559386372980, -1.8795621, 3.8476589, 8.7673025, 0.26227164, -0.0405941, 9.753583
773559396012980, -1.8436699, 4.223332, 8.829515, -0.052674294, -0.024060726, 9.95955
773559405652980, -1.8029919, 4.3238306, 8.866604, -0.14133906, 0.015719652, 10.0271015
773559415292980, -1.8723837, 3.743571, 8.782856, 0.3630445, -0.02038002, 9.722475
773559424933084, -1.7563318, 4.7282176, 8.979067, -0.47008157, 0.051507235, 10.287894
773559434573084, -1.9525433, 3.4432719, 8.700303, 0.6122482, -0.093877554, 9.538352
773559444213084, -1.713261, 4.831109, 8.907282, -0.60515, 0.075491905, 10.258784
773559453853084, -1.8317057, 3.4540396, 8.670393, 0.57781124, 0.008404255, 9.49354
773559463493188, -1.6689938, 4.664808, 8.9312105, -0.45435882, 0.12997937, 10.20241
773559473133188, -1.8137596, 3.8057845, 8.822337, 0.30571866, 0.03152275, 9.77307
773559482773188, -1.7934206, 4.2592244, 8.889337, -0.079217196, 0.032212734, 10.018501
773559492413188, -1.7886349, 4.2592244, 8.775677, -0.12229395, 0.007953882, 9.916536
773559502053293, -1.8664017, 3.8009987, 8.671589, 0.26759195, -0.051828623, 9.646409
773559511693293, -1.7443677, 4.692325, 8.851051, -0.494375, 0.034744024, 10.156586
773559521333293, -1.9010975, 3.5030923, 8.719446, 0.5577049, -0.044537067, 9.570869
773559530973293, -1.7288144, 4.8586264, 8.976674, -0.60199714, 0.061072826, 10.334873
773559540613397, -1.9238294, 3.4540396, 8.715857, 0.61067414, -0.068583965, 9.550917
773559550253397, -1.7551354, 4.7210393, 8.921639, -0.49418306, 0.044623375, 10.233189
773559559893397, -1.8711873, 3.7208393, 8.724232, 0.3539183, -0.03315544, 9.660841
773559569533397, -1.7838492, 4.304688, 8.812766, -0.15148568, 0.02479434, 9.967634
773559579173501, -1.835295, 4.2257247, 8.745767, -0.0943377, -0.03447604, 9.884503
773559588813501, -1.9118652, 3.859623, 8.690732, 0.2297864, -0.08975959, 9.696384
773559598453501, -1.7778672, 4.648058, 8.885747, -0.43045974, 0.021439552, 10.175264
773559608093605, -1.948954, 3.5210385, 8.742178, 0.5644429, -0.08441138, 9.607086
773559617733605, -1.7934206, 4.907679, 9.038888, -0.6007931, 0.021839857, 10.423136
773559627373605, -1.989632, 3.4791641, 8.700303, 0.58650064, -0.114429235, 9.56041
773559637013605, -1.7706888, 4.772485, 8.831908, -0.5628178, -0.008478165, 10.178296
773559646653605, -1.861616, 3.7328033, 8.611769, 0.29918504, -0.038434505, 9.564049
773559656293709, -1.7156538, 4.3992043, 8.780462, -0.2564695, 0.07406521, 9.966029
773559665933709, -1.7431713, 4.152744, 8.76491, -0.040287018, 0.070370436, 9.853986
773559675573709, -1.8077775, 3.888337, 8.721839, 0.19761753, 0.024289608, 9.716896
773559685213709, -1.7060826, 4.5834517, 8.863015, -0.395751, 0.08324504, 10.114755
773559694853813, -1.8604196, 3.5306098, 8.736196, 0.53231525, 0.022785425, 9.589764
773559704493813, -1.7048861, 4.8119664, 9.017352, -0.5417266, 0.09102321, 10.347586
773559714133813, -1.9154545, 3.3990045, 8.840283, 0.7047434, -0.0030617714, 9.637226
773559723773813, -1.7635103, 4.7425747, 9.126225, -0.44195986, 0.06762719, 10.425454
773559733413918, -1.9381863, 3.6382868, 8.915657, 0.51757693, -0.026452541, 9.808877
773559743053918, -1.8723837, 4.4207397, 9.004191, -0.1752603, -0.023256302, 10.202596
773559752693918, -1.9190438, 4.095316, 8.827123, 0.06558609, -0.07679677, 9.917774
773559762334022, -1.9046868, 3.9493537, 8.705089, 0.14694309, -0.07912326, 9.745561
773559771974022, -1.8005991, 4.56072, 8.782856, -0.39496875, -0.013770342, 10.0511055
773559781614022, -1.9345971, 3.5856447, 8.703893, 0.4842193, -0.08278823, 9.597706
773559791254022, -1.747957, 4.87418, 8.988638, -0.60351276, 0.050601244, 10.355762
773559800894022, -1.9477576, 3.4528432, 8.700303, 0.59723496, -0.088659525, 9.541834
773559810534126, -1.7635103, 4.834698, 8.907282, -0.5928836, 0.027195692, 10.269939
773559820174126, -1.9058832, 3.6227336, 8.648857, 0.430578, -0.06684303, 9.558737
773559829814126, -1.774278, 4.4817567, 8.79123, -0.3142085, 0.016624928, 10.021025
773559839454126, -1.8173488, 4.0498524, 8.72782, 0.05367613, 0.003189087, 9.791631
773559849094230, -1.8089739, 4.0067816, 8.717052, 0.09293294, 0.01382494, 9.762421
773559858734230, -1.7599211, 4.5020957, 8.82832, -0.32167506, 0.04257393, 10.059826
773559868374230, -1.8687944, 3.586841, 8.751749, 0.5001137, -0.0034279823, 9.628124
773559878014230, -1.7108682, 4.8215375, 9.050852, -0.5355289, 0.1208725, 10.382235
773559887654334, -1.9214365, 3.4229329, 8.782856, 0.6614361, -0.032425404, 9.597313
773559897294334, -1.7419748, 4.8251266, 8.980264, -0.5516908, 0.06889844, 10.327262
773559906934334, -1.8903298, 3.6000016, 8.729017, 0.47337604, -0.033029318, 9.617897
773559916574334, -1.7718852, 4.558327, 8.933603, -0.32394147, 0.05144286, 10.179371
773559926214438, -1.8496519, 3.9840498, 8.825927, 0.16483879, -0.0035824776, 9.857163
773559935854438, -1.8544376, 4.068995, 8.770891, 0.06522083, -0.029507637, 9.8447485
773559945494438, -1.8113668, 4.4434714, 8.733803, -0.29466176, -0.025744915, 9.960789
773559955134438, -1.8903298, 3.6179478, 8.567501, 0.4005909, -0.0736835, 9.481512
773559964774543, -1.7264216, 4.773681, 8.845069, -0.55912614, 0.056340218, 10.182731
773559974414543, -1.9046868, 3.446861, 8.615358, 0.5827954, -0.06457353, 9.45459
773559984054543, -1.7324036, 4.8993044, 8.903693, -0.6462922, 0.06223893, 10.28876
773559993694543, -1.9334008, 3.6406796, 8.708678, 0.43758678, -0.089779615, 9.624662
773560003334647, -1.8233309, 4.685147, 8.938389, -0.42592764, -0.0065586567, 10.2463875
773560012974647, -1.922633, 4.025924, 8.867801, 0.15656519, -0.07446742, 9.925342
773560022614647, -1.875973, 4.173083, 8.8701935, 0.015939474, -0.034638405, 9.980619
773560032254647, -1.7563318, 4.386044, 8.85823, -0.1999197, 0.06340885, 10.037247
773560041894751, -1.8460627, 3.6059837, 8.706285, 0.46104646, -0.005060196, 9.591552
773560051534751, -1.7156538, 4.7114677, 8.891729, -0.48266006, 0.0903846, 10.19623
773560061174751, -1.9130617, 3.367898, 8.663215, 0.6762347, -0.0643301, 9.465325
773560070814751, -1.7024933, 4.8059845, 8.907282, -0.57008886, 0.12206411, 10.246742
773560080454855, -1.8305093, 3.5306098, 8.738588, 0.5355463, 0.015326619, 9.586024
773560090094855, -1.6953149, 4.6564326, 9.004191, -0.38986516, 0.14679527, 10.269294
773560099734855, -1.8376877, 3.9349968, 8.883354, 0.23303628, 0.012884378, 9.885382
773560109374855, -1.841277, 4.2484565, 8.908479, -0.043774128, 0.0014169216, 10.03986
773560119014959, -1.8496519, 4.421936, 8.830712, -0.22803688, -0.03390789, 10.0450535
773560128654959, -1.9357935, 3.7794633, 8.650054, 0.29980206, -0.12216914, 9.630694
773560138294959, -1.7778672, 4.7449675, 8.877372, -0.511384, 0.024819613, 10.208874
773560147934959, -1.9298115, 3.4217365, 8.719446, 0.6493492, -0.057347536, 9.541291
773560157575063, -1.7216359, 4.807181, 8.956335, -0.54893637, 0.07855439, 10.29473
773560167215063, -1.8987048, 3.4791641, 8.679964, 0.5750184, -0.04494953, 9.524641
773560176855063, -1.7515461, 4.692325, 8.876176, -0.46983194, 0.043872595, 10.180847
773560186495063, -1.867598, 3.8835511, 8.678768, 0.20501184, -0.045511246, 9.687455
773560196135168, -1.835295, 4.308277, 8.772088, -0.13928008, -0.032166243, 9.942769
773560205775168, -1.7970098, 4.35733, 8.760123, -0.19689488, 0.0030531883, 9.945682
773560215415168, -1.8520447, 3.7734814, 8.717052, 0.32360744, -0.0043005943, 9.672203
773560225055168, -1.7324036, 4.6935215, 8.969496, -0.4342215, 0.080883026, 10.260952
773560234695272, -1.9190438, 3.4648073, 8.7984085, 0.64325404, -0.032316208, 9.627295
773560244335272, -1.7575282, 4.880162, 9.014959, -0.5716543, 0.058326244, 10.384806
773560253975272, -1.9525433, 3.475575, 8.730213, 0.61032057, -0.08232784, 9.577546
773560263615272, -1.7611175, 4.7162533, 8.898908, -0.47607565, 0.04445505, 10.213057
773560273255376, -1.8580267, 3.8177485, 8.751749, 0.29522705, -0.01193881, 9.722821
773560282895376, -1.8041883, 4.325027, 8.806784, -0.14677715, 0.012542248, 9.974904
773560292535376, -1.8257236, 4.290331, 8.754142, -0.13261986, -0.017627954, 9.917526
773560302175376, -1.867598, 3.8751762, 8.646464, 0.21172118, -0.056075096, 9.654963
773560311815480, -1.7599211, 4.718646, 8.773284, -0.5217838, 0.021287203, 10.102511
773560321455480, -1.9130617, 3.525824, 8.571091, 0.51094556, -0.086722136, 9.449141
773560331095480, -1.7036897, 4.863412, 8.839087, -0.63763475, 0.07430649, 10.211401
773560340735480, -1.8915263, 3.4480574, 8.6141615, 0.59348226, -0.058629513, 9.450666
773560350375584, -1.7144574, 4.738985, 8.920443, -0.48096132, 0.09626353, 10.233819
773560360015584, -1.8496519, 3.7196429, 8.782856, 0.39699078, 0.00917387, 9.707617
773560369655584, -1.8029919, 4.3633122, 8.933603, -0.13374066, 0.040970325, 10.103415
773560379295688, -1.82692, 4.2281175, 8.900104, -0.020491123, 0.02061367, 10.021258
773560388935688, -1.8747765, 3.9134614, 8.874979, 0.26428246, -0.001003027, 9.875494
773560398575688, -1.8245273, 4.6672006, 9.047262, -0.35855675, 0.020994186, 10.336132
773560408215688, -2.0027926, 3.525824, 8.841479, 0.62634325, -0.09977317, 9.706293
773560417855793, -1.847259, 4.881358, 9.044869, -0.55616426, -0.02498293, 10.427835
773560427495793, -1.9621146, 3.4325042, 8.730213, 0.6513674, -0.07395053, 9.561321
773560437135793, -1.7575282, 4.761717, 8.950353, -0.49091244, 0.05217552, 10.277548
773560446775897, -1.861616, 3.6885362, 8.763713, 0.42276692, -0.001812458, 9.679609
773560456415897, -1.7503498, 4.4075794, 8.916854, -0.18719292, 0.0774405, 10.097512
773560466055897, -1.8101703, 4.1347976, 8.785249, 0.013196945, 0.012305737, 9.876919
773560475695897, -1.835295, 3.946961, 8.657232, 0.14436221, -0.029587507, 9.688796
773560485336001, -1.7515461, 4.6492543, 8.725428, -0.47726488, 0.015720844, 10.029384
773560494976001, -1.9381863, 3.6059837, 8.523234, 0.42681766, -0.12676, 9.444944
773560504616001, -1.7814565, 4.8825545, 8.805588, -0.64215326, -0.006293297, 10.204847
773560514256001, -1.9130617, 3.4672, 8.630911, 0.5838952, -0.06144786, 9.477827
773560523896105, -1.6797615, 4.8011985, 8.9312105, -0.53345466, 0.12723422, 10.263472
773560533536105, -1.8448663, 3.6586258, 8.7984085, 0.4639175, 0.02553916, 9.694597
773560543176105, -1.7994026, 4.4518466, 8.96471, -0.18626523, 0.047295332, 10.167885
773560552816209, -1.8771694, 4.082155, 8.805588, 0.090204, -0.036292553, 9.885174
773560562456209, -1.8628124, 4.0007997, 8.732606, 0.13728929, -0.031332016, 9.783407
773560572096209, -1.7718852, 4.570291, 8.817552, -0.36375284, 0.028290272, 10.081827
773560581736209, -1.8927227, 3.6131623, 8.7577305, 0.49878073, -0.018189907, 9.648112
773560591376313, -1.7300107, 4.87418, 9.072387, -0.5414629, 0.100739, 10.428587
773560601016313, -1.9058832, 3.487539, 8.82832, 0.6373575, 0.002190113, 9.66066
773560610656313, -1.7383857, 4.8646083, 8.976674, -0.57971764, 0.057248116, 10.340586
773560620296418, -1.9070797, 3.6287155, 8.673982, 0.46320868, -0.04091692, 9.582601
773560629936418, -1.7766708, 4.534399, 8.842676, -0.31473637, 0.012126923, 10.090146
773560639576418, -1.8329022, 4.058227, 8.736196, 0.07858634, -0.006682396, 9.805286
773560649216522, -1.8711873, 4.046263, 8.755338, 0.10976124, -0.037403822, 9.824259
773560658856522, -1.8245273, 4.510471, 8.852247, -0.2816968, -0.019843817, 10.097315
773560668496522, -1.9322042, 3.6670008, 8.670393, 0.43456745, -0.07370591, 9.60009
773560678136522, -1.7766708, 4.8681974, 8.900104, -0.59620523, 0.012279987, 10.28164
773560687776626, -1.98365, 3.4971104, 8.65125, 0.5929296, -0.1142354, 9.520723
773560697416626, -1.7706888, 4.8909297, 8.877372, -0.62615156, 0.019067526, 10.269947
773560707056626, -1.9094725, 3.6047873, 8.627322, 0.46120763, -0.06899953, 9.531725
773560716696730, -1.7551354, 4.59063, 8.864211, -0.35213375, 0.06041932, 10.129213
773560726336730, -1.8532411, 3.999603, 8.779266, 0.16076446, -0.010717392, 9.82247
773560735976730, -1.8388842, 4.1001015, 8.831908, 0.088380575, 0.00807476, 9.908937
773560745616730, -1.7730815, 4.456632, 8.886943, -0.2267127, 0.059630156, 10.095949
773560755256834, -1.8580267, 3.696911, 8.768498, 0.4251926, 0.0021414757, 9.686341
773560764896834, -1.7252251, 4.816752, 9.020942, -0.5129225, 0.11033392, 10.357588
773560774536834, -1.9298115, 3.4887354, 8.755338, 0.61598516, -0.059101105, 9.600441
773560784176938, -1.7443677, 4.8909297, 8.953942, -0.59269595, 0.08053136, 10.333407
773560793816938, -1.9477576, 3.562913, 8.687142, 0.5249493, -0.09115863, 9.57448
773560803456938, -1.7994026, 4.634897, 8.900104, -0.37376165, 0.020970821, 10.187828
773560813097043, -1.869991, 3.9338005, 8.790034, 0.21992874, -0.014975548, 9.807537
773560822737043, -1.8221345, 4.17069, 8.816355, 0.014817715, 0.016210794, 9.921818
773560832377043, -1.7790636, 4.392026, 8.758927, -0.2185669, 0.024307966, 9.956176
773560842017147, -1.8927227, 3.702893, 8.602198, 0.36277533, -0.06663513, 9.547543
773560851657147, -1.7515461, 4.786842, 8.848659, -0.54665446, 0.04451132, 10.197046
773560861297147, -1.9070797, 3.5198421, 8.699107, 0.5733509, -0.04057145, 9.558782
773560870937251, -1.7084754, 4.9256253, 9.004191, -0.60946727, 0.113603115, 10.386133
773560880577251, -1.8903298, 3.5736806, 8.76491, 0.5456145, -0.03407979, 9.636873
773560890217251, -1.7647067, 4.706682, 8.983852, -0.41058564, 0.07443857, 10.286036
773560899857355, -1.8975084, 3.8907297, 8.812766, 0.27055073, -0.042650938, 9.81469
773560909497355, -1.8735801, 4.219743, 8.810373, -0.023398638, -0.04110551, 9.946707
773560919137355, -1.814956, 4.322634, 8.782856, -0.13886929, 0.004027605, 9.9548235
773560928777459, -1.8628124, 3.7531424, 8.683554, 0.34486938, -0.016902208, 9.635406
773560938417459, -1.7228323, 4.7425747, 8.900104, -0.49107122, 0.09436226, 10.218706
773560948057459, -1.9585253, 3.4839497, 8.703893, 0.61517453, -0.08711505, 9.557482
773560957697563, -1.814956, 4.895715, 8.9348, -0.5931351, -0.0069668293, 10.331548
773560967337563, -1.9980069, 3.5413775, 8.650054, 0.54735327, -0.14120507, 9.541346
773560976977563, -1.8041883, 4.7605205, 8.857033, -0.51578784, 0.010334253, 10.202869
773560986617668, -1.8915263, 3.888337, 8.709874, 0.23618269, -0.05436325, 9.721122
773560996257668, -1.8185452, 4.331009, 8.793623, -0.1470294, 0.009690046, 9.9684925
773561005897668, -1.8053846, 4.328616, 8.729017, -0.17026114, 0.008588672, 9.907724
773561015537772, -1.847259, 3.822534, 8.665607, 0.26889062, -0.014361858, 9.645952
773561025177772, -1.7204394, 4.729414, 8.904889, -0.47945523, 0.104444265, 10.2168255
773561034817772, -1.8927227, 3.4660037, 8.720642, 0.6180067, -0.013176918, 9.553171
773561044457876, -1.7060826, 4.843073, 8.992228, -0.54367876, 0.12617421, 10.339957
773561054097876, -1.9106688, 3.4444683, 8.752945, 0.6575427, -0.015379906, 9.575829
773561063737876, -1.7467605, 4.725825, 8.9826565, -0.451545, 0.0881803, 10.288879
773561073377980, -1.8855443, 3.7818563, 8.819944, 0.3630209, -0.0019352436, 9.773299
773561083017980, -1.8592232, 4.369294, 8.962317, -0.11672187, 0.0071487427, 10.14184
773561092657980, -1.8747765, 4.261617, 8.898908, -0.041028738, -0.013767719, 10.04315
773561102298084, -1.9202402, 3.8811584, 8.82473, 0.28504705, -0.039754868, 9.825666
773561111938084, -1.7982062, 4.703093, 8.909675, -0.4460075, 0.027589083, 10.224248
773561121578188, -1.9657038, 3.5389848, 8.695518, 0.55714536, -0.08242583, 9.575136
773561131218188, -1.7790636, 4.889733, 8.898908, -0.6170485, 0.02323699, 10.289987
773561140858188, -1.9788643, 3.4743786, 8.611769, 0.5754125, -0.11810589, 9.476537
773561150498293, -1.7934206, 4.7808595, 8.809176, -0.5490377, -0.0052354336, 10.167257
773561160138293, -1.896312, 3.7483566, 8.636893, 0.32456923, -0.05106902, 9.598652
773561169778293, -1.8233309, 4.4350967, 8.780462, -0.24983406, -0.003025055, 10.001435
773561179418397, -1.8424734, 4.202993, 8.733803, -0.054919243, -0.01464653, 9.865897
773561189058397, -1.875973, 3.946961, 8.717052, 0.17909741, -0.028083801, 9.749458
773561198698501, -1.747957, 4.642076, 8.922835, -0.39523053, 0.08446598, 10.200877
773561208338501, -1.922633, 3.5365918, 8.812766, 0.59150577, -0.017112017, 9.670507
773561217978501, -1.7623138, 4.861019, 9.044869, -0.5353546, 0.08897257, 10.404346
773561227618605, -1.9417756, 3.4516466, 8.752945, 0.6438551, -0.0490427, 9.585482
773561237258605, -1.7575282, 4.779663, 8.96471, -0.5051651, 0.08809757, 10.297435
773561246898605, -1.8891335, 3.7005002, 8.788837, 0.42238307, -0.01256752, 9.712242
773561256538709, -1.8245273, 4.4817567, 8.963513, -0.22462082, 0.040966988, 10.183687
773561266178709, -1.8604196, 4.165904, 8.822337, 0.015636683, -0.007386446, 9.932233
773561275818813, -1.869991, 3.9972103, 8.702696, 0.12231684, -0.03393221, 9.75681
773561285458813, -1.7706888, 4.6145587, 8.806784, -0.409724, 0.04833007, 10.090527
773561295098813, -1.9262222, 3.591627, 8.6345005, 0.47952342, -0.0669837, 9.535738
773561304738918, -1.7838492, 4.867001, 8.886943, -0.606287, 0.03091693, 10.270299
773561314378918, -1.9728823, 3.438486, 8.646464, 0.6221752, -0.102506876, 9.491006
773561324019022, -1.7862421, 4.813163, 8.889337, -0.5470724, 0.020965338, 10.250746
773561333659022, -1.9453648, 3.6526437, 8.723035, 0.4534247, -0.06749916, 9.644037
773561343299022, -1.8340986, 4.503292, 8.906086, -0.25446606, 0.00795126, 10.143821
773561352939126, -1.8448663, 4.0773697, 8.774481, 0.07272601, 0.0051145554, 9.849604
773561362579126, -1.8329022, 4.0331025, 8.743374, 0.10146785, 0.014273405, 9.801099
773561372219230, -1.7706888, 4.5678983, 8.837891, -0.35524607, 0.05465603, 10.098523
773561381859230, -1.9238294, 3.6023946, 8.721839, 0.501029, -0.040361166, 9.617494
773561391499230, -1.7694924, 4.853841, 9.004191, -0.5473895, 0.05887699, 10.366447
773561401139334, -1.9597218, 3.4504502, 8.79123, 0.6632087, -0.04048729, 9.62239
773561410779334, -1.7790636, 4.8646083, 9.007781, -0.5540228, 0.05289507, 10.375928
773561420419438, -1.948954, 3.611966, 8.745767, 0.50537395, -0.053243637, 9.647534
773561430059438, -1.8041883, 4.584648, 8.937193, -0.32568216, 0.035245657, 10.20001
773561439699438, -1.8604196, 4.0558343, 8.805588, 0.10322046, 0.0044953823, 9.871103
773561449339543, -1.8448663, 4.0773697, 8.7780695, 0.076493025, 0.008867264, 9.852769
773561458979543, -1.8005991, 4.4721856, 8.836694, -0.2675569, 0.017809391, 10.062696
773561468619647, -1.9130617, 3.6263227, 8.696713, 0.46363997, -0.029562235, 9.603489
773561478259647, -1.7395821, 4.7952166, 8.935996, -0.5353205, 0.06297684, 10.275298
773561487899647, -1.9345971, 3.4420755, 8.706285, 0.6356602, -0.02860856, 9.5386095
773561497539751, -1.7790636, 4.853841, 8.925228, -0.5845659, 0.029380798, 10.297668
773561507179751, -1.9381863, 3.6023946, 8.69791, 0.48668647, -0.05922699, 9.599328
773561516819855, -1.7754744, 4.6468616, 8.883354, -0.4114442, 0.046182156, 10.1729145
773561526459855, -1.8568304, 3.9780676, 8.725428, 0.14589429, -0.009022474, 9.766501
773561536099959, -1.7922242, 4.3537407, 8.760123, -0.18381238, 0.025899887, 9.943461
773561545739959, -1.8436699, 4.152744, 8.733803, -0.0056807995, -0.011236191, 9.844976
773561555379959, -1.8664017, 4.194618, 8.7780695, -0.019833565, -0.027305603, 9.90614
773561565020063, -1.8723837, 4.159922, 8.811569, 0.024686337, -0.022780418, 9.922369
773561574660063, -1.867598, 4.2077785, 8.849854, -0.0063273907, -0.012225151, 9.975623
773561584300168, -1.8640088, 4.1922255, 8.863015, 0.012248993, -0.0032720566, 9.980087
773561593940168, -1.8281165, 4.213761, 8.882157, -0.006410122, 0.034080267, 9.999466
773561603580272, -1.8436699, 4.176672, 8.886943, 0.032155752, 0.02395773, 9.99099
773561613220272, -1.8364913, 4.1838503, 8.877372, 0.021428347, 0.028351307, 9.984177
773561622860376, -1.841277, 4.1718864, 8.823533, 0.012984753, 0.0124361515, 9.932237
773561632500376, -1.8113668, 4.156333, 8.786445, 0.008104086, 0.033755064, 9.88719
773561642140376, -1.8101703, 4.174279, 8.792427, -0.0056631565, 0.03277242, 9.899849
773561651780480, -1.8484555, 4.1671004, 8.796016, 0.0071771145, -0.0051500797, 9.907135
773561661420480, -1.867598, 4.1647077, 8.809176, 0.016369343, -0.02195704, 9.921369
773561671060584, -1.9082761, 4.1694937, 8.805588, 0.01522398, -0.06267393, 9.92776
773561680700584, -1.9154545, 4.1838503, 8.76132, -0.015304565, -0.08000398, 9.895843
773561690340688, -1.8915263, 4.202993, 8.719446, -0.052437544, -0.062672734, 9.862307
773561699980688, -1.8496519, 4.2053857, 8.712267, -0.062290907, -0.023347735, 9.849146
773561709620793, -1.8065811, 4.211368, 8.73141, -0.06359625, 0.024471521, 9.860641
773561719260793, -1.8077775, 4.206582, 8.729017, -0.058735132, 0.02483499, 9.856728
773561728900897, -1.7886349, 4.2041893, 8.738588, -0.05406928, 0.046174407, 9.860644
773561738540897, -1.7850457, 4.1611185, 8.766106, -0.004295349, 0.057092905, 9.866236
773561748181001, -1.7994026, 4.15394, 8.864211, 0.04374218, 0.06453431, 9.95295
773561757821001, -1.8029919, 4.1288157, 8.912068, 0.08494902, 0.07077038, 9.985522
773561767461001, -1.8520447, 4.130012, 8.969496, 0.106803894, 0.0355587, 10.046207
773561777101105, -1.8915263, 4.1491547, 9.014959, 0.11280084, 0.0064897537, 10.101986
773561786741105, -1.9130617, 4.17069, 8.987442, 0.08275676, -0.021104813, 10.090652
773561796381209, -1.9190438, 4.193422, 8.9348, 0.0405128, -0.038091183, 10.054606
773561806021209, -1.8975084, 4.2041893, 8.889337, 0.0106191635, -0.02704668, 10.01475
773561815661313, -1.8687944, 4.1982074, 8.842676, -0.0065534115, -0.00935185, 9.965447
773561825301313, -1.8891335, 4.1958146, 8.8187475, -0.008275747, -0.03527522, 9.946995
773561834941418, -1.8843478, 4.1922255, 8.769695, -0.025342226, -0.041555405, 9.901047
773561844581418, -1.875973, 4.186243, 8.770891, -0.018936396, -0.033153057, 9.898029
773561854221522, -1.8640088, 4.1790648, 8.691928, -0.041396856, -0.03750992, 9.822709
773561863861522, -1.8795621, 4.17069, 8.652447, -0.04658556, -0.059388995, 9.787062
773561873501626, -1.8484555, 4.182654, 8.65125, -0.060356617, -0.02914524, 9.785244
773561883141626, -1.8173488, 4.194618, 8.672786, -0.0661571, 0.005052328, 9.803593
773561892781730, -1.8017955, 4.194618, 8.751749, -0.035386086, 0.036615968, 9.870756
773561902421730, -1.8017955, 4.213761, 8.864211, -0.007452011, 0.060518146, 9.978616
773561912061834, -1.8317057, 4.1898327, 8.874979, 0.021888018, 0.035264134, 9.983657
773561921701834, -1.8233309, 4.1647077, 8.855837, 0.03572321, 0.04243231, 9.9545
773561931341938, -1.8329022, 4.1671004, 8.792427, 0.009825945, 0.020402193, 9.901036
773561940981938, -1.8496519, 4.1551366, 8.763713, 0.011060238, -0.0018153191, 9.873646
773561950622043, -1.847259, 4.1635113, 8.800801, 0.017038107, 0.0090225935, 9.909637
773561960262043, -1.8400806, 4.162315, 8.82832, 0.026796818, 0.020431995, 9.932214
773561969902147, -1.8041883, 4.165904, 8.82832, 0.01850152, 0.055470586, 9.927017
773561979542147, -1.8293129, 4.173083, 8.845069, 0.019759178, 0.030571818, 9.949621
773561989182251, -1.8711873, 4.197011, 8.833105, -0.0012040138, -0.0139296055, 9.956898
773561998822251, -1.8927227, 4.2257247, 8.85464, -0.017313242, -0.030167103, 9.992126
773562008462355, -1.9082761, 4.2041893, 8.827123, -0.0058398247, -0.049755216, 9.961542
773562018102355, -1.8867407, 4.1982074, 8.781659, -0.020872116, -0.03802371, 9.914655
773562027742459, -1.8664017, 4.2006, 8.773284, -0.029319525, -0.020324469, 9.90443
773562037382459, -1.9884356, 4.2771707, 8.786445, -0.07470274, -0.14020777, 9.971181
773562047022563, -1.9034904, 4.1838503, 8.840283, 0.01804781, -0.04016733, 9.963763
773562056662563, -1.8077775, 4.2041893, 8.864211, -0.004817486, 0.057670355, 9.975679
773562066302668, -1.8161523, 4.159922, 8.822337, 0.017972708, 0.040472746, 9.921444
773562075942668, -1.8723837, 4.152744, 8.76491, 0.011679649, -0.027203321, 9.877949
773562085582772, -1.8951155, 4.1467614, 8.766106, 0.020482779, -0.04973173, 9.88073
773562095222772, -1.867598, 4.1407795, 8.784052, 0.02670765, -0.018589497, 9.889008
773562104862876, -1.8089739, 4.1371903, 8.800801, 0.027671337, 0.042166233, 9.891424
773562114502876, -1.7790636, 4.141976, 8.823533, 0.026949644, 0.07531321, 9.908046
773562124142980, -1.8053846, 4.1551366, 8.813962, 0.014842987, 0.046895266, 9.91
773562133782980, -1.8329022, 4.180261, 8.827123, 3.8909912E-4, 0.020832777, 9.937391
773562143423084, -1.8424734, 4.176672, 8.822337, 0.0025484562, 0.009749413, 9.93342
773562153063188, -1.8077775, 4.1790648, 8.817552, -0.006703377, 0.041524768, 9.923714
773562162703188, -1.8029919, 4.17069, 8.834301, 0.0063164234, 0.05001664, 9.934173
773562172343293, -1.8137596, 4.168297, 8.845069, 0.0143888, 0.04151547, 9.944735
773562181983293, -1.8747765, 4.1671004, 8.825927, 0.01554966, -0.022188663, 9.9386
773562191623397, -1.875973, 4.1635113, 8.781659, 9.624958E-4, -0.03308785, 9.898007
773562201263397, -1.8747765, 4.173083, 8.750552, -0.020536423, -0.038584113, 9.874192
773562210903501, -1.8592232, 4.176672, 8.7673025, -0.019494057, -0.019903302, 9.887676
773562220543501, -1.8532411, 4.1982074, 8.834301, -0.014862061, -0.0017889738, 9.955105
773562230183605, -1.855634, 4.176672, 8.868998, 0.019022465, 0.0038933754, 9.97731
773562239823605, -1.8532411, 4.1611185, 8.865408, 0.030694723, 0.0048007965, 9.96714
773562249463709, -1.8436699, 4.1611185, 8.840283, 0.01901412, 0.009332418, 9.9430485
773562259103709, -1.8855443, 4.173083, 8.834301, 0.010843277, -0.033203006, 9.950556
773562268743813, -1.8843478, 4.197011, 8.823533, -0.014347315, -0.034457922, 9.95083
773562278383918, -1.8364913, 4.1874394, 8.786445, -0.026542902, 0.005553961, 9.90496
773562288023918, -1.7946169, 4.1814575, 8.782856, -0.028021336, 0.045238256, 9.89146
773562297664022, -1.8077775, 4.1754756, 8.790034, -0.018104076, 0.034293413, 9.897771
773562307304022, -1.8281165, 4.168297, 8.807981, -0.0015032291, 0.017692804, 9.914482
773562316944126, -1.8520447, 4.1479583, 8.784052, 0.009853363, -0.011963367, 9.889133
773562326584126, -1.8604196, 4.15394, 8.758927, -0.004149914, -0.026277304, 9.870891
773562336224230, -1.847259, 4.1467614, 8.796016, 0.012817383, -0.0072083473, 9.898367
773562345864230, -1.8448663, 4.1515474, 8.85823, 0.03107214, 0.007905483, 9.955204
773562355504334, -1.8687944, 4.168297, 8.88814, 0.03145075, -0.008894682, 9.993252
773562365144438, -1.8831514, 4.165904, 8.868998, 0.026657343, -0.027711868, 9.977909
773562374784438, -1.8652053, 4.1838503, 8.800801, -0.02024436, -0.026054382, 9.921522
773562384424543, -1.8508483, 4.2041893, 8.729017, -0.06892872, -0.026481986, 9.863627
773562394064543, -1.8257236, 4.2017965, 8.7266245, -0.071190834, -0.0032391548, 9.855823
773562403704647, -1.8221345, 4.202993, 8.73141, -0.07032108, 0.0019156933, 9.859913
773562413344647, -1.8245273, 4.210171, 8.772088, -0.060385942, 0.008229017, 9.899509
773562422984751, -1.8233309, 4.1850467, 8.788837, -0.031239271, 0.01420331, 9.903619
773562432624751, -1.8245273, 4.1611185, 8.809176, -0.0013728142, 0.019219518, 9.911862
773562442264855, -1.8317057, 4.132405, 8.82114, 0.03020811, 0.0167377, 9.911773
773562451904959, -1.8436699, 4.1431723, 8.85464, 0.034774065, 0.012736797, 9.94828
773562461544959, -1.8496519, 4.130012, 8.874979, 0.054328203, 0.013312101, 9.961944
773562471185063, -1.861616, 4.1276193, 8.903693, 0.06678772, 0.009575367, 9.988695
773562480825063, -1.8903298, 4.1168513, 8.961121, 0.103681326, -0.0038580894, 10.040553
773562490465168, -1.896312, 4.15394, 8.925228, 0.05512643, -0.020094633, 10.025343
773562500105168, -1.9070797, 4.1694937, 8.8701935, 0.0185256, -0.043124676, 9.984976
773562509745272, -1.869991, 4.1814575, 8.85823, -0.0023362637, -0.010515213, 9.97244
