timestamp_acc,device_acc_x,device_acc_y,device_acc_z,earth_acc_x,earth_acc_y,earth_acc_z
178060927352662, 0.47138608, 6.0921264, 7.763513, -0.022500634, -0.0076389313, 9.879665
178060936992454, 0.49052864, 6.108876, 7.753942, -0.009090304, 0.015477657, 9.883435
178060946632245, 0.4749753, 6.113662, 7.8221374, -0.015374184, -0.027101517, 9.939182
178060956272037, 0.4761717, 6.101698, 7.8077803, -0.013275027, -0.026948929, 9.920587
178060965911829, 0.43669012, 6.0634127, 7.800602, -0.04191315, -0.06309128, 9.889355
178060975551620, 0.48215377, 6.0777693, 7.795816, -0.0026658773, -0.036609173, 9.896725
178060985191412, 0.50368917, 6.1028943, 7.7587276, 0.006520152, 0.010014057, 9.884165
178060994831100, 0.50129634, 6.1471615, 7.7300134, -0.011328936, 0.059580326, 9.888798
178061004470891, 0.5204389, 6.161518, 7.7551384, 0.0051680803, 0.059858322, 9.918354
178061014110683, 0.5276174, 6.1387863, 7.7946196, 0.023861647, 0.02143097, 9.935701
178061023750475, 0.506082, 6.1399827, 7.8424764, 0.009615064, -0.0132575035, 9.972948
178061033390266, 0.5096712, 6.114858, 7.8687973, 0.022955656, -0.04662943, 9.978302
178061043030058, 0.49292147, 6.1040907, 7.8580294, 0.008509874, -0.053153515, 9.96236
178061052669850, 0.51206404, 6.13759, 7.804191, 0.009924889, 0.008471012, 9.941704
178061062309641, 0.50488555, 6.1387863, 7.735996, -0.0074932575, 0.046765327, 9.888529
178061071949433, 0.51445687, 6.125626, 7.7479596, 0.0072420835, 0.032959938, 9.890284
178061081589225, 0.4749753, 6.141179, 7.800602, -0.024956465, -1.66893E-4, 9.939237
178061091229016, 0.49052864, 6.1435723, 7.830512, -0.0053043365, -0.010890961, 9.964985
178061100868808, 0.46660042, 6.131608, 7.8233337, -0.025936007, -0.022748947, 9.950765
178061110508600, 0.47138608, 6.099305, 7.8400836, -0.010165811, -0.0550251, 9.944219
178061120148391, 0.4833502, 6.1196437, 7.8233337, -0.0054380894, -0.0262084, 9.94422
178061129788183, 0.50009996, 6.131608, 7.757531, -8.043051E-4, 0.026883125, 9.90077
178061139427975, 0.4953143, 6.113662, 7.719246, -0.0053458214, 0.03434038, 9.859398
178061149067766, 0.49292147, 6.1268225, 7.7036924, -0.0116996765, 0.05220318, 9.855199
178061158707558, 0.5312066, 6.114858, 7.6678, 0.024018466, 0.0744648, 9.821544
178061168347350, 0.5180461, 6.141179, 7.688139, 0.0072125196, 0.076215744, 9.853126
178061177987141, 0.5192425, 6.1160545, 7.7503524, 0.022059202, 0.01746273, 9.886502
178061187626933, 0.48095736, 6.122037, 7.7587276, -0.01572299, 0.0032510757, 9.89486
178061197266725, 0.55034924, 6.13759, 7.7587276, 0.04675603, 0.03459263, 9.907945
178061206906516, 0.5455636, 6.1830535, 7.7587276, 0.03008306, 0.06529188, 9.93582
178061216546308, 0.56111693, 6.202196, 7.7300134, 0.034529686, 0.10055351, 9.92592
178061226186100, 0.5300102, 6.1806607, 7.8017983, 0.020892978, 0.032127857, 9.967349
178061235825891, 0.49052864, 6.1435723, 7.838887, -0.0014681816, -0.029128075, 9.97153
178061245465683, 0.46301118, 6.1196437, 7.87119, -0.016268969, -0.0733943, 9.980702
178061255105475, 0.4749753, 6.125626, 7.8628154, -0.006030321, -0.059090137, 9.978439
178061264745266, 0.4438686, 6.1005015, 7.7706914, -0.042381406, -0.032059193, 9.889083
178061274385058, 0.45822555, 6.0861444, 7.756335, -0.024790645, -0.031784534, 9.869662
178061284024850, 0.46181476, 6.1208405, 7.7156568, -0.037332177, 0.019192219, 9.85939
178061293664641, 0.46301118, 6.10768, 7.7240314, -0.029193759, 0.0049819946, 9.857887
178061303304433, 0.46899325, 6.076573, 7.7647095, -0.0077860355, -0.03943014, 9.870856
178061312944225, 0.44745782, 6.111269, 7.806584, -0.03102243, -0.044602394, 9.924093
178061322584016, 0.424726, 6.076573, 7.743174, -0.053204298, -0.038903236, 9.851778
178061332223808, 0.4031906, 6.0598235, 7.7156568, -0.07252288, -0.041159153, 9.81878
178061341863600, 0.47258246, 6.128019, 7.763513, -0.016590714, 0.0018172264, 9.901909
178061351503391, 0.5180461, 6.145965, 7.7874413, 0.025580525, 0.014331818, 9.934015
178061361143183, 0.44865423, 6.1064835, 7.7276206, -0.03886044, 5.722046E-5, 9.859262
178061370782975, 0.4354937, 6.0753765, 7.702496, -0.04731834, -0.012244225, 9.81967
178061380422766, 0.44985065, 6.114858, 7.7383885, -0.039216638, -7.581711E-5, 9.872941
178061390062558, 0.4977071, 6.175875, 7.745567, -0.007819295, 0.054456234, 9.918665
178061399702350, 0.5455636, 6.1399827, 7.753942, 0.047308683, 0.035476208, 9.905411
178061409342141, 0.5383851, 6.148358, 7.7874413, 0.040029764, 0.01609087, 9.936527
178061418981933, 0.5419743, 6.161518, 7.7443705, 0.033593416, 0.053472042, 9.911071
178061428621725, 0.5240282, 6.1627145, 7.7276206, 0.012564421, 0.059687138, 9.89778
178061438261516, 0.5312066, 6.1567326, 7.752745, 0.02218151, 0.04335451, 9.914143
178061447901204, 0.52283174, 6.135197, 7.8029947, 0.026212215, -0.0056796074, 9.939819
178061457540995, 0.5288138, 6.1591253, 7.838887, 0.02957964, -0.008421898, 9.98307
178061467180787, 0.55752766, 6.15434, 7.8831544, 0.064028025, -0.0316782, 10.016275
178061476820579, 0.5563313, 6.1698933, 7.806584, 0.047079682, 0.025509357, 9.965792
178061486460370, 0.5096712, 6.1495543, 7.696514, -0.008962631, 0.05916834, 9.86456
178061496100162, 0.48215377, 6.145965, 7.6833534, -0.03614974, 0.05600214, 9.850627
178061505739954, 0.51445687, 6.1567326, 7.7611203, 0.005517602, 0.026713371, 9.919893
178061515379745, 0.506082, 6.172286, 7.7443705, -0.009091854, 0.04580927, 9.915964
178061525019537, 0.485743, 6.1387863, 7.780263, -0.013867378, -0.0062646866, 9.922344
178061534659329, 0.50009996, 6.135197, 7.7826557, 0.0018509626, -0.0069565773, 9.922722
178061544299120, 0.465404, 6.145965, 7.7001033, -0.04615867, 0.039351463, 9.862932
178061553938912, 0.49172506, 6.09093, 7.6570325, -0.0128724575, 0.0324831, 9.796436
178061563578704, 0.4833502, 6.105287, 7.698907, -0.018365264, 0.01369524, 9.837724
178061573218495, 0.4953143, 6.1040907, 7.757531, 0.002060175, -0.019015789, 9.883531
178061582858287, 0.50129634, 6.0957155, 7.797013, 0.015751362, -0.046340942, 9.909594
178061592498079, 0.50368917, 6.0837517, 7.836494, 0.026305914, -0.077040195, 9.933266
178061602137870, 0.50129634, 6.1196437, 7.8424764, 0.01424408, -0.053723335, 9.960054
178061611777662, 0.50009996, 6.1232333, 7.816155, 0.007670641, -0.034707546, 9.9415865
178061621417454, 0.4953143, 6.1387863, 7.8281193, 9.583235E-4, -0.03206396, 9.960344
178061631057245, 0.46301118, 6.151947, 7.7742805, -0.040523887, 0.001162529, 9.924647
178061640697037, 0.4546363, 6.148358, 7.706085, -0.054595113, 0.03579092, 9.868562
178061650336829, 0.46899325, 6.108876, 7.706085, -0.029364109, 0.009504795, 9.844852
178061659976620, 0.45583272, 6.113662, 7.7001033, -0.04407382, 0.012713909, 9.842465
178061669616412, 0.48933223, 6.111269, 7.752745, -0.0035299063, -0.011749268, 9.8839245
178061679256204, 0.5072784, 6.111269, 7.771888, 0.016236424, -0.018855572, 9.899826
178061688895995, 0.5240282, 6.1387863, 7.7443705, 0.02064848, 0.023372173, 9.89614
178061698535787, 0.5240282, 6.15434, 7.7072816, 0.008791685, 0.052994728, 9.87673
178061708175579, 0.5288138, 6.151947, 7.725228, 0.016764402, 0.041913986, 9.88955
178061717815370, 0.48933223, 6.181857, 7.6893353, -0.035473824, 0.06828213, 9.877995
178061727455162, 0.52522457, 6.172286, 7.719246, 0.0048698187, 0.054187775, 9.89731
178061737094850, 0.5371887, 6.186643, 7.7312098, 0.014503837, 0.05990553, 9.916197
178061746734641, 0.5288138, 6.1830535, 7.7240314, 0.005940199, 0.058706284, 9.907925
178061756374433, 0.51445687, 6.1531434, 7.7347994, 0.0024003983, 0.025741577, 9.897086
178061766014225, 0.5371887, 6.1651077, 7.752745, 0.023038268, 0.030743122, 9.919712
178061775654016, 0.552742, 6.1567326, 7.77787, 0.04386568, 0.01468277, 9.934988
178061785293808, 0.4941179, 6.1184473, 7.8113694, 0.0030069351, -0.050579548, 9.934509
178061794933600, 0.46660042, 6.0957155, 7.7587276, -0.025301099, -0.042954445, 9.877795
178061804573391, 0.46061835, 6.1005015, 7.725228, -0.036961913, -0.019069195, 9.854223
178061814213183, 0.5300102, 6.1435723, 7.780263, 0.026361227, 0.0014395714, 9.927546
178061823852975, 0.587438, 6.202196, 7.838887, 0.07446098, 0.026692867, 10.012702
178061833492766, 0.5599205, 6.189036, 7.77787, 0.042111874, 0.045164585, 9.955358
178061843132558, 0.51445687, 6.135197, 7.7790666, 0.011848092, -0.010524273, 9.920632
178061852772350, 0.46061835, 6.13759, 7.6953177, -0.05228007, 0.023996353, 9.853771
178061862412141, 0.44865423, 6.1447687, 7.726424, -0.060558915, 0.0067515373, 9.881975
178061872051933, 0.44506502, 6.1495543, 7.765906, -0.057424188, -0.014668465, 9.915689
178061881691725, 0.47377887, 6.1399827, 7.726424, -0.0334177, 0.010546684, 9.880297
178061891331516, 0.5096712, 6.145965, 7.739585, 0.0014556646, 0.015425682, 9.896141
178061900971308, 0.5096712, 6.1208405, 7.7419777, 0.008538485, -0.005730629, 9.882436
178061910610995, 0.5240282, 6.1244297, 7.7001033, 0.015405178, 0.026387691, 9.852609
178061920250787, 0.506082, 6.0981083, 7.696514, 0.0048503876, 0.0037121773, 9.832564
178061929890579, 0.49052864, 6.09093, 7.737192, -0.0020130873, -0.031311035, 9.859168
178061939530370, 0.5084748, 6.1328044, 7.7826557, 0.01050365, -0.023528099, 9.9216385
178061949170162, 0.5455636, 6.15434, 7.8197446, 0.044380426, -0.02152729, 9.965918
178061958809954, 0.5371887, 6.175875, 7.793423, 0.027117848, 0.007965565, 9.958245
178061968449745, 0.61016977, 6.3565335, 7.8723865, 0.061208606, 0.114019394, 10.135854
178061978089537, 0.40558344, 5.912665, 7.6773715, -0.0450176, -0.15786695, 9.697382
178061987729329, 0.6723832, 6.6149583, 7.9657063, 0.06701636, 0.26887512, 10.372342
178061997369120, 0.3696911, 5.5405807, 7.530213, -0.0060397387, -0.35582447, 9.349447
178062007008912, 0.64247286, 6.9152575, 7.966903, -0.034039497, 0.48200083, 10.558013
178062016648704, 0.4438686, 5.48076, 7.5050883, 0.08076811, -0.3583622, 9.296621
178062026288495, 0.57188463, 6.799206, 7.8496547, -0.08304632, 0.43850422, 10.391062
178062035928287, 0.45104706, 5.704489, 7.5254273, 0.03491676, -0.21304512, 9.45146
178062045567975, 0.43429732, 6.442675, 7.676175, -0.1489582, 0.23684216, 10.027069
178062055207766, 0.5778667, 6.1064835, 7.769495, 0.08888066, -0.023526192, 9.898468
178062064847558, 0.3589234, 5.912665, 7.52782, -0.10311818, -0.083129406, 9.578046
178062074487350, 0.5766702, 6.512067, 7.8293157, -0.007199049, 0.24024773, 10.197058
178062084127141, 0.2739782, 5.4257255, 7.472785, -0.053340912, -0.4346428, 9.228452
178062093766933, 0.56111693, 6.7764735, 8.009974, -0.069719195, 0.32694435, 10.501589
178062103406725, 0.35413775, 5.416154, 7.5349984, 0.035494328, -0.45037842, 9.275357
178062113046516, 0.613759, 6.8458657, 7.9094753, -0.057949662, 0.44808197, 10.468918
178062122686308, 0.4833502, 5.662615, 7.594819, 0.095035315, -0.26504564, 9.481605
178062132326100, 0.44626144, 6.4905314, 7.8580294, -0.124363065, 0.16588497, 10.199598
178062141965891, 0.5347959, 6.1268225, 7.8699937, 0.05851853, -0.07597113, 9.987572
178062151605683, 0.36490545, 5.9712887, 7.6127653, -0.10033846, -0.087749004, 9.681212
178062161245370, 0.6376872, 6.532406, 7.8664045, 0.04334259, 0.25587988, 10.241676
178062170885162, 0.38524446, 5.54417, 7.493124, 0.012031198, -0.3234768, 9.323539
178062180524954, 0.70588267, 6.8542404, 8.066205, 0.05281508, 0.39412212, 10.6011505
178062190164745, 0.4031906, 5.4017973, 7.5266237, 0.071442604, -0.44296312, 9.262328
178062199804537, 0.5910272, 6.829116, 7.8903327, -0.077810645, 0.4394641, 10.442429
178062209444329, 0.48095736, 5.621937, 7.55773, 0.09372091, -0.27378702, 9.42725
178062219084120, 0.5168497, 6.5539412, 7.853244, -0.08296454, 0.24027395, 10.238657
178062228723912, 0.59581286, 6.07418, 7.7886376, 0.11511266, -0.05313778, 9.894314
178062238363704, 0.40677986, 6.0418773, 7.60798, -0.08413267, -0.026891232, 9.723337
178062248003391, 0.64008003, 6.4965134, 7.8113694, 0.040908217, 0.2571702, 10.176643
178062257643183, 0.36011982, 5.605187, 7.450053, -0.0318985, -0.2704525, 9.326142
178062267282975, 0.65682983, 6.875776, 8.069795, -0.010193944, 0.38566828, 10.615107
178062276922766, 0.38404804, 5.436493, 7.564909, 0.052930832, -0.45837116, 9.312244
178062286562558, 0.58265233, 6.855437, 7.9166536, -0.1056149, 0.43645763, 10.478942
178062296202350, 0.44865423, 5.528617, 7.5433736, 0.084578395, -0.35162258, 9.356203
178062305842141, 0.50009996, 6.552745, 7.8053875, -0.109553695, 0.25616312, 10.199755
178062315481933, 0.5563313, 5.983253, 7.7647095, 0.09712815, -0.117620945, 9.817141
178062325121725, 0.37686956, 6.050252, 7.652247, -0.10830486, -0.063607216, 9.761592
178062334761412, 0.587438, 6.448657, 7.832905, 0.005101323, 0.19310474, 10.161072
178062344401204, 0.3397808, 5.615955, 7.4979095, -0.04508555, -0.29421473, 9.369337
178062354040995, 0.62093747, 6.79442, 8.036295, -0.026631236, 0.33083487, 10.536678
178062363680787, 0.3290131, 5.4233327, 7.489535, -0.010511279, -0.43908548, 9.24235
178062373320579, 0.6113662, 6.867401, 7.9034934, -0.068787456, 0.4590416, 10.477821
178062382960370, 0.47377887, 5.5429735, 7.52782, 0.106015325, -0.32203865, 9.354259
178062392600162, 0.5383851, 6.6364937, 7.8484583, -0.091713905, 0.29638433, 10.287611
178062402239954, 0.5802595, 5.9653068, 7.733603, 0.11836541, -0.104917526, 9.782905
178062411879641, 0.45224348, 6.181857, 7.7036924, -0.069256306, 0.030572891, 9.887417
178062421519433, 0.64845496, 6.4295144, 7.861619, 0.07321751, 0.17877865, 10.174816
178062431159225, 0.35413775, 5.660222, 7.5290165, -0.04136324, -0.27791882, 9.421818
178062440799016, 0.6975078, 6.7812595, 8.079366, 0.05348599, 0.3189106, 10.566154
178062450438808, 0.4211368, 5.4496536, 7.5696945, 0.09076476, -0.43168688, 9.3264
178062460078600, 0.6759724, 6.8865438, 7.9716887, -0.0128006935, 0.45078707, 10.54637
178062469718391, 0.48933223, 5.511867, 7.487142, 0.11514759, -0.32719374, 9.303609
178062479358079, 0.5419743, 6.704689, 7.733603, -0.12634826, 0.41983366, 10.240265
178062488997870, 0.5706882, 5.9246287, 7.6678, 0.10623646, -0.10291481, 9.705678
178062498637662, 0.4235296, 6.2201424, 7.7108707, -0.10893345, 0.03545189, 9.915339
178062508277454, 0.61734825, 6.364908, 7.8352976, 0.05781126, 0.12881327, 10.112623
178062517917245, 0.34456646, 5.71765, 7.5230346, -0.07598829, -0.2409029, 9.452116
178062527557037, 0.6472585, 6.7058854, 8.023134, 0.022158504, 0.2801323, 10.472799
178062537196725, 0.29192436, 5.3479586, 7.5349984, -0.020966649, -0.53514814, 9.229044
178062546836516, 0.6053841, 6.799206, 8.073383, -0.03843105, 0.3018241, 10.568001
178062556476308, 0.43908295, 5.454439, 7.59123, 0.097869635, -0.43635225, 9.347218
178062566116100, 0.5192425, 6.6855464, 7.8628154, -0.11946392, 0.32330275, 10.328176
178062575755891, 0.48454657, 5.8157554, 7.6773715, 0.056760073, -0.20803261, 9.64123
178062585395683, 0.41515473, 6.2608204, 7.7144604, -0.12428844, 0.066324234, 9.943001
178062595035475, 0.61734825, 6.3278193, 7.804191, 0.06444156, 0.1275096, 10.065158
178062604675162, 0.3469593, 5.797809, 7.4787674, -0.097144604, -0.15376997, 9.467516
178062614314954, 0.64247286, 6.6915283, 7.895118, 4.3714046E-4, 0.34311724, 10.363613
178062623954745, 0.34337005, 5.4053864, 7.4620175, 1.128912E-4, -0.43073988, 9.210445
178062633594537, 0.6269195, 6.875776, 7.9884386, -0.049087644, 0.4123416, 10.550453
178062643234329, 0.44626144, 5.416154, 7.4620175, 0.08802384, -0.39757872, 9.222243
178062652874120, 0.5491528, 6.7034926, 7.818548, -0.10068023, 0.37493134, 10.306183
178062662513808, 0.55513483, 5.770292, 7.735996, 0.13800627, -0.26302242, 9.662395
178062672153600, 0.47258246, 6.3625154, 7.797013, -0.08610201, 0.106739044, 10.073706
178062681793391, 0.65922266, 6.3218374, 7.8484583, 0.1072098, 0.10463238, 10.098319
178062691433183, 0.4354937, 5.851648, 7.5816584, -0.021157503, -0.1508112, 9.5859165
178062701072975, 0.73818576, 6.74776, 7.9764743, 0.08621073, 0.36217642, 10.46722
178062710712766, 0.4235296, 5.541777, 7.550552, 0.044335485, -0.36749744, 9.368269
178062720352454, 0.6652047, 6.890133, 8.103293, -0.009384155, 0.3630705, 10.651192
178062729992245, 0.424726, 5.4221363, 7.570891, 0.08590603, -0.46021557, 9.310165
178062739632037, 0.57906306, 6.7848487, 7.911868, -0.08982992, 0.37455702, 10.431625
178062749271829, 0.52522457, 5.7547383, 7.635497, 0.10248649, -0.23245573, 9.572311
178062758911620, 0.45822555, 6.367301, 7.685746, -0.1219517, 0.1681428, 9.9889965
178062768551308, 0.5910272, 6.175875, 7.6893353, 0.05972433, 0.06487656, 9.879719
178062778191100, 0.3469593, 5.8396835, 7.4452677, -0.1168952, -0.10936451, 9.467242
178062787830891, 0.63529444, 6.626922, 7.8424764, 0.0020948648, 0.32128143, 10.282068
178062797470683, 0.34456646, 5.42094, 7.483553, 0.004741907, -0.44127035, 9.236566
178062807110475, 0.6269195, 6.8015985, 8.04108, -0.023215532, 0.32921648, 10.54537
178062816750266, 0.3912265, 5.3682976, 7.4739814, 0.055909514, -0.45950556, 9.198793
178062826389954, 0.53599226, 6.762117, 7.832905, -0.13248146, 0.398623, 10.353331
178062836029745, 0.44027936, 5.6386867, 7.597212, 0.05314207, -0.31850433, 9.465836
178062845669537, 0.4127619, 6.428318, 7.8113694, -0.15952146, 0.12905836, 10.1227
178062855309329, 0.53240305, 6.1399827, 7.813762, 0.03409016, -0.049149036, 9.95159
178062864949120, 0.35174492, 5.9030933, 7.641479, -0.09966087, -0.17375183, 9.660348
178062874588808, 0.6903293, 6.602994, 7.9274216, 0.07268572, 0.2729206, 10.336359
178062884228600, 0.4223332, 5.5597234, 7.5062847, 0.04052186, -0.32172775, 9.344948
178062893868391, 0.66759753, 6.8602223, 8.007581, -0.00991416, 0.41337204, 10.5574
178062903508183, 0.41754755, 5.42094, 7.513463, 0.076499104, -0.42759228, 9.264145
178062913147975, 0.6041877, 6.806384, 7.941778, -0.06454027, 0.3879447, 10.469437
178062922787662, 0.5180461, 5.6350975, 7.664211, 0.12659621, -0.32552624, 9.520546
178062932427454, 0.5204389, 6.474978, 7.820941, -0.07409608, 0.19568491, 10.164621
178062942067245, 0.62931234, 6.0693946, 7.752745, 0.12800688, -0.030675411, 9.865156
178062951707037, 0.44506502, 6.0227346, 7.556534, -0.06328869, -0.0045962334, 9.673086
178062961346829, 0.71665037, 6.586244, 7.820941, 0.08615124, 0.33201838, 10.244104
178062970986620, 0.36370903, 5.562116, 7.459625, -0.03404057, -0.31383753, 9.30676
178062980626308, 0.65682983, 6.863812, 8.024331, -0.017808914, 0.39725208, 10.572374
178062990266100, 0.41754755, 5.4412785, 7.5110703, 0.061718225, -0.41148043, 9.274962
178062999905891, 0.6233303, 6.897311, 7.9130645, -0.08242977, 0.47256756, 10.504663
178063009545683, 0.5192425, 5.6243296, 7.587641, 0.11895263, -0.29485893, 9.453775
178063019185370, 0.51565325, 6.5084777, 7.8723865, -0.08787346, 0.18532896, 10.225389
178063028825162, 0.55752766, 6.005985, 7.769495, 0.075559855, -0.10781193, 9.835161
178063038464954, 0.39361933, 6.007181, 7.665407, -0.095458865, -0.0960331, 9.745836
178063048104745, 0.6580262, 6.472585, 7.905886, 0.06481075, 0.18546772, 10.236789
178063057744537, 0.36131623, 5.569295, 7.513463, -0.028981566, -0.33310795, 9.353498
178063067384225, 0.64606214, 6.8051877, 8.013563, -0.018692374, 0.36316442, 10.526772
178063077024016, 0.37208393, 5.3682976, 7.5050883, 0.030115843, -0.4708867, 9.222839
178063086663808, 0.6125626, 6.836294, 7.995617, -0.06803751, 0.3863349, 10.530251
178063096303600, 0.4319045, 5.535795, 7.5314093, 0.048300028, -0.35019827, 9.350334
178063105943391, 0.50488555, 6.550352, 7.8699937, -0.109963536, 0.21200275, 10.248991
178063115583079, 0.57547385, 5.98086, 7.7946196, 0.10502088, -0.13221025, 9.840196
178063125222870, 0.40438703, 6.081359, 7.6510506, -0.108157516, -0.025884628, 9.78124
178063134862662, 0.65084773, 6.4366927, 7.8089767, 0.0507102, 0.21884012, 10.138258
178063144502454, 0.33379877, 5.5800624, 7.463214, -0.06879103, -0.30370808, 9.319394
178063154142245, 0.654437, 6.7728844, 8.003992, -0.006785631, 0.3504033, 10.499588
178063163781933, 0.3684947, 5.3922257, 7.5182486, 0.0228374, -0.4597721, 9.247922
178063173421725, 0.66400826, 6.8709903, 7.9836526, -0.022031903, 0.4321661, 10.545277
178063183061516, 0.5132605, 5.538188, 7.507481, 0.11693776, -0.2994256, 9.337768
178063192701308, 0.5515456, 6.641279, 7.8400836, -0.09312916, 0.31701326, 10.284385
178063202341100, 0.5910272, 5.9377894, 7.739585, 0.115936756, -0.12169504, 9.771365
178063211980787, 0.44506502, 6.1794643, 7.7647095, -0.08565402, -0.009741783, 9.933134
178063221620579, 0.66999036, 6.463014, 7.9346, 0.07053578, 0.17166567, 10.25392
178063231260370, 0.38883367, 5.692525, 7.5517483, -0.03447938, -0.25129223, 9.461534
178063240900162, 0.6855437, 6.7585278, 8.070991, 0.021928787, 0.31018305, 10.544757
178063250539850, 0.40917268, 5.4113684, 7.6163545, 0.072202325, -0.48696184, 9.338996
178063260179641, 0.6664011, 6.859026, 8.02792, -0.030537248, 0.40197372, 10.572384
178063269819433, 0.4749753, 5.4903316, 7.483553, 0.09150708, -0.32525635, 9.287559
178063279459225, 0.55513483, 6.661618, 7.830512, -0.1046716, 0.350358, 10.289243
178063289099016, 0.5300102, 5.8468623, 7.7312098, 0.08534181, -0.2002759, 9.705201
178063298738704, 0.37088752, 6.1734824, 7.7001033, -0.16427565, 0.011879921, 9.874914
178063308378495, 0.59940207, 6.285945, 7.806584, 0.040067792, 0.09959221, 10.0401
178063318018287, 0.36011982, 5.6709895, 7.4859457, -0.06813669, -0.2354126, 9.395165
178063327658079, 0.6771688, 6.73101, 7.9034934, -0.0040757656, 0.3902068, 10.396057
178063337297870, 0.41156548, 5.4257255, 7.556534, 0.0595212, -0.4447961, 9.300952
178063346937558, 0.64247286, 6.8279195, 8.01117, -0.04469955, 0.3818617, 10.538706
178063356577350, 0.42951167, 5.426922, 7.5026956, 0.071397185, -0.39782763, 9.260836
178063366217141, 0.53359944, 6.715457, 7.9429746, -0.12823808, 0.3071556, 10.409716
178063375856933, 0.5383851, 5.834898, 7.759924, 0.09243107, -0.21906519, 9.720894
178063385496620, 0.42831525, 6.2644095, 7.7706914, -0.12493825, 0.05234289, 9.989574
178063395136412, 0.62093747, 6.2847486, 7.8257265, 0.05936694, 0.09395647, 10.055509
178063404776204, 0.39840496, 5.76431, 7.537391, -0.05442047, -0.18335724, 9.49535
178063414415995, 0.715454, 6.6939216, 7.999206, 0.0652889, 0.3172145, 10.450017
178063424055787, 0.39601216, 5.413761, 7.5553374, 0.041222572, -0.4554615, 9.291912
178063433695475, 0.67118675, 6.863812, 8.047063, -0.021879554, 0.406806, 10.59017
178063443335266, 0.4438686, 5.395815, 7.5182486, 0.07864833, -0.42581558, 9.2546425
178063452975058, 0.57547385, 6.725028, 7.880761, -0.10287404, 0.36664534, 10.369116
178063462614850, 0.56470615, 5.7810597, 7.704889, 0.12074399, -0.21692324, 9.645891
178063472254641, 0.49292147, 6.34098, 7.8580294, -0.080109715, 0.07739258, 10.10877
178063481894329, 0.6269195, 6.253642, 7.838887, 0.0695169, 0.06668329, 10.046887
178063491534120, 0.3804588, 5.8337016, 7.539784, -0.094296575, -0.13840342, 9.539241
178063501173912, 0.6987042, 6.686743, 7.948957, 0.029934883, 0.34317255, 10.4051895
178063510813704, 0.3912265, 5.4699926, 7.5349984, 0.012770176, -0.39804554, 9.310825
178063520453391, 0.6987042, 6.867401, 8.10808, 0.0073114634, 0.37344408, 10.641939
178063530093183, 0.48454657, 5.4185467, 7.5457664, 0.11995351, -0.41845846, 9.292175
178063539732975, 0.5886344, 6.789634, 7.867601, -0.11562133, 0.43359518, 10.399201
178063549372766, 0.506082, 5.6913285, 7.6259255, 0.07809055, -0.2602911, 9.525138
178063559012558, 0.44626144, 6.3397837, 7.7790666, -0.13620412, 0.106794834, 10.043701
178063568652245, 0.6257231, 6.161518, 7.795816, 0.088531256, 0.02281332, 9.956013
178063578292037, 0.41156548, 5.8432727, 7.55773, -0.060331106, -0.13671827, 9.560865
178063587931829, 0.6628119, 6.5479593, 7.88794, 0.025701165, 0.26255178, 10.26962
178063597571620, 0.3182454, 5.4125648, 7.519445, -0.027248502, -0.45431757, 9.25916
178063607211412, 0.63170516, 6.823134, 8.170293, -0.038806558, 0.2960286, 10.65921
178063616851100, 0.3804588, 5.363512, 7.6426754, 0.060682893, -0.540339, 9.328819
178063626490891, 0.526421, 6.748956, 7.897511, -0.15771532, 0.3764081, 10.393731
178063636130683, 0.47377887, 5.631508, 7.624729, 0.071725845, -0.29413748, 9.485948
178063645770475, 0.4869394, 6.445068, 7.958528, -0.09616768, 0.09797478, 10.251602
178063655410162, 0.63170516, 6.172286, 7.928618, 0.1116153, -0.03354454, 10.067054
178063665049954, 0.40797627, 5.901897, 7.597212, -0.075540304, -0.10715294, 9.628046
178063674689745, 0.66759753, 6.533602, 7.880761, 0.04235792, 0.26768637, 10.255077
178063684329537, 0.41156548, 5.515456, 7.4787674, 0.017132401, -0.31826258, 9.296236
178063693969329, 0.77647096, 6.928418, 7.999206, 0.049216747, 0.51939535, 10.59816
178063703609016, 0.4833502, 5.456832, 7.530213, 0.107543945, -0.37131834, 9.304049
178063713248808, 0.6364908, 6.8195443, 7.9130645, -0.06447387, 0.44601536, 10.455851
178063722888600, 0.5276174, 5.625526, 7.588837, 0.11007023, -0.27712202, 9.456557
178063732528391, 0.5204389, 6.492924, 7.8903327, -0.086013675, 0.17815447, 10.229719
178063742168183, 0.65084773, 6.101698, 7.8867435, 0.13903701, -0.07112646, 9.991529
178063751807870, 0.45104706, 5.994021, 7.6163545, -0.06195104, -0.041373253, 9.702321
178063761447662, 0.71306115, 6.5742803, 7.812566, 0.064333916, 0.34506893, 10.229496
178063771087454, 0.39840496, 5.556134, 7.457232, -0.020865321, -0.28554678, 9.303638
178063780727245, 0.6987042, 6.8458657, 8.088937, 0.025068402, 0.36821222, 10.613613
178063790367037, 0.39840496, 5.4173503, 7.611569, 0.040969133, -0.48633003, 9.33832
178063800006725, 0.57547385, 6.8195443, 7.9800634, -0.10463905, 0.37978268, 10.505407
178063809646516, 0.44506502, 5.4963136, 7.645068, 0.075274706, -0.42491817, 9.416389
178063819286308, 0.47377887, 6.495317, 7.962117, -0.12127447, 0.12868404, 10.284827
178063828926100, 0.57427746, 5.989235, 7.8556366, 0.10140407, -0.15003204, 9.89338
178063838565891, 0.39361933, 5.973682, 7.6402826, -0.0992589, -0.087371826, 9.705475
178063848205579, 0.6017949, 6.413961, 7.806584, 0.0044488907, 0.20114183, 10.119452
178063857845370, 0.31106696, 5.493921, 7.457232, -0.07041824, -0.35791874, 9.260517
178063867485162, 0.62093747, 6.7585278, 8.031509, -0.038771987, 0.3221364, 10.510143
178063877124954, 0.4031906, 5.393422, 7.5050883, 0.05143869, -0.42554617, 9.240897
178063886764745, 0.6269195, 6.859026, 7.867601, -0.080619216, 0.50722694, 10.443882
178063896404537, 0.47258246, 5.5405807, 7.5816584, 0.0840472, -0.3402319, 9.395749
178063906044225, 0.45822555, 6.5694947, 7.864012, -0.16581833, 0.24115086, 10.253059
178063915684016, 0.5347959, 5.940182, 7.830512, 0.075378895, -0.1833849, 9.841209
178063925323808, 0.4139583, 6.07418, 7.780263, -0.08507407, -0.09031391, 9.8784685
178063934963600, 0.6891329, 6.454639, 7.925029, 0.094065785, 0.18743467, 10.242041
178063944603391, 0.4235296, 5.643472, 7.513463, -4.0352345E-4, -0.2491417, 9.403096
178063954243079, 0.67118675, 6.799206, 8.04467, 0.0022284985, 0.36061716, 10.548289
178063963882870, 0.40438703, 5.3994045, 7.647461, 0.06661761, -0.5124426, 9.355947
178063973522662, 0.6556334, 6.859026, 8.050652, -0.03102386, 0.3993039, 10.589084
178063983162454, 0.4977071, 5.5202417, 7.6019974, 0.11029768, -0.36631203, 9.400253
178063992802245, 0.5563313, 6.634101, 7.8963146, -0.08896983, 0.29346418, 10.32369
178064002441933, 0.573081, 5.930611, 7.7180495, 0.0907318, -0.1131134, 9.7492485
178064012081725, 0.44147578, 6.209375, 7.570891, -0.12845325, 0.13921833, 9.799683
178064021721516, 0.6831509, 6.3996043, 7.6977105, 0.072164774, 0.27410173, 10.029758
178064031361308, 0.4103691, 5.669793, 7.442875, -0.032113075, -0.19180393, 9.363415
178064041001100, 0.6987042, 6.768099, 7.9800634, 0.030523062, 0.3780818, 10.48012
178064050640891, 0.3900301, 5.3766723, 7.578069, 0.046628, -0.49270725, 9.286708
178064060280579, 0.6089734, 6.795616, 8.047063, -0.058812022, 0.33216572, 10.544794
178064069920370, 0.41635114, 5.436493, 7.5936227, 0.046617627, -0.44576263, 9.337614
178064079560162, 0.5347959, 6.643672, 7.9776707, -0.09589553, 0.25492716, 10.391989
178064089199954, 0.5491528, 5.869594, 7.879565, 0.10497856, -0.26158285, 9.836758
178064098839745, 0.4319045, 6.1998034, 7.844869, -0.09970999, -0.02908945, 10.007762
178064108479537, 0.6221339, 6.3278193, 7.9094753, 0.05805111, 0.082699776, 10.147805
178064118119225, 0.38404804, 5.7248282, 7.5924263, -0.055187464, -0.24317932, 9.513354
178064127759016, 0.66759753, 6.73101, 8.072187, 0.016836286, 0.29962683, 10.527218
178064137398808, 0.36251262, 5.4352965, 7.5900335, 0.0064144135, -0.4626379, 9.331045
178064147038600, 0.62452674, 6.9044895, 7.984849, -0.0839237, 0.468287, 10.563782
178064156678391, 0.45942193, 5.4424753, 7.489535, 0.0875988, -0.3600583, 9.26215
178064166318183, 0.573081, 6.674779, 7.7994056, -0.10321689, 0.3878851, 10.273787
178064175957870, 0.59700924, 5.7894344, 7.6749787, 0.14819252, -0.1876154, 9.629232
178064185597662, 0.53240305, 6.3014984, 7.795816, -0.036236525, 0.099304676, 10.037725
178064195237454, 0.6975078, 6.317052, 7.818548, 0.11992252, 0.14744568, 10.073989
178064204877245, 0.43429732, 5.8337016, 7.4129643, -0.05854988, -0.047498226, 9.442832
178064214517037, 0.6963114, 6.762117, 7.8580294, 0.005457878, 0.44743538, 10.380726
178064224156829, 0.41994038, 5.440082, 7.6666036, 0.07692945, -0.49397755, 9.396687
178064233796620, 0.6687939, 6.8913293, 8.175078, -0.013061404, 0.34728575, 10.70742
178064243436308, 0.43908295, 5.42094, 7.6366935, 0.092825174, -0.48038292, 9.362644
178064253076100, 0.56111693, 6.68435, 7.995617, -0.08260441, 0.27328253, 10.432821
178064262715891, 0.506082, 5.7284174, 7.7108707, 0.08505666, -0.27511358, 9.614858
178064272355683, 0.44865423, 6.3493547, 7.6606216, -0.14627135, 0.19237566, 9.957024
178064281995475, 0.5982057, 6.2416778, 7.826923, 0.051054955, 0.057340622, 10.028521
178064291635266, 0.38644084, 5.7954164, 7.63789, -0.058030605, -0.22348547, 9.592719
178064301274954, 0.6472585, 6.631708, 7.9310107, 0.017124653, 0.29454327, 10.3543415
178064310914745, 0.33379877, 5.447261, 7.524231, -0.029675603, -0.42374754, 9.285348
178064320554537, 0.65324056, 6.8374906, 8.012366, -0.015388489, 0.40451908, 10.545716
178064330194329, 0.43908295, 5.380262, 7.469196, 0.082716346, -0.4077444, 9.206291
178064339834120, 0.56350976, 6.7322063, 7.8376904, -0.09866953, 0.39811325, 10.33931
178064349473912, 0.49172506, 5.663811, 7.6259255, 0.0825367, -0.28437185, 9.507239
178064359113704, 0.45702913, 6.3589263, 7.864012, -0.10492468, 0.07994127, 10.122752
178064368753495, 0.59700924, 6.1770716, 7.932207, 0.08764756, -0.05473852, 10.070843
178064378393183, 0.3696911, 5.8839507, 7.6307116, -0.09582007, -0.15545225, 9.64116
178064388032975, 0.6436693, 6.6448684, 7.8963146, 0.009153843, 0.32856846, 10.335007
178064397672766, 0.34456646, 5.477171, 7.457232, -0.03924024, -0.36410236, 9.251721
178064407312558, 0.6364908, 6.849455, 7.9836526, -0.03195417, 0.4227538, 10.529917
178064416952350, 0.41515473, 5.3742795, 7.520642, 0.059038043, -0.4625244, 9.241096
178064426592141, 0.5886344, 6.7585278, 7.972885, -0.060130715, 0.34868908, 10.462595
178064436231933, 0.506082, 5.6410794, 7.7012997, 0.1052655, -0.3449006, 9.552899
178064445871725, 0.47377887, 6.4211397, 7.867601, -0.10160446, 0.123738766, 10.165089
178064455511412, 0.58983076, 6.142376, 7.8293157, 0.07439411, -0.019814491, 9.968398
178064465151204, 0.39601216, 5.9413786, 7.576873, -0.09314442, -0.07699251, 9.635933
178064474790995, 0.6831509, 6.6305118, 7.9190464, 0.043347716, 0.31193733, 10.346136
178064484430787, 0.39481574, 5.568098, 7.5900335, 0.015436411, -0.360507, 9.414778
178064494070579, 0.66041905, 6.8602223, 8.092526, -0.020855904, 0.36598444, 10.623249
178064503710370, 0.38404804, 5.4029937, 7.5110703, 0.04078567, -0.4391122, 9.249947
178064513350162, 0.6257231, 6.8171515, 7.897511, -0.071175456, 0.44176006, 10.442011
178064522989954, 0.526421, 5.6303115, 7.560123, 0.12230754, -0.26060343, 9.436638
178064532629745, 0.5706882, 6.5252275, 7.8089767, -0.055805564, 0.25575733, 10.189009
178064542269433, 0.6125626, 6.113662, 7.757531, 0.09261012, 0.0017490387, 9.895596
178064551909225, 0.38404804, 6.0454664, 7.5864444, -0.13223398, -0.021449089, 9.707284
178064561549016, 0.6556334, 6.5228343, 7.9310107, 0.036525488, 0.21049595, 10.287495
178064571188808, 0.33379877, 5.5250273, 7.600801, -0.023679972, -0.42555666, 9.392967
178064580828600, 0.6723832, 6.8339014, 8.0817585, -0.011315942, 0.34684944, 10.599466
178064590468391, 0.4139583, 5.375476, 7.5110703, 0.0822674, -0.45898247, 9.233951
178064600108183, 0.6376872, 6.815955, 7.9477606, -0.052318096, 0.40151787, 10.481739
178064609747975, 0.49292147, 5.564509, 7.539784, 0.10138261, -0.31394243, 9.377965
178064619387766, 0.4881358, 6.5539412, 7.7671022, -0.14889431, 0.27665234, 10.1696415
178064629027558, 0.5347959, 6.0191455, 7.7156568, 0.038418055, -0.07279396, 9.800035
178064638667245, 0.39960137, 6.06102, 7.6977105, -0.10750759, -0.06830406, 9.804804
178064648307037, 0.6831509, 6.509674, 7.9393854, 0.07694793, 0.20244694, 10.287346
178064657946829, 0.39361933, 5.6123657, 7.5828547, -0.013322592, -0.3311944, 9.436279
178064667586620, 0.66999036, 6.815955, 8.118847, 0.011542082, 0.31659508, 10.617035
178064677226412, 0.36490545, 5.4113684, 7.5673018, 0.013379335, -0.48311663, 9.297663
178064686866204, 0.6329016, 6.8458657, 7.945368, -0.06366408, 0.4322586, 10.4978285
178064696505995, 0.4833502, 5.5274205, 7.542177, 0.09536278, -0.3474779, 9.356313
178064706145787, 0.55034924, 6.5778694, 7.850851, -0.07980454, 0.2589035, 10.253472
178064715785579, 0.56590253, 5.9413786, 7.7623167, 0.093182325, -0.1515131, 9.789901
178064725425370, 0.42711884, 6.105287, 7.7156568, -0.09234321, -0.042461395, 9.847739
178064735065162, 0.66759753, 6.4474607, 7.8436728, 0.065021396, 0.20381021, 10.173143
178064744704954, 0.3912265, 5.669793, 7.476374, -0.04406953, -0.22958088, 9.388351
178064754344641, 0.69152576, 6.8195443, 8.04108, 0.021004796, 0.36761189, 10.559725
178064763984433, 0.41754755, 5.454439, 7.584051, 0.042374253, -0.45009232, 9.340165
178064773624225, 0.62931234, 6.890133, 8.003992, -0.0585258, 0.41956615, 10.571394
178064783264016, 0.42711884, 5.483153, 7.5457664, 0.0382452, -0.39512014, 9.328902
178064792903808, 0.53359944, 6.5958157, 7.9657063, -0.08343446, 0.19880867, 10.353528
178064802543600, 0.56470615, 5.871987, 7.8257265, 0.11294639, -0.23606586, 9.796563
178064812183391, 0.42592242, 6.1603217, 7.7946196, -0.097628236, -0.045080185, 9.943617
178064821823183, 0.6233303, 6.364908, 7.8604226, 0.046507478, 0.12437725, 10.132582
178064831462975, 0.3804588, 5.676972, 7.515856, -0.050215006, -0.24775696, 9.423215
178064841102766, 0.70588267, 6.8219376, 7.948957, 0.013430119, 0.43324518, 10.489765
178064850742558, 0.40677986, 5.4723854, 7.4883385, 0.026823044, -0.37305927, 9.276196
178064860382350, 0.66161543, 6.927222, 7.984849, -0.05959654, 0.46670485, 10.581142
178064870022141, 0.49651068, 5.534599, 7.5661054, 0.105581045, -0.34805727, 9.3804035
178064879661933, 0.5766702, 6.6855464, 7.895118, -0.08334386, 0.3150139, 10.356438
178064889301725, 0.55513483, 5.8600225, 7.708478, 0.09581387, -0.1877904, 9.69661
178064898941516, 0.40797627, 6.212964, 7.7120676, -0.13965261, 0.022474766, 9.91077
178064908581308, 0.6305088, 6.323034, 7.800602, 0.05296457, 0.122590065, 10.06031
178064918221100, 0.4031906, 5.7523456, 7.48116, -0.050227404, -0.17616463, 9.443846
178064927860891, 0.695115, 6.745367, 7.962117, 0.024416685, 0.35717678, 10.452286
178064937500683, 0.4103691, 5.4580283, 7.594819, 0.04992795, -0.45962667, 9.350187
178064947140370, 0.6364908, 6.6687965, 8.045866, 0.0052667856, 0.23381758, 10.467055
178064956780162, 0.5072784, 6.007181, 7.726424, 0.014902353, -0.09885979, 9.799552
178064966419954, 0.573081, 6.2177496, 7.812566, 0.031169057, 0.018432617, 10.001184
178064976059745, 0.55513483, 6.189036, 7.7419777, 0.010962129, 0.033459187, 9.927201
178064985699537, 0.5563313, 6.2201424, 7.708478, -0.0012304783, 0.07416296, 9.920424
178064995339329, 0.55513483, 6.1734824, 7.7216387, 0.01352334, 0.03177643, 9.901646
178065004979120, 0.5180461, 6.1495543, 7.6953177, -0.01912713, 0.018470287, 9.864208
178065014618912, 0.51445687, 6.141179, 7.7443705, -0.0113607645, -0.016067982, 9.897153
178065024258704, 0.5312066, 6.128019, 7.8077803, 0.01772368, -0.05881214, 9.93944
178065033898495, 0.5395815, 6.1603217, 7.7216387, 0.0045291185, 0.020949364, 9.89262
178065043538287, 0.5300102, 6.1591253, 7.664211, -0.012029409, 0.052065372, 9.846473
178065053178079, 0.552742, 6.1675005, 7.6749787, 0.009491444, 0.058090687, 9.861311
178065062817870, 0.4989035, 6.1208405, 7.745567, -0.019367456, -0.034611702, 9.884627
178065072457662, 0.46301118, 6.087341, 7.8556366, -0.029164076, -0.13436365, 9.947976
178065082097454, 0.47856453, 6.0825553, 7.8963146, -0.007787943, -0.15628004, 9.977666
178065091737245, 0.46061835, 6.096912, 7.8281193, -0.037373424, -0.10849619, 9.93231
178065101377037, 0.46899325, 6.099305, 7.7108707, -0.044952154, -0.03319311, 9.842555
178065111016829, 0.506082, 6.1639113, 7.6749787, -0.031220198, 0.04718542, 9.856572
178065120656620, 0.55513483, 6.178268, 7.678568, 0.013020873, 0.06973362, 9.870895
178065130296412, 0.5395815, 6.174679, 7.6893353, -4.0590763E-4, 0.054784775, 9.876269
178065139936204, 0.52163535, 6.1651077, 7.7216387, -0.010460019, 0.02276802, 9.894632
178065149575995, 0.50488555, 6.135197, 7.7347994, -0.017704844, -0.012269974, 9.885456
178065159215787, 0.5288138, 6.1698933, 7.7479596, -0.0030411482, 0.013092041, 9.918564
178065168855579, 0.57188463, 6.192625, 7.7623167, 0.0329082, 0.03432989, 9.946203
178065178495370, 0.5623133, 6.2344995, 7.8400836, 0.02421391, 0.015057564, 10.032511
178065188135162, 0.5407779, 6.212964, 7.793423, 0.0011609793, 0.020142078, 9.981504
178065197774954, 0.5312066, 6.1639113, 7.780263, 0.0026720762, -0.01510191, 9.940235
178065207414745, 0.5455636, 6.1675005, 7.739585, 0.008962274, 0.015304565, 9.911436
178065217054537, 0.57906306, 6.174679, 7.763513, 0.042013764, 0.016183376, 9.936402
178065226694329, 0.57188463, 6.1675005, 7.795816, 0.041849256, -0.009759903, 9.956808
178065236334120, 0.5204389, 6.141179, 7.7347994, -0.009097338, -0.008205414, 9.889991
178065245973912, 0.5479564, 6.135197, 7.756335, 0.02188003, -0.014801979, 9.9045925
178065255613704, 0.51445687, 6.148358, 7.7276206, -0.01736164, 0.0045347214, 9.888517
178065265253495, 0.5383851, 6.1507506, 7.732406, 0.0052496195, 0.011096954, 9.895025
178065274893287, 0.5491528, 6.1447687, 7.7204423, 0.01529789, 0.01709652, 9.882532
178065284533079, 0.5515456, 6.1998034, 7.7180495, 5.618334E-4, 0.05743313, 9.914977
178065294172870, 0.5168497, 6.1998034, 7.713264, -0.032987356, 0.04908228, 9.909372
178065303812662, 0.50488555, 6.1567326, 7.7012997, -0.033938646, 0.019857407, 9.872624
178065313452454, 0.50129634, 6.174679, 7.753942, -0.03397882, -0.0013651848, 9.924737
178065323092245, 0.54436713, 6.1399827, 7.8197446, 0.026224732, -0.0532856, 9.956938
178065332732037, 0.5204389, 6.1232333, 7.830512, 0.009678841, -0.07962036, 9.953659
178065342371829, 0.5240282, 6.1304116, 7.8352976, 0.010436296, -0.075721264, 9.962057
178065352011725, 0.5024927, 6.1196437, 7.8089767, -0.011078954, -0.0720191, 9.933647
178065361651516, 0.49052864, 6.128019, 7.746763, -0.033066273, -0.030617237, 9.889568
178065371291308, 0.47976094, 6.1447687, 7.753942, -0.046537995, -0.026191235, 9.9050045
178065380931100, 0.5288138, 6.1675005, 7.752745, -0.0059164762, 0.007048607, 9.92082
178065390570891, 0.5515456, 6.1878395, 7.716853, 0.0049432516, 0.051674366, 9.906598
178065400210683, 0.5563313, 6.166304, 7.733603, 0.018248916, 0.027929783, 9.90658
178065409850475, 0.5395815, 6.111269, 7.7312098, 0.01738882, -0.016200066, 9.86964
178065419490266, 0.5395815, 6.142376, 7.7407813, 0.0092583895, 0.0014843941, 9.896442
178065429130058, 0.50368917, 6.1387863, 7.743174, -0.024042964, -0.013728142, 9.89416
178065438769850, 0.5192425, 6.157929, 7.804191, -0.005206585, -0.031155586, 9.954601
178065448409641, 0.5312066, 6.1507506, 7.7647095, 0.0016430616, -0.008731842, 9.919907
178065458049433, 0.5084748, 6.148358, 7.765906, -0.019193769, -0.019646168, 9.918136
178065467689225, 0.5072784, 6.1567326, 7.7754774, -0.021279097, -0.020347595, 9.930754
178065477329016, 0.55034924, 6.181857, 7.8017983, 0.01587975, -0.0026955605, 9.969255
178065486968808, 0.53240305, 6.1710896, 7.7910304, 6.531477E-4, -0.010334492, 9.953183
178065496608600, 0.49292147, 6.145965, 7.792227, -0.027209878, -0.042538166, 9.936403
178065506248391, 0.5383851, 6.135197, 7.8376904, 0.028992653, -0.05773592, 9.967735
178065515888183, 0.5419743, 6.1627145, 7.810173, 0.016891718, -0.020820618, 9.963478
178065525527975, 0.5599205, 6.1675005, 7.771888, 0.022852063, 0.013491154, 9.93746
178065535167766, 0.55513483, 6.1734824, 7.77787, 0.017543793, 0.012577534, 9.945595
178065544807662, 0.573081, 6.161518, 7.708478, 0.023415446, 0.05152893, 9.884844
178065554447454, 0.57906306, 6.1806607, 7.719246, 0.02432096, 0.06099701, 9.90547
178065564087245, 0.5623133, 6.166304, 7.6941214, 0.009903431, 0.05675459, 9.876017
178065573727037, 0.5371887, 6.134001, 7.6749787, -0.005750537, 0.03500223, 9.8396435
178065583366829, 0.5694918, 6.15434, 7.6630144, 0.012905359, 0.06714153, 9.84466
178065593006620, 0.58624154, 6.1974106, 7.7419777, 0.030872107, 0.0580225, 9.934057
178065602646412, 0.5491528, 6.155536, 7.7946196, 0.022048235, -0.018343449, 9.947234
178065612286204, 0.5132605, 6.157929, 7.818548, -0.0062624216, -0.043292522, 9.965506
178065621925995, 0.46061835, 6.174679, 7.874779, -0.04440832, -0.088229656, 10.017048
178065631565787, 0.47018966, 6.1603217, 7.873583, -0.029330254, -0.088145256, 10.007764
178065641205579, 0.49172506, 6.1507506, 7.8496547, -0.013784885, -0.070830345, 9.98426
178065650845370, 0.506082, 6.1471615, 7.800602, -0.010373354, -0.038815975, 9.94442
178065660485162, 0.5419743, 6.125626, 7.704889, 0.0077757835, 0.01590538, 9.858095
178065670125058, 0.5300102, 6.135197, 7.641479, -0.020097971, 0.052435875, 9.813795
178065679764850, 0.5276174, 6.1447687, 7.618747, -0.028708339, 0.07082605, 9.801839
178065689404641, 0.47856453, 6.134001, 7.6390862, -0.06395304, 0.030463696, 9.808447
178065699044433, 0.4989035, 6.131608, 7.726424, -0.025996447, -0.014927387, 9.8763485
178065708684225, 0.51565325, 6.1675005, 7.7180495, -0.025378346, 0.022109509, 9.892983
178065718324016, 0.5599205, 6.174679, 7.7587276, 0.019989252, 0.01973629, 9.931629
178065727963808, 0.587438, 6.174679, 7.8293157, 0.058858752, -0.010529995, 9.98831
178065737603600, 0.56829536, 6.181857, 7.7790666, 0.027597427, 0.018673897, 9.952442
178065747243391, 0.5623133, 6.166304, 7.838887, 0.039916396, -0.028367996, 9.989259
178065756883183, 0.52522457, 6.1794643, 7.834101, 6.8485737E-4, -0.030313492, 9.99169
178065766522975, 0.55513483, 6.1675005, 7.756335, 0.015817642, 0.018238068, 9.925037
178065776162870, 0.53240305, 6.186643, 7.7300134, -0.017873049, 0.03727436, 9.915111
178065785802662, 0.59581286, 6.1998034, 7.7347994, 0.03552854, 0.06602335, 9.930461
178065795442454, 0.587438, 6.2033925, 7.732406, 0.026112556, 0.06629944, 9.9303665
178065805082245, 0.5587241, 6.1878395, 7.7383885, 0.006943941, 0.037839413, 9.923845
178065814722037, 0.48933223, 6.1710896, 7.757531, -0.04523182, -0.01527977, 9.924657
178065824361829, 0.5168497, 6.1292152, 7.7910304, 0.0021237135, -0.051838398, 9.926323
178065834001620, 0.5204389, 6.1399827, 7.6833534, -0.020616889, 0.022830963, 9.849022
178065843641412, 0.52163535, 6.108876, 7.7754774, 0.010342121, -0.05274582, 9.9018
178065853281204, 0.48933223, 6.0801625, 7.8113694, -0.0026519299, -0.10611725, 9.910299
178065862920995, 0.50129634, 6.134001, 7.7300134, -0.026270866, -0.013548851, 9.880765
178065872560891, 0.5347959, 6.13759, 7.792227, 0.016087651, -0.032945633, 9.933454
178065882200683, 0.49292147, 6.1292152, 7.7443705, -0.028776646, -0.027167797, 9.888577
178065891840475, 0.49052864, 6.1675005, 7.7312098, -0.046109557, 0.0069360733, 9.901924
178065901480266, 0.52163535, 6.181857, 7.751549, -0.018430114, 0.016828537, 9.928411
178065911120058, 0.573081, 6.1998034, 7.7419777, 0.021241307, 0.054924965, 9.934826
178065920759850, 0.5587241, 6.1974106, 7.68455, -0.003860116, 0.08026934, 9.887667
