timestamp_acc,device_acc_x,device_acc_y,device_acc_z,earth_acc_x,earth_acc_y,earth_acc_z
784270718900937, 8.451449, 0.27876383, 5.2486563, 0.043873906, -0.010554314, 9.952439
784270728541041, 8.525627, 0.2955136, 5.261817, 0.03933406, 0.023722172, 10.022886
784270738181249, 8.548359, 0.3290131, 5.291727, 0.0046242476, 0.01921177, 10.059059
784270747821457, 8.556734, 0.36131623, 5.316852, -0.028943539, 0.013448715, 10.080483
784270757461562, 8.584251, 0.3589234, 5.332405, -0.022577167, 0.01736641, 10.111971
784270767101770, 8.580662, 0.34456646, 5.3180485, -0.0061370134, 0.023668766, 10.100869
784270776741978, 8.577073, 0.34576288, 5.3312087, -0.009802341, 0.010878563, 10.104816
784270786382187, 8.530413, 0.33738798, 5.337191, -0.011131883, -0.019702911, 10.068111
784270796022291, 8.500503, 0.317049, 5.3312087, 0.0047734976, -0.037947655, 10.038893
784270805662499, 8.478967, 0.30269206, 5.3144593, 0.01866901, -0.039162636, 10.011299
784270815302707, 8.437093, 0.31226337, 5.2773705, 0.010646939, -0.02686596, 9.956499
784270824942812, 8.446664, 0.30867413, 5.265406, 0.018433928, -0.012559891, 9.958184
784270834583020, 8.467003, 0.33140594, 5.259424, 0.0016311407, 0.00992012, 9.973034
784270844223228, 8.512466, 0.33499518, 5.221139, 0.014007568, 0.065485, 9.991503
784270853863437, 8.52443, 0.31585258, 5.2426744, 0.029465914, 0.04650736, 10.012406
784270863503541, 8.556734, 0.31226337, 5.2977095, 0.026206017, 0.014750481, 10.068765
784270873143749, 8.583055, 0.3278167, 5.375476, -7.574558E-4, -0.031872272, 10.13267
784270882783957, 8.56152, 0.31585258, 5.3982077, 0.003661275, -0.062307835, 10.126013
784270892424062, 8.523234, 0.32542387, 5.395815, -0.0121593475, -0.0768919, 10.092581
784270902064270, 8.5016985, 0.34217364, 5.363512, -0.0223459, -0.050971508, 10.057838
784270911704478, 8.5112705, 0.3481557, 5.3108697, -0.015685558, -0.0011148453, 10.038328
784270921344687, 8.456235, 0.3493521, 5.282156, -0.019511104, -0.004609585, 9.976509
784270930984791, 8.496913, 0.35653058, 5.2534423, -0.014452577, 0.03486061, 9.996094
784270940624999, 8.55793, 0.357727, 5.2366924, -0.0028904676, 0.074986935, 10.039096
784270950265207, 8.523234, 0.3469593, 5.2486563, -0.002323985, 0.04081869, 10.015619
784270959905312, 8.526823, 0.31106696, 5.237889, 0.03437507, 0.039497375, 10.011804
784270969545520, 8.4909315, 0.30987054, 5.2331033, 0.030372143, 0.024576664, 9.978767
784270979185728, 8.467003, 0.3062813, 5.2307105, 0.030561805, 0.014588356, 9.957065
784270988825937, 8.483752, 0.30867413, 5.2833524, 0.019815803, -0.019602299, 9.999119
784270998466041, 8.49452, 0.31465617, 5.3240304, 0.0075507164, -0.04367256, 10.029917
784271008106249, 8.477771, 0.30867413, 5.3132625, 0.013097525, -0.037384987, 10.009849
784271017746457, 8.514859, 0.3278167, 5.3515477, -0.008437276, -0.042233944, 10.062181
784271027386562, 8.534002, 0.3493521, 5.355137, -0.027775168, -0.028231144, 10.08103
784271037026770, 8.572288, 0.357727, 5.319245, -0.02210021, 0.022651196, 10.094822
784271046666978, 8.57468, 0.37567315, 5.316852, -0.040492892, 0.026420593, 10.09618
784271056307082, 8.579466, 0.3792624, 5.3096733, -0.04161811, 0.030260086, 10.096587
784271065947291, 8.539984, 0.37208393, 5.2701917, -0.033149123, 0.040893078, 10.042009
784271075587499, 8.510074, 0.36729828, 5.241478, -0.026006222, 0.039518833, 10.001356
784271085227707, 8.493324, 0.32542387, 5.1828537, 0.024170518, 0.06793499, 9.95486
784271094867812, 8.474181, 0.31345975, 5.1553364, 0.03815818, 0.076609135, 9.9237175
784271104508020, 8.465807, 0.30149564, 5.1876397, 0.038615108, 0.042784214, 9.933231
784271114148228, 8.463413, 0.30508488, 5.2462635, 0.022038102, -0.005648136, 9.96219
784271123788437, 8.488539, 0.30867413, 5.261817, 0.015656829, -9.441376E-5, 9.99185
784271133428541, 8.518449, 0.3182454, 5.2845488, 0.0052466393, 0.001478672, 10.029541
784271143068749, 8.566305, 0.31226337, 5.300102, 0.01587677, 0.0108885765, 10.078185
784271152708957, 8.553144, 0.3074777, 5.3156557, 0.014003158, -0.007791996, 10.075057
784271162349062, 8.547162, 0.31345975, 5.3383875, 0.0016305447, -0.026732922, 10.082157
784271171989270, 8.565108, 0.3182454, 5.365905, -0.0057799816, -0.038437843, 10.1120615
784271181629478, 8.529217, 0.32542387, 5.3587265, -0.0171026, -0.04856634, 10.078033
784271191269582, 8.530413, 0.35174492, 5.343173, -0.038336754, -0.026318073, 10.071693
784271200909791, 8.52802, 0.3684947, 5.3204412, -0.050062537, -0.004667282, 10.058203
784271210549999, 8.52802, 0.38285163, 5.304888, -0.06080246, 0.011913776, 10.050457
784271220190207, 8.523234, 0.36729828, 5.2773705, -0.04078257, 0.027956009, 10.031382
784271229830312, 8.49811, 0.33738798, 5.235496, -0.0074567795, 0.040111065, 9.987015
784271239470520, 8.477771, 0.31226337, 5.206782, 0.019090176, 0.04454279, 9.95381
784271249110728, 8.475378, 0.28594232, 5.188836, 0.046794057, 0.04874897, 9.941491
784271258750832, 8.451449, 0.27158538, 5.2366924, 0.046301246, -0.009037495, 9.945929
784271268391041, 8.469396, 0.27158538, 5.2642097, 0.042196274, -0.023422241, 9.97567
784271278031249, 8.504091, 0.27756742, 5.2773705, 0.03889537, -0.013059139, 10.012272
784271287671457, 8.537591, 0.31106696, 5.2893343, 0.009890676, 0.0033884048, 10.048093
784271297311562, 8.584251, 0.33260235, 5.3383875, -0.01404047, -0.004497528, 10.114256
784271306951770, 8.572288, 0.34337005, 5.355137, -0.030449629, -0.018679619, 10.113271
784271316591978, 8.566305, 0.3481557, 5.3587265, -0.037517786, -0.022137165, 10.110234
784271326232082, 8.548359, 0.35653058, 5.302495, -0.036127806, 0.017497063, 10.065604
784271335872291, 8.569894, 0.3385844, 5.3012986, -0.015045047, 0.022380352, 10.082696
784271345512499, 8.544769, 0.32662028, 5.3108697, -0.010333657, -0.004908085, 10.0660305
784271355152603, 8.508878, 0.31944183, 5.2701917, -1.269579E-4, 0.0037727356, 10.013888
784271364792812, 8.502895, 0.33260235, 5.245067, -0.008827329, 0.024870396, 9.995994
784271374433020, 8.471788, 0.3182454, 5.239085, 0.0020457506, 0.010009289, 9.965962
784271384073124, 8.467003, 0.3062813, 5.2342997, 0.015189648, 0.009576321, 9.958992
784271393713332, 8.482556, 0.32422748, 5.224728, 0.0018589497, 0.030219078, 9.967737
784271403353541, 8.512466, 0.31106696, 5.2199426, 0.020255804, 0.045984745, 9.990203
784271412993749, 8.5220375, 0.31345975, 5.2498527, 0.012867689, 0.023714066, 10.01417
784271422633853, 8.532805, 0.3278167, 5.2570314, -5.540848E-4, 0.026753902, 10.027556
784271432274062, 8.553144, 0.31345975, 5.235496, 0.021107554, 0.04919052, 10.03305
784271441914270, 8.49811, 0.31465617, 5.2199426, 0.014622331, 0.03248644, 9.9781475
784271451554374, 8.478967, 0.28713873, 5.2283173, 0.03623402, 0.008072376, 9.9654045
784271461194582, 8.484949, 0.31226337, 5.24746, 0.008953571, 0.0024528503, 9.981364
784271470834791, 8.504091, 0.29192436, 5.276174, 0.025315404, -0.017372131, 10.012086
784271480474895, 8.535198, 0.31465617, 5.3156557, -3.1745434E-4, -0.02453947, 10.060032
784271490115103, 8.547162, 0.33020952, 5.3180485, -0.013661027, -0.0161376, 10.071953
784271499755312, 8.548359, 0.34456646, 5.298906, -0.022897363, 0.00695467, 10.063349
784271509395416, 8.566305, 0.33260235, 5.3204412, -0.013280153, -0.0033698082, 10.089555
784271519035624, 8.571091, 0.33738798, 5.3216376, -0.017374992, -5.8174133E-5, 10.094402
784271528675832, 8.52802, 0.33738798, 5.2498527, -0.00876689, 0.03505802, 10.020009
784271538315937, 8.5016985, 0.3361916, 5.2223353, -0.0065176487, 0.044115067, 9.98312
784271547956145, 8.483752, 0.31944183, 5.2438707, 0.0017701387, 0.009468555, 9.978686
784271557596353, 8.478967, 0.3361916, 5.239085, -0.014317989, 0.011221409, 9.972642
784271567236457, 8.520842, 0.34337005, 5.245067, -0.015088201, 0.030041695, 10.011606
784271576876666, 8.535198, 0.35294133, 5.291727, -0.032123923, 0.0013313293, 10.048657
784271586516874, 8.517252, 0.33140594, 5.2773705, -0.010691285, 2.1886826E-4, 10.025166
784271596156978, 8.518449, 0.33020952, 5.2749777, -0.0073907375, 0.0053720474, 10.024885
784271605797187, 8.519645, 0.3062813, 5.2402816, 0.024323106, 0.030706406, 10.006857
784271615437395, 8.525627, 0.30269206, 5.2462635, 0.028337836, 0.029169083, 10.014968
784271625077499, 8.478967, 0.28713873, 5.2749777, 0.030197501, -0.022799015, 9.98996
784271634717707, 8.471788, 0.29312077, 5.2701917, 0.02391398, -0.022637844, 9.98153
784271644357916, 8.496913, 0.28713873, 5.272585, 0.033044457, -0.013130665, 10.0039425
784271653998020, 8.532805, 0.30987054, 5.3108697, 0.007850528, -0.018251419, 10.055332
784271663638228, 8.536395, 0.32183465, 5.3156557, -0.0046212673, -0.015770435, 10.06129
784271673278437, 8.541181, 0.33499518, 5.3036914, -0.014802933, 6.752014E-4, 10.059471
784271682918541, 8.559127, 0.3493521, 5.3144593, -0.02808839, 0.0035948753, 10.080841
784271692558749, 8.572288, 0.36610186, 5.3072805, -0.040341675, 0.019447327, 10.088775
784271702198957, 8.5423765, 0.36251262, 5.271388, -0.034440517, 0.033432484, 10.044344
784271711839062, 8.506484, 0.3469593, 5.2534423, -0.020632148, 0.024236202, 10.003914
784271721479270, 8.493324, 0.33499518, 5.252246, -0.009710908, 0.013561726, 9.991726
784271731119478, 8.499306, 0.317049, 5.197211, 0.020285547, 0.056427002, 9.967253
784271740759582, 8.4909315, 0.31226337, 5.2163534, 0.020979881, 0.035182476, 9.970061
784271750399791, 8.489735, 0.18783657, 5.255835, 0.13320959, -0.031117916, 9.985788
784271760039999, 8.592627, 0.7920243, 5.380262, -0.4584322, 0.08820343, 10.158239
784271769680103, 8.4502535, -0.30149564, 5.188836, 0.61444044, -0.14316273, 9.900692
784271779320312, 8.617751, 1.0109676, 5.4376893, -0.67217606, 0.14464664, 10.21682
784271788960520, 8.452646, -0.24646074, 5.160122, 0.5589123, -0.106365204, 9.889951
784271798600624, 8.571091, 0.76689965, 5.3611193, -0.41759127, 0.10884094, 10.129518
784271808240832, 8.4813595, 0.12323037, 5.1673007, 0.2146579, 0.0107860565, 9.929928
784271817881041, 8.496913, 0.2883351, 5.2510495, 0.041983724, 0.001449585, 9.992619
784271827521145, 8.559127, 0.55393845, 5.300102, -0.2115773, 0.07900286, 10.079959
784271837161353, 8.451449, -0.16749759, 5.18405, 0.47949612, -0.113204, 9.9038725
784271846801457, 8.566305, 0.910469, 5.359923, -0.5675881, 0.1477251, 10.128935
784271856441666, 8.384451, -0.39601216, 5.10748, 0.7004484, -0.14788628, 9.799476
784271866081874, 8.565108, 1.0348958, 5.3910294, -0.6943134, 0.16638136, 10.148178
784271875721978, 8.422736, -0.24765715, 5.1146584, 0.563113, -0.09145594, 9.840634
784271885362187, 8.578269, 0.8446664, 5.3910294, -0.50992256, 0.10798502, 10.153407
784271895002395, 8.510074, 0.1160519, 5.2259245, 0.20905423, -0.02531147, 9.985027
784271904642499, 8.526823, 0.37208393, 5.319245, -0.048265576, -0.011602879, 10.056693
784271914282707, 8.568698, 0.5455636, 5.288138, -0.19567621, 0.092238426, 10.081558
784271923922812, 8.4682, -0.13280165, 5.21755, 0.45161211, -0.109399796, 9.936546
784271933563020, 8.57468, 0.87338024, 5.4149575, -0.5409461, 0.09508896, 10.164057
784271943203228, 8.420342, -0.40558344, 5.186443, 0.7163149, -0.17228174, 9.870314
784271952843332, 8.596215, 0.997807, 5.4221363, -0.6625942, 0.12090778, 10.190016
784271962483541, 8.420342, -0.36131623, 5.1385865, 0.6748065, -0.10793066, 9.847373
784271972123749, 8.55793, 0.8171489, 5.3886366, -0.47733516, 0.07748842, 10.134567
784271981763853, 8.467003, 0.02632105, 5.1852465, 0.29901516, -0.025753975, 9.924089
784271991404062, 8.513663, 0.43788654, 5.2977095, -0.11033344, 0.02072382, 10.0363
784272001044166, 8.520842, 0.50129634, 5.209175, -0.14775562, 0.119688034, 9.997769
784272010684374, 8.459825, -0.0849452, 5.176872, 0.408849, -0.05332756, 9.909886
784272020324582, 8.620144, 0.87338024, 5.4017973, -0.5364117, 0.12534618, 10.195374
784272029964687, 8.4502535, -0.36610186, 5.215157, 0.6582601, -0.1799283, 9.913275
784272039604895, 8.606983, 1.006182, 5.4843497, -0.676397, 0.085357666, 10.232589
784272049244999, 8.428718, -0.35294133, 5.194818, 0.64177585, -0.18219423, 9.884782
784272058885207, 8.575876, 0.8769695, 5.4520464, -0.5486874, 0.05947399, 10.185037
784272068525416, 8.421539, 0.0, 5.197211, 0.31059372, -0.0690012, 9.89101
784272078165520, 8.455039, 0.45822555, 5.2773705, -0.12885582, 0.022415161, 9.976532
784272087805728, 8.505288, 0.44865423, 5.2235317, -0.10549092, 0.08472681, 9.990405
784272097445832, 8.486146, 0.015553347, 5.224728, 0.30649245, -0.047297478, 9.960749
784272107086041, 8.628518, 0.82911307, 5.3910294, -0.49260837, 0.1153121, 10.195391
784272116726249, 8.496913, -0.34456646, 5.1996036, 0.6594881, -0.13379431, 9.944814
784272126366353, 8.646464, 1.0289137, 5.4017973, -0.6745867, 0.17037678, 10.223273
784272136006562, 8.40479, -0.36490545, 5.0751767, 0.69291747, -0.09448147, 9.800104
784272145646666, 8.518449, 0.89491564, 5.3276196, -0.546304, 0.13759995, 10.071297
784272155286874, 8.41795, -0.07298109, 5.0859447, 0.41423786, -0.013131142, 9.826611
784272164927082, 8.5220375, 0.53240305, 5.2689953, -0.19249606, 0.075454235, 10.031359
784272174567187, 8.523234, 0.37686956, 5.186443, -0.022385597, 0.09320545, 9.983865
784272184207395, 8.4813595, 0.013160525, 5.2139606, 0.3049215, -0.069284916, 9.950943
784272193847499, 8.562716, 0.7800602, 5.3982077, -0.45857072, 0.07436705, 10.141668
784272203487707, 8.419147, -0.34097722, 5.2307105, 0.6261562, -0.21882391, 9.895388
784272213127812, 8.602198, 1.0145568, 5.5022955, -0.6919757, 0.080572605, 10.238021
784272222768020, 8.474181, -0.38165522, 5.191229, 0.6902957, -0.15996695, 9.919888
784272232408228, 8.624929, 0.94636136, 5.440082, -0.6126807, 0.13240051, 10.2218685
784272242048332, 8.483752, -0.09212367, 5.1996036, 0.40437555, -0.07628679, 9.942287
784272251688541, 8.599805, 0.6257231, 5.377869, -0.29230046, 0.06614828, 10.157748
784272261328645, 8.537591, 0.37447673, 5.255835, -0.036723495, 0.04932356, 10.032484
784272270968853, 8.476574, 0.12203395, 5.2438707, 0.19944215, -0.05140114, 9.966089
784272280609062, 8.556734, 0.77407813, 5.316852, -0.42144012, 0.13552618, 10.094049
784272290249166, 8.426325, -0.29790643, 5.1792645, 0.59826255, -0.15919924, 9.875891
784272299889374, 8.579466, 0.9559326, 5.406583, -0.6199462, 0.14190483, 10.166008
784272309529478, 8.390432, -0.44745782, 5.1122656, 0.7439985, -0.17687201, 9.805612
784272319169687, 8.551949, 0.88414794, 5.3814583, -0.5409253, 0.12126303, 10.1277
784272328809791, 8.394022, -0.22851457, 5.123033, 0.54655015, -0.09867382, 9.820837
784272338449999, 8.532805, 0.6197411, 5.365905, -0.2933811, 0.033304214, 10.094483
784272348090103, 8.500503, 0.2847459, 5.206782, 0.05582273, 0.04661131, 9.972206
784272357730312, 8.474181, 0.18185452, 5.218746, 0.14591396, -0.0075240135, 9.952827
784272367370416, 8.603394, 0.7465607, 5.3503513, -0.40273285, 0.12460756, 10.150087
784272377010624, 8.5220375, -0.21774685, 5.2438707, 0.5254748, -0.12354088, 9.993965
784272386650832, 8.635697, 1.0360922, 5.477171, -0.7066279, 0.12393141, 10.253462
784272396290937, 8.437093, -0.38404804, 5.221139, 0.68783987, -0.17771721, 9.903919
784272405931145, 8.633304, 0.9738788, 5.5262237, -0.6602902, 0.059273243, 10.275312
784272415571249, 8.455039, -0.20937198, 5.239085, 0.50528896, -0.14091444, 9.935007
784272425211457, 8.538788, 0.69272214, 5.4029937, -0.3759479, 0.030475616, 10.121305
784272434851562, 8.472985, 0.20458634, 5.186443, 0.12894285, 0.036779404, 9.935519
784272444491770, 8.472985, 0.19621146, 5.2031927, 0.1394577, 0.020498276, 9.94401
784272454131874, 8.5423765, 0.6664011, 5.229514, -0.31104165, 0.15617514, 10.032097
784272463772082, 8.428718, -0.21774685, 5.1421757, 0.5439664, -0.06896448, 9.860628
784272473412187, 8.585447, 0.97866446, 5.3814583, -0.6419489, 0.13492393, 10.158616
784272483052395, 8.408379, -0.42831525, 5.117051, 0.7367276, -0.12599182, 9.823942
784272492692603, 8.577073, 0.95712906, 5.383851, -0.62637466, 0.11960268, 10.15192
784272502332707, 8.433503, -0.27517462, 5.1062837, 0.5943028, -0.05923891, 9.844649
784272511972916, 8.535198, 0.70588267, 5.3790655, -0.38006222, 0.037430763, 10.106255
784272521613020, 8.495717, 0.14476576, 5.2510495, 0.17731595, -0.028635502, 9.986963
784272531253228, 8.506484, 0.27876383, 5.3312087, 0.031016111, -0.048603535, 10.042731
784272540893332, 8.580662, 0.64008003, 5.3611193, -0.30759418, 0.07706213, 10.133041
784272550533541, 8.472985, -0.15553348, 5.2366924, 0.4585477, -0.12243557, 9.950547
784272560173645, 8.620144, 0.9702896, 5.454439, -0.6315428, 0.12227011, 10.226704
784272569813853, 8.46102, -0.3792624, 5.224728, 0.6762997, -0.19511032, 9.926482
784272579453957, 8.642876, 1.012164, 5.5106707, -0.69527537, 0.09060717, 10.27617
784272589094166, 8.456235, -0.2727818, 5.188836, 0.58161855, -0.13840246, 9.907013
784272598734270, 8.538788, 0.7716853, 5.3994045, -0.45650733, 0.047991276, 10.121722
784272608374478, 8.456235, 0.13160525, 5.1589255, 0.19643354, 0.013588905, 9.904594
784272618014582, 8.496913, 0.31226337, 5.209175, 0.026157856, 0.046579838, 9.971344
784272627654791, 8.5112705, 0.5395815, 5.1792645, -0.18468124, 0.13903427, 9.975181
784272637294895, 8.41795, -0.16630118, 5.13739, 0.48406982, -0.075639725, 9.851004
784272646935103, 8.605786, 0.9296116, 5.3970113, -0.59505135, 0.12773895, 10.182389
784272656575207, 8.471788, -0.37806597, 5.151747, 0.6970078, -0.12408447, 9.8971405
784272666215416, 8.63809, 1.0253245, 5.4257255, -0.6899328, 0.14393139, 10.227886
784272675855520, 8.453842, -0.2955136, 5.1661043, 0.59984326, -0.12100744, 9.892874
784272685495728, 8.583055, 0.8135597, 5.4592247, -0.5020042, 0.030750751, 10.192198
784272695135937, 8.469396, 0.05503492, 5.239085, 0.26255977, -0.07107735, 9.955286
784272704776041, 8.506484, 0.36370903, 5.308477, -0.043156624, -0.020637989, 10.033455
784272714416249, 8.554341, 0.5096712, 5.2534423, -0.16310346, 0.0901227, 10.049897
784272724056353, 8.4909315, -0.09451649, 5.2331033, 0.40832567, -0.110156536, 9.965508
784272733696562, 8.605786, 0.8997013, 5.4017973, -0.55735534, 0.11291981, 10.184548
784272743336666, 8.425129, -0.35413775, 5.13739, 0.6646491, -0.15759468, 9.850604
784272752976770, 8.632108, 1.0779666, 5.400601, -0.71902514, 0.18552208, 10.212267
784272762616978, 8.441878, -0.28115666, 5.1014977, 0.6086192, -0.099589825, 9.848314
784272772257187, 8.573483, 0.90329057, 5.352744, -0.5523207, 0.13486576, 10.131593
784272781897291, 8.469396, 0.043070808, 5.133801, 0.2985903, -0.014117241, 9.899448
784272791537499, 8.519645, 0.46301118, 5.278567, -0.12667489, 0.021976471, 10.032221
784272801177603, 8.544769, 0.43429732, 5.231907, -0.0839417, 0.06336355, 10.028135
784272810817812, 8.440681, -0.10289137, 5.1732826, 0.42443538, -0.10469961, 9.890775
784272820457916, 8.601001, 0.8207382, 5.3766723, -0.47416437, 0.08832455, 10.164979
784272830098124, 8.445468, -0.3696911, 5.1661043, 0.68455577, -0.16273355, 9.8821125
784272839738228, 8.60459, 1.012164, 5.4221363, -0.66535705, 0.118505955, 10.198347
784272849378437, 8.423932, -0.3493521, 5.117051, 0.658972, -0.13709879, 9.839503
784272859018541, 8.586644, 0.8865408, 5.3850474, -0.5521902, 0.09355354, 10.158813
784272868658749, 8.458628, -0.043070808, 5.1625147, 0.36482668, -0.060110092, 9.902782
784272878298853, 8.520842, 0.5132605, 5.3072805, -0.18033683, 0.012182713, 10.050012
784272887939062, 8.519645, 0.4103691, 5.209175, -0.06449473, 0.062015533, 9.994011
784272897579166, 8.495717, 0.034695927, 5.194818, 0.29503977, -0.04936552, 9.953647
784272907219374, 8.623733, 0.8578269, 5.363512, -0.5054809, 0.11985588, 10.178508
784272916859478, 8.488539, -0.31345975, 5.1732826, 0.6316925, -0.15205812, 9.924426
784272926499582, 8.6548395, 1.0540384, 5.45085, -0.7064973, 0.11585283, 10.257507
784272936139791, 8.445468, -0.3290131, 5.10748, 0.6442504, -0.12023258, 9.8534775
784272945779895, 8.545966, 0.9415757, 5.3539405, -0.60393816, 0.116948605, 10.109716
784272955420103, 8.5016985, -0.08015956, 5.1589255, 0.41626906, -0.0658679, 9.935904
784272965060207, 8.518449, 0.5587241, 5.339584, -0.23757541, -0.002404213, 10.066322
784272974700416, 8.525627, 0.36370903, 5.2019963, -0.012772083, 0.05346346, 9.993814
784272984340520, 8.504091, 0.0526421, 5.17089, 0.28525174, -0.031057358, 9.948774
784272993980728, 8.606983, 0.74416786, 5.3156557, -0.39269853, 0.122080326, 10.135138
784273003620832, 8.46461, -0.35653058, 5.178068, 0.6559423, -0.19197607, 9.905655
784273013261041, 8.626125, 0.96909314, 5.4723854, -0.6355279, 0.07642412, 10.241409
784273022901145, 8.419147, -0.42951167, 5.1290154, 0.72284114, -0.19310808, 9.839386
784273032541353, 8.536395, 0.91884387, 5.369494, -0.5831209, 0.0960722, 10.10923
784273042181457, 8.419147, -0.13280165, 5.157729, 0.4323194, -0.11482239, 9.864164
784273051821666, 8.538788, 0.634098, 5.345566, -0.311832, 0.024652958, 10.089114
784273061461770, 8.539984, 0.34217364, 5.1924253, -0.0052336454, 0.06779623, 10.000254
784273071101978, 8.554341, 0.1471586, 5.197211, 0.18653011, 0.010043144, 10.008723
784273080742082, 8.617751, 0.8003992, 5.322834, -0.45423442, 0.13696194, 10.14957
784273090382291, 8.445468, -0.22013968, 5.1553364, 0.5312103, -0.12461901, 9.882013
784273100022395, 8.596215, 1.0336994, 5.3623157, -0.6927858, 0.1671915, 10.159231
784273109662603, 8.446664, -0.34456646, 5.117051, 0.6618098, -0.13254595, 9.858678
784273119302707, 8.635697, 0.99661064, 5.410172, -0.6608303, 0.13656807, 10.216806
784273128942916, 8.486146, -0.18664017, 5.160122, 0.49805403, -0.09633541, 9.920637
784273138583020, 8.581859, 0.6017949, 5.407779, -0.2840222, -0.008131027, 10.157451
784273148223228, 8.536395, 0.18185452, 5.2773705, 0.1308223, -0.052872658, 10.036625
784273157863332, 8.496913, 0.11485548, 5.2809596, 0.18979836, -0.09266853, 10.002731
784273167503541, 8.539984, 0.63888365, 5.3144593, -0.31210607, 0.06426859, 10.073799
784273177143645, 8.423932, -0.26919255, 5.1816573, 0.562925, -0.16166973, 9.876318
784273186783853, 8.612965, 0.9942178, 5.436493, -0.6595147, 0.115327835, 10.211701
784273196423957, 8.439486, -0.3684947, 5.123033, 0.67987037, -0.1426673, 9.85513
784273206064062, 8.620144, 1.0145568, 5.375476, -0.6754343, 0.16604662, 10.185684
784273215704270, 8.457432, -0.19142582, 5.127819, 0.5026759, -0.07848883, 9.879295
784273225344374, 8.565108, 0.74895346, 5.3539405, -0.4185077, 0.06368971, 10.119658
784273234984582, 8.478967, 0.2105684, 5.1696935, 0.1221118, 0.01756668, 9.932157
784273244624687, 8.486146, 0.20338993, 5.2307105, 0.11363435, -0.029955387, 9.970083
784273254264895, 8.57468, 0.6197411, 5.3204412, -0.2863469, 0.074044704, 10.105881
784273263904999, 8.445468, -0.22013968, 5.197211, 0.5151229, -0.14731884, 9.904461
784273273545207, 8.609376, 0.96550393, 5.4341, -0.6331237, 0.113799095, 10.206331
784273283185312, 8.4347, -0.39720857, 5.148158, 0.6992551, -0.17415857, 9.863376
784273292825520, 8.63809, 1.0360922, 5.428118, -0.701237, 0.16204453, 10.229201
784273302465624, 8.484949, -0.23330021, 5.127819, 0.55803454, -0.08453941, 9.900745
784273312105832, 8.589037, 0.73340017, 5.3946185, -0.40608948, 0.054483414, 10.160879
784273321745937, 8.514859, 0.11006984, 5.2259245, 0.20511782, -0.039580822, 9.989073
784273331386145, 8.517252, 0.27158538, 5.2749777, 0.04676187, -0.02857256, 10.021962
784273341026249, 8.545966, 0.5563313, 5.2773705, -0.22246444, 0.0757041, 10.056763
784273350666457, 8.453842, -0.19740787, 5.2008, 0.50024617, -0.13729048, 9.913912
784273360306562, 8.633304, 0.9296116, 5.4616175, -0.61204106, 0.08812666, 10.239386
784273369946770, 8.474181, -0.36610186, 5.1852465, 0.6577382, -0.1685381, 9.918243
784273379586874, 8.616554, 1.0468599, 5.410172, -0.712883, 0.1624012, 10.20178
784273389227082, 8.4347, -0.27876383, 5.1254263, 0.59505737, -0.10961819, 9.855241
784273398867187, 8.56152, 0.81954175, 5.3276196, -0.47575772, 0.12191534, 10.105128
784273408507395, 8.458628, 0.11485548, 5.109873, 0.21931303, 0.028000832, 9.880461
784273418147499, 8.492127, 0.33738798, 5.221139, -0.0061615705, 0.019963741, 9.9744625
784273427787603, 8.5423765, 0.5024927, 5.2498527, -0.16593218, 0.07008171, 10.03759
784273437427812, 8.455039, -0.16151553, 5.186443, 0.46727324, -0.12654543, 9.908512
784273447067916, 8.612965, 0.86979103, 5.4029937, -0.5374359, 0.08824444, 10.189966
784273456708124, 8.447861, -0.41994038, 5.178068, 0.7054101, -0.19703531, 9.890331
784273466348228, 8.642876, 0.99900347, 5.4616175, -0.6819365, 0.10381937, 10.249427
784273475988437, 8.472985, -0.3278167, 5.1756754, 0.61781704, -0.15743923, 9.913631
784273485628541, 8.581859, 0.84107715, 5.406583, -0.5171475, 0.07751942, 10.164318
784273495268749, 8.474181, 0.03708875, 5.2008, 0.27424824, -0.061370373, 9.938936
784273504908853, 8.5112705, 0.4235296, 5.3312087, -0.11828673, -0.02823019, 10.051273
784273514549062, 8.56152, 0.5288138, 5.2773705, -0.19942784, 0.07290268, 10.069003
784273524189166, 8.496913, -0.02871387, 5.241478, 0.3287449, -0.10072088, 9.977637
784273533829374, 8.636893, 0.9200403, 5.413761, -0.5872156, 0.10743761, 10.21738
784273543469478, 8.439486, -0.37088752, 5.1649075, 0.66349816, -0.16265774, 9.877856
784273553109687, 8.618947, 1.0492527, 5.4352965, -0.71296394, 0.12092686, 10.217959
784273562749791, 8.445468, -0.34576288, 5.1218367, 0.6522927, -0.107744694, 9.8611145
784273572389999, 8.571091, 0.8578269, 5.363512, -0.52980447, 0.103321075, 10.132885
784273582030103, 8.4705925, -0.043070808, 5.151747, 0.36150348, -0.04219675, 9.907615
784273591670312, 8.5112705, 0.44985065, 5.2809596, -0.123342395, 0.015258789, 10.0258255
784273601310416, 8.510074, 0.40558344, 5.2163534, -0.0685513, 0.05272627, 9.98943
784273610950624, 8.469396, -0.03708875, 5.168497, 0.35542178, -0.07083464, 9.915344
784273620590728, 8.605786, 0.8135597, 5.3814583, -0.4830913, 0.092392445, 10.170527
784273630230937, 8.458628, -0.3469593, 5.2031927, 0.6377443, -0.18776226, 9.914637
784273639871041, 8.6345005, 1.0109676, 5.4783673, -0.6789973, 0.09960413, 10.252718
784273649511249, 8.440681, -0.3900301, 5.1876397, 0.67285264, -0.20306253, 9.890141
784273659151353, 8.590233, 0.89371926, 5.426922, -0.56471545, 0.078773975, 10.184166
784273668791562, 8.477771, -0.062213387, 5.186443, 0.37205422, -0.06679487, 9.931403
784273678431666, 8.52802, 0.5180461, 5.332405, -0.20282781, 0.015736103, 10.069193
784273688071874, 8.53161, 0.3912265, 5.191229, -0.04535961, 0.08815336, 9.99402
784273697711978, 8.483752, 0.0741775, 5.17089, 0.25378656, -0.024436474, 9.932404
784273707352187, 8.599805, 0.802792, 5.355137, -0.46431696, 0.12375355, 10.151242
784273716992291, 8.441878, -0.32183465, 5.1816573, 0.62514484, -0.16733742, 9.889371
784273726632499, 8.615358, 1.0145568, 5.4113684, -0.6711924, 0.13427496, 10.201378
784273736272603, 8.446664, -0.3804588, 5.111069, 0.688149, -0.12539911, 9.855183
784273745912812, 8.579466, 0.9056834, 5.3970113, -0.5669723, 0.10994005, 10.159807
784273755552916, 8.449057, -0.1698904, 5.176872, 0.48191416, -0.107409, 9.898062
784273765193020, 8.532805, 0.54675996, 5.413761, -0.24156749, -0.044930458, 10.117121
784273774833228, 8.566305, 0.33260235, 5.3132625, -0.015978813, -0.004814148, 10.085767
784273784473437, 8.529217, 0.11724831, 5.2773705, 0.1940409, -0.0600605, 10.028493
784273794113541, 8.630911, 0.79800636, 5.3647084, -0.45871115, 0.131948, 10.182422
784273803753749, 8.465807, -0.25722843, 5.168497, 0.5694778, -0.12065458, 9.905078
784273813393853, 8.590233, 1.0313065, 5.377869, -0.68450296, 0.16340733, 10.162772
784273823034062, 8.421539, -0.3792624, 5.0644093, 0.69268394, -0.09651613, 9.809449
784273832674166, 8.563912, 0.96789676, 5.346762, -0.62110084, 0.14885712, 10.122122
784273842314374, 8.409575, -0.17706887, 5.1146584, 0.48396444, -0.09018707, 9.832073
784273851954478, 8.5423765, 0.6041877, 5.343173, -0.2791674, 0.034075737, 10.089976
784273861594687, 8.502895, 0.23330021, 5.2307105, 0.0867821, 4.4679642E-4, 9.9853115
784273871234791, 8.496913, 0.08973085, 5.271388, 0.21759129, -0.07618141, 9.996998
784273880874999, 8.612965, 0.67477596, 5.3682976, -0.34237242, 0.07626581, 10.165337
784273890515103, 8.476574, -0.30508488, 5.227121, 0.5937195, -0.17838717, 9.944036
784273900155312, 8.616554, 0.9882358, 5.477171, -0.66205394, 0.094218254, 10.2359085
784273909795416, 8.453842, -0.37447673, 5.1673007, 0.66629505, -0.16441393, 9.8912945
784273919435624, 8.609376, 1.0157533, 5.4388857, -0.6795628, 0.12746048, 10.2106085
784273929075728, 8.435896, -0.18903299, 5.1613183, 0.4975009, -0.11808348, 9.87815
784273938715937, 8.523234, 0.69152576, 5.3910294, -0.37658668, 0.027816296, 10.1017
784273948356041, 8.478967, 0.2321038, 5.2235317, 0.084178925, -0.0068769455, 9.96117
784273957996249, 8.512466, 0.19621146, 5.2570314, 0.12071335, -0.028166771, 10.006079
784273967636353, 8.608179, 0.66161543, 5.316852, -0.32010663, 0.116689205, 10.133673
784273977276562, 8.492127, -0.23569304, 5.2079782, 0.5341791, -0.142869, 9.949325
784273986916666, 8.609376, 0.9595219, 5.4388857, -0.63448274, 0.114524364, 10.208224
784273996556874, 8.422736, -0.4031906, 5.1409793, 0.69836986, -0.16083097, 9.84993
784274006196978, 8.6141615, 0.9822537, 5.4125648, -0.64585984, 0.15790081, 10.199136
784274015837187, 8.462217, -0.2620141, 5.143372, 0.5716752, -0.09614849, 9.889186
784274025477291, 8.553144, 0.6975078, 5.416154, -0.37976515, 0.026613712, 10.140641
784274035117499, 8.516056, 0.1268196, 5.2546387, 0.18622875, -0.03516674, 10.005729
784274044757603, 8.493324, 0.22372891, 5.267799, 0.0916276, -0.03004837, 9.996351
784274054397812, 8.508878, 0.59700924, 5.3132625, -0.27552348, 0.046824455, 10.045402
784274064038020, 8.429914, -0.16749759, 5.2031927, 0.46599853, -0.118174076, 9.896141
784274073678124, 8.59143, 0.95712906, 5.4257255, -0.62806684, 0.09425449, 10.186457
784274083318332, 8.425129, -0.38165522, 5.178068, 0.68709517, -0.15245914, 9.8714485
784274092958437, 8.60459, 1.0229317, 5.4580283, -0.6933173, 0.08873463, 10.21699
784274102598645, 8.444271, -0.2536392, 5.2019963, 0.5519657, -0.11796188, 9.905161
784274112238749, 8.599805, 0.7896315, 5.4436717, -0.46616948, 0.048238277, 10.197748
784274121878957, 8.5220375, 0.111266255, 5.229514, 0.20935452, -0.0052633286, 9.997072
784274131519062, 8.537591, 0.32303107, 5.2701917, 0.0077456236, 0.027356148, 10.038372
784274141159270, 8.56152, 0.5599205, 5.221139, -0.20475805, 0.1462102, 10.040425
784274150799374, 8.439486, -0.16630118, 5.1290154, 0.49419606, -0.060358524, 9.86466
784274160439582, 8.572288, 0.91405827, 5.367101, -0.57700264, 0.12882423, 10.137843
784274170079687, 8.440681, -0.38285163, 5.1361938, 0.6917223, -0.13047123, 9.862893
784274179719895, 8.610572, 1.012164, 5.4388857, -0.670514, 0.11290598, 10.212029
784274189359999, 8.441878, -0.32183465, 5.1493545, 0.64364636, -0.10136747, 9.872192
784274199000207, 8.548359, 0.7968099, 5.4687963, -0.49297857, -3.862381E-4, 10.167302
784274208640416, 8.471788, 0.06819545, 5.2977095, 0.2300272, -0.101177216, 9.9889145
784274218280520, 8.535198, 0.4103691, 5.3886366, -0.09917426, -0.045189857, 10.101662
784274227920728, 8.553144, 0.54436713, 5.3539405, -0.21947825, 0.030720234, 10.1028805
784274237560832, 8.469396, -0.0741775, 5.252246, 0.3830359, -0.10477209, 9.95814
784274247201041, 8.647661, 0.89730847, 5.453243, -0.5628446, 0.092134, 10.246941
784274256841145, 8.483752, -0.37686956, 5.2331033, 0.6751534, -0.18487072, 9.95045
784274266481353, 8.658429, 1.0133604, 5.45085, -0.6713284, 0.13836241, 10.258521
784274276121457, 8.4347, -0.34456646, 5.1385865, 0.6670805, -0.13216543, 9.859285
784274285761666, 8.560323, 0.86261255, 5.432904, -0.52794874, 0.06632137, 10.161523
784274295401874, 8.471788, 0.0071784677, 5.2259245, 0.30969143, -0.06433821, 9.948944
784274305041978, 8.4813595, 0.44506502, 5.332405, -0.12663352, -0.01679182, 10.0274515
784274314682187, 8.504091, 0.46181476, 5.278567, -0.12561095, 0.04516983, 10.018897
784274324322291, 8.456235, -0.061016977, 5.1732826, 0.39166498, -0.045440197, 9.905505
784274333962499, 8.559127, 0.88414794, 5.304888, -0.5222708, 0.16137266, 10.093732
784274343602603, 8.41795, -0.3182454, 5.10748, 0.6446041, -0.08766556, 9.829868
784274353242812, 8.580662, 1.0540384, 5.3886366, -0.69706523, 0.13614178, 10.16227
784274362882916, 8.43111, -0.33738798, 5.1349974, 0.65962934, -0.10762644, 9.854895
784274372523124, 8.610572, 0.90807617, 5.436493, -0.5688326, 0.09044886, 10.207363
784274382163332, 8.484949, -0.03708875, 5.259424, 0.35199916, -0.10449839, 9.976095
784274391803437, 8.550752, 0.4941179, 5.4113684, -0.17331147, -0.032393456, 10.129725
784274401443645, 8.534002, 0.40797627, 5.3108697, -0.0708313, 0.018708706, 10.059603
784274411083749, 8.463413, -0.016749758, 5.2737813, 0.33558106, -0.110014915, 9.965827
784274420723957, 8.580662, 0.8219346, 5.4341, -0.4882481, 0.061546326, 10.177948
784274430364166, 8.437093, -0.32542387, 5.227121, 0.6304933, -0.17503595, 9.908837
784274440004270, 8.622537, 1.0097711, 5.4640107, -0.6689776, 0.11288118, 10.235374
784274449644478, 8.441878, -0.37208393, 5.1696935, 0.687327, -0.14019203, 9.8811655
784274459284582, 8.620144, 0.9523434, 5.474778, -0.6191563, 0.07726097, 10.237076
784274468924791, 8.496913, -0.049052864, 5.218746, 0.38643348, -0.05756235, 9.964066
784274478564895, 8.496913, 0.60059845, 5.3503513, -0.2656631, 0.019125938, 10.055524
784274488205103, 8.495717, 0.38285163, 5.204389, -0.02580309, 0.0761714, 9.970104
784274497845312, 8.4502535, 0.086141616, 5.1720862, 0.2574712, -0.0060896873, 9.904461
784274507485416, 8.566305, 0.7716853, 5.3132625, -0.4087125, 0.13232374, 10.100657
784274517125624, 8.403593, -0.34097722, 5.1529436, 0.6612612, -0.15477276, 9.840135
784274526765728, 8.586644, 0.991825, 5.4436717, -0.6420567, 0.11217117, 10.19426
784274536405937, 8.433503, -0.4139583, 5.1326046, 0.7386476, -0.14913654, 9.852468
784274546046145, 8.584251, 0.90329057, 5.3982077, -0.5619409, 0.12294006, 10.164402
784274555686249, 8.445468, -0.1591227, 5.21755, 0.46490812, -0.132061, 9.916678
784274565326457, 8.585447, 0.6652047, 5.4580283, -0.35059327, -0.0040946007, 10.189187
784274574966562, 8.586644, 0.3684947, 5.3419766, -0.039804816, 0.0037403107, 10.119355
784274584606770, 8.555537, 0.17826529, 5.3419766, 0.14124179, -0.066762924, 10.08669
784274594246978, 8.641679, 0.76689965, 5.4029937, -0.41831648, 0.09795189, 10.211489
784274603887082, 8.457432, -0.25603202, 5.2199426, 0.56740713, -0.13617325, 9.924768
784274613527291, 8.601001, 1.0205388, 5.4376893, -0.6711876, 0.11637974, 10.204075
784274623167395, 8.429914, -0.38404804, 5.113462, 0.71945775, -0.10162306, 9.84025
784274632807603, 8.554341, 0.95832545, 5.35753, -0.60044205, 0.13320017, 10.120277
784274642447812, 8.391629, -0.16510476, 5.09073, 0.5031538, -0.06088209, 9.803335
784274652087916, 8.5112705, 0.66161543, 5.2833524, -0.3165965, 0.0894289, 10.034194
784274661728124, 8.493324, 0.24047868, 5.1792645, 0.105603814, 0.039643288, 9.950199
784274671368228, 8.500503, 0.1591227, 5.2402816, 0.17439556, -0.03053999, 9.985644
784274681008437, 8.585447, 0.6795616, 5.3276196, -0.32731408, 0.093699455, 10.121232
784274690648645, 8.426325, -0.27038896, 5.1936216, 0.5775168, -0.15977907, 9.883862
784274700288749, 8.595019, 0.9499506, 5.447261, -0.60814303, 0.08280325, 10.201603
784274709928957, 8.427522, -0.41874397, 5.1469617, 0.72958887, -0.15383244, 9.855644
784274719569166, 8.581859, 1.0073783, 5.440082, -0.6766481, 0.098433495, 10.187741
784274729209270, 8.477771, -0.1794617, 5.1756754, 0.49953067, -0.08871174, 9.921443
784274738849478, 8.618947, 0.8362915, 5.4436717, -0.5064826, 0.061276913, 10.215622
784274748489582, 8.541181, 0.27158538, 5.2546387, 0.06297815, 0.016317368, 10.031576
784274758129791, 8.547162, 0.40677986, 5.3036914, -0.07121611, 0.015620708, 10.066938
784274767769999, 8.520842, 0.35533416, 5.2845488, -0.021689773, 0.003472805, 10.032796
784274777410103, 8.5112705, 0.37686956, 5.239085, -0.034725785, 0.040289402, 10.001448
784274787050312, 8.500503, 0.33499518, 5.255835, 4.7791004E-4, 0.0076618195, 9.999726
784274796690520, 8.488539, 0.32662028, 5.2905307, -4.8351288E-4, -0.029151917, 10.007539
784274806330624, 8.465807, 0.30987054, 5.2893343, 0.013164401, -0.044458866, 9.987033
784274815970832, 8.451449, 0.3290131, 5.278567, -0.0030463934, -0.034386158, 9.969822
784274825611041, 8.475378, 0.33738798, 5.2606206, -0.0016756058, -0.003071785, 9.980982
784274835251145, 8.507681, 0.34097722, 5.288138, -0.005543947, -0.00856781, 10.023034
784274844891353, 8.566305, 0.36490545, 5.365905, -0.034063578, -0.03304863, 10.114615
784274854531457, 8.595019, 0.3397808, 5.3479586, -0.00116992, -0.010792732, 10.128691
784274864171666, 8.585447, 0.32422748, 5.3623157, 0.009665847, -0.02838087, 10.127613
784274873811874, 8.568698, 0.31465617, 5.352744, 0.017971396, -0.031624317, 10.108023
784274883451978, 8.556734, 0.31585258, 5.3336015, 0.019244432, -0.021712303, 10.0878105
784274893092187, 8.535198, 0.31944183, 5.3419766, 0.010274053, -0.038214684, 10.074066
784274902732395, 8.512466, 0.3182454, 5.325227, 0.010687113, -0.03860998, 10.045885
784274912372499, 8.496913, 0.34217364, 5.2941203, -0.008229375, -0.014660835, 10.017088
784274922012707, 8.530413, 0.37208393, 5.2977095, -0.03175342, 0.007704735, 10.048434
784274931652916, 8.5112705, 0.357727, 5.2773705, -0.01702106, 0.010107994, 10.020974
784274941293020, 8.5112705, 0.35533416, 5.2546387, -0.0095950365, 0.026819706, 10.008917
784274950933228, 8.4909315, 0.34576288, 5.2510495, -0.0038728714, 0.016181469, 9.989431
784274960573437, 8.5016985, 0.3469593, 5.2701917, -0.0072978735, 0.006146908, 10.008701
784274970213541, 8.5112705, 0.33379877, 5.278567, 0.0050708055, 9.2983246E-5, 10.020798
784274979853749, 8.539984, 0.33499518, 5.2642097, 0.012742996, 0.026756763, 10.037658
784274989493957, 8.513663, 0.32063824, 5.3240304, 0.009469748, -0.038689137, 10.046342
784274999134062, 8.493324, 0.3397808, 5.302495, -0.006715417, -0.025416851, 10.018373
784275008774270, 8.482556, 0.30269206, 5.265406, 0.036331534, -0.008228302, 9.988419
784275018414478, 8.510074, 0.30149564, 5.2809596, 0.03893602, -0.0073637962, 10.019942
784275028054582, 8.553144, 0.3182454, 5.2845488, 0.025672913, 0.014186382, 10.058985
784275037694791, 8.554341, 0.3182454, 5.2929235, 0.021852732, 0.005417347, 10.064421
784275047334999, 8.545966, 0.3481557, 5.271388, -0.0034555197, 0.027441978, 10.046967
784275056975103, 8.538788, 0.357727, 5.276174, -0.016746879, 0.020506382, 10.043713
784275066615312, 8.539984, 0.33379877, 5.296513, 0.0010564327, -0.0041503906, 10.05464
784275076255520, 8.506484, 0.33738798, 5.2905307, -0.0069625378, -0.01486969, 10.02315
784275085895624, 8.475378, 0.34576288, 5.2905307, -0.019474506, -0.02505827, 9.997015
784275095535832, 8.489735, 0.3505485, 5.304888, -0.024614692, -0.026353836, 10.016937
784275105176041, 8.517252, 0.37686956, 5.302495, -0.044541, -0.0035505295, 10.039925
784275114816145, 8.532805, 0.37567315, 5.285745, -0.037211657, 0.018669605, 10.044266
784275124456353, 8.567501, 0.3912265, 5.2630134, -0.041600704, 0.056460857, 10.062283
784275134096562, 8.556734, 0.37806597, 5.271388, -0.032484055, 0.040637493, 10.05711
784275143736666, 8.52443, 0.3696911, 5.261817, -0.026988983, 0.027049065, 10.024363
784275153376874, 8.505288, 0.36131623, 5.2366924, -0.015566707, 0.033601284, 9.994601
784275163017082, 8.525627, 0.34576288, 5.24746, 0.0020666122, 0.029384613, 10.017029
784275172657291, 8.5112705, 0.33260235, 5.278567, 0.007305622, -0.0074276924, 10.020755
784275182297395, 8.526823, 0.30867413, 5.291727, 0.031073809, -0.016440392, 10.040077
784275191937603, 8.507681, 0.28953153, 5.312066, 0.04272318, -0.046163082, 10.033871
784275201577812, 8.49452, 0.29312077, 5.3144593, 0.03691399, -0.051905632, 10.024081
784275211217916, 8.488539, 0.2835495, 5.3156557, 0.044386983, -0.056180954, 10.01932
784275220858124, 8.5423765, 0.29790643, 5.3300123, 0.035713434, -0.036715508, 10.073101
784275230498332, 8.547162, 0.31345975, 5.3383875, 0.018614173, -0.03677082, 10.0821085
784275240138437, 8.567501, 0.3361916, 5.3563333, -0.0042129755, -0.034793854, 10.10961
784275249778645, 8.566305, 0.37088752, 5.346762, -0.03590417, -0.018419743, 10.104721
784275259418853, 8.545966, 0.37686956, 5.3407803, -0.043233275, -0.02232933, 10.084501
784275269058957, 8.506484, 0.38883367, 5.3036914, -0.053911805, -0.008563995, 10.031832
784275278699166, 8.484949, 0.38165522, 5.2462635, -0.038051724, 0.026168346, 9.983045
784275288339374, 8.469396, 0.36131623, 5.18405, -0.0070621967, 0.064332485, 9.936367
784275297979582, 8.483752, 0.33738798, 5.1936216, 0.017296672, 0.055737495, 9.952797
784275307619687, 8.507681, 0.3361916, 5.2139606, 0.017437696, 0.04515648, 9.983822
784275317259895, 8.5423765, 0.33020952, 5.2426744, 0.022491813, 0.036681175, 10.028212
784275326900103, 8.53161, 0.33738798, 5.316852, -6.236434E-4, -0.027121544, 10.05835
784275336540207, 8.543573, 0.34217364, 5.326423, -0.0043781996, -0.02417612, 10.073724
784275346180416, 8.543573, 0.35413775, 5.349155, -0.018537939, -0.036912918, 10.08612
784275355820624, 8.534002, 0.3385844, 5.346762, -0.0042120814, -0.043423176, 10.0762005
784275365460832, 8.52443, 0.3182454, 5.2642097, 0.03012234, 0.018066883, 10.023865
784275375100937, 8.535198, 0.29910284, 5.279763, 0.048316002, 0.0067243576, 10.040548
784275384741145, 8.530413, 0.29790643, 5.332405, 0.03938222, -0.04202175, 10.064191
784275394381353, 8.52802, 0.29790643, 5.2737813, 0.04657525, 0.0023117065, 10.031276
784275404021457, 8.502895, 0.28594232, 5.2534423, 0.05810201, 0.0031228065, 9.998814
784275413661666, 8.513663, 0.32422748, 5.2749777, 0.014477074, 2.2363663E-4, 10.0206175
784275423301874, 8.4909315, 0.3385844, 5.272585, -0.0024901032, -0.0059723854, 10.000533
784275432942082, 8.484949, 0.3481557, 5.267799, -0.013420463, -0.00172472, 9.993253
784275442582187, 8.514859, 0.3493521, 5.2642097, -0.010357261, 0.015658379, 10.016808
784275452222395, 8.541181, 0.35653058, 5.300102, -0.02013135, 0.0010457039, 10.058309
784275461862603, 8.52443, 0.36610186, 5.2689953, -0.02538395, 0.018646717, 10.028024
784275471502812, 8.516056, 0.3696911, 5.245067, -0.02411449, 0.033367157, 10.008442
784275481142916, 8.530413, 0.36490545, 5.2438707, -0.015957117, 0.03920269, 10.0198555
784275490783124, 8.510074, 0.36490545, 5.2498527, -0.019862771, 0.02493763, 10.005722
784275500423332, 8.514859, 0.36251262, 5.3156557, -0.030534387, -0.027402401, 10.04434
784275510063541, 8.529217, 0.3278167, 5.319245, 0.004214883, -0.031049728, 10.057256
784275519703645, 8.536395, 0.34097722, 5.332405, -0.009870172, -0.03085804, 10.070739
784275529343853, 8.565108, 0.32542387, 5.3204412, 0.012721539, -0.010140419, 10.088301
784275538984062, 8.556734, 0.3074777, 5.312066, 0.03036356, -0.012130737, 10.076171
784275548624166, 8.510074, 0.27756742, 5.282156, 0.05720508, -0.020956993, 10.019774
784275558264374, 8.499306, 0.27996024, 5.2666025, 0.055115104, -0.0150847435, 10.0025215
784275567904582, 8.483752, 0.30149564, 5.255835, 0.0324111, -0.009940624, 9.984368
784275577544791, 8.510074, 0.34337005, 5.265406, -0.00694561, 0.0062747, 10.013175
784275587184895, 8.519645, 0.3589234, 5.261817, -0.019591331, 0.018136501, 10.019939
784275596825103, 8.513663, 0.38404804, 5.304888, -0.05570078, -0.014021397, 10.038351
784275606465312, 8.549556, 0.41156548, 5.2953167, -0.07417631, 0.019619465, 10.064731
784275616105520, 8.548359, 0.40079778, 5.288138, -0.06064713, 0.022076607, 10.059589
784275625745624, 8.559127, 0.3589234, 5.2845488, -0.016329527, 0.016824245, 10.065455
784275635385832, 8.537591, 0.34576288, 5.2833524, -0.005585432, 0.0018377304, 10.046083
784275645026041, 8.539984, 0.33260235, 5.2845488, 0.008797765, -0.0023937225, 10.0483
784275654666249, 8.518449, 0.3074777, 5.267799, 0.034362555, -0.0054540634, 10.02033
784275664306353, 8.495717, 0.28713873, 5.252246, 0.05337882, -0.009473324, 9.992138
784275673946562, 8.472985, 0.30149564, 5.24746, 0.036376238, -0.0101828575, 9.970797
784275683586770, 8.5016985, 0.30867413, 5.2546387, 0.032747626, 1.1444092E-5, 9.999216
784275693226978, 8.519645, 0.35533416, 5.2893343, -0.017704725, -0.005681038, 10.0343075
784275702867082, 8.539984, 0.35174492, 5.282156, -0.011791468, 0.00992918, 10.047687
784275712507291, 8.543573, 0.33499518, 5.282156, 0.00492692, 0.007286072, 10.050172
