timestamp_acc,device_acc_x,device_acc_y,device_acc_z,earth_acc_x,earth_acc_y,earth_acc_z
517129277968556, -0.39481574, 5.7762737, 8.087741, -0.023312442, -0.00222826, 9.946468
517129287608139, -0.35653058, 5.797809, 8.09133, 0.016458288, 0.011147976, 9.960467
517129297247827, -0.35653058, 5.8037915, 8.128419, 0.01674534, -0.0055322647, 9.994098
517129306887410, -0.3481557, 5.7858453, 8.132008, 0.023184404, -0.022592068, 9.986275
517129316526993, -0.38285163, 5.7607207, 8.148758, -0.01306347, -0.050312996, 9.986592
517129326166681, -0.357727, 5.7487564, 8.146365, 0.010543084, -0.058979988, 9.976767
517129335806264, -0.34097722, 5.753542, 8.151151, 0.027575657, -0.057596207, 9.9828205
517129345445847, -0.34337005, 5.7930236, 8.124829, 0.026903875, -0.009113789, 9.984441
517129355085431, -0.38644084, 5.8097734, 8.068598, -0.01567363, 0.03796339, 9.950046
517129364725118, -0.4331009, 5.8241305, 8.020741, -0.06162098, 0.07945204, 9.921203
517129374364702, -0.41754755, 5.8193445, 7.987242, -0.044516042, 0.093410015, 9.890625
517129384004285, -0.38644084, 5.81097, 8.009974, -0.0124908015, 0.06873131, 9.903107
517129393643972, -0.38165522, 5.7966127, 8.060223, -0.0084933415, 0.02742529, 9.935429
517129403283556, -0.3924229, 5.7810597, 8.122437, -0.02091436, -0.019922733, 9.977365
517129412923139, -0.36490545, 5.7726846, 8.187042, 0.0050246343, -0.06611967, 10.023987
517129422562827, -0.33260235, 5.761917, 8.212168, 0.036341228, -0.09026575, 10.036961
517129432202410, -0.30987054, 5.7547383, 8.196614, 0.05776844, -0.08721876, 10.01931
517129441841993, -0.34337005, 5.7631135, 8.157132, 0.024768695, -0.053860664, 9.99333
517129451481681, -0.37686956, 5.759524, 8.106883, -0.00920812, -0.025629044, 9.951632
517129461121264, -0.41156548, 5.773881, 8.0817585, -0.04255066, 0.0018362999, 9.940829
517129470760847, -0.37686956, 5.773881, 8.099705, -0.008079015, -0.010766506, 9.954133
517129480400431, -0.357727, 5.79422, 8.07458, 0.012853827, 0.018021584, 9.944815
517129490040118, -0.36011982, 5.8217373, 8.063812, 0.012858264, 0.043591022, 9.952152
517129499679702, -0.3505485, 5.8217373, 8.093722, 0.02194763, 0.025433064, 9.976109
517129509319389, -0.37328035, 5.7966127, 8.062616, -0.002361551, 0.022785664, 9.937067
517129518958972, -0.3792624, 5.790631, 8.023134, -0.0077697337, 0.038963795, 9.901733
517129528598556, -0.37686956, 5.7858453, 8.076973, -0.0070543885, 0.0027384758, 9.942609
517129538238243, -0.40079778, 5.782256, 8.115258, -0.032254994, -0.020114422, 9.972519
517129547877827, -0.41874397, 5.7690954, 8.165507, -0.052517176, -0.058306694, 10.006356
517129557517410, -0.39720857, 5.749953, 8.184649, -0.032463938, -0.08708525, 10.009975
517129567157097, -0.32662028, 5.773881, 8.124829, 0.04190521, -0.03946209, 9.972659
517129576796681, -0.32662028, 5.802595, 8.0817585, 0.045601428, 0.009404182, 9.95437
517129586436264, -0.36729828, 5.788238, 8.024331, 0.0038526952, 0.03191185, 9.900883
517129596075952, -0.38404804, 5.802595, 7.993224, -0.010410562, 0.061496258, 9.8846035
517129605715535, -0.3924229, 5.818148, 7.9980097, -0.017470196, 0.07199669, 9.897855
517129615355118, -0.39720857, 5.81097, 8.042277, -0.023649052, 0.038814545, 9.929818
517129624994806, -0.4139583, 5.802595, 8.117651, -0.04280363, -0.010260105, 9.98678
517129634634389, -0.4139583, 5.802595, 8.172686, -0.04415059, -0.04211855, 10.031477
517129644274077, -0.40079778, 5.79422, 8.179864, -0.03178355, -0.053379536, 10.031946
517129653913660, -0.3397808, 5.7930236, 8.175078, 0.029206723, -0.056992054, 10.025087
517129663553243, -0.31106696, 5.782256, 8.155936, 0.056270882, -0.058119774, 10.002201
517129673192931, -0.31585258, 5.782256, 8.1020975, 0.05256833, -0.025917053, 9.958655
517129682832514, -0.3074777, 5.8097734, 8.075776, 0.062149696, 0.010178089, 9.952999
517129692472202, -0.34097722, 5.825327, 8.049456, 0.029482208, 0.03855276, 9.9419365
517129702111785, -0.35294133, 5.8480587, 8.023134, 0.01942052, 0.070504665, 9.934269
517129711751368, -0.38524446, 5.8337016, 8.002795, -0.013984904, 0.06800461, 9.910621
517129721391056, -0.43429732, 5.8061843, 8.025527, -0.06547639, 0.035522938, 9.914834
517129731030639, -0.42592242, 5.8013983, 8.037491, -0.05699393, 0.021996021, 9.921451
517129740670327, -0.38883367, 5.784649, 8.018349, -0.018983975, 0.015651703, 9.89478
517129750309910, -0.38285163, 5.761917, 8.05783, -0.015252046, -0.025737286, 9.913324
517129759949493, -0.36610186, 5.7750773, 8.10808, 0.002243407, -0.045547962, 9.961147
517129769589181, -0.35533416, 5.773881, 8.160722, 0.012288492, -0.07630825, 10.0027685
517129779228764, -0.38404804, 5.797809, 8.2049885, -0.015076205, -0.07938576, 10.053726
517129788868452, -0.3589234, 5.782256, 8.1942215, 0.008457442, -0.08525705, 10.035002
517129798508035, -0.3481557, 5.8037915, 8.151151, 0.019785281, -0.044089317, 10.012199
517129808147618, -0.32542387, 5.7858453, 8.088937, 0.0406659, -0.025890827, 9.950401
517129817787306, -0.31585258, 5.8265233, 8.023134, 0.05321557, 0.042245388, 9.920394
517129827426889, -0.3361916, 5.8337016, 7.9860454, 0.03345288, 0.07133913, 9.895242
517129837066577, -0.3397808, 5.832505, 7.962117, 0.030276977, 0.08145523, 9.87529
517129846706160, -0.35533416, 5.8624153, 7.925029, 0.019655034, 0.1259427, 9.863265
517129856345743, -0.39481574, 5.851648, 7.98126, -0.022807732, 0.08587408, 9.904054
517129865985431, -0.44865423, 5.820541, 8.037491, -0.08084831, 0.03325367, 9.933458
517129875625014, -0.42951167, 5.8097734, 8.048259, -0.062301546, 0.01770544, 9.9352
517129885264702, -0.36729828, 5.8480587, 8.1020975, 0.0036471188, 0.012802601, 9.998926
517129894904285, -0.33738798, 5.864808, 8.127222, 0.034353912, 0.008136272, 10.027976
517129904543972, -0.3361916, 5.8600225, 8.10808, 0.035338342, 0.015812874, 10.009615
517129914183556, -0.3684947, 5.8265233, 8.079366, -2.0468235E-4, 0.009544373, 9.96796
517129923823139, -0.3804588, 5.820541, 8.029117, -0.01143074, 0.03504038, 9.924153
517129933462827, -0.35533416, 5.782256, 7.987242, 0.012231767, 0.025378704, 9.866915
517129943102410, -0.41635114, 5.74756, 8.024331, -0.05322513, -0.016432285, 9.878998
517129952742097, -0.4546363, 5.723632, 8.109276, -0.09705582, -0.08091402, 9.935344
517129962381681, -0.45224348, 5.7379885, 8.188239, -0.09285486, -0.11081028, 10.007768
517129972021368, -0.37447673, 5.79422, 8.2145605, -0.007986501, -0.08702803, 10.059055
517129981660952, -0.32183465, 5.8037915, 8.190632, 0.046013728, -0.070607185, 10.043253
517129991300535, -0.31345975, 5.818148, 8.141579, 0.056893647, -0.030068398, 10.011507
517130000940222, -0.2883351, 5.8337016, 8.065009, 0.08361465, 0.023571491, 9.957512
517130010579806, -0.2835495, 5.849255, 7.999206, 0.09200907, 0.07399893, 9.912998
517130020219493, -0.31345975, 5.861219, 7.9274216, 0.064707935, 0.1260829, 9.862864
517130029859077, -0.39361933, 5.8468623, 7.9166536, -0.020743147, 0.12677526, 9.848739
517130039498764, -0.4438686, 5.8265233, 7.9537425, -0.07404348, 0.091116905, 9.86882
517130049138347, -0.43429732, 5.814559, 8.045866, -0.06670508, 0.026499271, 9.936223
517130058778035, -0.37328035, 5.7990055, 8.130812, -0.008069798, -0.04091978, 9.993807
517130068417618, -0.33140594, 5.788238, 8.196614, 0.032163903, -0.08904743, 10.039375
517130078057306, -0.30388847, 5.8013983, 8.2014, 0.0601303, -0.082372665, 10.049931
517130087696889, -0.34337005, 5.797809, 8.181061, 0.020874992, -0.070118904, 10.032792
517130097336577, -0.34456646, 5.7966127, 8.099705, 0.020349637, -0.023487568, 9.966128
517130106976160, -0.3290131, 5.7966127, 8.017152, 0.037287757, 0.021620274, 9.898578
517130116615743, -0.38763726, 5.7834525, 7.9561353, -0.02055946, 0.05236435, 9.843552
517130126255431, -0.42711884, 5.7930236, 7.925029, -0.058609515, 0.08082342, 9.825359
517130135895014, -0.41156548, 5.818148, 7.9298143, -0.040390894, 0.09702492, 9.843331
517130145534702, -0.4019942, 5.849255, 8.01117, -0.028514907, 0.0743618, 9.92713
517130155174285, -0.4019942, 5.8337016, 8.114061, -0.0327546, 0.0033540726, 10.00153
517130164813972, -0.40677986, 5.8360944, 8.169097, -0.038567394, -0.024846077, 10.047761
517130174453556, -0.35653058, 5.820541, 8.206185, 0.009056464, -0.06418514, 10.066931
517130184093243, -0.33020952, 5.7631135, 8.215756, 0.03148137, -0.1171999, 10.040242
517130193732827, -0.32183465, 5.753542, 8.1942215, 0.03712216, -0.11236763, 10.016891
517130203372514, -0.35653058, 5.7523456, 8.159525, 0.0020791441, -0.09003353, 9.989311
517130213012097, -0.3684947, 5.74756, 8.098508, -0.008444741, -0.057878494, 9.937435
517130222651785, -0.357727, 5.790631, 8.037491, 0.008420765, 0.011340141, 9.91264
517130232291368, -0.3385844, 5.79422, 7.993224, 0.02876471, 0.03523779, 9.878117
517130241931056, -0.3792624, 5.8169518, 7.960921, -0.008461446, 0.075194836, 9.866676
517130251570639, -0.36610186, 5.844469, 7.9357963, 0.008396566, 0.11061144, 9.861866
517130261210327, -0.35653058, 5.861219, 7.9860454, 0.018381536, 0.092422485, 9.912065
517130270849910, -0.3493521, 5.895915, 8.0817585, 0.026079804, 0.06208563, 10.009703
517130280489597, -0.35413775, 5.8971114, 8.112865, 0.020215958, 0.045478344, 10.035807
517130290129181, -0.37328035, 5.838487, 8.179864, -0.0088609755, -0.038781166, 10.056635
517130299768868, -0.39601216, 5.800202, 8.19781, -0.036515206, -0.07739973, 10.049675
517130309408452, -0.4019942, 5.676972, 8.161918, -0.056488693, -0.15439701, 9.948844
517130319048139, -0.3278167, 6.196214, 8.136793, 0.08056238, 0.26734972, 10.22888
517130328687722, -0.47377887, 5.1529436, 7.948957, -0.17855445, -0.45121717, 9.472473
517130338327410, -0.32542387, 6.2009997, 8.05783, 0.086370945, 0.30952215, 10.167776
517130347966993, -0.3493521, 5.532206, 7.9908314, -0.01379329, -0.18412781, 9.723511
517130357606681, -0.36490545, 5.8827543, 7.9920278, 0.013184071, 0.10299301, 9.92984
517130367246264, -0.30269206, 6.145965, 8.036295, 0.104652196, 0.28093004, 10.117147
517130376885952, -0.40558344, 5.495117, 7.891529, -0.07171598, -0.14836979, 9.623404
517130386525535, -0.2656033, 6.579066, 8.097312, 0.18729505, 0.5849223, 10.418442
517130396165222, -0.5276174, 5.188836, 7.9477606, -0.23149854, -0.4188695, 9.494221
517130405804806, -0.29072794, 6.5551376, 8.079366, 0.16233015, 0.581223, 10.390684
517130415444493, -0.47138608, 5.093123, 7.9740815, -0.18509957, -0.5099125, 9.458002
517130425084077, -0.3182454, 6.227321, 8.169097, 0.09452364, 0.26960802, 10.272943
517130434723764, -0.357727, 5.42094, 8.1344, -0.03838557, -0.35698938, 9.775179
517130444363347, -0.2883351, 5.8301125, 8.196614, 0.0730578, -0.07291174, 10.062166
517130454003035, -0.23090738, 5.985646, 8.252846, 0.14474574, 0.01931715, 10.196539
517130463642618, -0.35653058, 5.395815, 8.068598, -0.04200694, -0.33196926, 9.707329
517130473282306, -0.22731815, 6.437889, 8.10449, 0.20668003, 0.47125626, 10.340023
517130482921889, -0.50368917, 5.127819, 7.945368, -0.21407264, -0.46646595, 9.45588
517130492561577, -0.3397808, 6.5718875, 8.085348, 0.10783464, 0.59368944, 10.407397
517130502201160, -0.52522457, 5.1421757, 7.893922, -0.23118529, -0.42616653, 9.423203
517130511840847, -0.3469593, 6.3828545, 8.07458, 0.08817577, 0.4431739, 10.288629
517130521480431, -0.43908295, 5.4676, 8.049456, -0.11850363, -0.26379633, 9.7364025
517130531120118, -0.39601216, 5.948557, 8.076973, -0.013154715, 0.10297203, 10.038369
517130540759702, -0.41515473, 5.956932, 8.065009, -0.030340403, 0.116436005, 10.0343075
517130550399389, -0.5312066, 5.4221363, 7.9597244, -0.20670754, -0.2356615, 9.640575
517130560038972, -0.3469593, 6.3720865, 8.066205, 0.091542244, 0.43732166, 10.275599
517130569678660, -0.5192425, 5.0847483, 7.9011, -0.22739619, -0.47376728, 9.395504
517130579318243, -0.25962126, 6.5515485, 8.117651, 0.19671258, 0.5474825, 10.418637
517130588957931, -0.4761717, 5.1122656, 8.001599, -0.17764142, -0.5165639, 9.491534
517130598597514, -0.26919255, 6.422336, 8.191829, 0.16496632, 0.4039092, 10.403584
517130608237202, -0.3469593, 5.4640107, 8.10808, -0.01541397, -0.30960655, 9.778582
517130617876785, -0.26081768, 6.033502, 8.124829, 0.13031355, 0.12646675, 10.121809
517130627516472, -0.25842485, 5.9150577, 8.120044, 0.117494375, 0.027841568, 10.048641
517130637156056, -0.37208393, 5.4664035, 7.966903, -0.040245533, -0.23201942, 9.666235
517130646795743, -0.25962126, 6.3290157, 8.029117, 0.16832247, 0.41336775, 10.21721
517130656435327, -0.46899325, 5.12423, 7.9274216, -0.17567864, -0.46961927, 9.437706
517130666075014, -0.24765715, 6.556334, 8.140383, 0.20081833, 0.52129936, 10.440336
517130675714597, -0.4761717, 5.096712, 7.960921, -0.19063768, -0.50848484, 9.449053
517130685354285, -0.32063824, 6.468996, 8.0817585, 0.1294814, 0.49129772, 10.344439
517130694993868, -0.48215377, 5.4173503, 8.018349, -0.16435888, -0.28198576, 9.683365
517130704633556, -0.43669012, 6.0957155, 8.068598, -0.036062628, 0.21641588, 10.119415
517130714273139, -0.3804588, 5.9174504, 8.031509, 0.002408594, 0.091712, 9.982871
517130723912827, -0.43070808, 5.582455, 7.966903, -0.0886575, -0.13649654, 9.736239
517130733552410, -0.2644069, 6.3338017, 8.042277, 0.17060614, 0.39500046, 10.231327
517130743192097, -0.42711884, 5.15414, 7.874779, -0.13589972, -0.42770243, 9.410543
517130752831785, -0.21535404, 6.5443697, 8.070991, 0.24020275, 0.53421736, 10.376556
517130762471368, -0.48095736, 5.042874, 7.9226356, -0.19622323, -0.54164886, 9.386063
517130772111056, -0.2620141, 6.4438715, 8.085348, 0.1712707, 0.46669054, 10.330433
517130781750639, -0.39840496, 5.312066, 8.031509, -0.097064346, -0.39948893, 9.628755
517130791390327, -0.2943172, 6.1196437, 8.154739, 0.10001227, 0.1624012, 10.198042
517130801029910, -0.35174492, 5.834898, 8.219346, 0.009080261, -0.08784723, 10.085613
517130810669597, -0.48215377, 5.611169, 8.126026, -0.14538878, -0.19707155, 9.883825
517130820309181, -0.30388847, 6.3134627, 8.157132, 0.115186006, 0.3257146, 10.313661
517130829948868, -0.4438686, 5.2366924, 7.960921, -0.13987705, -0.40576792, 9.529534
517130839588452, -0.21415763, 6.586244, 8.059027, 0.23558718, 0.58517456, 10.391075
517130849228139, -0.44865423, 5.0799623, 7.77787, -0.15100075, -0.4304018, 9.289486
517130858867722, -0.2656033, 6.492924, 7.881958, 0.1991466, 0.6129489, 10.1950245
517130868507410, -0.4546363, 5.276174, 7.8149586, -0.13937363, -0.29787874, 9.434519
517130878146993, -0.3290131, 6.1435723, 8.013563, 0.07652855, 0.26809168, 10.09907
517130887786681, -0.3290131, 5.729614, 8.16431, 0.02195102, -0.15167809, 9.978437
517130897426264, -0.40079778, 5.6207404, 8.228917, -0.069292545, -0.2625389, 9.96969
517130907065952, -0.32303107, 6.2213387, 8.377272, 0.07331756, 0.12291336, 10.438755
517130916705535, -0.53359944, 5.2199426, 8.177471, -0.24678427, -0.5361695, 9.698206
517130926345222, -0.26081768, 6.5168524, 8.275578, 0.18284929, 0.41673088, 10.526894
517130935984806, -0.44506502, 5.063213, 7.96451, -0.15953907, -0.55654097, 9.430401
517130945624493, -0.24047868, 6.535995, 7.932207, 0.21849266, 0.6242032, 10.25961
517130955264077, -0.4438686, 5.267799, 7.670193, -0.12874824, -0.22675896, 9.311852
517130964903764, -0.33499518, 6.2380886, 7.7886376, 0.09432259, 0.46702766, 9.973056
517130974543347, -0.32183465, 5.7750773, 7.8221374, 0.044799775, 0.07416105, 9.727971
517130984183035, -0.3589234, 5.7834525, 7.945368, 0.0037029088, 0.015386105, 9.83391
517130993822618, -0.2548356, 6.2261243, 8.160722, 0.15038937, 0.23117733, 10.264058
517131003462306, -0.4546363, 5.2666025, 8.111669, -0.16461724, -0.48160362, 9.668709
517131013101889, -0.2428715, 6.501299, 8.34138, 0.1853629, 0.34610987, 10.571204
517131022741577, -0.5288138, 5.050052, 8.187042, -0.2706282, -0.68750143, 9.605438
517131032381160, -0.3182454, 6.474978, 8.273184, 0.11458206, 0.37460184, 10.503273
517131042020847, -0.50488555, 5.1457653, 8.036295, -0.22764212, -0.5152464, 9.539316
517131051660431, -0.33738798, 6.2416778, 8.024331, 0.082696944, 0.34253263, 10.165537
517131061300118, -0.37806597, 5.6757755, 7.8580294, -0.02466172, -0.015799046, 9.70078
517131070939702, -0.40677986, 5.791827, 7.786245, -0.037209213, 0.122776985, 9.711843
517131080579389, -0.317049, 6.1914287, 7.8436728, 0.09674588, 0.39836597, 9.989466
517131090218972, -0.43908295, 5.3623157, 7.7946196, -0.118169725, -0.2242608, 9.467791
517131099858660, -0.22851457, 6.5647087, 8.066205, 0.21894312, 0.5586972, 10.385143
517131109498243, -0.4749753, 5.09073, 7.999206, -0.19578788, -0.5606842, 9.475006
517131119137931, -0.2428715, 6.550352, 8.220542, 0.18617421, 0.46980858, 10.501812
517131128777514, -0.3900301, 5.176872, 8.094919, -0.09566748, -0.54660606, 9.600619
517131138417202, -0.25842485, 6.2691956, 8.212168, 0.13860936, 0.24458408, 10.331034
517131148056785, -0.36729828, 5.5740805, 8.126026, -0.038781345, -0.24940634, 9.857679
517131157696368, -0.38165522, 5.838487, 8.039884, -0.019057065, 0.017442226, 9.943474
517131167336056, -0.317049, 6.087341, 7.9836526, 0.07832208, 0.2397461, 10.041481
517131176975639, -0.47377887, 5.3072805, 7.820941, -0.1686548, -0.26817274, 9.458248
517131186615327, -0.27517462, 6.45105, 7.9836526, 0.16915113, 0.5253525, 10.253092
517131196254910, -0.50368917, 5.1026945, 7.861619, -0.22964066, -0.44886398, 9.372408
517131205894597, -0.31585258, 6.5491557, 8.106883, 0.1381515, 0.5394654, 10.411661
517131215534181, -0.50009996, 5.1290154, 8.006385, -0.23568276, -0.50753975, 9.505049
517131225173868, -0.31106696, 6.3625154, 8.172686, 0.1174292, 0.34304142, 10.3556595
517131234813452, -0.39361933, 5.56092, 8.1738825, -0.07212898, -0.274611, 9.889919
517131244453139, -0.3493521, 5.8935223, 8.153543, 0.017209947, -0.008599758, 10.066557
517131254092722, -0.2835495, 6.0370917, 8.129615, 0.10341108, 0.11597586, 10.128839
517131263732410, -0.4019942, 5.3946185, 7.96451, -0.09056488, -0.2922268, 9.623063
517131273371993, -0.2105684, 6.413961, 8.04467, 0.22756022, 0.4525628, 10.2782955
517131283011681, -0.44027936, 5.0656056, 7.8221374, -0.16892388, -0.47292805, 9.315999
517131292651264, -0.2644069, 6.519245, 7.9920278, 0.18142599, 0.5762429, 10.2994175
517131302290952, -0.49651068, 5.1254263, 7.879565, -0.21245793, -0.44583988, 9.400007
517131311930535, -0.33140594, 6.3888364, 8.097312, 0.0894537, 0.4101839, 10.311028
517131321570118, -0.4319045, 5.4987063, 8.093722, -0.10958025, -0.28605986, 9.789627
517131331209806, -0.3912265, 5.960521, 8.1942215, -0.020504743, 0.020945549, 10.140281
517131340849389, -0.32183465, 6.005985, 8.187042, 0.056084394, 0.058490276, 10.158569
517131350489077, -0.39601216, 5.4699926, 7.9800634, -0.07367396, -0.24526453, 9.679539
517131360128660, -0.21774685, 6.3972116, 8.092526, 0.20145538, 0.41390562, 10.307707
517131369768347, -0.424726, 5.1062837, 7.880761, -0.13352151, -0.47584248, 9.387048
517131379407931, -0.21894327, 6.570691, 7.975278, 0.2218787, 0.6204624, 10.314689
517131389047618, -0.4642076, 5.113462, 7.7706914, -0.1729928, -0.4135375, 9.302994
517131398687202, -0.2835495, 6.40439, 7.969296, 0.1394349, 0.48595858, 10.215219
517131408326785, -0.38165522, 5.4317074, 7.958528, -0.06259748, -0.2678609, 9.639067
517131417966472, -0.3182454, 6.01436, 8.128419, 0.057054967, 0.08740473, 10.116033
517131427606056, -0.3397808, 5.9437714, 8.240881, 0.023159593, -0.024796963, 10.166358
517131437245743, -0.47018966, 5.49751, 8.120044, -0.15431955, -0.2958455, 9.811597
517131446885327, -0.31585258, 6.3804617, 8.212168, 0.10240358, 0.33863926, 10.398296
517131456525014, -0.49052864, 5.1182475, 8.026724, -0.21500233, -0.53838444, 9.5146885
517131466164597, -0.2536392, 6.5515485, 8.123632, 0.19405171, 0.5210328, 10.424558
517131475804285, -0.45942193, 5.0859447, 7.850851, -0.17298722, -0.46898127, 9.352214
517131485443868, -0.25722843, 6.4606214, 7.9106717, 0.18030545, 0.5636301, 10.199722
517131495083452, -0.39481574, 5.38744, 7.847262, -0.07397425, -0.23706341, 9.523562
517131504723139, -0.35294133, 6.076573, 7.940582, 0.035245284, 0.24719, 10.001989
517131514362722, -0.3493521, 5.864808, 7.989635, 0.01673755, 0.05235386, 9.917121
517131524002410, -0.41515473, 5.548956, 7.9860454, -0.0821951, -0.19213533, 9.731213
517131533641993, -0.23330021, 6.3254266, 8.16431, 0.17586887, 0.30940247, 10.324474
517131543281681, -0.47976094, 5.168497, 8.096115, -0.19078699, -0.5515313, 9.599481
517131552921264, -0.30388847, 6.5694947, 8.311469, 0.13086292, 0.43752623, 10.588794
517131562560847, -0.55513483, 5.070391, 8.094919, -0.2655838, -0.6164756, 9.544327
517131572200535, -0.41635114, 6.393622, 8.216953, -8.318126E-4, 0.35474443, 10.413656
517131581840118, -0.5491528, 5.2019963, 8.072187, -0.25130394, -0.5034027, 9.602394
517131591479806, -0.40797627, 5.986842, 8.047063, -0.02072686, 0.12478638, 10.037327
517131601119389, -0.38644084, 5.8133626, 7.9106717, -0.008169502, 0.067099094, 9.824392
517131610758972, -0.44506502, 5.642276, 7.759924, -0.080004334, 0.016088009, 9.604328
517131620398660, -0.25722843, 6.3385873, 7.8783684, 0.1839877, 0.48190594, 10.101805
517131630038243, -0.36490545, 5.322834, 7.6893353, -0.03823003, -0.21452427, 9.356503
517131639677931, -0.0634098, 6.7501526, 7.9429746, 0.41801938, 0.74929, 10.388613
517131649317514, -0.2727818, 5.2235317, 7.948957, 0.019130617, -0.45187473, 9.504792
517131658957097, -0.12323037, 6.5515485, 8.222935, 0.31960285, 0.42069578, 10.501214
517131668596785, -0.38285163, 5.2869415, 8.136793, -0.09383333, -0.5005288, 9.697754
517131678236368, -0.36131623, 6.1399827, 8.139186, 0.023075208, 0.1790638, 10.20018
517131687876056, -0.48933223, 5.599205, 7.9657063, -0.15659526, -0.13301516, 9.746837
517131697515639, -0.37328035, 5.4687963, 8.143971, -0.053334787, -0.35212898, 9.810429
517131707155327, -0.25842485, 6.148358, 8.244471, 0.124434605, 0.124203205, 10.286373
517131716794910, -0.4354937, 5.197211, 8.043473, -0.1406348, -0.49801493, 9.572374
517131726434493, -0.27038896, 6.5252275, 8.185846, 0.1556797, 0.47344208, 10.45999
517131736074181, -0.53599226, 5.058427, 7.989635, -0.2590427, -0.57124233, 9.450704
517131745713764, -0.27517462, 6.5814586, 8.049456, 0.16457167, 0.58771515, 10.383283
517131755353347, -0.4019942, 5.3742795, 7.82453, -0.092951655, -0.2340231, 9.497597
517131764993035, -0.37686956, 6.3014984, 7.9764743, 0.041127175, 0.41873884, 10.163565
517131774632618, -0.44985065, 5.7523456, 7.952546, -0.0972949, 0.0025458336, 9.824732
517131784272306, -0.43429732, 5.7284174, 7.9477606, -0.08677864, -0.022524357, 9.806234
517131793911889, -0.31585258, 6.172286, 8.111669, 0.08017868, 0.22076511, 10.19514
517131803551472, -0.4354937, 5.229514, 8.048259, -0.1537044, -0.48056746, 9.594652
517131813191160, -0.15792629, 6.5072813, 8.19781, 0.27359858, 0.41296625, 10.456019
517131822830743, -0.39960137, 5.058427, 7.9238324, -0.14441177, -0.5549474, 9.391787
517131832470431, -0.21296121, 6.519245, 7.9836526, 0.2286427, 0.55125237, 10.292155
517131842110014, -0.42711884, 5.2402816, 7.806584, -0.13676837, -0.3400607, 9.4048605
517131851749597, -0.35174492, 6.3122663, 8.001599, 0.07696384, 0.39813757, 10.189681
517131861389285, -0.41994038, 5.7116675, 8.036295, -0.08205238, -0.09452343, 9.867415
517131871028868, -0.4019942, 5.8013983, 8.09133, -0.054381967, -0.058367252, 9.963988
517131880668556, -0.25962126, 6.1770716, 8.185846, 0.13463733, 0.16744232, 10.2560005
517131890308139, -0.3493521, 5.3647084, 8.024331, -0.05545965, -0.37882137, 9.65119
517131899947722, -0.21535404, 6.489335, 8.1020975, 0.22549152, 0.4574237, 10.3702345
517131909587410, -0.49651068, 4.995017, 7.8831544, -0.24186248, -0.5776787, 9.324626
517131919226993, -0.22971097, 6.4965134, 7.9980097, 0.21581942, 0.5153389, 10.291428
517131928866577, -0.3696911, 5.148158, 7.826923, -0.08346021, -0.43303823, 9.365171
517131938506264, -0.2620141, 6.257231, 8.039884, 0.14575347, 0.3081417, 10.185535
517131948145847, -0.40677986, 5.576473, 8.075776, -0.08320367, -0.23141861, 9.81938
517131957785535, -0.48095736, 5.877969, 8.145168, -0.12011695, -0.015710354, 10.055394
517131967425118, -0.41874397, 6.141179, 8.157132, -0.024828166, 0.18039846, 10.21739
517131977064702, -0.5192425, 5.3790655, 7.984849, -0.21358618, -0.31394196, 9.63419
517131986704389, -0.2656033, 6.502496, 8.055437, 0.19239008, 0.5036392, 10.34178
517131996343972, -0.46301118, 5.0883374, 7.800602, -0.18562564, -0.45554972, 9.311981
517132005983556, -0.25962126, 6.526424, 7.962117, 0.20769545, 0.57561636, 10.280197
517132015623243, -0.4127619, 5.13739, 7.8592257, -0.13056815, -0.4492545, 9.3867855
517132025262827, -0.22612174, 6.3481584, 8.097312, 0.20217726, 0.35454226, 10.283489
517132034902410, -0.36729828, 5.541777, 8.127222, -0.04174483, -0.2873149, 9.839392
517132044542097, -0.42592242, 5.85763, 8.181061, -0.069174916, -0.055114746, 10.070509
517132054181681, -0.39840496, 5.9641104, 8.240881, -0.030737609, -0.0076150894, 10.180395
517132063821264, -0.5383851, 5.328816, 8.084151, -0.23922867, -0.40823603, 9.685854
517132073460952, -0.30269206, 6.410372, 8.142776, 0.12605366, 0.3984642, 10.359276
517132083100535, -0.41156548, 5.123033, 7.9130645, -0.13853323, -0.49101925, 9.421845
517132092740222, -0.101694964, 6.678368, 7.9968133, 0.3750924, 0.66331816, 10.391309
517132102379806, -0.317049, 5.276174, 7.7623167, -0.022918046, -0.29958248, 9.386257
517132112019389, -0.16510476, 6.4965134, 7.8520474, 0.2991205, 0.6001134, 10.170398
517132121659077, -0.33499518, 5.532206, 7.8233337, -0.013827354, -0.1307683, 9.586699
517132131298660, -0.35294133, 5.9114685, 7.9513497, 0.01486215, 0.10486221, 9.913767
517132140938243, -0.3696911, 5.892326, 8.079366, -0.010975897, 0.016870022, 10.006595
517132150577931, -0.5479564, 5.3216376, 8.128419, -0.2676497, -0.43950272, 9.717329
517132160217514, -0.43429732, 6.323034, 8.425129, -0.03604415, 0.17311192, 10.541389
517132169857097, -0.5563313, 5.0859447, 8.321041, -0.30728757, -0.7283964, 9.736071
517132179496785, -0.2321038, 6.6185474, 8.415557, 0.21225026, 0.3931508, 10.699579
517132189136368, -0.3804588, 5.1661043, 8.014759, -0.11264521, -0.5131583, 9.528574
517132198775952, -0.21535404, 6.4618177, 7.9238324, 0.23295274, 0.5537672, 10.209195
517132208415639, -0.37447673, 5.4783673, 7.6606216, -0.041360557, -0.055998802, 9.425128
517132218055222, -0.32422748, 6.058627, 7.661818, 0.08941281, 0.3846693, 9.7652235
517132227694806, -0.31345975, 5.9700923, 7.7419777, 0.077905744, 0.26232767, 9.77771
517132237334493, -0.43070808, 5.491528, 7.8317084, -0.10976997, -0.15428972, 9.572994
517132246974077, -0.28115666, 6.3696938, 8.157132, 0.13984859, 0.33332157, 10.346989
517132256613660, -0.51086766, 5.0919266, 8.13799, -0.2664125, -0.6309719, 9.588872
517132266253347, -0.30029923, 6.502496, 8.426325, 0.121677786, 0.2915573, 10.643108
517132275892931, -0.49651068, 5.032106, 8.258827, -0.2511712, -0.74535465, 9.65185
517132285532514, -0.29312077, 6.431907, 8.303095, 0.12957466, 0.31479073, 10.50147
517132295172202, -0.3900301, 5.3826547, 8.120044, -0.094887435, -0.40129805, 9.7411585
517132304811785, -0.30269206, 6.0634127, 8.043473, 0.08563617, 0.17543697, 10.075513
517132314451368, -0.29192436, 5.889933, 7.8664045, 0.08192137, 0.13376617, 9.83017
517132324091056, -0.40677986, 5.593223, 7.696514, -0.061739326, 0.012812614, 9.522707
517132333730639, -0.25842485, 6.3864436, 7.795816, 0.18363068, 0.5617409, 10.063742
517132343370222, -0.44147578, 5.2103715, 7.6953177, -0.15402022, -0.2898693, 9.298013
517132353009910, -0.22372891, 6.631708, 8.007581, 0.24832648, 0.6262946, 10.37772
517132362649493, -0.46181476, 5.144569, 7.975278, -0.19733527, -0.50344753, 9.48644
517132372289077, -0.317049, 6.495317, 8.2456665, 0.110553, 0.3881812, 10.493701
517132381928764, -0.47856453, 5.3108697, 8.189436, -0.19789943, -0.4901905, 9.758166
517132391568347, -0.3924229, 6.0777693, 8.285149, -0.012521267, 0.056218147, 10.282684
517132401207931, -0.39840496, 5.790631, 8.209774, -0.05218208, -0.12844563, 10.053422
517132410847618, -0.39840496, 5.548956, 8.020741, -0.07033667, -0.21599722, 9.758602
517132420487202, -0.21894327, 6.250053, 7.9776707, 0.19636244, 0.34804296, 10.128901
517132430126785, -0.424726, 5.1792645, 7.7742805, -0.12840071, -0.3639469, 9.343215
517132439766472, -0.24646074, 6.5312095, 7.9633136, 0.19967031, 0.578043, 10.283861
517132449406056, -0.47736812, 5.0620165, 7.8293157, -0.20135725, -0.483253, 9.32073
517132459045639, -0.26919255, 6.5084777, 8.07458, 0.17810035, 0.5053091, 10.360722
517132468685327, -0.41156548, 5.328816, 8.038688, -0.11911374, -0.40224266, 9.644177
517132478324910, -0.31345975, 6.218946, 8.159525, 0.0874598, 0.2344718, 10.261032
517132487964493, -0.3589234, 5.7954164, 8.123632, -0.008167416, -0.07781935, 9.985138
517132497604181, -0.4546363, 5.669793, 8.080562, -0.118097216, -0.14405441, 9.87998
517132507243764, -0.30867413, 6.242874, 8.084151, 0.098475665, 0.2951374, 10.213984
517132516883347, -0.4223332, 5.229514, 7.899904, -0.13315594, -0.3976078, 9.474115
517132526523035, -0.23688944, 6.526424, 8.1020975, 0.20732793, 0.50243616, 10.392251
517132536162618, -0.50129634, 5.032106, 7.9298143, -0.23712894, -0.5566397, 9.385588
517132545802202, -0.29790643, 6.478567, 8.086544, 0.14135408, 0.48385286, 10.353681
517132555441785, -0.4977071, 5.2079782, 7.9920278, -0.21665302, -0.44911242, 9.539111
517132565081472, -0.3589234, 6.157929, 8.165507, 0.034124702, 0.18145084, 10.231831
517132574721056, -0.34576288, 5.6889358, 8.120044, -0.005699694, -0.16075563, 9.919313
517132584360639, -0.34097722, 5.727221, 8.048259, 0.0059134066, -0.092197895, 9.883485
517132594000327, -0.26799613, 6.2213387, 8.055437, 0.1411311, 0.2907858, 10.176565
517132603639910, -0.44027936, 5.278567, 7.9022965, -0.13901806, -0.35215187, 9.505791
517132613279493, -0.2739782, 6.552745, 8.098508, 0.17003378, 0.5262542, 10.406416
517132622919181, -0.465404, 5.113462, 7.920243, -0.18694663, -0.491745, 9.424308
517132632558764, -0.22851457, 6.541977, 8.075776, 0.20838168, 0.5229025, 10.380318
517132642198347, -0.4235296, 5.218746, 7.9166536, -0.13721839, -0.42019367, 9.481177
517132651838035, -0.28713873, 6.2775702, 8.036295, 0.12702549, 0.34589863, 10.194929
517132661477618, -0.36729828, 5.6327047, 8.020741, -0.032520443, -0.15607882, 9.806589
517132671117202, -0.37686956, 5.7284174, 8.012366, -0.028845668, -0.06961584, 9.856425
517132680756889, -0.2620141, 6.1268225, 8.0817585, 0.13216758, 0.19307995, 10.142321
517132690396472, -0.45942193, 5.279763, 8.002795, -0.1612944, -0.4147439, 9.588204
517132700036056, -0.25962126, 6.4534426, 8.212168, 0.16240421, 0.38858938, 10.439189
517132709675639, -0.50129634, 5.081159, 7.999206, -0.23168883, -0.564136, 9.47021
517132719315327, -0.276371, 6.5778694, 8.111669, 0.16878143, 0.55011845, 10.431337
517132728954910, -0.46899325, 5.218746, 7.9154572, -0.17677939, -0.40004826, 9.4825325
517132738594493, -0.34097722, 6.364908, 8.003992, 0.08131173, 0.43996525, 10.222134
517132748234181, -0.40797627, 5.6004014, 7.958528, -0.07115936, -0.1393919, 9.738819
517132757873764, -0.37208393, 5.8337016, 8.029117, -0.011439025, 0.002049923, 9.931621
517132767513347, -0.27876383, 6.0370917, 8.112865, 0.10128632, 0.10995436, 10.115356
517132777153035, -0.40079778, 5.2642097, 7.999206, -0.10388443, -0.42926455, 9.574175
517132786792618, -0.22851457, 6.431907, 8.209774, 0.19328961, 0.3699026, 10.423429
517132796432202, -0.4438686, 5.0715876, 8.04108, -0.17264503, -0.59632635, 9.496924
517132806071785, -0.24765715, 6.580262, 8.16431, 0.19214088, 0.5200925, 10.474241
517132815711472, -0.44745782, 5.1756754, 7.873583, -0.15616372, -0.41272068, 9.422654
517132825351056, -0.26799613, 6.3804617, 7.9477606, 0.1630184, 0.47595024, 10.18312
517132834990639, -0.35413775, 5.5740805, 7.9130645, -0.017772406, -0.13142633, 9.68477
517132844630327, -0.33499518, 5.9246287, 7.9860454, 0.03477332, 0.096777916, 9.948859
517132854269910, -0.32063824, 6.084948, 8.082955, 0.0655593, 0.17007971, 10.120789
517132863909493, -0.4426722, 5.4352965, 8.003992, -0.12938908, -0.29015255, 9.679948
517132873549077, -0.22372891, 6.4474607, 8.128419, 0.19857258, 0.42292643, 10.366904
517132883188764, -0.49651068, 5.0955157, 7.9429746, -0.21758324, -0.5142236, 9.433445
517132892828347, -0.33020952, 6.539584, 8.112865, 0.11853221, 0.5259943, 10.411681
517132902467931, -0.55034924, 5.042874, 7.9429746, -0.27568328, -0.55182695, 9.404456
517132912107618, -0.29192436, 6.2979093, 7.999206, 0.14002436, 0.4016471, 10.17621
517132921747202, -0.48933223, 5.3790655, 7.9346, -0.16113994, -0.2750373, 9.59323
517132931386785, -0.4235296, 5.9114685, 8.143971, -0.038134247, 0.031593323, 10.072073
517132941026472, -0.33379877, 5.959325, 8.289934, 0.050705522, -0.026401043, 10.214926
517132950666056, -0.39840496, 5.454439, 8.177471, -0.0672853, -0.3557496, 9.831051
517132960305639, -0.23330021, 6.3924255, 8.322237, 0.20139092, 0.29163456, 10.490545
517132969945222, -0.4881358, 5.1254263, 8.072187, -0.19200996, -0.5542097, 9.556383
517132979584910, -0.28953153, 6.586244, 8.120044, 0.16224858, 0.5705247, 10.442495
517132989224493, -0.47976094, 5.0883374, 7.8592257, -0.18058813, -0.45542526, 9.362092
517132998864077, -0.27158538, 6.413961, 7.9310107, 0.16176428, 0.53210497, 10.188438
517133008503764, -0.43429732, 5.483153, 7.8281193, -0.090577796, -0.1353159, 9.565904
517133018143347, -0.41874397, 6.0119667, 7.9357963, -0.025918052, 0.21604347, 9.96236
517133027782931, -0.3900301, 5.8827543, 8.019546, -0.01284197, 0.057995796, 9.953317
517133037422514, -0.424726, 5.4293146, 8.023134, -0.08848481, -0.30644035, 9.691584
517133047062202, -0.23449662, 6.344569, 8.224132, 0.1830846, 0.29354858, 10.38389
517133056701785, -0.43070808, 5.13739, 8.105687, -0.12898065, -0.5823622, 9.587734
517133066341368, -0.22612174, 6.5635123, 8.336594, 0.20796147, 0.40225697, 10.603045
517133075981056, -0.45583272, 5.078766, 8.07458, -0.16904, -0.60502434, 9.529211
517133085620639, -0.26081768, 6.410372, 8.086544, 0.1681943, 0.4235978, 10.312388
517133095260222, -0.37208393, 5.460421, 7.948957, -0.051650584, -0.25009346, 9.647556
517133104899806, -0.3469593, 6.0693946, 7.948957, 0.0468522, 0.23417091, 10.004339
517133114539493, -0.3912265, 5.861219, 7.8783684, -0.018521488, 0.109621525, 9.82666
517133124179077, -0.40079778, 5.615955, 7.864012, -0.06190455, -0.07901621, 9.671204
517133133818660, -0.30867413, 6.367301, 7.9860454, 0.12368569, 0.4366846, 10.208266
517133143458347, -0.4881358, 5.0979085, 7.8556366, -0.2172854, -0.48131275, 9.362645
517133153097931, -0.23330021, 6.546763, 8.110473, 0.21691862, 0.49904394, 10.411446
517133162737514, -0.4953143, 5.09073, 8.025527, -0.23060757, -0.5772896, 9.4965
517133172377097, -0.36729828, 6.4905314, 8.215756, 0.062058717, 0.40528584, 10.468642
517133182016785, -0.4426722, 5.369494, 8.10449, -0.13918033, -0.4051385, 9.722483
517133191656368, -0.31106696, 6.181857, 8.17149, 0.08358005, 0.18714476, 10.249066
517133201295952, -0.29192436, 5.8887367, 8.029117, 0.075001776, 0.03337097, 9.961044
517133210935639, -0.34097722, 5.636294, 7.8077803, 0.0031951666, -0.04014969, 9.635552
517133220575222, -0.18664017, 6.2931237, 7.8424764, 0.23190418, 0.44160414, 10.044594
517133230214806, -0.33140594, 5.1960144, 7.7587276, -0.046778947, -0.3762331, 9.336087
517133239854389, -0.1268196, 6.570691, 8.060223, 0.3126813, 0.52770996, 10.381763
517133249494077, -0.37208393, 5.10748, 7.9968133, -0.1103344, -0.5788841, 9.477687
517133259133660, -0.28235307, 6.5048885, 8.221739, 0.15030599, 0.3895297, 10.479312
517133268773243, -0.5072784, 5.267799, 8.118847, -0.23572946, -0.4949708, 9.675856
517133278412827, -0.48095736, 6.1100726, 8.196614, -0.10155982, 0.12876797, 10.233372
517133288052514, -0.50129634, 5.6997037, 8.117651, -0.1677447, -0.14350986, 9.929022
517133297692097, -0.465404, 5.898308, 8.082955, -0.1004459, 0.032499313, 10.016468
517133307331681, -0.43070808, 5.771488, 8.062616, -0.08200827, -0.06346798, 9.924244
517133316971264, -0.34337005, 5.8636117, 7.9836526, 0.021105021, 0.04210663, 9.911424
517133326610952, -0.30149564, 5.849255, 7.940582, 0.061883956, 0.048063755, 9.866681
517133336250535, -0.30508488, 5.9210396, 7.8927255, 0.06932092, 0.1345191, 9.870359
517133345890118, -0.31345975, 5.8767724, 7.8987074, 0.054931134, 0.09487152, 9.849482
517133355529806, -0.32422748, 5.881558, 7.925029, 0.0419558, 0.083100796, 9.87397
517133365169389, -0.36490545, 5.84088, 7.982456, -0.0076792836, 0.022017002, 9.897884
517133374808972, -0.39361933, 5.8564334, 8.092526, -0.03895694, -0.024731636, 9.996979
517133384448556, -0.41635114, 5.825327, 8.1738825, -0.068594486, -0.09169102, 10.045249
517133394088243, -0.39361933, 5.7966127, 8.207381, -0.04754266, -0.13568592, 10.054655
517133403727827, -0.30987054, 5.7966127, 8.203793, 0.034947604, -0.14282084, 10.048749
517133413367410, -0.28594232, 5.8169518, 8.12124, 0.06456101, -0.0791378, 9.993137
517133423006993, -0.30508488, 5.8073807, 7.987242, 0.049622566, -0.0075922012, 9.879892
517133432646681, -0.37088752, 5.790631, 7.9166536, -0.01515606, 0.027524948, 9.815365
517133442286264, -0.40677986, 5.837291, 7.9106717, -0.046144947, 0.06782055, 9.839279
517133451925847, -0.3804588, 5.8396835, 7.946564, -0.020709887, 0.046092987, 9.868737
517133461565535, -0.36131623, 5.837291, 7.993224, -0.0026878715, 0.013683796, 9.904339
517133471205118, -0.35533416, 5.84088, 8.07458, 0.001391083, -0.03190708, 9.971957
517133480844702, -0.35174492, 5.851648, 8.130812, 0.0035117269, -0.05597925, 10.023595
517133490484285, -0.32422748, 5.8707905, 8.126026, 0.033242688, -0.03888607, 10.030003
517133500123972, -0.2943172, 5.8839507, 8.086544, 0.0650184, -0.0063648224, 10.00477
517133509763556, -0.29671, 5.869594, 8.000402, 0.06192693, 0.030899048, 9.926825
517133519403139, -0.32422748, 5.8624153, 7.921439, 0.035867035, 0.07218218, 9.859805
517133529042722, -0.38165522, 5.844469, 7.861619, -0.02126415, 0.09859276, 9.8029785
517133538682410, -0.43788654, 5.812166, 7.908279, -0.08135046, 0.049029827, 9.82369
517133548321993, -0.45702913, 5.790631, 8.005188, -0.10476394, -0.024008274, 9.889983
517133557961577, -0.424726, 5.8157554, 8.12124, -0.071318865, -0.07172632, 9.997386
517133567601264, -0.4103691, 5.8683977, 8.243274, -0.05540061, -0.101044655, 10.12644
517133577240847, -0.41754755, 5.8803616, 8.232507, -0.059814066, -0.085152626, 10.125035
517133586880431, -0.32063824, 5.8624153, 8.147561, 0.038530484, -0.06258917, 10.042315
517133596520014, -0.29312077, 5.8504515, 8.01117, 0.068773955, 0.0056290627, 9.924102
517133606159702, -0.276371, 5.8540406, 7.867601, 0.090350956, 0.08676481, 9.80967
517133615799285, -0.2943172, 5.85763, 7.7706914, 0.07541934, 0.1452303, 9.734236
517133625438868, -0.31226337, 5.84088, 7.789834, 0.053822517, 0.11925745, 9.740522
517133635078452, -0.36729828, 5.8133626, 7.8628154, -0.007959574, 0.05995798, 9.785208
517133644718139, -0.357727, 5.8337016, 7.9968133, -5.798042E-4, -4.0388107E-4, 9.905003
517133654357722, -0.35653058, 5.861219, 8.147561, -0.0016550124, -0.063444614, 10.042894
517133663997306, -0.38644084, 5.8432727, 8.224132, -0.037199616, -0.11627245, 10.095276
517133673636889, -0.38285163, 5.818148, 8.243274, -0.037243336, -0.14606333, 10.095855
517133683276577, -0.3900301, 5.814559, 8.199007, -0.04260674, -0.1215744, 10.058248
517133692916160, -0.38644084, 5.8169518, 8.0817585, -0.033964008, -0.0511508, 9.964804
517133702555743, -0.35174492, 5.8157554, 7.96451, 0.006009072, 0.0095620155, 9.868132
517133712195327, -0.31585258, 5.8241305, 7.9094753, 0.04466203, 0.04208851, 9.827324
517133721835014, -0.2943172, 5.9042897, 7.874779, 0.07625267, 0.12255573, 9.845738
517133731474597, -0.2835495, 5.9413786, 7.864012, 0.09169459, 0.15494299, 9.858532
517133741114181, -0.36251262, 5.9437714, 7.9226356, 0.0095513165, 0.1308136, 9.910136
517133750753764, -0.4139583, 5.9007006, 7.9657063, -0.048083484, 0.07728672, 9.921381
517133760393452, -0.42831525, 5.8672013, 8.005188, -0.066417545, 0.028523922, 9.93405
517133770033035, -0.44985065, 5.820541, 8.060223, -0.094024986, -0.03727722, 9.951785
517133779672618, -0.48095736, 5.7762737, 8.086544, -0.13121822, -0.08442688, 9.9480915
517133789312306, -0.43429732, 5.773881, 8.090134, -0.08113682, -0.09048557, 9.947956
517133798951889, -0.37806597, 5.7726846, 8.123632, -0.026722431, -0.11576843, 9.972267
517133808591472, -0.32662028, 5.7930236, 8.149954, 0.0253914, -0.121368885, 10.003608
517133818231056, -0.29192436, 5.8169518, 8.117651, 0.06309688, -0.085291386, 9.990354
517133827870639, -0.29072794, 5.8396835, 8.063812, 0.06971574, -0.035574913, 9.960191
517133837510327, -0.29312077, 5.851648, 8.013563, 0.06987825, 0.0033483505, 9.926732
517133847149910, -0.32662028, 5.845666, 7.952546, 0.037257075, 0.03793478, 9.8751545
517133856789493, -0.36370903, 5.8480587, 7.9034934, 0.0015516579, 0.07211876, 9.838297
517133866429181, -0.357727, 5.8935223, 7.925029, 0.01158458, 0.09423065, 9.882238
517133876068764, -0.36729828, 5.9066825, 7.969296, 0.0019617379, 0.07934761, 9.9260845
517133885708347, -0.40797627, 5.8911295, 8.009974, -0.041840494, 0.04747057, 9.951259
517133895347931, -0.4019942, 5.858826, 8.072187, -0.041736394, -0.016166687, 9.982267
517133904987514, -0.38644084, 5.8217373, 8.112865, -0.031644166, -0.071003914, 9.992722
517133914627202, -0.35653058, 5.808577, 8.114061, -0.002516508, -0.08513594, 9.9848585
517133924266785, -0.32422748, 5.8301125, 8.0614195, 0.03339079, -0.04038763, 9.953848
517133933906368, -0.3278167, 5.814559, 8.021938, 0.029533207, -0.02917099, 9.912938
517133943545952, -0.32662028, 5.84088, 7.9573317, 0.03533435, 0.028235912, 9.876217
517133953185639, -0.35174492, 5.8480587, 7.926225, 0.011768252, 0.053544044, 9.856246
517133962825222, -0.38763726, 5.8468623, 7.920243, -0.023923308, 0.05983925, 9.852013
517133972464806, -0.4103691, 5.832505, 7.9094753, -0.0474768, 0.056725502, 9.835693
517133982104389, -0.4331009, 5.852844, 8.047063, -0.0714449, -0.0033693314, 9.959592
517133991744077, -0.4331009, 5.8564334, 8.159525, -0.075939566, -0.06599808, 10.052518
517134001383660, -0.37686956, 5.869594, 8.160722, -0.01708135, -0.06017542, 10.059205
517134011023243, -0.31226337, 5.8468623, 8.157132, 0.04459551, -0.08452463, 10.0405655
517134020662827, -0.33260235, 5.8301125, 8.099705, 0.024543285, -0.06163168, 9.985071
517134030302514, -0.35174492, 5.8061843, 7.9740815, 0.0068918467, -0.006552696, 9.870228
517134039942097, -0.35533416, 5.79422, 7.9154572, 0.0045782328, 0.018824577, 9.815974
517134049581681, -0.35533416, 5.8241305, 7.9310107, 0.0071056485, 0.030763626, 9.846151
517134059221264, -0.3696911, 5.8731833, 7.920243, -5.2925944E-4, 0.07812643, 9.866868
517134068860952, -0.38644084, 5.8911295, 7.948957, -0.017220914, 0.07679796, 9.901236
517134078500535, -0.38883367, 5.8827543, 8.026724, -0.023940831, 0.024487495, 9.959171
517134088140118, -0.35413775, 5.899504, 8.045866, 0.011815667, 0.022539616, 9.98323
517134097779702, -0.32542387, 5.9042897, 8.062616, 0.040310115, 0.01291132, 9.998527
517134107419389, -0.3278167, 5.8683977, 8.073383, 0.0334633, -0.021227837, 9.986165
517134117058972, -0.33499518, 5.844469, 8.04467, 0.023949921, -0.023335457, 9.949152
517134126698556, -0.35653058, 5.8217373, 8.032705, -8.98242E-5, -0.03259325, 9.926884
517134136338139, -0.36370903, 5.8037915, 8.031509, -0.009279162, -0.0460639, 9.915606
517134145977722, -0.38763726, 5.79422, 8.005188, -0.032405615, -0.035966396, 9.889587
517134155617410, -0.4127619, 5.770292, 7.9920278, -0.05886671, -0.044386864, 9.865786
517134165256993, -0.40438703, 5.808577, 7.987242, -0.04501459, -0.011506557, 9.884179
517134174896577, -0.37806597, 5.855237, 8.014759, -0.01467213, 0.006857395, 9.932918
517134184536160, -0.35174492, 5.8839507, 8.02792, 0.01486519, 0.020040512, 9.959492
517134194175847, -0.32542387, 5.899504, 8.067402, 0.041088343, 0.0058293343, 9.999566
517134203815431, -0.3397808, 5.9318075, 8.0817585, 0.029587597, 0.025245667, 10.03071
517134213455014, -0.34097722, 5.9007006, 8.04467, 0.025330633, 0.02177763, 9.9824915
517134223094597, -0.34337005, 5.8624153, 8.023134, 0.018801987, 0.0021910667, 9.942643
517134232734181, -0.38404804, 5.828916, 7.96451, -0.023372144, 0.009936333, 9.877071
517134242373868, -0.38165522, 5.7954164, 7.893922, -0.022009343, 0.024447918, 9.800277
517134252013452, -0.3804588, 5.8061843, 7.87119, -0.018679768, 0.043769836, 9.788252
517134261653035, -0.39720857, 5.8169518, 7.8867435, -0.034564197, 0.04564333, 9.80776