timestamp_acc,device_acc_x,device_acc_y,device_acc_z,earth_acc_x,earth_acc_y,earth_acc_z
517311948728643, 0.5515456, 5.6374903, 8.325827, 0.046811104, 0.084503174, 10.069536
517311958368435, 0.56829536, 5.6004014, 8.208578, 0.07974267, 0.100948334, 9.952471
517311968008227, 0.6221339, 5.562116, 8.182257, 0.12649643, 0.0655117, 9.912276
517311977647914, 0.59581286, 5.508278, 8.196614, 0.082335114, 0.020076275, 9.893101
517311987287706, 0.54675996, 5.4125648, 8.155936, 0.021258712, -0.018733501, 9.80374
517311996927498, 0.5371887, 5.363512, 8.129615, 0.0059634447, -0.042670727, 9.754212
517312006567289, 0.5132605, 5.407779, 8.0817585, 0.0023434162, 0.022348404, 9.73765
517312016207081, 0.48215377, 5.45085, 8.151151, -0.03207755, 0.031266212, 9.817509
517312025846873, 0.46301118, 5.503492, 8.199007, -0.048069477, 0.058223724, 9.885385
517312035486560, 0.47018966, 5.5334024, 8.213364, -0.036797047, 0.07259989, 9.914249
517312045126352, 0.54317075, 5.5477595, 8.311469, 0.018810272, 0.01877737, 10.007622
517312054766143, 0.5778667, 5.582455, 8.46461, 0.026988626, -0.038078308, 10.156041
517312064405935, 0.56350976, 5.619544, 8.525627, 0.008937955, -0.03477192, 10.226528
517312074045727, 0.5982057, 5.686543, 8.484949, 0.07216883, 0.031703472, 10.231461
517312083685518, 0.6053841, 5.6327047, 8.462217, 0.070055604, -0.00488472, 10.183224
517312093325310, 0.5766702, 5.477171, 8.397611, 0.01816094, -0.08642721, 10.042112
517312102964998, 0.4534399, 5.38744, 8.230113, -0.08345008, -0.036657333, 9.846653
517312112604789, 0.34456646, 5.285745, 7.98126, -0.1532712, 0.034708023, 9.577769
517312122244581, 0.28115666, 5.2283173, 7.8592257, -0.19996679, 0.07199621, 9.441219
517312131884373, 0.30508488, 5.194818, 7.962117, -0.20637405, -0.01801014, 9.509555
517312141524164, 0.46660042, 5.3407803, 8.175078, -0.06349146, -0.062203407, 9.775769
517312151163956, 0.6855437, 5.5896335, 8.426325, 0.15161133, -0.05737114, 10.13364
517312160803643, 0.7465607, 5.7607207, 8.688339, 0.19524145, -0.06295204, 10.449326
517312170443435, 0.75254273, 5.832505, 8.803194, 0.19217134, -0.05600643, 10.584924
517312180083227, 0.64247286, 5.71765, 8.721839, 0.07510793, -0.06655693, 10.448191
517312189723018, 0.48215377, 5.5477595, 8.4705925, -0.06584644, -0.033027172, 10.136845
517312199362810, 0.357727, 5.380262, 8.068598, -0.13807356, 0.064843655, 9.703308
517312209002602, 0.25004998, 5.2630134, 7.6713896, -0.18291795, 0.20771456, 9.302443
517312218642393, 0.34337005, 5.1924253, 7.5553374, -0.08521664, 0.17153263, 9.172003
517312228282081, 0.4881358, 5.2737813, 7.816155, 0.014913082, 0.05100894, 9.441425
517312237921873, 0.6723832, 5.454439, 8.190632, 0.14527047, -0.048192978, 9.862355
517312247561664, 0.74895346, 5.6530433, 8.545966, 0.18552351, -0.084460735, 10.271797
517312257201456, 0.72382885, 5.7284174, 8.803194, 0.12069845, -0.13796282, 10.526221
517312266841248, 0.6376872, 5.716453, 8.841479, 0.027947903, -0.13762236, 10.546873
517312276481039, 0.54317075, 5.6530433, 8.672786, -0.0397985, -0.07002783, 10.366421
517312286120831, 0.54317075, 5.5501523, 8.355737, 0.0065723658, 6.785393E-4, 10.045773
517312295760518, 0.5168497, 5.501099, 8.073383, 0.03548062, 0.11295271, 9.782369
517312305400310, 0.44985065, 5.456832, 7.969296, -0.015262961, 0.14011359, 9.667947
517312315040102, 0.3792624, 5.3946185, 8.04108, -0.11594117, 0.07728815, 9.689444
517312324679893, 0.3589234, 5.3886366, 8.09133, -0.14894986, 0.05418539, 9.726805
517312334319685, 0.40558344, 5.4173503, 8.031509, -0.08174741, 0.08832598, 9.695506
517312343959477, 0.40677986, 5.477171, 7.962117, -0.043575525, 0.16910791, 9.671075
517312353599268, 0.46660042, 5.471189, 7.9633136, 0.013686299, 0.14340186, 9.671879
517312363238956, 0.5096712, 5.48076, 8.073383, 0.02862227, 0.08066559, 9.77091
517312372878748, 0.6041877, 5.493921, 8.240881, 0.08404577, -0.02111864, 9.92234
517312382518539, 0.73459655, 5.554938, 8.4705925, 0.17045093, -0.114408016, 10.1541
517312392158331, 0.78364944, 5.569295, 8.733803, 0.15536666, -0.24427414, 10.383963
517312401798123, 0.70348984, 5.581259, 8.816355, 0.06437993, -0.24919271, 10.455009
517312411437914, 0.55393845, 5.5860443, 8.62134, -0.03338337, -0.08893728, 10.287333
517312421077706, 0.45583272, 5.515456, 8.38804, -0.089442134, 0.004840851, 10.048843
517312430717393, 0.41635114, 5.4388857, 8.315059, -0.12563753, -0.009445667, 9.9438
517312440357185, 0.38644084, 5.389833, 8.257631, -0.15150988, -0.010814667, 9.8673725
517312449996977, 0.33499518, 5.377869, 8.115258, -0.16761684, 0.06461668, 9.739552
517312459636768, 0.33140594, 5.359923, 8.021938, -0.15403104, 0.09857988, 9.65177
517312469276560, 0.3900301, 5.3826547, 8.049456, -0.09822273, 0.07835579, 9.690359
517312478916352, 0.5240282, 5.4388857, 8.169097, 0.011866093, 0.012449741, 9.828018
517312488556039, 0.6580262, 5.5106707, 8.309076, 0.11918771, -0.048892498, 9.991228
517312498195831, 0.7262217, 5.552545, 8.35454, 0.17814684, -0.062128544, 10.055888
517312507835623, 0.7429714, 5.5980086, 8.446664, 0.1795795, -0.07729292, 10.158624
517312517475414, 0.7298109, 5.6039906, 8.52802, 0.14534903, -0.10278797, 10.229017
517312527115206, 0.72263247, 5.6279187, 8.535198, 0.1434176, -0.08492994, 10.247806
517312536754998, 0.6269195, 5.6614184, 8.429914, 0.08699274, 0.031327248, 10.173475
517312546394789, 0.5288138, 5.6171513, 8.246863, 0.023086071, 0.11468172, 9.991452
517312556034477, 0.47138608, 5.528617, 8.001599, 0.0021935701, 0.18025303, 9.73555
517312565674268, 0.40079778, 5.4113684, 7.776674, -0.042550206, 0.21763897, 9.480033
517312575314060, 0.36610186, 5.3300123, 7.7204423, -0.08483744, 0.18750095, 9.3864765
517312584953852, 0.36131623, 5.3204412, 7.7994056, -0.10967064, 0.13985372, 9.446523
517312594593643, 0.45224348, 5.393422, 8.096115, -0.07277, 0.016818047, 9.738328
517312604233435, 0.5623133, 5.517849, 8.428718, -0.009568334, -0.07727003, 10.0896015
517312613873123, 0.6448657, 5.6482577, 8.7015, 0.03876412, -0.13904095, 10.392976
517312623512914, 0.7609176, 5.7320065, 8.857033, 0.13679338, -0.17813444, 10.57504
517312633152706, 0.7573284, 5.7248282, 8.860622, 0.13372278, -0.17129707, 10.574054
517312642792498, 0.6364908, 5.578866, 8.7015, 0.017752051, -0.1704979, 10.354496
517312652432289, 0.4869394, 5.369494, 8.415557, -0.11340642, -0.15263796, 9.992698
517312662072081, 0.36490545, 5.2642097, 7.975278, -0.15552521, 0.01832056, 9.561674
517312671711873, 0.29910284, 5.2666025, 7.6869426, -0.1510495, 0.17936587, 9.319907
517312681351560, 0.38165522, 5.2630134, 7.643872, -0.065187454, 0.16612768, 9.286653
517312690991352, 0.6113662, 5.3647084, 7.8352976, 0.13119149, 0.07423496, 9.514359
517312700631143, 0.75254273, 5.5405807, 8.176275, 0.22660363, 0.0022091866, 9.902751
517312710270935, 0.7501499, 5.749953, 8.530413, 0.19595599, -0.008919716, 10.312813
517312719910727, 0.63888365, 5.855237, 8.671589, 0.08388162, 0.05291748, 10.4823
517312729550518, 0.54317075, 5.7786665, 8.615358, -0.012300968, 0.05227518, 10.387953
517312739190206, 0.46660042, 5.6183476, 8.4502535, -0.08286166, 0.03451538, 10.157867
517312748829998, 0.36011982, 5.419743, 8.262417, -0.18527031, 0.006070614, 9.886177
517312758469789, 0.26799613, 5.279763, 8.055437, -0.25509, 0.019721985, 9.63184
517312768109581, 0.21894327, 5.1960144, 7.926225, -0.2928741, 0.035113335, 9.475471
517312777749373, 0.3062813, 5.1792645, 7.9190464, -0.21219635, -0.0066723824, 9.464925
517312787389164, 0.5024927, 5.3180485, 8.065009, -0.027555108, -0.039350033, 9.673481
517312797028852, 0.7513463, 5.5310097, 8.327023, 0.19646001, -0.09084129, 10.022427
517312806668643, 0.85184485, 5.7140603, 8.58784, 0.26435018, -0.10406256, 10.346323
517312816308435, 0.86859465, 5.773881, 8.738588, 0.25877643, -0.12939358, 10.505777
517312825948227, 0.78364944, 5.76431, 8.611769, 0.20901322, -0.040522575, 10.390313
517312835588018, 0.6556334, 5.6757755, 8.364112, 0.12505984, 0.060282707, 10.1283455
517312845227706, 0.50488555, 5.569295, 8.215756, -0.006281376, 0.09695768, 9.937865
517312854867498, 0.37686956, 5.407779, 8.055437, -0.1305741, 0.09596777, 9.708239
517312864507289, 0.37686956, 5.272585, 7.9094753, -0.13078332, 0.056413412, 9.512188
517312874147081, 0.47018966, 5.3072805, 7.8580294, -0.020412683, 0.07032466, 9.493766
517312883786873, 0.6125626, 5.505885, 8.203793, 0.079728484, 0.0036702156, 9.898781
517312893426664, 0.7190432, 5.6279187, 8.603394, 0.1185621, -0.13769674, 10.304168
517312903066352, 0.7082755, 5.710471, 8.847462, 0.06664038, -0.1892376, 10.552177
517312912706143, 0.6436693, 5.65424, 8.754142, 0.008994818, -0.16180325, 10.439994
517312922345935, 0.54675996, 5.5465627, 8.449057, -0.031489015, -0.06676149, 10.121483
517312931985727, 0.43429732, 5.4580283, 8.099705, -0.078998804, 0.077646255, 9.776074
517312941625518, 0.31345975, 5.380262, 7.759924, -0.13155115, 0.22048569, 9.444364
517312951265310, 0.25004998, 5.312066, 7.585248, -0.16282392, 0.26055336, 9.258626
517312960904998, 0.25962126, 5.2749777, 7.60439, -0.16572201, 0.21945834, 9.2544
517312970544789, 0.4031906, 5.3706903, 7.7994056, -0.050925493, 0.14357471, 9.477045
517312980184581, 0.58624154, 5.5740805, 8.075776, 0.10710895, 0.10431576, 9.82903
517312989824373, 0.7106683, 6.0227346, 8.4502535, 0.239928, 0.2405014, 10.395659
517312999464164, 0.6628119, 5.258228, 8.519645, -0.016051173, -0.3821864, 10.02628
517313009103852, 0.83988076, 6.3661046, 8.810373, 0.35848475, 0.30703974, 10.891857
517313018743643, 0.6580262, 4.8729835, 8.46102, -0.09882736, -0.64948654, 9.764028
517313028383435, 0.7896315, 6.3421764, 8.579466, 0.35922933, 0.41221428, 10.684334
517313038023227, 0.47018966, 4.851448, 8.163115, -0.22041094, -0.45565438, 9.494097
517313047663018, 0.47018966, 5.7858453, 8.087741, 0.030578732, 0.3241253, 9.950008
517313057302706, 0.28235307, 5.0572305, 7.8460655, -0.2671584, -0.07460165, 9.334833
517313066942498, 0.2009971, 5.1996036, 7.8592257, -0.31123102, 0.058826447, 9.420371
517313076582289, 0.4103691, 5.6949177, 8.222935, -0.07267177, 0.19930506, 10.008603
517313086222081, 0.39840496, 4.9399824, 8.26481, -0.2677722, -0.4093814, 9.624445
517313095861873, 0.6161518, 6.2727847, 8.788837, 0.14673257, 0.3134451, 10.809783
517313105501560, 0.48215377, 4.8382874, 8.58784, -0.28517914, -0.6702986, 9.841843
517313115141352, 0.7082755, 6.4474607, 8.775677, 0.28856182, 0.4498682, 10.899463
517313124781143, 0.526421, 5.0452666, 8.306684, -0.13465798, -0.36413264, 9.725334
517313134420935, 0.6520442, 6.141179, 8.333005, 0.26830006, 0.4291525, 10.359636
517313144060727, 0.57188463, 5.267799, 8.132008, 0.0030303001, -0.12655401, 9.705167
517313153700414, 0.587438, 5.3742795, 7.993224, 0.07500267, 0.008228302, 9.649553
517313163340206, 0.60658056, 5.6063833, 8.023134, 0.14266038, 0.15701866, 9.804345
517313172979998, 0.5599205, 4.8693943, 7.847262, -0.06506109, -0.3220682, 9.246408
517313182619789, 0.77407813, 6.1710896, 8.142776, 0.4219885, 0.47016525, 10.226789
517313192259477, 0.5180461, 4.772485, 8.006385, -0.17047954, -0.46116138, 9.3223095
517313201899268, 0.70947194, 6.3314085, 8.478967, 0.31505537, 0.4574933, 10.591242
517313211539060, 0.5778667, 4.8885365, 8.305488, -0.14068198, -0.5294132, 9.639127
517313221178852, 0.701097, 6.1363935, 8.444271, 0.26112795, 0.34366226, 10.4530525
517313230818643, 0.47856453, 5.282156, 8.287541, -0.13077617, -0.15983081, 9.837219
517313240458331, 0.44506502, 5.56092, 8.170293, -0.053865194, 0.1265893, 9.892254
517313250098123, 0.5072784, 5.7009, 8.2253275, 0.030375004, 0.18458414, 10.018912
517313259737914, 0.33379877, 4.975875, 8.109276, -0.30253756, -0.26815176, 9.51145
517313269377706, 0.485743, 6.0801625, 8.433503, 0.065900326, 0.3881402, 10.400639
517313279017393, 0.3278167, 4.671986, 8.152347, -0.38505936, -0.53923917, 9.378519
517313288657185, 0.6089734, 6.250053, 8.535198, 0.19621205, 0.43164062, 10.585783
517313298296977, 0.41635114, 4.7569313, 8.322237, -0.32620382, -0.5846498, 9.571476
517313307936768, 0.5371887, 6.0777693, 8.488539, 0.0931375, 0.34343195, 10.447801
517313317576560, 0.38883367, 5.139783, 8.213364, -0.22072518, -0.21021557, 9.692007
517313327216248, 0.43908295, 5.569295, 8.026724, -0.01873517, 0.19943476, 9.777423
517313336856039, 0.573081, 5.621937, 8.050652, 0.11895239, 0.18636799, 9.833551
517313346495831, 0.57547385, 5.029713, 7.9226356, -0.0041406155, -0.22355461, 9.399326
517313356135623, 0.7728817, 6.128019, 8.325827, 0.36071002, 0.38447094, 10.35333
517313365775310, 0.6197411, 4.847859, 8.206185, -0.096298575, -0.5217087, 9.536554
517313375415102, 0.7848458, 6.442675, 8.622537, 0.3815353, 0.48670387, 10.774495
517313385054893, 0.5240282, 4.883751, 8.422736, -0.22161603, -0.5646119, 9.731404
517313394694685, 0.61854464, 6.175875, 8.535198, 0.1789037, 0.3785944, 10.545061
517313404334373, 0.4127619, 5.0859447, 8.315059, -0.24366093, -0.30295205, 9.748142
517313413974164, 0.3385844, 5.517849, 8.218149, -0.1800543, 0.10104418, 9.902355
517313423613956, 0.27876383, 5.3850474, 8.087741, -0.240731, 0.076049805, 9.717215
517313433253748, 0.23449662, 4.863412, 7.810173, -0.35546982, -0.18282747, 9.194932
517313442893435, 0.4881358, 5.881558, 8.140383, 0.071692705, 0.36496973, 10.04781
517313452533227, 0.5347959, 4.733003, 8.10449, -0.18413603, -0.5374336, 9.383355
517313462173018, 0.9176475, 6.4498534, 8.656036, 0.50867105, 0.38754034, 10.814838
517313471812810, 0.76689965, 4.999803, 8.545966, -0.017413616, -0.62096095, 9.911298
517313481452498, 0.85184485, 6.3828545, 8.787642, 0.3811438, 0.30783653, 10.883431
517313491092289, 0.5312066, 5.2008, 8.437093, -0.15475011, -0.31784487, 9.919178
517313500732081, 0.47258246, 5.808577, 8.268398, -0.008462667, 0.25398302, 10.112603
517313510371873, 0.4223332, 5.5393844, 8.09133, -0.08907962, 0.1359458, 9.813581
517313520011560, 0.38285163, 5.066802, 7.751549, -0.16794527, -0.0585227, 9.266819
517313529651352, 0.61734825, 5.916254, 7.908279, 0.23495197, 0.4471712, 9.882757
517313539291143, 0.58983076, 4.800002, 7.793423, -0.04903066, -0.36643267, 9.164535
517313548930831, 0.89371926, 6.4259253, 8.353344, 0.50086653, 0.5307851, 10.551635
517313558570623, 0.7106683, 4.9375896, 8.157132, 0.004121423, -0.49071813, 9.548969
517313568210414, 0.7920243, 6.391229, 8.390432, 0.3805772, 0.5150142, 10.55767
517313577850206, 0.51206404, 5.1290154, 8.195417, -0.1404624, -0.28534508, 9.676401
517313587489893, 0.51206404, 5.861219, 8.176275, 0.0345819, 0.30066204, 10.068563
517313597129685, 0.45583272, 5.5250273, 8.013563, -0.050955176, 0.14152908, 9.743114
517313606769477, 0.3469593, 5.2283173, 7.77787, -0.17052853, 0.058714867, 9.376483
517313616409268, 0.47377887, 5.8863435, 7.9920278, 0.06748116, 0.43001223, 9.927565
517313626048956, 0.42951167, 4.699504, 7.8891363, -0.23589087, -0.4411652, 9.179215
517313635688748, 0.74895346, 6.222535, 8.484949, 0.31511998, 0.36691523, 10.537615
517313645328539, 0.57547385, 4.7676992, 8.5423765, -0.24339294, -0.74829555, 9.768067
517313654968227, 0.75972116, 6.3110695, 8.995817, 0.21651053, 0.17863321, 11.011481
517313664608018, 0.567099, 5.078766, 8.72782, -0.233176, -0.5757139, 10.094775
517313674247810, 0.5982057, 5.973682, 8.595019, 0.07627964, 0.18164253, 10.482284
517313683887602, 0.48454657, 5.491528, 8.271988, -0.07440567, -0.0010967255, 9.940417
517313693527289, 0.36729828, 5.235496, 7.8987074, -0.16205323, 0.026758432, 9.48198
517313703167081, 0.424726, 5.7667027, 7.9633136, 0.027499557, 0.37925386, 9.833871
517313712806873, 0.34097722, 4.7078786, 7.664211, -0.26058137, -0.28615737, 8.992815
517313722446560, 0.59581286, 6.186643, 8.000402, 0.28576243, 0.62292767, 10.107734
517313732086352, 0.42831525, 4.7007003, 7.8891363, -0.2381301, -0.422503, 9.1805935
517313741726143, 0.6556334, 6.2727847, 8.438289, 0.26121306, 0.45317554, 10.521826
517313751365935, 0.526421, 5.0069814, 8.514859, -0.22149992, -0.51710725, 9.875897
517313761005623, 0.66400826, 5.9916277, 8.671589, 0.14046168, 0.12695694, 10.559409
517313770645414, 0.5802595, 5.432904, 8.507681, -0.044909477, -0.1940074, 10.109111
517313780285206, 0.53359944, 5.352744, 8.287541, -0.055891514, -0.13005829, 9.879268
517313789924893, 0.5814559, 5.8743796, 8.340183, 0.12523174, 0.23137188, 10.214494
517313799564685, 0.44626144, 4.875376, 7.98126, -0.20041585, -0.3276527, 9.3552885
517313809204477, 0.58504516, 6.1698933, 8.246863, 0.22615337, 0.5059018, 10.301141
517313818844164, 0.3792624, 4.5451665, 8.014759, -0.3609718, -0.5762689, 9.196539
517313828483956, 0.5814559, 6.084948, 8.293523, 0.18220711, 0.40842724, 10.293066
517313838123748, 0.45942193, 4.7808595, 8.215756, -0.26834393, -0.5305855, 9.498043
517313847763539, 0.69152576, 6.047859, 8.580662, 0.19449055, 0.21155071, 10.516653
517313857403227, 0.64606214, 5.5597234, 8.563912, 0.029421806, -0.15147209, 10.229599
517313867043018, 0.634098, 5.6470613, 8.438289, 0.072279215, -0.012835026, 10.1730385
517313876682810, 0.6472585, 5.918647, 8.506484, 0.1418159, 0.16593218, 10.380844
517313886322498, 0.4031906, 4.843073, 8.155936, -0.28679657, -0.42403126, 9.48025
517313895962289, 0.50368917, 6.029913, 8.256434, 0.09566212, 0.42009258, 10.22725
517313905602081, 0.2656033, 4.5044885, 7.793423, -0.4133128, -0.47031355, 8.983672
517313915241768, 0.5312066, 6.09093, 8.060223, 0.17953491, 0.54570246, 10.100434
517313924881560, 0.5312066, 4.753342, 7.9860454, -0.15456915, -0.47454953, 9.295389
517313934521352, 0.83988076, 6.108876, 8.402397, 0.3917384, 0.27029657, 10.411414
517313944161039, 0.77407813, 5.562116, 8.499306, 0.15913713, -0.17046261, 10.184309
517313953800831, 0.7812566, 5.797809, 8.477771, 0.23087752, 0.023571014, 10.29775
517313963440623, 0.73579293, 6.0107703, 8.478967, 0.24457645, 0.2118144, 10.414362
517313973080414, 0.4331009, 5.1003013, 8.126026, -0.19309294, -0.22477555, 9.599227
517313982720102, 0.4331009, 6.1902323, 8.219346, 0.08126593, 0.5769949, 10.282249
517313992359893, 0.1268196, 4.642076, 7.698907, -0.49180567, -0.2724452, 8.973406
517314001999685, 0.3290131, 6.101698, 7.7180495, 0.08516765, 0.7788756, 9.812918
517314011639373, 0.20937198, 4.564309, 7.460821, -0.37545717, -0.26014566, 8.736815
517314021279164, 0.5587241, 5.864808, 7.8699937, 0.20181584, 0.4407289, 9.818859
517314030918956, 0.68075806, 5.1816573, 8.143971, 0.05947435, -0.27612615, 9.672513
517314040558643, 0.8542377, 5.71765, 8.506484, 0.28213048, -0.07202339, 10.280891
517314050198435, 0.93559366, 5.985646, 8.8701935, 0.34371758, -0.0660162, 10.735973
517314059838227, 0.8350951, 5.316852, 8.822337, 0.086256504, -0.52441025, 10.32073
517314069477914, 0.87218386, 6.343373, 9.044869, 0.35274673, 0.17395496, 11.074929
517314079117706, 0.47018966, 4.733003, 8.502895, -0.316136, -0.69417405, 9.712869
517314088757498, 0.4103691, 6.07418, 8.386844, 0.0140987635, 0.4440999, 10.354023
517314098397185, 0.016749758, 4.447061, 7.7946196, -0.64699626, -0.40905452, 8.941298
517314108036977, 0.12562318, 5.7009, 7.9094753, -0.22620106, 0.478328, 9.736319
517314117676768, 0.2428715, 4.8598228, 7.9477606, -0.3640865, -0.24524307, 9.308657
517314127316456, 0.49172506, 5.4496536, 8.188239, -0.028144836, 0.007810116, 9.848195
517314136956248, 0.51445687, 5.599205, 8.5938225, -0.07400751, -0.07644606, 10.269285
517314146596039, 0.39960137, 5.0715876, 8.538788, -0.31511807, -0.42036343, 9.925501
517314156235727, 0.5922236, 6.111269, 8.715857, 0.11617327, 0.23782063, 10.658071
517314165875518, 0.51086766, 4.8155556, 8.365308, -0.24289238, -0.56782675, 9.646114
517314175515310, 0.782453, 6.3493547, 8.627322, 0.36899686, 0.41073608, 10.726247
517314185154998, 0.59342, 4.7892346, 8.2660055, -0.14030814, -0.57234335, 9.553455
517314194794789, 0.6771688, 6.1399827, 8.268398, 0.29521525, 0.45749807, 10.306692
517314204434581, 0.50368917, 5.089534, 8.056634, -0.097471476, -0.21039152, 9.540053
517314214074268, 0.4953143, 5.615955, 8.111669, 0.015482187, 0.17664385, 9.876842
517314223714060, 0.4869394, 5.51426, 8.135597, -0.023703218, 0.08696079, 9.839918
517314233353852, 0.42951167, 5.072784, 7.9166536, -0.14698434, -0.1357286, 9.410154
517314242993539, 0.59940207, 6.04427, 8.116454, 0.20952189, 0.46764803, 10.124561
517314252633331, 0.43669012, 4.853841, 7.8233337, -0.18011665, -0.26970434, 9.211399
517314262273123, 0.6939186, 6.4977098, 8.153543, 0.40240455, 0.776556, 10.412352
517314271912810, 0.5922236, 4.9316072, 8.0817585, -0.07875812, -0.38668823, 9.477899
517314281552602, 0.8985049, 6.262017, 8.548359, 0.44068015, 0.33486938, 10.620183
517314291192393, 0.74416786, 5.0823555, 8.549556, -0.0026807785, -0.5427203, 9.95914
517314300832081, 0.75254273, 5.7463636, 8.712267, 0.1451385, -0.09466219, 10.462343
517314310471873, 0.66041905, 5.548956, 8.707481, 0.013645411, -0.21517324, 10.34412
517314320111664, 0.56590253, 5.1673007, 8.260024, -0.069370985, -0.26809788, 9.755643
517314329751352, 0.6843473, 5.99761, 8.114061, 0.29009926, 0.42238998, 10.100252
517314339391143, 0.38404804, 4.755735, 7.6594253, -0.20813656, -0.23068237, 9.01858
517314349030935, 0.43788654, 6.195018, 7.9274216, 0.17635119, 0.7448735, 10.041317
517314358670623, 0.23569304, 4.634897, 7.746763, -0.3972125, -0.3079431, 9.016516
517314368310414, 0.506082, 6.212964, 8.260024, 0.17300153, 0.58011484, 10.330469
517314377950206, 0.31345975, 5.131408, 8.433503, -0.34732676, -0.27441, 9.866998
517314387589893, 0.29790643, 5.8396835, 8.788837, -0.24640489, 0.10984516, 10.552797
517314397229685, 0.26799613, 5.3240304, 8.769695, -0.4138323, -0.2659588, 10.250985
517314406869477, 0.29671, 4.9495535, 8.46102, -0.41587412, -0.41673756, 9.789197
517314416509164, 0.49651068, 5.649454, 8.40479, -0.01586771, 0.081216335, 10.138861
517314426148956, 0.4211368, 4.5092745, 7.984849, -0.31165004, -0.578094, 9.156277
517314435788748, 0.7728817, 6.064609, 8.208578, 0.39287472, 0.39554977, 10.219922
517314445428435, 0.62931234, 4.706682, 7.98126, -0.061522603, -0.5049236, 9.273115
517314455068227, 0.8662018, 6.407979, 8.414361, 0.5274205, 0.52467823, 10.585864
517314464708018, 0.7513463, 5.2701917, 8.32463, 0.11525202, -0.2629037, 9.87707
517314474347706, 0.7908279, 6.1842504, 8.482556, 0.37180328, 0.36419964, 10.514431
517314483987498, 0.69272214, 5.6590257, 8.478967, 0.13542151, -0.008033752, 10.2166
517314493627289, 0.4953143, 5.343173, 8.280363, -0.08776331, -0.085289955, 9.866321
517314503266977, 0.46061835, 5.7726846, 8.232507, 0.01733327, 0.2765236, 10.061483
517314512906768, 0.20817557, 4.5882373, 7.8257265, -0.4511546, -0.35773253, 9.055701
517314522546560, 0.41515473, 5.933004, 8.142776, 0.048220158, 0.45943308, 10.0729475
517314532186248, 0.35653058, 4.4111686, 8.085348, -0.427258, -0.67915916, 9.182297
517314541826039, 0.8039884, 6.0933228, 8.681161, 0.31610036, 0.1839571, 10.630322
517314551465831, 0.71665037, 4.9459643, 8.725428, -0.100655794, -0.69673514, 10.030636
517314561105518, 0.75254273, 6.068198, 8.926425, 0.20098305, 0.079904556, 10.817745
517314570745310, 0.60059845, 5.582455, 8.748159, -0.031239986, -0.15792227, 10.393695
517314580385102, 0.46899325, 5.5094743, 8.380861, -0.085844636, -5.221367E-4, 10.040205
517314590024789, 0.46899325, 5.8672013, 8.248059, 0.0455513, 0.348289, 10.126754
517314599664581, 0.26679972, 4.7222357, 7.7503524, -0.33988082, -0.24343562, 9.069944
517314609304373, 0.40079778, 5.9007006, 7.9429746, 0.05945635, 0.51576376, 9.889399
517314618944060, 0.21894327, 4.3609195, 7.7551384, -0.49243808, -0.53222084, 8.870287
517314628583852, 0.5383851, 6.09093, 8.2014, 0.17899561, 0.48508024, 10.216893
517314638223643, 0.4881358, 4.9088755, 8.295917, -0.22950363, -0.4610741, 9.638064
517314647863331, 0.7501499, 6.099305, 8.801998, 0.2226131, 0.13289022, 10.7318325
517314657503123, 0.7537391, 5.5405807, 8.87139, 0.05384636, -0.34199858, 10.480833
517314667142914, 0.7178468, 5.642276, 8.585447, 0.1181407, -0.103768826, 10.297367
517314676782602, 0.68195444, 5.973682, 8.289934, 0.24967504, 0.31311846, 10.232916
517314686422393, 0.4426722, 4.9435716, 7.6977105, -0.1111002, -0.13475418, 9.157461
517314696062185, 0.56470615, 6.087341, 7.780263, 0.2828046, 0.67664075, 9.867588
517314705701873, 0.3505485, 4.5284166, 7.4739814, -0.2642132, -0.3222108, 8.735915
517314715341664, 0.6149554, 6.111269, 7.921439, 0.29680777, 0.6082108, 10.000848
517314724981456, 0.51086766, 4.816752, 7.925029, -0.14762151, -0.37619615, 9.279269
517314734621143, 0.67836523, 6.1244297, 8.463413, 0.23788548, 0.33654118, 10.4608
517314744260935, 0.6161518, 5.377869, 8.752945, -0.10252786, -0.36948633, 10.284365
517314753900727, 0.6257231, 5.5860443, 8.819944, -0.039428473, -0.22465801, 10.456329
517314763540414, 0.66759753, 5.889933, 8.805588, 0.0869751, 0.0048499107, 10.614509
517314773180206, 0.5180461, 5.0512486, 8.544769, -0.2147466, -0.46738458, 9.926331
517314782819998, 0.5395815, 6.0658054, 8.640483, 0.06181383, 0.27547026, 10.567089
517314792459685, 0.26919255, 4.5020957, 8.05783, -0.48394346, -0.56817913, 9.203962
517314802099477, 0.4319045, 6.038288, 8.033902, 0.101753, 0.56917906, 10.042747
517314811739268, 0.21535404, 4.619344, 7.6713896, -0.4130485, -0.28731966, 8.943254
517314821378956, 0.46181476, 5.940182, 7.972885, 0.11441445, 0.50487876, 9.939716
517314831018748, 0.5240282, 5.144569, 8.106883, -0.09754467, -0.2043848, 9.613088
517314840658539, 0.66400826, 5.6350975, 8.348558, 0.109725714, 0.0050697327, 10.09364
517314850298227, 0.701097, 5.8863435, 8.547162, 0.16677737, 0.094910145, 10.399892
517314859938018, 0.6233303, 5.211568, 8.389236, -0.06362653, -0.31522322, 9.890644
517314869577810, 0.81954175, 6.2261243, 8.7266245, 0.33052635, 0.23968124, 10.743536
517314879217602, 0.6089734, 4.746164, 8.469396, -0.22550082, -0.7123027, 9.698936
517314888857289, 0.6963114, 6.2644095, 8.629715, 0.24843168, 0.35929155, 10.677492
517314898497081, 0.3361916, 4.6552362, 8.132008, -0.41939473, -0.51570654, 9.352644
517314908136873, 0.38524446, 5.912665, 8.190632, -0.03729582, 0.40788412, 10.100828
517314917776560, 0.27038896, 4.9064827, 7.999206, -0.3670678, -0.2519381, 9.377407
517314927416352, 0.41754755, 5.4676, 8.060223, -0.10439527, 0.10523462, 9.747524
517314937056143, 0.573081, 5.6446686, 8.187042, 0.053640604, 0.12248993, 9.959945
517314946695831, 0.5084748, 5.174479, 8.059027, -0.10251582, -0.15956974, 9.588834
517314956335623, 0.6987042, 6.2321067, 8.344969, 0.28976202, 0.4603858, 10.424487
517314965975414, 0.5515456, 4.8526444, 8.159525, -0.17833352, -0.471848, 9.496092
517314975629477, 0.8781659, 6.384051, 8.57468, 0.44460654, 0.40637684, 10.709325
517314985254893, 0.6879365, 4.822734, 8.391629, -0.10841131, -0.65866685, 9.68018
517314994894685, 0.79800636, 6.168697, 8.660822, 0.28813577, 0.2262311, 10.6567
517315004534373, 0.58624154, 5.113462, 8.46461, -0.15300286, -0.42735672, 9.896198
517315014174164, 0.57427746, 5.6733823, 8.374879, 0.015725613, 0.060195446, 10.131722
517315023813956, 0.56111693, 5.5968122, 8.29472, 0.006186247, 0.038966656, 10.021975
517315033453748, 0.48933223, 5.1385865, 8.114061, -0.14144206, -0.20795965, 9.613493
517315043093435, 0.5886344, 6.017949, 8.215756, 0.16795826, 0.39445353, 10.192009
517315052733227, 0.41874397, 4.7377887, 7.8436728, -0.24832106, -0.3735652, 9.162094
517315062373018, 0.6376872, 6.2979093, 8.100901, 0.3217659, 0.6373043, 10.255984
517315072012706, 0.32303107, 4.759324, 7.958528, -0.35888803, -0.3834846, 9.263791
517315081652498, 0.47856453, 6.09093, 8.336594, 0.051547766, 0.41590023, 10.327226
517315091292289, 0.36011982, 4.959125, 8.251649, -0.3442427, -0.3838644, 9.620108
517315100932081, 0.5371887, 5.7200427, 8.323434, 0.010531664, 0.11880398, 10.113001
517315110571768, 0.6089734, 5.541777, 8.319844, 0.029623032, -0.0448699, 10.014942
517315120211560, 0.6161518, 5.2223353, 8.146365, -0.0077329874, -0.20899725, 9.693913
517315129851352, 0.7800602, 6.0933228, 8.348558, 0.32546902, 0.31847906, 10.3551035
517315139491039, 0.6831509, 4.9196434, 8.152347, -0.023911476, -0.4693799, 9.534645
517315149130831, 0.9559326, 6.4666033, 8.52443, 0.5425339, 0.4621153, 10.718617
517315158770623, 0.63888365, 4.9028935, 8.322237, -0.11742687, -0.5477619, 9.663971
517315168410414, 0.67836523, 6.2919273, 8.538788, 0.23219037, 0.42340517, 10.617261
517315178050102, 0.36251262, 4.9842496, 8.199007, -0.32244217, -0.3344524, 9.590727
517315187689893, 0.35413775, 5.6877394, 8.05783, -0.10935068, 0.291389, 9.86446
517315197329685, 0.31585258, 5.328816, 7.9011, -0.20226514, 0.10172176, 9.53269
517315206969373, 0.29671, 5.1290154, 7.7407813, -0.22666669, 0.021905184, 9.287771
517315216609164, 0.5168497, 5.8803616, 8.008778, 0.11493063, 0.4102583, 9.940061
517315226248956, 0.5802595, 4.843073, 8.037491, -0.10442805, -0.44147658, 9.3908205
517315235888748, 0.8853444, 6.45105, 8.715857, 0.4460051, 0.37509298, 10.863997
517315245528435, 0.6795616, 4.995017, 8.721839, -0.13368058, -0.6828904, 10.049789
517315255168227, 0.83030945, 6.4414787, 8.962317, 0.32520652, 0.28696728, 11.059705
517315264808018, 0.5515456, 5.050052, 8.500503, -0.1869936, -0.46928144, 9.889923
517315274447706, 0.5407779, 5.8193445, 8.325827, 0.05397749, 0.21816015, 10.169863
517315284087498, 0.34097722, 5.2941203, 8.049456, -0.20698917, 0.011385918, 9.638192
517315293727289, 0.21535404, 5.06082, 7.832905, -0.3351028, -0.031440735, 9.321985
517315303367081, 0.33738798, 5.613562, 7.975278, -0.11050403, 0.285573, 9.753831
517315313006768, 0.22731815, 4.6229334, 7.826923, -0.43107486, -0.38731933, 9.074584
517315322646560, 0.53240305, 6.141179, 8.319844, 0.13167417, 0.47315264, 10.342928
517315332286352, 0.5312066, 4.7712884, 8.316256, -0.22054708, -0.6093111, 9.5805855
517315341926143, 0.89013004, 6.407979, 8.827123, 0.41378307, 0.33059835, 10.931244
517315351565831, 0.74416786, 5.150551, 8.724232, -0.013487458, -0.569854, 10.142448
517315361205623, 0.8171489, 6.1567326, 8.730213, 0.30703354, 0.19916916, 10.707743
517315370845414, 0.71665037, 5.582455, 8.372486, 0.14980018, -0.04116869, 10.087208
517315380485102, 0.6089734, 5.430511, 8.062616, 0.08080447, 0.023551464, 9.739612
517315390124893, 0.5802595, 5.773881, 8.100901, 0.1309135, 0.26942253, 9.960386
517315399764685, 0.36490545, 4.7629137, 7.757531, -0.26495814, -0.2810645, 9.10212
517315409404477, 0.5132605, 6.0897336, 7.995617, 0.18128705, 0.5840483, 10.045109
517315419044164, 0.3397808, 4.56072, 7.864012, -0.37934363, -0.48030162, 9.076548
517315428683956, 0.65324056, 6.1675005, 8.350951, 0.25618696, 0.40595007, 10.390994
517315438323748, 0.5455636, 4.85743, 8.333005, -0.21911299, -0.55393577, 9.6424265
517315447963539, 0.6831509, 6.0717874, 8.657232, 0.16864729, 0.18481493, 10.593317
517315457603227, 0.56829536, 5.4293146, 8.665607, -0.11398959, -0.27700996, 10.237354
517315467243018, 0.5515456, 5.5573306, 8.5423765, -0.06383133, -0.107132435, 10.205135
517315476882810, 0.65324056, 5.869594, 8.539984, 0.119205475, 0.10636711, 10.381938
517315486522602, 0.45583272, 4.944768, 8.149954, -0.21551752, -0.35962248, 9.534386
517315496162289, 0.5383851, 6.145965, 8.282756, 0.14640093, 0.48515844, 10.315521
517315505802081, 0.30149564, 4.615755, 7.9022965, -0.38099062, -0.46168184, 9.136963
517315515441873, 0.5024927, 6.1591253, 8.094919, 0.15621758, 0.59424496, 10.165506
517315525081664, 0.3924229, 4.7222357, 7.7994056, -0.24877536, -0.3524251, 9.115818
517315534721352, 0.587438, 5.977271, 8.04108, 0.20739615, 0.44653082, 10.024441
517315544361143, 0.53240305, 5.2666025, 8.124829, -0.050596, -0.13084126, 9.696069
517315554000935, 0.6472585, 5.5776696, 8.274381, 0.104611516, 0.015325069, 9.999178
517315563640727, 0.802792, 5.877969, 8.543573, 0.26436818, 0.06411457, 10.397772
517315573280518, 0.715454, 5.143372, 8.535198, -0.004076004, -0.476892, 9.979396
517315582920206, 0.80518484, 6.3158555, 8.924032, 0.2879498, 0.22349739, 10.956453
517315592559998, 0.4881358, 4.7808595, 8.499306, -0.3072002, -0.6648917, 9.736357
517315602199789, 0.5886344, 6.2201424, 8.493324, 0.15908468, 0.443573, 10.533335
517315611839581, 0.33260235, 4.638487, 7.9657063, -0.36705244, -0.47138667, 9.204441
517315621479268, 0.40677986, 5.8420763, 8.021938, -0.0015450716, 0.4268551, 9.922935
517315631119060, 0.2739782, 4.991428, 7.881958, -0.315454, -0.13015866, 9.327284
517315640758852, 0.38763726, 5.4341, 7.914261, -0.10216665, 0.1592331, 9.606218
517315650398643, 0.61734825, 5.6817575, 8.172686, 0.12047148, 0.15844679, 9.970791
517315660038331, 0.73818576, 5.206782, 8.2660055, 0.0927155, -0.3053019, 9.791862
517315669678123, 0.90448695, 6.428318, 8.803194, 0.43094087, 0.34565973, 10.923938
517315679317914, 0.6329016, 4.9974103, 8.632108, -0.13500953, -0.60481286, 9.975165
517315688957706, 0.77766734, 6.4031935, 8.703893, 0.33169866, 0.43104982, 10.8197775
517315698597498, 0.51086766, 4.7772703, 8.110473, -0.18227696, -0.4764235, 9.4129095
517315708237185, 0.54675996, 6.0119667, 8.145168, 0.15281701, 0.46847582, 10.126384
517315717876977, 0.34456646, 4.9674997, 7.941778, -0.25893378, -0.19289446, 9.368156
517315727516768, 0.41515473, 5.474778, 7.8927255, -0.051613808, 0.20264864, 9.612333
517315737156560, 0.53359944, 5.5166526, 8.049456, 0.033091426, 0.11370516, 9.772302
517315746796352, 0.52163535, 5.035695, 8.149954, -0.1293577, -0.31224346, 9.588422
517315756436039, 0.6879365, 6.1328044, 8.7577305, 0.168684, 0.19289827, 10.71059
517315766075831, 0.53240305, 4.8562336, 8.580662, -0.28686976, -0.65305877, 9.848119
517315775715623, 0.7118647, 6.3661046, 8.745767, 0.26203275, 0.386631, 10.830713
517315785355414, 0.44865423, 4.7485566, 8.2456665, -0.30181265, -0.54396915, 9.505478
517315794995206, 0.5300102, 6.0394845, 8.330612, 0.103919506, 0.40094852, 10.294846
517315804634893, 0.32303107, 4.9435716, 8.160722, -0.35010898, -0.31025243, 9.535293
517315814274685, 0.4749753, 5.593223, 8.158329, -0.033126473, 0.14715481, 9.901785
517315823914477, 0.68075806, 5.6075797, 8.267202, 0.13402963, 0.031362057, 10.011797
517315833554268, 0.782453, 5.345566, 8.365308, 0.1298325, -0.25979686, 9.95396
517315843194060, 0.92243314, 6.346962, 8.738588, 0.4329288, 0.3037572, 10.826728
517315852833748, 0.5886344, 4.932804, 8.420342, -0.1769284, -0.5483525, 9.759572
517315862473539, 0.654437, 6.303891, 8.5016985, 0.22558379, 0.47000313, 10.591244
517315872113331, 0.29790643, 4.662415, 7.908279, -0.38952732, -0.40633726, 9.167928
517315881753123, 0.4223332, 6.046663, 7.881958, 0.086164355, 0.648201, 9.9216
517315891392914, 0.2644069, 4.9112687, 7.5792656, -0.2846383, -0.053747177, 9.030605
517315901032602, 0.37208393, 5.6745787, 7.6666036, -0.013806462, 0.46478343, 9.534143
517315910672393, 0.5072784, 5.5094743, 7.9501534, 0.005941987, 0.1440816, 9.684823
517315920312185, 0.5694918, 5.276174, 8.191829, -0.05033493, -0.16682673, 9.758999
517315929951977, 0.74895346, 6.135197, 8.738588, 0.21281719, 0.1863985, 10.699741
517315939591768, 0.6795616, 4.910072, 8.567501, -0.1371088, -0.6652193, 9.874785
517315949231456, 0.87338024, 6.3828545, 8.738588, 0.39904666, 0.34683466, 10.843755
517315958871248, 0.60777694, 4.813163, 8.29472, -0.15907598, -0.57509065, 9.590738
517315968511039, 0.7262217, 6.1304116, 8.43111, 0.27191496, 0.35464478, 10.439984
517315978150831, 0.5288138, 5.178068, 8.224132, -0.11946952, -0.22324681, 9.729556
517315987790623, 0.5180461, 5.4640107, 8.222935, -0.047997713, 0.0046110153, 9.886259
517315997430414, 0.41994038, 5.3886366, 8.216953, -0.1553005, -0.018308163, 9.834003
517316007070102, 0.46301118, 5.430511, 8.257631, -0.11349034, -0.022835732, 9.893427
517316016709893, 0.49292147, 5.444868, 8.344969, -0.09890807, -0.0676651, 9.9756565
517316026349685, 0.47377887, 5.4759746, 8.427522, -0.12554109, -0.074352264, 10.060448
517316035989477, 0.42831525, 5.456832, 8.438289, -0.17544138, -0.08007479, 10.056242
517316045629268, 0.48454657, 5.440082, 8.415557, -0.11797726, -0.098481655, 10.031313
517316055269060, 0.5694918, 5.51426, 8.362915, -0.0061483383, -0.036657333, 10.033363
517316064908748, 0.573081, 5.54417, 8.328219, 0.01133883, 0.0040450096, 10.021246
517316074548539, 0.5706882, 5.5657053, 8.313862, 0.014353514, 0.027208805, 10.021084
517316084188331, 0.62093747, 5.601598, 8.2014, 0.09502709, 0.09616709, 9.950283
517316093828123, 0.65682983, 5.631508, 8.09133, 0.15886557, 0.16622353, 9.877352
517316103467914, 0.6269195, 5.6063833, 8.076973, 0.122754335, 0.15448618, 9.850033
517316113107706, 0.5910272, 5.528617, 8.100901, 0.06280947, 0.0861454, 9.824873
517316122747498, 0.5455636, 5.4867425, 8.001599, 0.03169048, 0.11738014, 9.716624
517316132387185, 0.5706882, 5.456832, 7.9716887, 0.056068182, 0.09800196, 9.6766615
517316142026977, 0.67118675, 5.477171, 8.23131, 0.09942734, -0.050853252, 9.909183
517316151666768, 0.7322037, 5.487939, 8.578269, 0.0807389, -0.23508549, 10.206787
517316161306560, 0.7716853, 5.5130634, 8.829515, 0.06470907, -0.3481598, 10.43189
517316170946352, 0.6867401, 5.54417, 8.7673025, 0.004361868, -0.25462866, 10.392794
517316180586143, 0.57906306, 5.4891353, 8.567501, -0.054450512, -0.14795494, 10.190346
517316190225935, 0.41874397, 5.38744, 8.416754, -0.1958754, -0.098781586, 9.999676
517316199865623, 0.19860429, 5.332405, 8.275578, -0.37978005, 0.0032196045, 9.839458
517316209505414, 0.104087785, 5.377869, 8.10449, -0.40910363, 0.15137148, 9.717242
517316219145206, 0.15672988, 5.363512, 7.834101, -0.30498564, 0.25501823, 9.487198
517316228784998, 0.2955136, 5.4113684, 7.733603, -0.1356579, 0.2934091, 9.437922
517316238424789, 0.5084748, 5.5477595, 7.844869, 0.08080709, 0.27046824, 9.617613
517316248064581, 0.7812566, 5.660222, 8.202596, 0.27332973, 0.08456564, 9.992456
517316257704373, 0.9451649, 5.6889358, 8.487342, 0.3687619, -0.09199524, 10.254162
517316267344060, 0.88414794, 5.6350975, 8.60459, 0.26287353, -0.16317225, 10.31888
517316276983852, 0.7537391, 5.5716877, 8.580662, 0.13013649, -0.15730953, 10.256601
517316286623643, 0.695115, 5.538188, 8.486146, 0.09060812, -0.104883194, 10.156287
517316296263435, 0.6221339, 5.49751, 8.411968, 0.027252913, -0.074025154, 10.068001
517316305903227, 0.52283174, 5.4053864, 8.26481, -0.054714084, -0.038292885, 9.889093
517316315543018, 0.4103691, 5.3766723, 8.04108, -0.115192056, 0.08736944, 9.680656
517316325182810, 0.38644084, 5.4424753, 7.9537425, -0.10103238, 0.18866873, 9.642929
517316334822602, 0.43908295, 5.538188, 8.038688, -0.046288013, 0.20223522, 9.769431
517316344462393, 0.5383851, 5.6482577, 8.226524, 0.031104445, 0.16174126, 9.99206
517316354102081, 0.6269195, 5.643472, 8.428718, 0.068942904, 0.026976585, 10.162656
517316363741873, 0.6448657, 5.5633125, 8.52802, 0.041581035, -0.09446001, 10.202097
517316373381664, 0.5778667, 5.4867425, 8.4705925, -0.027590632, -0.1044178, 10.108291
517316383021456, 0.56350976, 5.3982077, 8.386844, -0.043656945, -0.12793875, 9.988947
517316392661248, 0.48454657, 5.325227, 8.355737, -0.12526977, -0.14524603, 9.9183855
517316402301039, 0.42592242, 5.2498527, 8.400003, -0.20636714, -0.20699835, 9.910447
517316411940831, 0.45583272, 5.279763, 8.319844, -0.14609265, -0.14353418, 9.862126
517316421580623, 0.52283174, 5.3718867, 8.250452, -0.045087337, -0.056726456, 9.858766
517316431220414, 0.54436713, 5.5106707, 8.342576, -0.009005547, 0.0029239655, 10.013107
517316440860206, 0.49172506, 5.6063833, 8.4502535, -0.0626297, 0.04404354, 10.152551
517316450499893, 0.47976094, 5.5944195, 8.376076, -0.06622791, 0.07080746, 10.083498
517316460139685, 0.5132605, 5.5968122, 8.2348995, -0.004059434, 0.12745905, 9.969204
517316469779477, 0.62093747, 5.6183476, 8.086544, 0.13474607, 0.17703342, 9.863776
517316479419268, 0.7046863, 5.578866, 8.0817585, 0.20089519, 0.11419964, 9.842853
517316489059060, 0.7585248, 5.548956, 8.129615, 0.23344493, 0.04714203, 9.869153
517316498698852, 0.76689965, 5.558527, 8.175078, 0.22992122, 0.027283669, 9.912803
517316508338643, 0.70348984, 5.5908303, 8.196614, 0.17059779, 0.063417435, 9.945029
517316517978435, 0.6089734, 5.5070815, 8.26481, 0.044827342, -0.005534172, 9.950066
517316527618227, 0.5180461, 5.3850474, 8.301898, -0.07629681, -0.08718729, 9.90834
517316537258018, 0.48454657, 5.3970113, 8.271988, -0.09811032, -0.051445007, 9.888177
517316546897810, 0.49052864, 5.454439, 8.242078, -0.067748785, 0.010754108, 9.895388
517316556537498, 0.4833502, 5.416154, 8.2456665, -0.08155537, -0.016227722, 9.876865
517316566177289, 0.5192425, 5.3982077, 8.299505, -0.06016898, -0.06274128, 9.913853
517316575817081, 0.59581286, 5.456832, 8.449057, -0.0063465834, -0.11628437, 10.074968
517316585456873, 0.64008003, 5.5298133, 8.584251, 0.028136015, -0.12840652, 10.230379
517316595096664, 0.56829536, 5.602794, 8.618947, -0.02981162, -0.061970234, 10.295425
517316604736456, 0.45224348, 5.5872407, 8.480164, -0.11285365, 0.03303814, 10.1647
517316614376248, 0.36729828, 5.4699926, 8.285149, -0.1729908, 0.058128357, 9.933083
517316624016039, 0.3074777, 5.3946185, 8.067402, -0.19796371, 0.12873363, 9.706887
517316633655831, 0.25004998, 5.3359947, 7.8604226, -0.21969557, 0.19555736, 9.499216
517316643295623, 0.26679972, 5.261817, 7.8113694, -0.21063459, 0.14801645, 9.418553
517316652935414, 0.48933223, 5.2749777, 7.9513497, -0.027280927, 0.01233387, 9.554471
517316662575206, 0.7501499, 5.410172, 8.249256, 0.18259752, -0.10575342, 9.89133
517316672214998, 0.8662018, 5.562116, 8.628518, 0.24372399, -0.21434927, 10.297253
517316681854685, 0.8877372, 5.599205, 8.96471, 0.18820095, -0.33636236, 10.599842
517316691494477, 0.86141616, 5.631508, 9.052048, 0.15345073, -0.33527803, 10.689224
517316701134268, 0.7716853, 5.6410794, 8.906086, 0.102755785, -0.22534227, 10.567606
517316710774060, 0.6197411, 5.5776696, 8.62134, 0.006640196, -0.085038185, 10.286628
517316720413852, 0.48095736, 5.460421, 8.295917, -0.078306556, 0.022614002, 9.942993
517316730053643, 0.31944183, 5.3623157, 7.944171, -0.17478907, 0.16157222, 9.586952
517316739693435, 0.21655045, 5.272585, 7.7120676, -0.24007726, 0.22965264, 9.338774
517316749333227, 0.21774685, 5.271388, 7.587641, -0.21049178, 0.2909925, 9.234624
517316758973018, 0.4211368, 5.367101, 7.6893353, -0.01874423, 0.2378869, 9.383606
517316768612810, 0.67477596, 5.562116, 8.020741, 0.192271, 0.13677979, 9.781057
517316778252602, 0.8171489, 5.703293, 8.49452, 0.24867237, -0.034289837, 10.261051
517316787892393, 0.8470592, 5.697311, 8.792427, 0.19778919, -0.18243456, 10.507674
517316797532185, 0.79441714, 5.554938, 8.82473, 0.10826969, -0.29291248, 10.453074
517316807171977, 0.66759753, 5.4759746, 8.711071, -0.0046423674, -0.24734879, 10.307936
517316816811768, 0.47018966, 5.485546, 8.429914, -0.121174455, -0.033070564, 10.067768
517316826451560, 0.3493521, 5.4257255, 8.10808, -0.17337179, 0.116485596, 9.7600155
517316836091352, 0.34097722, 5.352744, 7.9094753, -0.15435481, 0.1614089, 9.553956
517316845731039, 0.3900301, 5.3072805, 7.911868, -0.11659682, 0.09952879, 9.533808
517316855370831, 0.40677986, 5.432904, 8.039884, -0.09972, 0.12868547, 9.710569
517316865010623, 0.506082, 5.633901, 8.152347, 0.01577568, 0.19704485, 9.920616
517316874650414, 0.6436693, 5.7152567, 8.159525, 0.1659621, 0.21142244, 9.979183
517316884290206, 0.7393822, 5.680561, 8.2014, 0.23680627, 0.12677765, 10.000312
517316893929998, 0.73459655, 5.613562, 8.29113, 0.1924926, 0.02814436, 10.037764
517316903569789, 0.6520442, 5.5573306, 8.327023, 0.09273708, 5.8221817E-4, 10.031939
517316913209581, 0.5706882, 5.4628143, 8.327023, -0.0077433586, -0.04695034, 9.975222
517316922849373, 0.56111693, 5.389833, 8.283952, -0.022450328, -0.07637453, 9.898619
517316932489164, 0.634098, 5.3718867, 8.2253275, 0.058567524, -0.08258104, 9.844034
517316942128956, 0.6879365, 5.4460645, 8.29113, 0.11517787, -0.06551504, 9.942743
