timestamp_acc,device_acc_x,device_acc_y,device_acc_z,earth_acc_x,earth_acc_y,earth_acc_z
1125486031408538, 2.4442682, -0.050249275, 9.783055, -0.10867286, 0.049223423, 10.0832
1125486041048434, 2.455036, 0.032303106, 9.751948, -0.028750151, 0.014772892, 10.056228
1125486050688330, 2.4622145, 0.12921242, 9.71845, 0.0637095, -0.018541336, 10.02612
1125486060328121, 2.475375, 0.17467605, 9.712467, 0.10680187, -0.040000916, 10.023821
1125486069968017, 2.4945176, 0.2009971, 9.693324, 0.12519732, -0.06623721, 10.01017
1125486079607913, 2.4921248, 0.18065812, 9.687343, 0.105299264, -0.061853886, 10.003652
1125486089247809, 2.5124638, 0.13399807, 9.698111, 0.051844925, -0.0673902, 10.018808
1125486098887600, 2.5124638, 0.061016977, 9.720842, -0.020246625, -0.04706478, 10.040335
1125486108527496, 2.524428, 0.0047856453, 9.706485, -0.07833725, -0.05065179, 10.028954
1125486118167392, 2.4921248, -0.020338992, 9.728021, -0.096155345, -0.010267019, 10.041719
1125486127807288, 2.4825535, -0.0023928226, 9.751948, -0.07440832, 0.0021042824, 10.062706
1125486137447080, 2.469393, 0.069391854, 9.77468, 0.0013605356, 0.0064189434, 10.082015
1125486147086975, 2.43709, 0.09810573, 9.762716, 0.036642432, 0.028260946, 10.062681
1125486156726871, 2.4346972, 0.124426775, 9.725628, 0.0609003, 0.014075518, 10.026324
1125486166366767, 2.4323041, 0.14476576, 9.710074, 0.07919592, 0.0084712505, 10.010807
1125486176006559, 2.43709, 0.12203395, 9.722038, 0.05640015, 0.011428833, 10.023424
1125486185646455, 2.461018, 0.101694964, 9.720842, 0.028968662, -0.009449244, 10.028
1125486195286350, 2.461018, 0.07776674, 9.734002, 0.0059454143, -0.0018854141, 10.040587
1125486204926246, 2.4538395, 0.07178468, 9.71486, -7.928312E-4, 0.0011250973, 10.020228
1125486214566038, 2.469393, 0.06580263, 9.708878, -0.010208309, -0.013933659, 10.018195
1125486224205934, 2.4622145, 0.09212367, 9.701699, 0.016636789, -0.013297319, 10.009671
1125486233845830, 2.469393, 0.10289137, 9.713663, 0.026069283, -0.01896429, 10.023108
1125486243485725, 2.4729822, 0.09212367, 9.749556, 0.015980124, -0.012016058, 10.058705
1125486253125621, 2.4717858, 0.051445685, 9.741181, -0.025393993, -0.006173849, 10.049991
1125486262765413, 2.469393, 0.050249275, 9.731609, -0.026468784, -0.0061159134, 10.040114
1125486272405309, 2.4478576, 0.039481573, 9.723235, -0.033056825, 0.013978004, 10.026644
1125486282045205, 2.4454648, 0.05383851, 9.745967, -0.016850471, 0.019144535, 10.048204
1125486291685100, 2.4323041, 0.040677983, 9.747163, -0.025652736, 0.0328362, 10.046055
1125486301324892, 2.4358935, 0.05742774, 9.732806, -0.010443747, 0.022772312, 10.0331335
1125486310964788, 2.4323041, 0.07178468, 9.7399845, 0.005579382, 0.023692846, 10.039322
1125486320604684, 2.4346972, 0.050249275, 9.751948, -0.014744461, 0.025651455, 10.051364
1125486330244580, 2.4346972, 0.07058827, 9.765109, 0.0065339506, 0.0237813, 10.064267
1125486339884371, 2.4502504, 0.0849452, 9.7196455, 0.015829384, -0.004844427, 10.02408
1125486349524267, 2.4526432, 0.08733802, 9.690931, 0.016971797, -0.015441418, 9.996837
1125486359164163, 2.4466612, 0.08135597, 9.689735, 0.012334406, -0.009242773, 9.994174
1125486368804059, 2.455036, 0.09092726, 9.698111, 0.020455807, -0.017069817, 10.004405
1125486378443850, 2.4562325, 0.09092726, 9.728021, 0.021448404, -0.01201272, 10.033701
1125486388083746, 2.4717858, 0.0849452, 9.725628, 0.012104094, -0.027142763, 10.035133
1125486397723642, 2.4765713, 0.09451649, 9.736395, 0.020622253, -0.031420946, 10.046806
1125486407363538, 2.4670002, 0.0741775, 9.729217, 0.0023697615, -0.019845009, 10.037374
1125486417003434, 2.4861426, 0.06460621, 9.753145, -0.008284807, -0.028861046, 10.065188
1125486426643225, 2.4885356, 0.062213387, 9.734002, -0.011781454, -0.035322666, 10.047192
1125486436283121, 2.4825535, 0.0741775, 9.676575, -0.0010606349, -0.043138504, 9.990135
1125486445923017, 2.4801607, 0.08733802, 9.675379, 0.011676431, -0.04212594, 9.988487
1125486455562913, 2.4670002, 0.0634098, 9.68136, -0.010165274, -0.02282834, 9.990907
1125486465202705, 2.4382863, 0.05742774, 9.702896, -0.0107471645, 0.010795116, 10.0047245
1125486474842600, 2.4275186, 0.038285162, 9.753145, -0.025436014, 0.036864042, 10.05068
1125486484482496, 2.4311078, 0.062213387, 9.780663, -0.002815634, 0.034361124, 10.07841
1125486494122392, 2.4358935, 0.09571291, 9.79143, 0.028916419, 0.022560358, 10.090269
1125486503762288, 2.4155545, 0.16390835, 9.790234, 0.0999203, 0.02823615, 10.084625
1125486513402080, 2.4059832, 0.22731815, 9.797412, 0.16382566, 0.026200294, 10.089707
1125486523041975, 2.400001, 0.24885355, 9.731609, 0.18158606, 0.013382673, 10.02462
1125486532681871, 2.3952155, 0.17826529, 9.688539, 0.11149496, 0.02209878, 9.981167
1125486542321767, 2.3856442, 0.13519448, 9.722038, 0.070822656, 0.048595667, 10.011005
1125486551961559, 2.4035904, 0.05383851, 9.65145, -0.016666085, 0.031627655, 9.946323
1125486561601455, 2.4358935, 0.0047856453, 9.696914, -0.069479704, 0.021015406, 9.997924
1125486571241350, 2.4454648, -0.051445685, 9.695718, -0.12564483, 0.02280593, 9.998678
1125486580881246, 2.5040889, -0.08255238, 9.728021, -0.16229615, -0.018666029, 10.04415
1125486590521038, 2.5184457, -0.058624156, 9.753145, -0.13742942, -0.03148818, 10.072238
1125486600160934, 2.5292134, -0.019142581, 9.74477, -0.09826061, -0.05073476, 10.067056
1125486609800830, 2.5256243, 0.025124637, 9.759128, -0.05331984, -0.05210924, 10.080399
1125486619440725, 2.489732, 0.05742774, 9.74836, -0.012913197, -0.02335, 10.061406
1125486629080517, 2.4993033, 0.104087785, 9.749556, 0.031620562, -0.039167404, 10.065221
1125486638720413, 2.4705894, 0.11844472, 9.7196455, 0.049224466, -0.021975517, 10.02928
1125486648360309, 2.4622145, 0.1591227, 9.694521, 0.08887735, -0.026197195, 10.003149
1125486658000205, 2.4179473, 0.13758731, 9.686146, 0.07299736, 0.019878864, 9.984042
1125486667639996, 2.4227328, 0.1268196, 9.689735, 0.0607619, 0.018323898, 9.988627
1125486677279892, 2.4335005, 0.086141616, 9.6993065, 0.019210964, 0.017674446, 10.00026
1125486686919788, 2.4418755, 0.040677983, 9.702896, -0.027364463, 0.01897788, 10.005473
1125486696559684, 2.455036, 0.040677983, 9.708878, -0.029526591, 0.0079238415, 10.014502
1125486706199475, 2.4634109, 0.05383851, 9.730413, -0.015494525, 0.002501011, 10.037529
1125486715839371, 2.487339, 0.05623133, 9.716056, -0.018364161, -0.024162054, 10.029498
1125486725479267, 2.4801607, 0.09092726, 9.735199, 0.019721031, -0.018809557, 10.046534
1125486735119163, 2.4634109, 0.086141616, 9.737592, 0.018176049, -7.612705E-4, 10.04471
1125486744758955, 2.5136602, 0.106480606, 9.71486, 0.027771264, -0.057957172, 10.035148
1125486754398850, 2.5064816, 0.101694964, 9.680164, 0.022337496, -0.05852461, 9.999723
1125486764038746, 2.5124638, 0.09092726, 9.696914, 0.011351466, -0.056419134, 10.017364
1125486773678642, 2.5028925, 0.06819545, 9.687343, -0.009204239, -0.042001486, 10.005592
1125486783318538, 2.495714, 0.05742774, 9.68136, -0.01872027, -0.034457684, 9.997953
1125486792958330, 2.498107, 0.059820566, 9.6682, -0.017177284, -0.039511442, 9.985807
1125486802598225, 2.477768, 0.029910283, 9.695718, -0.04089412, -0.007058859, 10.00727
1125486812238121, 2.4705894, 0.023928227, 9.734002, -0.042369813, 0.009538889, 10.042573
1125486821877913, 2.489732, 0.014356935, 9.722038, -0.056129426, -0.009380102, 10.0356245
1125486831517809, 2.4885356, 0.032303106, 9.71845, -0.03759414, -0.013820887, 10.031975
1125486841157705, 2.4646072, 0.058624156, 9.700503, -0.006621897, -8.4114075E-4, 10.00887
1125486850797600, 2.457429, 0.10049855, 9.710074, 0.037376225, -0.0012590885, 10.016645
1125486860437496, 2.4442682, 0.10887343, 9.737592, 0.048656434, 0.015588284, 10.040139
1125486870077288, 2.4514468, 0.07298109, 9.71845, 0.010574251, 0.009926319, 10.023124
1125486879717184, 2.4382863, 0.050249275, 9.726824, -0.009074748, 0.02883625, 10.027861
1125486889357080, 2.4047868, 0.01794617, 9.743574, -0.03409469, 0.07087517, 10.035657
1125486898996975, 2.4011974, 0.061016977, 9.6993065, 0.0075770617, 0.05559516, 9.992142
1125486908636767, 2.4047868, 0.106480606, 9.71486, 0.052428067, 0.04682207, 10.008392
1125486918276663, 2.4131618, 0.12801601, 9.735199, 0.0732944, 0.0377028, 10.030307
1125486927916559, 2.4658036, 0.13878371, 9.759128, 0.07408115, -0.011365652, 10.0665
1125486937556350, 2.507678, 0.11844472, 9.730413, 0.04520926, -0.05338025, 10.048808
1125486947196246, 2.5339992, 0.083748795, 9.712467, 0.005528271, -0.0764215, 10.037646
1125486956836142, 2.5112674, 0.033499517, 9.683753, -0.039446145, -0.046483517, 10.003946
1125486966476038, 2.495714, -0.0047856453, 9.675379, -0.0730046, -0.024176836, 9.991778
1125486976115830, 2.4466612, -0.015553347, 9.68136, -0.07234022, 0.026818514, 9.985447
1125486985755725, 2.42034, 0.0059820567, 9.735199, -0.04359293, 0.06090331, 10.0312805
1125486995395621, 2.3904297, 0.034695927, 9.754341, -0.008195937, 0.08716965, 10.042654
1125487005035517, 2.4239295, 0.040677983, 9.724431, -0.010007501, 0.04509473, 10.021954
1125487014675309, 2.4275186, 0.05503492, 9.723235, 0.0026910603, 0.037590742, 10.021764
1125487024315205, 2.4346972, 0.04426722, 9.712467, -0.010116786, 0.031371355, 10.013023
1125487033955100, 2.457429, 0.05503492, 9.708878, -0.0038860142, 0.0068302155, 10.015202
1125487043594996, 2.4717858, 0.0741775, 9.706485, 0.012684792, -0.010896444, 10.016525
1125487053234788, 2.455036, 0.09930214, 9.712467, 0.041115195, 0.0021944046, 10.0183525
1125487062874684, 2.4466612, 0.10049855, 9.742377, 0.04527667, 0.01705432, 10.045288
1125487072514580, 2.475375, 0.16031912, 9.759128, 0.09973773, -0.016161203, 10.068941
1125487082154371, 2.3150558, -0.17108682, 9.610772, -0.20569503, 0.1571362, 9.883759
1125487091794267, 2.6189444, 0.4235296, 9.8632145, 0.3385557, -0.17099905, 10.206733
1125487101434163, 2.3700907, 0.07776674, 9.572487, 0.028602362, 0.05709672, 9.861634
1125487111074059, 2.5591238, -0.06699903, 9.785448, -0.13720599, -0.045752525, 10.113738
1125487120713850, 2.5411777, 0.5491528, 9.707682, 0.47002405, -0.15353322, 10.037617
1125487130353746, 2.5112674, -0.5455636, 9.592826, -0.61008245, 0.041363, 9.912241
1125487139993642, 2.6883361, 0.8578269, 9.802198, 0.76197505, -0.3203714, 10.166754
1125487149633434, 2.376073, -0.6939186, 9.48156, -0.7251371, 0.17093873, 9.770986
1125487159273330, 2.6632116, 0.782453, 9.869197, 0.6803715, -0.2673273, 10.226027
1125487168913225, 2.2648067, -0.51565325, 9.440882, -0.54243535, 0.24028087, 9.704305
1125487178553121, 2.6105695, 0.42951167, 9.83809, 0.34290072, -0.15970922, 10.1805935
1125487188192913, 2.4263222, -0.03708875, 9.433703, -0.09181839, -0.0055816174, 9.740366
1125487197832809, 2.5268207, -0.07178468, 9.846465, -0.13395947, 0.008223295, 10.164885
1125487207472705, 2.3988047, 0.51086766, 9.83809, 0.46224156, 0.029866219, 10.128609
1125487217112496, 2.4358935, -0.5838487, 9.671789, -0.6271996, 0.13722205, 9.9702425
1125487226752392, 2.5507488, 0.721436, 9.906285, 0.6516671, -0.13802314, 10.233158
1125487236392288, 2.2671995, -0.7956135, 9.590433, -0.81896734, 0.31226802, 9.847915
1125487246032184, 2.6333013, 0.7585248, 9.9015, 0.6770059, -0.23320317, 10.248737
1125487255671975, 2.2863421, -0.5694918, 9.467203, -0.5872743, 0.2264154, 9.73568
1125487265311871, 2.6835506, 0.43070808, 9.834501, 0.34362337, -0.23897338, 10.194565
1125487274951767, 2.400001, -0.13998012, 9.510274, -0.1847679, 0.060109377, 9.807504
1125487284591559, 2.629712, -0.11365908, 9.754341, -0.18725747, -0.10396981, 10.100972
1125487294231455, 2.487339, 0.3361916, 9.720842, 0.2835258, -0.058068514, 10.035482
1125487303871350, 2.461018, -0.6089734, 9.68136, -0.6467308, 0.13187885, 9.986016
1125487313511142, 2.597409, 0.6843473, 9.858429, 0.6060363, -0.19682193, 10.197915
1125487323151038, 2.32702, -0.80757767, 9.553345, -0.81595075, 0.2490356, 9.828826
1125487332790934, 2.6452653, 0.7704889, 9.907482, 0.7031077, -0.24016643, 10.256571
1125487342430830, 2.2755744, -0.6221339, 9.462418, -0.6242237, 0.24376273, 9.729005
1125487352070621, 2.6273193, 0.5347959, 9.866804, 0.45990494, -0.18963051, 10.212501
1125487361710517, 2.3078775, -0.101694964, 9.517452, -0.11620942, 0.13762212, 9.792145
1125487371350413, 2.5435705, 0.05742774, 9.79143, 0.006112069, -0.046615362, 10.116469
1125487380990205, 2.3808584, 0.3804588, 9.712467, 0.34889352, 0.035494804, 10.001114
1125487390630100, 2.4143581, -0.46301118, 9.71486, -0.4880234, 0.14545107, 10.008131
1125487400269996, 2.5208387, 0.7692925, 9.844072, 0.7166642, -0.13833356, 10.164618
1125487409909788, 2.3198416, -0.70947194, 9.559326, -0.72774065, 0.24402046, 9.832425
1125487419549684, 2.664408, 0.84107715, 9.900304, 0.76563287, -0.27748466, 10.254722
1125487429189580, 2.3401806, -0.587438, 9.487542, -0.61242396, 0.19018078, 9.768508
1125487438829371, 2.7397819, 0.64008003, 9.8632145, 0.54374695, -0.3128512, 10.23746
1125487448469267, 2.3976083, -0.16749759, 9.497113, -0.19952098, 0.057736635, 9.794314
1125487458109163, 2.658426, 0.13399807, 9.762716, 0.054632246, -0.17134333, 10.117482
1125487467748955, 2.475375, 0.357727, 9.628718, 0.30310544, -0.07388663, 9.943356
1125487477388850, 2.4646072, -0.4031906, 9.695718, -0.44030654, 0.09909892, 10.002007
1125487487028746, 2.5136602, 0.73100734, 9.814162, 0.6647986, -0.12785721, 10.134709
1125487496668538, 2.2947168, -0.71425754, 9.554541, -0.7229444, 0.2707951, 9.821873
1125487506308434, 2.5603201, 0.8171489, 9.917053, 0.7435765, -0.15624046, 10.24664
1125487515948330, 2.2061825, -0.6987042, 9.524631, -0.687816, 0.3514992, 9.771253
1125487525588121, 2.603391, 0.5599205, 9.952946, 0.4952261, -0.15709329, 10.289915
1125487535228017, 2.2827528, -0.3290131, 9.570094, -0.34743035, 0.21572804, 9.835582
1125487544867913, 2.6069803, 0.09092726, 9.827323, 0.028374672, -0.10529995, 10.167055
1125487554507705, 2.43709, 0.2632105, 9.622736, 0.21893346, -0.021866798, 9.927605
1125487564147600, 2.5148566, -0.36729828, 9.6682, -0.41637045, 0.027215958, 9.987963
1125487573787496, 2.5591238, 0.69152576, 9.789038, 0.62256074, -0.1735897, 10.121012
1125487583427288, 2.3892334, -0.7082755, 9.570094, -0.7351451, 0.19274235, 9.859981
1125487593067184, 2.6620152, 0.7908279, 9.88475, 0.7184278, -0.26073074, 10.238941
1125487602707080, 2.32702, -0.7393822, 9.493524, -0.74706185, 0.23045087, 9.771259
1125487612346871, 2.6907291, 0.6149554, 9.91466, 0.52489173, -0.25650096, 10.2750845
1125487621986767, 2.3282163, -0.33738798, 9.510274, -0.35020855, 0.16182327, 9.789325
1125487631626663, 2.6249263, 0.19262223, 9.809377, 0.12837824, -0.14136934, 10.154543
1125487641266455, 2.4119651, 0.21894327, 9.616755, 0.18285373, 0.010953426, 9.915339
1125487650906350, 2.5052853, -0.2847459, 9.716056, -0.33081555, 0.034150124, 10.032382
1125487660546142, 2.5495524, 0.695115, 9.799805, 0.62974244, -0.15776372, 10.129074
1125487670186038, 2.37368, -0.6903293, 9.609575, -0.70401025, 0.2128551, 9.895146
1125487679825934, 2.6392834, 0.8111669, 9.866804, 0.7232113, -0.25396013, 10.217146
1125487689465725, 2.3162522, -0.72502524, 9.479167, -0.73450994, 0.23091722, 9.754612
1125487699105621, 2.6739793, 0.6652047, 9.899107, 0.5775776, -0.24730039, 10.256228
1125487708745517, 2.292324, -0.41754755, 9.491131, -0.42972544, 0.21759224, 9.761078
1125487718385309, 2.5782664, 0.22971097, 9.8321085, 0.1666339, -0.0954206, 10.165319
1125487728025205, 2.3425734, 0.13519448, 9.597611, 0.11432767, 0.085440874, 9.879255
1125487737665100, 2.4418755, -0.27517462, 9.780663, -0.30189964, 0.112594604, 10.079487
1125487747304892, 2.4143581, 0.62093747, 9.826126, 0.58416295, -0.014597893, 10.120573
1125487756944788, 2.3114667, -0.6436693, 9.639486, -0.6536924, 0.26230717, 9.908621
1125487766584684, 2.5734808, 0.84825563, 9.902697, 0.7916415, -0.19214678, 10.234361
1125487776224475, 2.248057, -0.7537391, 9.499506, -0.74710757, 0.2990644, 9.757813
1125487785864371, 2.6249263, 0.70348984, 9.915857, 0.64199275, -0.21150994, 10.259264
1125487795504163, 2.2743778, -0.47138608, 9.509077, -0.4805515, 0.23519468, 9.774012
1125487805144059, 2.6129622, 0.27517462, 9.846465, 0.21688506, -0.14103246, 10.187701
1125487814783955, 2.3700907, 0.043070808, 9.565309, 0.020618677, 0.063504696, 9.854434
1125487824423746, 2.5268207, -0.23808585, 9.728021, -0.28152797, 0.010520458, 10.049702
1125487834063642, 2.5603201, 0.56590253, 9.759128, 0.50960046, -0.1575265, 10.091162
1125487843703538, 2.4825535, -0.634098, 9.603594, -0.6638231, 0.093477964, 9.916893
1125487853343330, 2.6979074, 0.8147561, 9.8428755, 0.71957433, -0.3202939, 10.208053
1125487862983225, 2.4275186, -0.74895346, 9.492328, -0.76966965, 0.14489174, 9.795136
1125487872623017, 2.7613173, 0.74177504, 9.930214, 0.6448345, -0.3260944, 10.308351
1125487882262913, 2.4215364, -0.4761717, 9.482756, -0.50139105, 0.098707914, 9.785299
1125487891902809, 2.7361927, 0.3481557, 9.809377, 0.26065013, -0.257735, 10.183195
1125487901542600, 2.4119651, -0.031106694, 9.493524, -0.06366336, 0.037263155, 9.794902
1125487911182496, 2.5866413, -0.21655045, 9.616755, -0.27667606, -0.059035778, 9.956885
1125487920822288, 2.4418755, 0.44027936, 9.722038, 0.39907518, -0.017941236, 10.025719
1125487930462184, 2.3700907, -0.6436693, 9.683753, -0.6505827, 0.24687648, 9.966066
1125487940102080, 2.6045876, 0.7968099, 9.878768, 0.73366904, -0.19001818, 10.219317
1125487949741871, 2.2241287, -0.6963114, 9.683753, -0.6912819, 0.3901626, 9.928575
1125487959381767, 2.6069803, 0.8602197, 10.025927, 0.796481, -0.17742682, 10.362899
1125487969021663, 2.3138595, -0.4354937, 9.495916, -0.44831157, 0.20453906, 9.771039
1125487978661455, 2.71705, 0.5096712, 9.826126, 0.41811335, -0.26736856, 10.1955185
1125487988301350, 2.4598217, 0.046660043, 9.471989, -0.012074649, -0.020072699, 9.7862625
1125487997941142, 2.678765, -0.02871387, 9.663414, -0.114777476, -0.16989636, 10.025773
1125488007581038, 2.5818555, 0.5024927, 9.625129, 0.4233923, -0.17438412, 9.967542
1125488017220934, 2.5375884, -0.56350976, 9.595219, -0.6193296, 0.044197083, 9.921673
1125488026860725, 2.6344976, 0.73459655, 9.856036, 0.6487426, -0.19886374, 10.20594
1125488036500621, 2.3114667, -0.8530413, 9.573684, -0.8755038, 0.30123162, 9.842193
1125488046140413, 2.6141586, 0.6795616, 9.9553385, 0.6121278, -0.16280293, 10.295785
1125488055780309, 2.2372892, -0.6843473, 9.5760765, -0.6910219, 0.3424418, 9.827527
1125488065420205, 2.6009982, 0.37328035, 9.946963, 0.30101743, -0.10051584, 10.283282
1125488075059996, 2.2863421, -0.1698904, 9.59163, -0.18326059, 0.19971824, 9.858099
1125488084699892, 2.5316064, -0.046660043, 9.806984, -0.09963223, -7.104874E-5, 10.12809
1125488094339684, 2.4143581, 0.44506502, 9.680164, 0.40251195, -0.008732796, 9.978513
1125488103979580, 2.3856442, -0.465404, 9.628718, -0.4875145, 0.17028475, 9.917332
1125488113619475, 2.498107, 0.8650054, 9.848858, 0.8099103, -0.12738419, 10.164478
1125488123259267, 2.251646, -0.6161518, 9.548559, -0.61601114, 0.29949617, 9.805884
1125488132899163, 2.6009982, 0.96550393, 9.879965, 0.87798524, -0.23237062, 10.22185
1125488142539059, 2.2277179, -0.4869394, 9.507881, -0.50613195, 0.28830743, 9.760142
1125488152178850, 2.6141586, 0.6257231, 9.936196, 0.53562903, -0.17957973, 10.277853
1125488161818746, 2.3150558, -0.10049855, 9.559326, -0.13091248, 0.14461017, 9.834239
1125488171458538, 2.5878377, 0.019142581, 9.765109, -0.059012115, -0.08464289, 10.101683
1125488181098434, 2.43709, 0.3397808, 9.672985, 0.28113908, -0.022968054, 9.977073
1125488190738225, 2.4502504, -0.51565325, 9.687343, -0.5639705, 0.13469768, 9.988896
1125488200378121, 2.5435705, 0.70348984, 9.864411, 0.6217009, -0.14739871, 10.19132
1125488210018017, 2.300699, -0.76689965, 9.589237, -0.7878126, 0.29594874, 9.855283
1125488219657809, 2.617748, 0.7908279, 9.91466, 0.696353, -0.22129512, 10.258881
1125488229297705, 2.254039, -0.6556334, 9.505488, -0.65957654, 0.29491043, 9.764367
1125488238937496, 2.652444, 0.56590253, 9.945767, 0.4859281, -0.20617032, 10.2954035
1125488248577392, 2.3581266, -0.26081768, 9.5353985, -0.2983781, 0.12921405, 9.820738
1125488258217288, 2.656033, 0.0526421, 9.763913, -0.031632066, -0.15378976, 10.11764
1125488267857080, 2.5220351, 0.2835495, 9.639486, 0.22042665, -0.09422207, 9.965104
1125488277496975, 2.5351956, -0.4977071, 9.6993065, -0.54928666, 0.040639877, 10.022381
1125488287136767, 2.5591238, 0.6664011, 9.818948, 0.60410875, -0.1530664, 10.149708
1125488296776663, 2.3521447, -0.76331043, 9.567701, -0.7899054, 0.22724485, 9.847869
1125488306416559, 2.6189444, 0.8542377, 9.905089, 0.77380544, -0.21425319, 10.2496195
1125488316056350, 2.2707887, -0.62452674, 9.524631, -0.6262133, 0.2717476, 9.787703
1125488325696246, 2.664408, 0.63888365, 9.952946, 0.5567901, -0.21053028, 10.30602
1125488335336038, 2.3186452, -0.25603202, 9.547362, -0.28161275, 0.17107582, 9.822689
1125488344975934, 2.629712, 0.15074782, 9.803394, 0.07631457, -0.13326335, 10.14993
1125488354615830, 2.4681966, 0.22253251, 9.6071825, 0.1689011, -0.040345907, 9.920148
1125488364255621, 2.5579274, -0.37447673, 9.683753, -0.43454218, -0.0032484531, 10.013465
1125488373895517, 2.629712, 0.715454, 9.781859, 0.6255361, -0.24876189, 10.132071
1125488383535309, 2.469393, -0.64845496, 9.547362, -0.6860773, 0.104905605, 9.858439
1125488393175205, 2.7074788, 0.89730847, 9.84168, 0.78965867, -0.3366592, 10.2106495
1125488402814996, 2.353341, -0.6305088, 9.445667, -0.66517663, 0.18953657, 9.730263
1125488412454892, 2.6835506, 0.70348984, 9.913465, 0.60688245, -0.25181866, 10.273335
1125488422094788, 2.3186452, -0.32542387, 9.542577, -0.3549335, 0.1888957, 9.8173895
1125488431734580, 2.605784, 0.1698904, 9.83809, 0.09987298, -0.10595441, 10.1777115
1125488441374475, 2.3844478, 0.11844472, 9.650253, 0.077290446, 0.06880379, 9.94064
1125488451014267, 2.4705894, -0.38524446, 9.759128, -0.4313016, 0.0938251, 10.06469
1125488460654163, 2.477768, 0.55034924, 9.827323, 0.4929502, -0.049132586, 10.137705
1125488470294059, 2.3234308, -0.74416786, 9.619147, -0.75942445, 0.2566781, 9.891283
1125488479933850, 2.5639095, 0.82911307, 9.891929, 0.75276756, -0.1765933, 10.223183
1125488489573746, 2.2528424, -0.6795616, 9.492328, -0.6768881, 0.2944851, 9.751743
1125488499213538, 2.6141586, 0.7369894, 9.926624, 0.6528207, -0.21053696, 10.26861
1125488508853434, 2.2528424, -0.34097722, 9.51147, -0.34588173, 0.23068762, 9.771732
1125488518493330, 2.5830522, 0.3074777, 9.851251, 0.2341181, -0.11927676, 10.18552
1125488528133121, 2.361716, 0.148355, 9.6071825, 0.114350975, 0.057810545, 9.893495
1125488537773017, 2.5220351, -0.25722843, 9.759128, -0.31357667, 0.020139933, 10.078129
1125488547412809, 2.5351956, 0.6053841, 9.797412, 0.5378446, -0.14852548, 10.122828
1125488557052705, 2.42034, -0.6472585, 9.61795, -0.6863679, 0.16043854, 9.913887
1125488566692600, 2.6344976, 0.8877372, 9.894321, 0.79433197, -0.26253748, 10.243358
1125488576332392, 2.3114667, -0.7046863, 9.503095, -0.73152196, 0.23966193, 9.77526
1125488585972288, 2.6596224, 0.73579293, 9.907482, 0.63798505, -0.2576201, 10.261568
1125488595612080, 2.2552354, -0.43070808, 9.522238, -0.44115284, 0.24160814, 9.78221
1125488605251975, 2.6069803, 0.317049, 9.865608, 0.2424517, -0.14508796, 10.205257
1125488614891767, 2.3653052, 0.023928227, 9.592826, -0.015684813, 0.076238155, 9.879854
1125488624531663, 2.5184457, -0.22851457, 9.759128, -0.28564394, 0.018602848, 10.0773735
1125488634171559, 2.4729822, 0.54436713, 9.781859, 0.48268935, -0.079377174, 10.092445
1125488643811350, 2.3844478, -0.64845496, 9.650253, -0.6736104, 0.1957314, 9.9368725
1125488653451246, 2.5926232, 0.81954175, 9.868001, 0.7448884, -0.21612549, 10.206333
1125488663091038, 2.306681, -0.72741807, 9.510274, -0.74702877, 0.22784781, 9.781885
1125488672730934, 2.6679974, 0.78364944, 9.934999, 0.70369446, -0.25277328, 10.289676
1125488682370830, 2.2755744, -0.4941179, 9.542577, -0.52939904, 0.21680927, 9.805912
1125488692010621, 2.6225336, 0.3804588, 9.894321, 0.3117869, -0.1462779, 10.237256
1125488701650517, 2.3401806, 0.013160525, 9.5760765, -0.028103128, 0.09081626, 9.857426
1125488711290309, 2.5196424, -0.13280165, 9.771091, -0.19469678, -0.014217138, 10.089716
1125488720930205, 2.4741786, 0.5276174, 9.767502, 0.46895653, -0.049897432, 10.078771
1125488730570100, 2.4131618, -0.57427746, 9.656236, -0.6196062, 0.11747122, 9.949791
1125488740209892, 2.5746772, 0.8470592, 9.859626, 0.7649158, -0.17597032, 10.195228
1125488749849788, 2.2983062, -0.72502524, 9.501899, -0.75635076, 0.21060586, 9.771261
1125488759489580, 2.6416762, 0.7920243, 9.945767, 0.6956207, -0.2268269, 10.295081
1125488769129475, 2.239682, -0.50009996, 9.54497, -0.53060246, 0.2636478, 9.799065
1125488778769371, 2.6201408, 0.44626144, 9.920643, 0.35676318, -0.1592536, 10.263082
1125488788409163, 2.3401806, -0.08015956, 9.57488, -0.12687892, 0.10793996, 9.85563
1125488798049059, 2.5579274, -0.15074782, 9.773484, -0.2251072, -0.039343834, 10.101211
1125488807688850, 2.4801607, 0.42592242, 9.705289, 0.359128, -0.08004999, 10.019475
1125488817328746, 2.4502504, -0.5599205, 9.611969, -0.61122984, 0.09032655, 9.915917
1125488826968642, 2.5962126, 0.79920274, 9.862019, 0.71821827, -0.21320319, 10.20182
1125488836608434, 2.3030918, -0.73340017, 9.547362, -0.767501, 0.25199938, 9.81538
1125488846248330, 2.603391, 0.849452, 9.944571, 0.7664244, -0.22056699, 10.283853
1125488855888121, 2.2205393, -0.5180461, 9.578469, -0.52571595, 0.30056214, 9.827488
1125488865528017, 2.5663023, 0.52522457, 9.957731, 0.44117966, -0.121109724, 10.286345
1125488875167913, 2.2755744, -0.07058827, 9.602397, -0.09881684, 0.1700654, 9.866639
1125488884807705, 2.5423741, -0.010767702, 9.795019, -0.08731538, -0.045256138, 10.119116
1125488894447600, 2.4670002, 0.4127619, 9.68495, 0.33990487, -0.080932856, 9.996632
1125488904087392, 2.4765713, -0.5312066, 9.638289, -0.59412944, 0.08315039, 9.947478
1125488913727288, 2.5986054, 0.7860422, 9.822537, 0.683952, -0.23986912, 10.165016
1125488923367184, 2.37368, -0.7190432, 9.552148, -0.75537014, 0.18302321, 9.838233
1125488933006975, 2.6679974, 0.8745767, 9.917053, 0.7795202, -0.28668356, 10.273326
1125488942646871, 2.268396, -0.57427746, 9.540184, -0.59197366, 0.25793743, 9.801712
1125488952286663, 2.5950162, 0.552742, 9.940982, 0.46150473, -0.15398192, 10.277454
1125488961926559, 2.268396, -0.17347965, 9.580862, -0.2022331, 0.19097853, 9.843336
1125488971566455, 2.5292134, 0.008374879, 9.810573, -0.06687203, -0.03095746, 10.131085
1125488981206246, 2.4251258, 0.35174492, 9.683753, 0.28835604, -0.02438879, 9.984804
1125488990846142, 2.4418755, -0.44147578, 9.707682, -0.49938944, 0.10505843, 10.006813
1125489000485934, 2.5519454, 0.76689965, 9.8524475, 0.6755136, -0.18107533, 10.182445
1125489010125830, 2.3509483, -0.715454, 9.536594, -0.76146126, 0.20252824, 9.816549
1125489019765725, 2.626123, 0.863809, 9.887143, 0.7731004, -0.25312972, 10.234088
1125489029405517, 2.2528424, -0.59342, 9.52822, -0.6155269, 0.25943828, 9.786126
1125489039045413, 2.5615165, 0.58983076, 9.982856, 0.503201, -0.121456385, 10.310126
1125489048685309, 2.2372892, -0.27756742, 9.598808, -0.30059725, 0.23876572, 9.852526
1125489058325100, 2.536392, 0.02871387, 9.853643, -0.04805845, -0.035731792, 10.174714
1125489067964996, 2.42034, 0.27158538, 9.696914, 0.21100318, -0.0073206425, 9.995868
1125489077604788, 2.5184457, -0.4031906, 9.738789, -0.46859038, 0.02737236, 10.056282
1125489087244684, 2.617748, 0.7322037, 9.851251, 0.6407918, -0.24004793, 10.196452
1125489096884580, 2.449054, -0.6831509, 9.522238, -0.73531944, 0.09001231, 9.827958
1125489106524371, 2.7326035, 0.9092726, 9.801002, 0.79727703, -0.3860891, 10.176877
1125489116164267, 2.3258235, -0.5778667, 9.437292, -0.6126727, 0.16834044, 9.716076
1125489125804163, 2.6392834, 0.70229346, 9.91825, 0.61211395, -0.22716641, 10.266666
1125489135443955, 2.2348964, -0.26919255, 9.560523, -0.30152392, 0.23913074, 9.814417
1125489145083850, 2.4705894, 0.15074782, 9.875179, 0.08510172, 0.019664526, 10.18028
1125489154723746, 2.2851455, 0.16510476, 9.753145, 0.13135988, 0.15946674, 10.016502
1125489164363538, 2.3832514, -0.4223332, 9.809377, -0.4654681, 0.17600703, 10.091308
1125489174003434, 2.455036, 0.6269195, 9.900304, 0.55878633, -0.049429893, 10.203999
1125489183643225, 2.3485553, -0.73459655, 9.608379, -0.7663032, 0.21491766, 9.8865
1125489193283121, 2.6548367, 0.85064846, 9.88475, 0.74021995, -0.2936771, 10.239428
1125489202923017, 2.3377876, -0.64606214, 9.493524, -0.6862777, 0.19372988, 9.772469
1125489212562809, 2.7218359, 0.7405786, 9.891929, 0.62074375, -0.33446145, 10.262063
1125489222202705, 2.3700907, -0.2727818, 9.47797, -0.31421116, 0.08808994, 9.768172
1125489231842600, 2.6512475, 0.26679972, 9.810573, 0.17598155, -0.19252253, 10.162657
1125489241482392, 2.4023938, 0.17587246, 9.6275215, 0.11929625, 0.018272638, 9.923558
1125489251122288, 2.507678, -0.29910284, 9.755538, -0.36188447, 0.03073883, 10.070578
1125489260762184, 2.4885356, 0.6472585, 9.830912, 0.5807884, -0.09454656, 10.144571
1125489270401975, 2.3318057, -0.68195444, 9.640682, -0.70944107, 0.23583078, 9.91394
1125489280041871, 2.57707, 0.82672024, 9.917053, 0.74567366, -0.20270443, 10.250639
1125489289681663, 2.243271, -0.7190432, 9.543773, -0.73156244, 0.3023727, 9.798279
1125489299321559, 2.6201408, 0.7262217, 9.95175, 0.6264153, -0.21792698, 10.295142
1125489308961455, 2.2755744, -0.38285163, 9.521041, -0.40302414, 0.21222782, 9.786089
1125489318601246, 2.5962126, 0.317049, 9.873982, 0.22856805, -0.13742423, 10.211036
1125489328241142, 2.3772693, 0.12203395, 9.594023, 0.074578255, 0.037529707, 9.8845625
1125489337881038, 2.5208387, -0.2428715, 9.728021, -0.3083626, 0.009166479, 10.047527
1125489347520830, 2.5112674, 0.58265233, 9.799805, 0.51022637, -0.13110137, 10.119516
1125489357160725, 2.3904297, -0.68195444, 9.65145, -0.71258354, 0.19763017, 9.938956
1125489366800621, 2.6189444, 0.8063812, 9.907482, 0.72098404, -0.24225736, 10.251285
1125489376440413, 2.2947168, -0.73818576, 9.51147, -0.75065327, 0.26707864, 9.77977
1125489386080309, 2.6715865, 0.7513463, 9.932607, 0.66191006, -0.27085638, 10.2882
1125489395720205, 2.2863421, -0.424726, 9.542577, -0.45286226, 0.21788716, 9.808975
1125489405359996, 2.6416762, 0.357727, 9.943375, 0.27771512, -0.16751885, 10.289409
1125489414999892, 2.3665016, 0.05742774, 9.616755, 0.014444739, 0.07254481, 9.903541
1125489424639788, 2.5088747, -0.14356937, 9.751948, -0.2037201, 0.008869648, 10.068465
1125489434279580, 2.4502504, 0.5766702, 9.763913, 0.51475674, -0.069607735, 10.06978
1125489443919475, 2.3772693, -0.58624154, 9.656236, -0.6128944, 0.197927, 9.940983
1125489453559267, 2.5663023, 0.83748794, 9.866804, 0.74973994, -0.19935322, 10.199965
1125489463199163, 2.268396, -0.7286145, 9.516255, -0.73899543, 0.28622627, 9.777913
1125489472839059, 2.652444, 0.7812566, 9.938589, 0.6914914, -0.26032877, 10.28958
1125489482478955, 2.2731814, -0.5072784, 9.547362, -0.52047867, 0.24831557, 9.810416
1125489492118746, 2.6105695, 0.39361933, 9.924232, 0.30654234, -0.14655757, 10.263767
1125489501758642, 2.3437698, -0.016749758, 9.613165, -0.057311684, 0.10633206, 9.8940325
1125489511398538, 2.5375884, -0.13519448, 9.812965, -0.19999737, -0.004515648, 10.134687
1125489521038330, 2.4705894, 0.48454657, 9.766306, 0.41928473, -0.076995134, 10.076587
1125489530678225, 2.4107687, -0.5946164, 9.669396, -0.62618005, 0.17349553, 9.961948
1125489540318121, 2.6045876, 0.8243274, 9.839287, 0.737988, -0.25663066, 10.181576
1125489549957913, 2.300699, -0.715454, 9.507881, -0.73692894, 0.26670504, 9.777049
1125489559597809, 2.638087, 0.79920274, 9.91466, 0.7130151, -0.25737262, 10.262753
1125489569237705, 2.2660031, -0.58265233, 9.547362, -0.58979636, 0.27096677, 9.80842
1125489578877496, 2.6512475, 0.40797627, 9.980463, 0.31614757, -0.17687225, 10.32831
1125489588517392, 2.3629124, -0.13878371, 9.643075, -0.17237628, 0.113425255, 9.927182
1125489598157288, 2.5878377, -0.101694964, 9.830912, -0.17116895, -0.05823922, 10.164713
1125489607797080, 2.481357, 0.4977071, 9.725628, 0.43682534, -0.08464217, 10.039657
1125489617436975, 2.4478576, -0.42831525, 9.65145, -0.4762032, 0.089983225, 9.954452
1125489627076871, 2.609373, 0.9164511, 9.781859, 0.8259605, -0.26403332, 10.128257
1125489636716663, 2.3150558, -0.64008003, 9.503095, -0.67536074, 0.2128346, 9.776329
1125489646356559, 2.6476583, 0.849452, 9.909875, 0.7507237, -0.26144528, 10.261839
1125489655996455, 2.248057, -0.61854464, 9.550952, -0.6262709, 0.2913661, 9.807136
1125489665636350, 2.605784, 0.40677986, 9.9553385, 0.33324474, -0.13754916, 10.292442
1125489675276142, 2.3018954, -0.25962126, 9.597611, -0.28016013, 0.18977523, 9.867411
1125489684916038, 2.5220351, -0.101694964, 9.8632145, -0.15428144, 0.01513958, 10.17988
1125489694555934, 2.4275186, 0.31345975, 9.766306, 0.2703858, 0.0011835098, 10.064727
1125489704195725, 2.4299114, -0.50488555, 9.735199, -0.5385177, 0.14845967, 10.031022
1125489713835621, 2.5794628, 0.7968099, 9.870394, 0.7229179, -0.22443151, 10.204911
1125489723475517, 2.3461626, -0.64965135, 9.579665, -0.67288524, 0.22235513, 9.858717
1125489733115413, 2.7026932, 0.9296116, 9.921839, 0.8340396, -0.34652138, 10.285714
1125489742755205, 2.333002, -0.52283174, 9.47797, -0.54084104, 0.1770351, 9.758295
1125489752395100, 2.6811578, 0.61016977, 9.862019, 0.5197915, -0.2710297, 10.221384
1125489762034996, 2.3449662, -0.16749759, 9.505488, -0.19665766, 0.10965848, 9.789307
1125489771674788, 2.5842485, 0.03589234, 9.798609, -0.03660974, -0.08069801, 10.133339
1125489781314684, 2.4299114, 0.28953153, 9.706485, 0.24074772, -0.0034799576, 10.007306
1125489790954580, 2.4514468, -0.50488555, 9.74477, -0.5428318, 0.1295662, 10.045575
1125489800594475, 2.5615165, 0.6628119, 9.902697, 0.5882215, -0.14887118, 10.232101
1125489810234267, 2.3365912, -0.79800636, 9.613165, -0.8180306, 0.26508355, 9.88787
1125489819874163, 2.6512475, 0.79441714, 9.924232, 0.71881676, -0.25330567, 10.274713
1125489829514059, 2.2959132, -0.65324056, 9.500702, -0.67044055, 0.24795341, 9.769868
1125489839153850, 2.6919255, 0.6197411, 9.939785, 0.543408, -0.2515595, 10.299092
1125489848793746, 2.3461626, -0.2536392, 9.519845, -0.28097785, 0.1357274, 9.803005
1125489858433642, 2.6321049, 0.101694964, 9.804591, 0.03444028, -0.13573694, 10.151291
1125489868073538, 2.4418755, 0.2656033, 9.634701, 0.22083712, -0.025733232, 9.940389
1125489877713330, 2.469393, -0.40438703, 9.742377, -0.44267592, 0.09737849, 10.048377
1125489887353225, 2.5339992, 0.65682983, 9.839287, 0.59378433, -0.13125515, 10.1633835
1125489896993121, 2.321038, -0.7286145, 9.600004, -0.7457595, 0.25649977, 9.871991
1125489906633017, 2.5950162, 0.8554341, 9.937392, 0.7948868, -0.19695497, 10.273607
1125489916272809, 2.254039, -0.6520442, 9.560523, -0.6598885, 0.29902458, 9.817564
1125489925912705, 2.6273193, 0.6687939, 10.012766, 0.6068403, -0.17843151, 10.354009
1125489935552600, 2.3042881, -0.26919255, 9.577272, -0.2830915, 0.17889571, 9.848564
1125489945192496, 2.6189444, 0.22851457, 9.851251, 0.16248582, -0.13560796, 10.193793
1125489954832288, 2.4562325, 0.22851457, 9.622736, 0.18149616, -0.03504038, 9.9321785
1125489964472184, 2.5423741, -0.3481557, 9.735199, -0.3985893, 0.01326251, 10.059818
1125489974112080, 2.5902305, 0.66041905, 9.798609, 0.592687, -0.1946528, 10.137506
1125489983751975, 2.4346972, -0.695115, 9.562916, -0.73183787, 0.148319, 9.864213
1125489993391767, 2.6715865, 0.84347, 9.87159, 0.7658099, -0.2816174, 10.228944
1125490003031663, 2.3138595, -0.7286145, 9.498309, -0.7470627, 0.25133276, 9.7714615
1125490012671559, 2.6799614, 0.66999036, 9.952946, 0.58028364, -0.24350548, 10.310006
1125490022311455, 2.2468605, -0.38404804, 9.5665045, -0.38400784, 0.26064897, 9.823363
1125490031951246, 2.5639095, 0.21296121, 9.891929, 0.15866359, -0.06729603, 10.219565
1125490041591142, 2.3401806, 0.111266255, 9.664611, 0.085917205, 0.10866284, 9.943558
1125490051231038, 2.489732, -0.21535404, 9.806984, -0.26007852, 0.048479795, 10.11692
1125490060870934, 2.4562325, 0.09212367, 9.762716, 0.05208364, 0.025935888, 10.067215
1125490070510725, 2.5052853, 0.02632105, 9.74836, -0.02025482, -0.015433311, 10.065138
1125490080150621, 2.5196424, 0.0634098, 9.6993065, 0.012470156, -0.046242, 10.021321
1125490089790517, 2.5399811, 0.12323037, 9.708878, 0.06937206, -0.071926355, 10.035886
1125490099430413, 2.5136602, 0.0741775, 9.696914, 0.024797618, -0.04104948, 10.017575
1125490109070309, 2.4837499, 0.09930214, 9.707682, 0.053485364, -0.012622833, 10.020726
1125490118710100, 2.4741786, 0.03708875, 9.71845, -0.007536739, 0.0085680485, 10.028513
1125490128349996, 2.455036, 0.02751746, 9.7399845, -0.012572497, 0.033931017, 10.044599
1125490137989892, 2.457429, 0.01794617, 9.747163, -0.02230534, 0.034757614, 10.052102
1125490147629788, 2.449054, 0.031106694, 9.757931, -0.006367594, 0.04233718, 10.060528
1125490157269580, 2.4538395, 0.06580263, 9.753145, 0.02687344, 0.029171228, 10.057234
1125490166909475, 2.4418755, 0.101694964, 9.760324, 0.06456962, 0.035316944, 10.061392
1125490176549371, 2.4454648, 0.13160525, 9.734002, 0.091402054, 0.020228148, 10.036914
1125490186189267, 2.4598217, 0.096909314, 9.683753, 0.051192462, -4.2510033E-4, 9.991625
1125490195829163, 2.4502504, 0.022731815, 9.736395, -0.019646347, 0.037073374, 10.039913
1125490205468955, 2.481357, -0.047856454, 9.77468, -0.092938244, 0.031474113, 10.0843525
1125490215108850, 2.4969103, -0.08255238, 9.779466, -0.12825972, 0.02494812, 10.092683
1125490224748746, 2.524428, -0.03708875, 9.765109, -0.09006965, -0.01492095, 10.08579
1125490234388642, 2.5316064, 0.023928227, 9.754341, -0.029628783, -0.037349463, 10.077425
1125490244028538, 2.5220351, 0.11246266, 9.742377, 0.060582697, -0.04788041, 10.063859
1125490253668330, 2.5184457, 0.17706887, 9.713663, 0.12343779, -0.062883615, 10.035436
1125490263308225, 2.507678, 0.18065812, 9.696914, 0.12834194, -0.057328463, 10.016559
1125490272948121, 2.4849463, 0.16031912, 9.672985, 0.108231366, -0.03481555, 9.987711
1125490282588017, 2.4681966, 0.104087785, 9.687343, 0.056931227, -0.0044310093, 9.997209
1125490292227913, 2.4705894, 0.04546363, 9.689735, -0.0027466714, 0.006079197, 9.99984
1125490301867705, 2.4358935, 0.0071784677, 9.777073, -0.031222701, 0.0674572, 10.075677
1125490311507600, 2.43709, -0.016749758, 9.790234, -0.054281145, 0.07191086, 10.088621
1125490321147496, 2.4538395, -0.020338992, 9.801002, -0.059331506, 0.057893515, 10.103193
1125490330787392, 2.4634109, 0.0071784677, 9.786645, -0.03466323, 0.04011154, 10.091783
1125490340427288, 2.469393, 0.031106694, 9.753145, -0.012117475, 0.021247625, 10.060921
1125490350067184, 2.487339, 0.06819545, 9.686146, 0.019685298, -0.018559933, 10.00061
1125490359706975, 2.5136602, 0.08255238, 9.667004, 0.029051274, -0.049120665, 9.988645
1125490369346871, 2.507678, 0.07298109, 9.702896, 0.021132916, -0.032292604, 10.021899
1125490378986767, 2.5184457, 0.051445685, 9.732806, -7.3963404E-4, -0.031365156, 10.053444
1125490388626663, 2.5112674, 0.058624156, 9.745967, 0.0064184964, -0.022133827, 10.064455
1125490398266559, 2.528017, 0.08973085, 9.760324, 0.034133077, -0.040230513, 10.082662
1125490407906350, 2.5543382, 0.09930214, 9.745967, 0.03720045, -0.07050443, 10.075318
1125490417546246, 2.53041, 0.12083755, 9.742377, 0.06290999, -0.05136466, 10.066029
1125490427186142, 2.5148566, 0.10767702, 9.730413, 0.05223751, -0.03614092, 10.050525
1125490436826038, 2.510071, 0.06460621, 9.71127, 0.010117799, -0.027616024, 10.030581
1125490446465934, 2.4825535, 0.051445685, 9.713663, 0.002889365, 0.0022382736, 10.026015
1125490456105830, 2.469393, 0.02632105, 9.728021, -0.017258525, 0.021881104, 10.036545
1125490465745725, 2.4562325, 0.0023928226, 9.750752, -0.036703825, 0.043026447, 10.055201
1125490475385517, 2.4442682, -0.013160525, 9.753145, -0.04943505, 0.055880785, 10.054495
1125490485025413, 2.4478576, -0.011964113, 9.7399845, -0.04946685, 0.049053907, 10.042639
1125490494665309, 2.4921248, 0.011964113, 9.751948, -0.033224374, 0.003597498, 10.065298
1125490504305205, 2.528017, 0.039481573, 9.71486, -0.013762355, -0.046211958, 10.038357
1125490513945100, 2.53041, 0.05383851, 9.710074, -5.0646067E-4, -0.0522058, 10.034377
1125490523584996, 2.5292134, 0.076570325, 9.724431, 0.022336125, -0.0507586, 10.048099
1125490533224788, 2.516053, 0.05742774, 9.717253, 0.0043136775, -0.035750628, 10.037805
1125490542864684, 2.4933212, 0.0741775, 9.741181, 0.02601403, -0.011366367, 10.055446
1125490552504580, 2.4717858, 0.09212367, 9.726824, 0.045954943, 0.0033595562, 10.036294
1125490562144475, 2.4538395, 0.09810573, 9.750752, 0.05616501, 0.025032282, 10.055066
1125490571784371, 2.4346972, 0.104087785, 9.757931, 0.06555802, 0.04354906, 10.057315
1125490581424267, 2.4358935, 0.086141616, 9.753145, 0.04654506, 0.044278383, 10.052895
1125490591064163, 2.4143581, 0.07298109, 9.74836, 0.036179274, 0.06546736, 10.042877
1125490600703955, 2.4239295, 0.06699903, 9.767502, 0.028895259, 0.05979395, 10.063777
1125490610343850, 2.4478576, 0.0634098, 9.745967, 0.019828588, 0.030918837, 10.048808
1125490619983746, 2.4741786, 0.049052864, 9.737592, 4.7165155E-4, 0.006015539, 10.047121
1125490629623642, 2.4658036, 0.032303106, 9.742377, -0.013442636, 0.018650293, 10.049607
1125490639263538, 2.487339, 0.04426722, 9.720842, -0.006927699, -0.009423971, 10.034114
1125490648903434, 2.4681966, 0.08135597, 9.708878, 0.03367746, -0.0016429424, 10.017974
1125490658543330, 2.4502504, 0.12083755, 9.686146, 0.07549882, 0.0033102036, 9.991698
1125490668183225, 2.469393, 0.13040884, 9.663414, 0.07972425, -0.021605015, 9.974451
1125490677823017, 2.4251258, 0.07058827, 9.647861, 0.027208358, 0.029062986, 9.948158
1125490687462913, 2.4526432, 0.0023928226, 9.712467, -0.04511252, 0.032048702, 10.017208
1125490697102809, 2.4681966, -0.08255238, 9.8117695, -0.12737712, 0.05753517, 10.116823
1125490706742705, 2.455036, -0.12083755, 9.8524475, -0.160584, 0.086796045, 10.152795
1125490716382600, 2.5064816, -0.076570325, 9.853643, -0.12538382, 0.027356386, 10.166913
1125490726022496, 2.5124638, -0.0047856453, 9.781859, -0.05577308, -0.010370731, 10.09921
1125490735662392, 2.5208387, 0.09810573, 9.720842, 0.04422331, -0.05064106, 10.042636
1125490745302184, 2.5615165, 0.1591227, 9.701699, 0.097649634, -0.10374951, 10.034409
1125490754942080, 2.568695, 0.17467605, 9.646665, 0.108795285, -0.12541556, 9.982948
1125490764581975, 2.57707, 0.15792629, 9.656236, 0.08913046, -0.12248635, 9.994307
1125490774221871, 2.556731, 0.13519448, 9.671789, 0.070629984, -0.09546304, 10.004228
1125490783861767, 2.5112674, 0.06580263, 9.704092, 0.008658528, -0.028484821, 10.023937
1125490793501663, 2.4789643, 0.009571291, 9.747163, -0.039467692, 0.02320075, 10.057357
1125490803141559, 2.4382863, -0.021535404, 9.7399845, -0.062351048, 0.06507993, 10.040164
1125490812781455, 2.4358935, -0.014356935, 9.76152, -0.05332759, 0.0693748, 10.060489
1125490822421350, 2.4275186, 0.021535404, 9.77468, -0.0164195, 0.07365513, 10.071344
1125490832061142, 2.455036, 0.040677983, 9.773484, -0.001777947, 0.04227066, 10.077106
1125490841701038, 2.4837499, 0.07058827, 9.741181, 0.022488236, 6.387234E-4, 10.053063
1125490851340934, 2.489732, 0.07298109, 9.723235, 0.023034006, -0.009060621, 10.03717
1125490860980830, 2.5136602, 0.08733802, 9.701699, 0.031660557, -0.039402008, 10.022302
1125490870620725, 2.524428, 0.07178468, 9.68136, 0.013771266, -0.0517354, 10.005187
1125490880260621, 2.5399811, 0.049052864, 9.701699, -0.011971921, -0.05618596, 10.028638
1125490889900517, 2.5471597, 0.039481573, 9.726824, -0.021658987, -0.05499339, 10.054709
1125490899540413, 2.524428, 0.039481573, 9.731609, -0.017470926, -0.032165766, 10.053714
1125490909180309, 2.5004997, 0.04546363, 9.726824, -0.007891357, -0.011496544, 10.04318
1125490918820205, 2.495714, 0.043070808, 9.730413, -0.009242654, -0.0056843758, 10.045461
1125490928460100, 2.4729822, 0.043070808, 9.713663, -0.0063884556, 0.011692047, 10.023602
1125490938099892, 2.4514468, 0.058624156, 9.724431, 0.012626916, 0.031682014, 10.02878
1125490947739788, 2.4382863, 0.069391854, 9.751948, 0.026562214, 0.048348904, 10.052238
1125490957379684, 2.4323041, 0.08733802, 9.754341, 0.045426905, 0.049605608, 10.053176
1125490967019580, 2.43709, 0.078963146, 9.760324, 0.036578745, 0.048051596, 10.060114
1125490976659475, 2.4358935, 0.07298109, 9.750752, 0.0304901, 0.047130585, 10.05052
1125490986299371, 2.4789643, 0.049052864, 9.737592, -0.0019779503, 0.005712986, 10.048299
1125490995939267, 2.4969103, 0.062213387, 9.725628, 0.007480055, -0.016843319, 10.041212
1125491005579163, 2.4849463, 0.05383851, 9.723235, 0.0013769269, -0.0044481754, 10.035893
1125491015219059, 2.5124638, 0.013160525, 9.716056, -0.043754995, -0.024216175, 10.035531
1125491024858955, 2.5124638, 0.013160525, 9.713663, -0.04350874, -0.024434566, 10.033215
