timestamp_acc,device_acc_x,device_acc_y,device_acc_z,earth_acc_x,earth_acc_y,earth_acc_z
773450683089358, -1.3950156, 5.0823555, 7.63789, -0.29861832, -0.15433598, 9.27366
773450692728837, -1.4560326, 5.070391, 7.4452677, -0.33727312, -0.2600975, 9.114797
773450702368212, -1.4404793, 5.1673007, 7.6941214, -0.3111527, -0.18779063, 9.37248
773450712007691, -1.4847465, 5.2749777, 8.145168, -0.18701029, -0.10774207, 9.814634
773450721647066, -1.5290136, 5.2689953, 8.475378, -0.023955822, -0.035303354, 10.096059
773450731286545, -1.5684953, 5.209175, 8.603394, 0.093720436, -0.015553236, 10.178657
773450740925920, -1.5433706, 5.1182475, 8.596215, 0.15353727, 0.023684025, 10.12172
773450750565400, -1.5038891, 5.0715876, 8.469396, 0.11997485, 0.030651331, 9.984889
773450760204879, -1.4488541, 5.066802, 8.298309, 0.02746272, 0.029531479, 9.830157
773450769844254, -1.430908, 5.0799623, 8.195417, -0.035012484, 0.011935234, 9.747667
773450779483733, -1.4201403, 5.1254263, 8.2049885, -0.07078624, 0.015058279, 9.777699
773450789123108, -1.43689, 5.143372, 8.258827, -0.05562949, 0.012303114, 9.834832
773450798762587, -1.4859428, 5.1589255, 8.29113, -0.036848545, -0.026734352, 9.877413
773450808401962, -1.4835501, 5.156533, 8.338987, -0.014385223, -0.0099208355, 9.916105
773450818041441, -1.4871392, 5.1409793, 8.40479, 0.028806448, 0.009772778, 9.963976
773450827680816, -1.4919249, 5.1026945, 8.41795, 0.06727648, 0.017873287, 9.955921
773450837320295, -1.4799608, 5.1026945, 8.385647, 0.048036814, 0.019126654, 9.926944
773450846959670, -1.4727824, 5.1003013, 8.373683, 0.041454792, 0.023180008, 9.914558
773450856599150, -1.4703895, 5.123033, 8.352147, 0.01265192, 0.015263319, 9.907849
773450866238629, -1.4464613, 5.1326046, 8.319844, -0.017973661, 0.025619745, 9.88204
773450875878004, -1.4811572, 5.127819, 8.323434, 0.001688242, -0.002749443, 9.887765
773450885517483, -1.4584254, 5.1900325, 8.385647, -0.030091763, 0.02269864, 9.969007
773450895156858, -1.4560326, 5.1385865, 8.452646, 0.04320097, 0.058392525, 9.998351
773450904796337, -1.4476577, 5.131408, 8.5112705, 0.07420111, 0.08731127, 10.042691
773450914435712, -1.4608182, 5.103891, 8.414361, 0.0593338, 0.05349064, 9.94881
773450924075191, -1.5397813, 5.063213, 8.386844, 0.11341286, -0.013027906, 9.916307
773450933714566, -1.5038891, 5.1050873, 8.458628, 0.09777522, 0.0311234, 9.99307
773450943354045, -1.43689, 5.1266227, 8.471788, 0.067105055, 0.09635854, 10.005215
773450952993420, -1.4249259, 5.131408, 8.330612, 0.017855406, 0.07287669, 9.887123
773450962632900, -1.4201403, 5.143372, 8.233703, -0.037468433, 0.044299126, 9.811298
773450972272379, -1.4823537, 5.180461, 8.268398, -0.018728971, -0.0039350986, 9.869174
773450981911754, -1.422533, 5.2689953, 8.297112, -0.077979326, 0.04853487, 9.930738
773450991551233, -1.4285151, 5.231907, 8.232507, -0.0738883, 0.03222704, 9.858053
773451001190608, -1.4488541, 5.18405, 8.250452, -0.007628441, 0.036186695, 9.850996
773451010830087, -1.5349957, 5.252246, 8.29472, 0.0011630058, -0.03835988, 9.936961
773451020469462, -1.6474584, 5.298906, 8.193025, -0.027701378, -0.1762445, 9.893752
773451030108941, -1.7431713, 5.4053864, 6.7118673, -0.7243874, -0.7637658, 8.729143
773451039748420, -2.0075781, 5.4221363, 7.446464, -0.3017497, -0.75504375, 9.392477
773451049387795, -1.7575282, 5.432904, 8.305488, -0.016824007, -0.24042845, 10.076131
773451059027275, -1.1641082, 5.2103715, 8.579466, 0.034494877, 0.44072604, 10.095293
773451068666650, -1.2239288, 5.038088, 8.427522, 0.12511802, 0.37036538, 9.886891
773451078306129, -1.5170496, 5.1050873, 8.567501, 0.24556947, 0.13299513, 10.084019
773451087945504, -1.5326029, 5.209175, 8.554341, 0.15537953, 0.08065009, 10.130671
773451097584983, -1.4811572, 5.2510495, 8.504091, 0.07552481, 0.09811568, 10.103046
773451107224358, -1.4668003, 5.18405, 8.611769, 0.17334318, 0.1616013, 10.155407
773451116863837, -1.4440684, 5.241478, 8.554341, 0.0909493, 0.14744449, 10.134357
773451126503316, -1.463211, 5.2426744, 8.203793, -0.058346987, 0.017843962, 9.845057
773451136142691, -1.5337993, 5.2103715, 7.838887, -0.16889381, -0.15279388, 9.533981
773451145782170, -1.5349957, 5.239085, 7.836494, -0.18890858, -0.157058, 9.547486
773451155421545, -1.5326029, 5.2701917, 7.9920278, -0.14314866, -0.10757136, 9.693514
773451165061025, -1.5026926, 5.255835, 8.129615, -0.08258772, -0.033452272, 9.796151
773451174700400, -1.4883357, 5.24746, 8.283952, -0.013491392, 0.026180267, 9.918365
773451184339879, -1.524228, 5.21755, 8.389236, 0.0716362, 0.030842066, 9.995966
773451193979254, -1.5493526, 5.204389, 8.413164, 0.09779954, 0.015208006, 10.012878
773451203618733, -1.5637096, 5.2031927, 8.411968, 0.09681797, -4.734993E-4, 10.013503
773451213258212, -1.5493526, 5.2103715, 8.41795, 0.08775902, 0.013498783, 10.020103
773451222897587, -1.5110675, 5.2127643, 8.407183, 0.06792736, 0.04477763, 10.0065155
773451232537066, -1.4524434, 5.194818, 8.334201, 0.028587818, 0.08115029, 9.927096
773451242176441, -1.4297116, 5.18405, 8.2049885, -0.028251648, 0.0643003, 9.809962
773451251815920, -1.451247, 5.1852465, 8.080562, -0.076180935, 0.0063564777, 9.709919
773451261455295, -1.4763715, 5.1876397, 8.030313, -0.09177494, -0.03325486, 9.6730385
773451271094775, -1.5780666, 5.2307105, 8.072187, -0.07201862, -0.121867895, 9.746323
773451280734150, -1.6115661, 5.2642097, 8.129615, -0.06644225, -0.14002371, 9.817112
773451290373629, -1.6067804, 5.3108697, 8.251649, -0.054055452, -0.10865021, 9.942941
773451300013108, -1.5637096, 5.2749777, 8.437093, 0.04210925, -0.0044636726, 10.072403
773451309652483, -1.5122639, 5.229514, 8.513663, 0.09561229, 0.07687616, 10.104563
773451319291962, -1.457229, 5.174479, 8.411968, 0.07391071, 0.10549116, 9.982153
773451328931337, -1.4344971, 5.1409793, 8.287541, 0.035749435, 0.09293413, 9.857022
773451338570816, -1.4620147, 5.151747, 8.190632, -0.008100748, 0.031685114, 9.785877
773451348210191, -1.5002998, 5.1409793, 8.212168, 0.024484396, 0.006488085, 9.804064
773451357849670, -1.5122639, 5.1613183, 8.2456665, 0.026756763, 0.0010397434, 9.844616
773451367489045, -1.5230316, 5.197211, 8.274381, 0.012497425, -0.008664608, 9.889175
773451377128525, -1.5290136, 5.2462635, 8.327023, -0.0039401054, -0.010058403, 9.959938
773451386768004, -1.5002998, 5.261817, 8.3377905, -0.024852991, 0.015563726, 9.972738
773451396407379, -1.5038891, 5.2905307, 8.304291, -0.06140542, -0.0064935684, 9.960363
773451406046858, -1.4943178, 5.261817, 8.184649, -0.093892336, -0.029487133, 9.843704
773451415686233, -1.4715859, 5.221139, 8.154739, -0.082126856, -0.0059301853, 9.7938175
773451425325712, -1.5182459, 5.176872, 8.193025, -0.010708094, -0.02425313, 9.809689
773451434965087, -1.5433706, 5.176872, 8.271988, 0.033693075, -0.023142576, 9.879581
773451444604566, -1.5780666, 5.17089, 8.300702, 0.06258869, -0.04557562, 9.905759
773451454243941, -1.5960127, 5.18405, 8.362915, 0.082119465, -0.047364473, 9.967496
773451463883420, -1.5924234, 5.1876397, 8.437093, 0.11053705, -0.021378756, 10.030916
773451473522900, -1.558924, 5.218746, 8.405986, 0.058957577, -0.0074055195, 10.016119
773451483162275, -1.5158532, 5.2055855, 8.340183, 0.027157545, 0.015219688, 9.947543
773451492801754, -1.4715859, 5.215157, 8.23131, -0.0453434, 0.020609379, 9.854714
773451502441129, -1.4273187, 5.209175, 8.116454, -0.10213089, 0.026841879, 9.748766
773451512080608, -1.4596218, 5.2163534, 8.075776, -0.11244774, -0.01781702, 9.72348
773451521719983, -1.5373886, 5.1876397, 8.1344, -0.034466982, -0.06425834, 9.769255
773451531359462, -1.5218352, 5.209175, 8.239685, -0.009570599, -0.021952868, 9.866273
773451540998941, -1.5349957, 5.221139, 8.340183, 0.02797246, -0.005676985, 9.958632
773451550638316, -1.5230316, 5.2199426, 8.384451, 0.044101, 0.019796371, 9.993204
773451560277795, -1.5146568, 5.2055855, 8.391629, 0.05444479, 0.03229904, 9.990383
773451569917170, -1.4859428, 5.188836, 8.343773, 0.0356946, 0.046447277, 9.937162
773451579556650, -1.442872, 5.1792645, 8.271988, -0.005337715, 0.06585145, 9.8654995
773451589196025, -1.4488541, 5.2019963, 8.226524, -0.04193139, 0.04062128, 9.840339
773451598835504, -1.457229, 5.2139606, 8.179864, -0.06994486, 0.014378309, 9.808874
773451608474879, -1.4847465, 5.2031927, 8.199007, -0.04257655, -0.0018894672, 9.8234215
773451618114358, -1.5254245, 5.197211, 8.279166, 0.01311636, -0.012390852, 9.893544
773451627753837, -1.5780666, 5.197211, 8.376076, 0.07512689, -0.030457258, 9.982655
773451637393212, -1.5577276, 5.1900325, 8.419147, 0.09166956, 0.0043890476, 10.011821
773451647032691, -1.5373886, 5.1852465, 8.365308, 0.06304979, 0.007573843, 9.961159
773451656672066, -1.5469599, 5.17089, 8.275578, 0.038464308, -0.026972532, 9.879988
773451666311545, -1.5230316, 5.2199426, 8.185846, -0.04995179, -0.0459888, 9.827049
773451675950920, -1.5182459, 5.229514, 8.1020975, -0.09502697, -0.068445444, 9.761311
773451685590400, -1.4919249, 5.2402816, 8.142776, -0.095125675, -0.035146236, 9.796985
773451695229775, -1.4763715, 5.2307105, 8.258827, -0.04091263, 0.018767834, 9.886668
773451704869254, -1.4703895, 5.211568, 8.336594, 0.007071972, 0.05413699, 9.940741
773451714508733, -1.5170496, 5.1876397, 8.359326, 0.05307746, 0.023876905, 9.954296
773451724148108, -1.5050855, 5.186443, 8.311469, 0.026108027, 0.018539906, 9.911809
773451733787587, -1.5158532, 5.1816573, 8.309076, 0.033055067, 0.009077311, 9.908933
773451743426962, -1.5218352, 5.1469617, 8.269595, 0.045054913, -8.985996E-4, 9.85857
773451753066441, -1.5098711, 5.078766, 8.179864, 0.056354046, -0.0014207363, 9.745797
773451762705816, -1.5266209, 5.1852465, 8.315059, 0.032828808, -1.5163422E-4, 9.917483
773451772345295, -1.4380864, 5.4699926, 8.237292, -0.2664454, -0.018993855, 9.988521
773451781984775, -1.5768701, 4.7748775, 8.2348995, 0.35164976, 0.045048, 9.642296
773451791624150, -1.43689, 5.8097734, 8.419147, -0.4649074, -0.056726217, 10.318953
773451801263629, -1.6630118, 4.5631127, 8.118847, 0.50785494, -0.013666153, 9.446966
773451810903004, -1.4129617, 5.8672013, 8.426325, -0.5107546, -0.048712254, 10.351822
773451820542483, -1.5661024, 4.599005, 8.07458, 0.41124392, 0.053301334, 9.414373
773451830181858, -1.4452649, 5.6207404, 8.414361, -0.31342697, -0.011743784, 10.216878
773451839821337, -1.5230316, 4.941179, 8.100901, 0.13050199, 2.3436546E-4, 9.609495
773451849460816, -1.4931214, 5.206782, 8.322237, 0.003720045, 0.0274086, 9.929696
773451859100191, -1.463211, 5.42094, 8.203793, -0.23533249, -0.046017647, 9.938426
773451868739670, -1.6187445, 4.735396, 8.248059, 0.3978443, 0.014106274, 9.639311
773451878379045, -1.3818551, 5.741578, 8.446664, -0.42122746, 0.025761843, 10.29773
773451888018525, -1.5768701, 4.469793, 8.176275, 0.55840564, 0.1037662, 9.433688
773451897657900, -1.410569, 5.8480587, 8.46461, -0.49012113, -0.024631977, 10.372959
773451907297379, -1.6019948, 4.551149, 8.082955, 0.4652164, 0.026335478, 9.401937
773451916936754, -1.4691931, 5.669793, 8.512466, -0.30479288, -0.022490978, 10.3283
773451926576233, -1.538585, 4.9316072, 8.17149, 0.1626215, 0.005228758, 9.666166
773451936215712, -1.5469599, 5.2570314, 8.362915, -0.009451866, -0.027344227, 9.998349
773451945855087, -1.5014962, 5.406583, 8.135597, -0.2497797, -0.10380888, 9.879291
773451955494566, -1.6139588, 4.7952166, 8.182257, 0.3085003, -0.020062685, 9.615233
773451965133941, -1.4416757, 5.741578, 8.389236, -0.43948793, -0.051491737, 10.258053
773451974773420, -1.6187445, 4.485346, 8.184649, 0.56463194, 0.053013086, 9.45545
773451984412795, -1.39023, 5.845666, 8.475378, -0.5108764, -0.0061967373, 10.376682
773451994052275, -1.5481563, 4.53081, 8.136793, 0.47774005, 0.08137512, 9.428552
773452003691754, -1.4464613, 5.6506505, 8.559127, -0.29609418, 0.019203424, 10.353393
773452013331129, -1.5290136, 4.820341, 8.172686, 0.24505568, 0.039970636, 9.607535
773452022970608, -1.4943178, 5.2606206, 8.445468, -0.011998653, 0.040551424, 10.061375
773452032609983, -1.4500505, 5.3647084, 8.252846, -0.1966424, -0.010500193, 9.947534
773452042249462, -1.5936198, 4.855037, 8.248059, 0.27351093, -0.004159212, 9.698796
773452051888837, -1.3926228, 5.7690954, 8.301898, -0.5257857, -0.06239271, 10.191322
773452061528316, -1.6127625, 4.537988, 8.065009, 0.4621954, 0.005935669, 9.382167
773452071167795, -1.396212, 5.855237, 8.398808, -0.5534253, -0.0432539, 10.318189
773452080807170, -1.5936198, 4.4614177, 8.066205, 0.5094347, 0.040007353, 9.340578
773452090446650, -1.4045869, 5.676972, 8.517252, -0.35771966, 0.03321457, 10.325474
773452100086025, -1.5433706, 4.773681, 8.2049885, 0.29436374, 0.04415965, 9.612662
773452109725504, -1.524228, 5.2941203, 8.539984, 0.014606714, 0.034840584, 10.16272
773452119364879, -1.4871392, 5.2510495, 8.330612, -0.06232667, 0.009109259, 9.958926
773452129004358, -1.5864414, 4.851448, 8.329415, 0.30002856, 0.028817892, 9.764305
773452138643837, -1.4584254, 5.706882, 8.334201, -0.440053, -0.08430362, 10.195767
773452148283212, -1.6570296, 4.5296135, 8.05783, 0.46915412, -0.036163807, 9.3792515
773452157922691, -1.396212, 5.946164, 8.29113, -0.6789379, -0.11387801, 10.27498
773452167562066, -1.6283158, 4.546363, 8.045866, 0.43920088, -0.016892433, 9.373559
773452177201545, -1.416551, 5.743971, 8.525627, -0.40658045, 0.006637335, 10.369223
773452186841025, -1.4883357, 4.755735, 8.087741, 0.23293185, 0.064506054, 9.4965925
773452196480400, -1.4823537, 5.3443694, 8.4705925, -0.07468629, 0.03860736, 10.124403
773452206119879, -1.4727824, 5.1062837, 8.273184, 0.02320075, 0.043542147, 9.832923
773452215759254, -1.5409778, 4.8191447, 8.271988, 0.27971435, 0.0553298, 9.692434
773452225398733, -1.4596218, 5.6386867, 8.355737, -0.3806262, -0.06011939, 10.17817
773452235038108, -1.6941184, 4.4602213, 8.270791, 0.6242566, 0.011472225, 9.527842
773452244677587, -1.4285151, 5.8277197, 8.5112705, -0.4935944, -0.034171343, 10.401917
773452254317066, -1.6450655, 4.4721856, 8.185846, 0.5571263, 0.037808657, 9.455313
773452263956441, -1.4404793, 5.7607207, 8.559127, -0.41639996, -0.01700902, 10.408931
773452273595920, -1.5038891, 4.779663, 8.079366, 0.20321298, 0.04273367, 9.504731
773452283235295, -1.4691931, 5.4723854, 8.46461, -0.20853925, 0.0028598309, 10.183891
773452292874775, -1.4536397, 5.186443, 8.185846, -0.10288024, 0.006181717, 9.798455
773452302514150, -1.5302101, 4.9232326, 8.207381, 0.1540196, 0.019761324, 9.691066
773452312153629, -1.463211, 5.611169, 8.26122, -0.40518475, -0.09436202, 10.084685
773452321793108, -1.6677973, 4.475775, 8.246863, 0.5848682, 0.0324955, 9.512188
773452331432483, -1.4715859, 5.770292, 8.5112705, -0.43463206, -0.057739735, 10.3784075
773452341071962, -1.7288144, 4.4279184, 8.202596, 0.6235919, -0.021641254, 9.459836
773452350711337, -1.5086746, 5.7403817, 8.645268, -0.34194994, -0.043063164, 10.480934
773452360350816, -1.5517455, 4.6492543, 8.191829, 0.36431336, 0.06715536, 9.538989
773452369990295, -1.463211, 5.4173503, 8.49452, -0.1569519, 0.038599968, 10.179363
773452379629670, -1.4261223, 5.083552, 8.140383, -0.054348707, 0.043081522, 9.702441
773452389269150, -1.5026926, 5.0165524, 8.218149, 0.06398201, 0.020201921, 9.744606
773452398908525, -1.4285151, 5.633901, 8.187042, -0.4763949, -0.09730506, 10.028595
773452408548004, -1.6079768, 4.597809, 8.176275, 0.43380427, 0.024920225, 9.507267
773452418187483, -1.3710874, 5.871987, 8.486146, -0.5591457, -0.007653475, 10.395291
773452427826858, -1.6761723, 4.459025, 8.212168, 0.5883107, -7.939339E-5, 9.47555
773452437466337, -1.4835501, 5.7966127, 8.592627, -0.42042708, -0.04382229, 10.4621315
773452447105712, -1.6175481, 4.615755, 8.1344, 0.40049386, -0.021874428, 9.483105
773452456745191, -1.4883357, 5.453243, 8.520842, -0.16901994, 0.018133163, 10.223935
773452466384670, -1.4907285, 5.028517, 8.175078, 0.02773881, 0.009970903, 9.712843
773452476024045, -1.5529419, 5.023731, 8.316256, 0.12005472, -1.1396408E-4, 9.838455
773452485663525, -1.4440684, 5.538188, 8.239685, -0.37709475, -0.05690503, 10.02516
773452495302900, -1.5828521, 4.6372905, 8.152347, 0.37212396, 0.022429228, 9.504297
773452504942379, -1.3555341, 5.85763, 8.403593, -0.59422493, -0.017955065, 10.315826
773452514581858, -1.6223338, 4.4458647, 8.165507, 0.54617786, 0.05151844, 9.421901
773452524221233, -1.4297116, 5.7750773, 8.5423765, -0.4476912, -0.021216631, 10.400332
773452533860712, -1.5984055, 4.5535417, 8.153543, 0.44862175, 0.035301924, 9.464007
773452543500087, -1.5026926, 5.5106707, 8.598608, -0.18193626, 0.0037150383, 10.321264
773452553139566, -1.5062819, 4.9842496, 8.310273, 0.12533283, 0.05058074, 9.805816
773452562779045, -1.5828521, 5.0273204, 8.472985, 0.18919039, 0.025565386, 9.976694
773452572418420, -1.4596218, 5.453243, 8.250452, -0.30114985, -0.060593843, 9.992195
773452582057900, -1.6223338, 4.6145587, 8.17149, 0.41381788, 0.00714159, 9.514624
773452591697275, -1.4153546, 5.7655063, 8.414361, -0.49625134, -0.05323124, 10.285749
773452601336754, -1.678565, 4.392026, 8.151151, 0.60149956, 0.023348093, 9.390761
773452610976233, -1.4333007, 5.818148, 8.523234, -0.4826057, -0.056685448, 10.407431
773452620615608, -1.5876378, 4.5726843, 8.133204, 0.40804482, 0.042462587, 9.455727
773452630255087, -1.4703895, 5.5896335, 8.536395, -0.28027296, -0.01404357, 10.305209
773452639894462, -1.4991034, 5.0045886, 8.2049885, 0.056429148, 0.01660347, 9.726849
773452649533941, -1.5014962, 5.1589255, 8.41795, 0.028836012, 0.042914152, 9.986401
773452659173420, -1.3974084, 5.4017973, 8.239685, -0.2855816, 0.009944439, 9.947006
773452668812795, -1.5637096, 4.6576295, 8.154739, 0.34815478, 0.032687187, 9.513999
773452678452275, -1.4033905, 5.7786665, 8.35454, -0.5348017, -0.045993567, 10.240738
773452688091754, -1.6546369, 4.442275, 8.170293, 0.56471634, 0.012267351, 9.429011
773452697731129, -1.4404793, 5.8097734, 8.550752, -0.45796108, -0.030965805, 10.427518
773452707370608, -1.6462619, 4.5320063, 8.153543, 0.4789157, -0.012508154, 9.460444
773452717009983, -1.4596218, 5.6147585, 8.568698, -0.287565, 0.0019791126, 10.3438835
773452726649462, -1.4691931, 4.8705907, 8.207381, 0.15596199, 0.07772446, 9.654633
773452736288941, -1.5062819, 5.17089, 8.41795, 0.019941807, 0.031083822, 9.993374
773452745928316, -1.4596218, 5.3910294, 8.215756, -0.26302052, -0.05651021, 9.930759
773452755567795, -1.579263, 4.7449675, 8.249256, 0.3214984, 0.030371428, 9.641303
773452765207275, -1.3674982, 5.7810597, 8.38804, -0.54414463, -0.026205063, 10.264169
773452774846650, -1.6283158, 4.4339004, 8.176275, 0.55987, 0.050513744, 9.425837
773452784486129, -1.410569, 5.8672013, 8.513663, -0.5336015, -0.049339056, 10.421568
773452794125504, -1.6151553, 4.510471, 8.114061, 0.47412133, 0.009610653, 9.410961
773452803764983, -1.477568, 5.629115, 8.499306, -0.3302536, -0.040621042, 10.295514
773452813404462, -1.5553347, 4.8191447, 8.2049885, 0.2362678, 0.012110233, 9.638937
773452823043837, -1.5397813, 5.197211, 8.5112705, 0.05514264, 0.023652077, 10.090592
773452832683316, -1.4751751, 5.3132625, 8.270791, -0.17235088, -0.029401302, 9.93893
773452842322795, -1.585245, 4.735396, 8.260024, 0.33814454, 0.02440691, 9.646244
773452851962170, -1.3698909, 5.6913285, 8.367701, -0.47635984, -0.0034689903, 10.200947
773452861601650, -1.5613167, 4.4374895, 8.182257, 0.538821, 0.10170245, 9.422192
773452871241129, -1.3543376, 5.8600225, 8.476574, -0.5699794, -0.00855732, 10.377932
773452880880504, -1.5840486, 4.4805603, 8.10449, 0.4699409, 0.049479485, 9.383183
773452890519983, -1.4476577, 5.6614184, 8.539984, -0.3457017, -0.015903234, 10.342096
773452900159462, -1.6187445, 4.807181, 8.23131, 0.2735796, -0.032865763, 9.664776
773452909798837, -1.564906, 5.265406, 8.59143, 0.034885168, 0.007887363, 10.197295
773452919438316, -1.4895321, 5.261817, 8.288737, -0.12099433, -0.026000738, 9.929415
773452929077795, -1.6283158, 4.792824, 8.249256, 0.29765582, -0.032476664, 9.673839
773452938717170, -1.4033905, 5.6614184, 8.309076, -0.4681816, -0.05198264, 10.141006
773452948356650, -1.5864414, 4.4554358, 8.155936, 0.51113343, 0.07278633, 9.413844
773452957996025, -1.3615161, 5.845666, 8.443074, -0.58286023, -0.021101952, 10.342672
773452967635504, -1.6211374, 4.456632, 8.10808, 0.51154685, 0.022088528, 9.37915
773452977274983, -1.4380864, 5.7343993, 8.57468, -0.39664388, -0.013895035, 10.407644
773452986914358, -1.5565311, 4.752146, 8.222935, 0.2861991, 0.034746885, 9.61973
773452996553837, -1.5134603, 5.3144593, 8.537591, -0.045490503, 0.020618677, 10.169661
773453006193316, -1.4835501, 5.2019963, 8.228917, -0.10160828, -0.024181128, 9.847124
773453015832795, -1.5481563, 4.8323054, 8.322237, 0.26409364, 0.046844006, 9.743493
773453025472170, -1.3663018, 5.6207404, 8.347362, -0.4356401, 0.012166023, 10.14633
773453035111650, -1.6115661, 4.4745784, 8.195417, 0.5231316, 0.037706852, 9.460908
773453044751129, -1.3950156, 5.8432727, 8.499306, -0.53682256, -0.024894238, 10.394197
773453054390504, -1.6175481, 4.459025, 8.172686, 0.5258236, 0.032712698, 9.434755
773453064029983, -1.4416757, 5.751149, 8.565108, -0.42575788, -0.016268969, 10.408346
773453073669462, -1.6187445, 4.7377887, 8.140383, 0.28958392, -0.066428185, 9.552201
773453083308837, -1.5780666, 5.4173503, 8.492127, -0.13145852, -0.07726121, 10.194654
773453092948316, -1.5074782, 5.174479, 8.243274, -0.06754017, -0.03241062, 9.848537
773453102587795, -1.544567, 4.880162, 8.298309, 0.21436405, 0.02199483, 9.747677
773453112227170, -1.375873, 5.6039906, 8.2348995, -0.4706745, -0.027194023, 10.0443535
773453121866650, -1.5720844, 4.5224347, 8.175078, 0.46047282, 0.052672625, 9.462609
773453131506129, -1.3208381, 5.8241305, 8.518449, -0.5511613, 0.06440234, 10.388511
773453141145504, -1.5672989, 4.398008, 8.232507, 0.58848643, 0.10520935, 9.445406
773453150784983, -1.3686945, 5.7810597, 8.592627, -0.46007085, 0.03426814, 10.436205
773453160424462, -1.5421742, 4.679165, 8.183454, 0.31665564, 0.046893835, 9.546693
773453170063941, -1.4907285, 5.407779, 8.517252, -0.14435315, 0.0023696423, 10.197503
773453179703316, -1.5110675, 5.0536413, 8.1942215, 0.0070114136, -0.026574135, 9.745108
773453189342795, -1.6151553, 4.8993044, 8.316256, 0.2258954, -0.03902483, 9.783634
773453198982275, -1.4691931, 5.54417, 8.30788, -0.36030746, -0.07712793, 10.088679
773453208621650, -1.6402799, 4.5284166, 8.29472, 0.5278473, 0.024324417, 9.577068
773453218261129, -1.4093726, 5.8073807, 8.585447, -0.4779632, -0.0031261444, 10.449568
773453227900608, -1.6307086, 4.3944187, 8.268398, 0.6202924, 0.05484605, 9.484133
773453237540087, -1.442872, 5.7631135, 8.584251, -0.44299388, -0.016628265, 10.430159
773453247179462, -1.5696917, 4.59063, 8.145168, 0.38055348, 0.01651597, 9.472935
773453256818941, -1.4476577, 5.4412785, 8.487342, -0.21231818, 0.02649951, 10.182948
773453266458420, -1.4727824, 5.0620165, 8.187042, -0.029531479, 0.0018913746, 9.73755
773453276097795, -1.5433706, 5.022535, 8.365308, 0.11097121, 0.004249096, 9.87795
773453285737275, -1.4081762, 5.5501523, 8.331808, -0.38566685, -0.019245625, 10.102331
773453295376754, -1.585245, 4.5726843, 8.318648, 0.47232485, 0.06965494, 9.612201
773453305016233, -1.3603196, 5.808577, 8.5016985, -0.5442114, 0.0075325966, 10.371725
773453314655608, -1.6414764, 4.4135613, 8.122437, 0.5383074, 0.006484747, 9.373267
773453324295087, -1.4153546, 5.759524, 8.5112705, -0.46815228, -0.040213823, 10.363218
773453333934566, -1.5924234, 4.558327, 8.160722, 0.4173262, 0.025555372, 9.472946
773453343574045, -1.4895321, 5.487939, 8.500503, -0.23397231, -0.026885271, 10.224444
773453353213420, -1.5457634, 4.9986067, 8.250452, 0.0827229, -0.030665636, 9.769217
773453362852900, -1.5816557, 5.0344987, 8.495717, 0.17088628, 0.0074796677, 9.999789
773453372492379, -1.43689, 5.4520464, 8.370093, -0.2818718, -0.013462067, 10.088028
773453382131858, -1.550549, 4.5631127, 8.318648, 0.46332836, 0.104962826, 9.602106
773453391771233, -1.3220345, 5.767899, 8.523234, -0.5200305, 0.05912304, 10.36282
773453401410712, -1.558924, 4.4147577, 8.191829, 0.54065275, 0.08828068, 9.419463
773453411050191, -1.3555341, 5.845666, 8.486146, -0.57695055, -0.013903618, 10.377422
773453420689670, -1.585245, 4.5858445, 8.085348, 0.3574767, -0.009988308, 9.422736
773453430329045, -1.5158532, 5.5537415, 8.433503, -0.3046925, -0.09605718, 10.206065
773453439968525, -1.5900307, 4.95075, 8.146365, 0.09460235, -0.09278774, 9.66353
773453449608004, -1.6450655, 5.1493545, 8.372486, 0.052763462, -0.12082839, 9.965101
773453459247483, -1.5206388, 5.4640107, 8.280363, -0.29515195, -0.12030363, 10.03148
773453468886962, -1.6307086, 4.642076, 8.333005, 0.44201684, 0.015489101, 9.667029
773453478526337, -1.3603196, 5.771488, 8.567501, -0.48211718, 0.039886475, 10.408103
773453488165816, -1.5768701, 4.3812585, 8.342576, 0.637867, 0.13964963, 9.531744
773453497805295, -1.3531412, 5.7547383, 8.596215, -0.46708608, 0.056294918, 10.422167
773453507444775, -1.5074782, 4.442275, 8.1344, 0.47131848, 0.11277413, 9.377628
773453517084254, -1.3794622, 5.54417, 8.4682, -0.34040403, 0.03553796, 10.209506
773453526723629, -1.5134603, 4.8526444, 8.169097, 0.14744663, 0.008707285, 9.620344
773453536363108, -1.5577276, 5.139783, 8.474181, 0.06727362, -0.00999403, 10.032499
773453546002587, -1.5230316, 5.395815, 8.346166, -0.21415544, -0.09149742, 10.051802
773453555642066, -1.6773686, 4.7365923, 8.340183, 0.37954736, -0.055086374, 9.72936
773453565281545, -1.4440684, 5.7726846, 8.421539, -0.5185015, -0.08181524, 10.29835
773453574920920, -1.6462619, 4.3944187, 8.210971, 0.58837986, 0.02204442, 9.438986
773453584560400, -1.3459628, 5.802595, 8.504091, -0.55070186, 0.016095877, 10.3681135
773453594199879, -1.5720844, 4.4518466, 8.0614195, 0.4560759, 0.029082298, 9.331026
773453603839358, -1.4321043, 5.5872407, 8.538788, -0.3259313, 0.0033049583, 10.299169
773453613478837, -1.4967105, 4.8239303, 8.312666, 0.22663379, 0.08105087, 9.723833
773453623118212, -1.4644074, 5.2331033, 8.567501, -0.014894009, 0.076984644, 10.145235
773453632757691, -1.4404793, 5.367101, 8.331808, -0.22941995, -0.025263548, 10.01232
773453642397170, -1.5840486, 4.7401814, 8.292327, 0.32215142, 0.029743671, 9.676599
773453652036650, -1.4081762, 5.7188463, 8.352147, -0.51637554, -0.097118855, 10.206394
773453661676129, -1.6307086, 4.4255257, 8.13799, 0.5268953, 0.02001071, 9.391132
773453671315608, -1.4141582, 5.802595, 8.449057, -0.5437622, -0.08244419, 10.332186
773453680954983, -1.6450655, 4.4374895, 8.13799, 0.52218103, 0.008308172, 9.399559
773453690594462, -1.4668003, 5.6147585, 8.676374, -0.26719713, 3.7527084E-4, 10.434803
773453700233941, -1.5457634, 4.7653065, 8.328219, 0.29973793, 0.057575464, 9.714094
773453709873420, -1.4979069, 5.2235317, 8.579466, 0.016485453, 0.053697586, 10.155448
773453719512900, -1.4273187, 5.2606206, 8.310273, -0.1608088, 0.016375065, 9.937097
773453729152379, -1.5541383, 4.773681, 8.305488, 0.28384018, 0.038632393, 9.700643
773453738791754, -1.3974084, 5.6913285, 8.368897, -0.4915676, -0.06313133, 10.204743
773453748431233, -1.6331015, 4.4985065, 8.158329, 0.47629356, -0.0042939186, 9.446431
773453758070712, -1.3986049, 5.871987, 8.421539, -0.6104574, -0.09347582, 10.342982
773453767710191, -1.6151553, 4.482953, 8.117651, 0.46535015, -0.006760359, 9.401344
773453777349670, -1.477568, 5.703293, 8.506484, -0.4036417, -0.08573151, 10.339283
773453786989150, -1.5828521, 4.7377887, 8.146365, 0.2650373, -0.033083677, 9.552172
773453796628629, -1.4644074, 5.272585, 8.523234, -0.055229187, 0.051247597, 10.1284
773453806268108, -1.410569, 5.168497, 8.331808, -0.07829881, 0.066417694, 9.905127
773453815907483, -1.5194423, 4.792824, 8.410771, 0.30509734, 0.08351064, 9.793921
773453825546962, -1.3519448, 5.602794, 8.459825, -0.40448022, 0.048766613, 10.228476
773453835186441, -1.605584, 4.4434714, 8.29472, 0.5739589, 0.052146435, 9.528513
773453844825920, -1.375873, 5.8360944, 8.589037, -0.5241115, 6.313324E-4, 10.46183
773453854465400, -1.6139588, 4.4446683, 8.166703, 0.51183677, 0.00564909, 9.423002
773453864104879, -1.4189439, 5.7284174, 8.516056, -0.46053648, -0.026185513, 10.350779
773453873744358, -1.5637096, 4.6971107, 8.111669, 0.269979, -0.034001827, 9.499113
773453883383837, -1.5457634, 5.3539405, 8.465807, -0.124861956, -0.067783356, 10.134287
773453893023316, -1.4991034, 5.143372, 8.255239, -0.059371233, -0.03904438, 9.841013
773453902662795, -1.5744773, 4.8502517, 8.355737, 0.25226855, -0.0014240742, 9.785633
773453912302170, -1.4081762, 5.5980086, 8.356933, -0.42532277, -0.03815484, 10.14774
773453921941650, -1.6175481, 4.499703, 8.29472, 0.53142, 0.030148268, 9.559438
773453931581129, -1.3794622, 5.804988, 8.554341, -0.5132315, -0.0067448616, 10.417009
773453941220608, -1.5661024, 4.418347, 8.170293, 0.514236, 0.0705781, 9.405251
773453950860087, -1.3866407, 5.77747, 8.538788, -0.50508213, -0.02059269, 10.39025
773453960499566, -1.5409778, 4.6468616, 8.13799, 0.31174564, 0.016298294, 9.491962
773453970139045, -1.4991034, 5.3790655, 8.510074, -0.14040208, -0.025202513, 10.177557
773453979778525, -1.4787644, 5.0979085, 8.286345, -0.021844625, -0.0026094913, 9.840652
773453989418004, -1.550549, 4.9256253, 8.398808, 0.19622922, 0.020997286, 9.857332
773453999057483, -1.3998013, 5.5429735, 8.400003, -0.3640859, -0.025842905, 10.15435
773454008696962, -1.6043876, 4.5116673, 8.376076, 0.54025126, 0.0787189, 9.632746
773454018336441, -1.3854443, 5.773881, 8.586644, -0.48404932, -0.012101889, 10.428478
773454027975920, -1.625923, 4.375276, 8.2014, 0.58363557, 0.036781788, 9.418474
773454037615400, -1.4201403, 5.761917, 8.523234, -0.47845387, -0.05446148, 10.374494
773454047254879, -1.5577276, 4.613362, 8.123632, 0.3300078, 0.0039122105, 9.465418
773454056894254, -1.4344971, 5.45085, 8.492127, -0.23949003, 0.008553028, 10.189621
773454066533733, -1.457229, 5.0536413, 8.2253275, -0.021448135, 0.0074236393, 9.763111
773454076173212, -1.5469599, 4.974678, 8.329415, 0.1263864, -0.018902302, 9.823612
773454085812691, -1.4476577, 5.5070815, 8.321041, -0.34806132, -0.08563352, 10.076452
773454095452170, -1.6558332, 4.5212383, 8.316256, 0.52827597, 0.0095222, 9.5950165
773454105091650, -1.4213367, 5.7547383, 8.615358, -0.445848, -0.027654648, 10.448067
773454114731129, -1.6737795, 4.389633, 8.273184, 0.62427354, 0.01889944, 9.493466
773454124370608, -1.4285151, 5.7930236, 8.548359, -0.49507976, -0.06840801, 10.412706
773454134010087, -1.5529419, 4.6097727, 8.146365, 0.3423431, 0.01845479, 9.48195
773454143649566, -1.3854443, 5.5106707, 8.4682, -0.32531023, 0.029968262, 10.192676
773454153289045, -1.4057833, 4.9902315, 8.178668, -0.013093233, 0.05586481, 9.683283
773454162928525, -1.4691931, 5.003392, 8.379665, 0.08838892, 0.058861732, 9.869143
773454172568004, -1.3854443, 5.4496536, 8.343773, -0.3285563, 0.006964445, 10.056278
773454182207483, -1.5948163, 4.5619164, 8.362915, 0.48799276, 0.0576787, 9.6463175
773454191846962, -1.39023, 5.710471, 8.605786, -0.43300366, 0.012101412, 10.41221
773454201486441, -1.6331015, 4.345366, 8.293523, 0.6409526, 0.05679989, 9.482493
773454211125920, -1.4045869, 5.7894344, 8.563912, -0.50263405, -0.045636892, 10.419995
773454220765400, -1.6115661, 4.5020957, 8.179864, 0.4510281, 0.0032176971, 9.46429
773454230404879, -1.4596218, 5.517849, 8.525627, -0.28955507, -0.03174925, 10.255661
773454240044358, -1.5110675, 4.9639106, 8.2014, 0.043823957, -0.028341532, 9.704842
773454249683837, -1.5672989, 5.0859447, 8.46461, 0.08252764, -0.02556181, 9.998271
773454259323316, -1.4620147, 5.416154, 8.355737, -0.27588797, -0.05946946, 10.060363
773454268962795, -1.6199409, 4.6121655, 8.286345, 0.40943885, -0.008765221, 9.61208
773454278602275, -1.3926228, 5.7547383, 8.534002, -0.50130415, -0.019653559, 10.374678
773454288241754, -1.6295122, 4.4004006, 8.29113, 0.5858407, 0.03584504, 9.508795
773454297881233, -1.4237294, 5.7870417, 8.584251, -0.49299526, -0.03613758, 10.438481
773454307520712, -1.6378871, 4.475775, 8.143971, 0.4621837, -0.041404724, 9.424658
773454317160295, -1.4751751, 5.5537415, 8.495717, -0.32185245, -0.049520016, 10.251408
773454326799775, -1.5457634, 4.8323054, 8.151151, 0.1398344, -0.04125595, 9.60003
773454336439254, -1.5098711, 5.063213, 8.4682, 0.07913399, 0.034700155, 9.980921
773454346078733, -1.3615161, 5.3383875, 8.366505, -0.2506287, 0.06429672, 10.01417
773454355718212, -1.5170496, 4.6636114, 8.377272, 0.36305666, 0.110841036, 9.699758
773454365357691, -1.3184453, 5.703293, 8.549556, -0.48658967, 0.061741114, 10.349888
773454374997170, -1.579263, 4.3992043, 8.287541, 0.56143737, 0.0816195, 9.497819
773454384636650, -1.3842479, 5.8061843, 8.58784, -0.5273211, -0.020020008, 10.445116
773454394276129, -1.6235301, 4.4745784, 8.166703, 0.4628086, -0.012246609, 9.441315
773454403915608, -1.4751751, 5.6039906, 8.539984, -0.34851074, -0.061925173, 10.314403
773454413555087, -1.5337993, 4.846662, 8.216953, 0.15218377, -0.013504982, 9.661142
773454423194566, -1.5409778, 5.1936216, 8.4502535, -0.030966759, -0.036824703, 10.037569
773454432834045, -1.4811572, 5.2929235, 8.243274, -0.22352219, -0.07459664, 9.904791
773454442473525, -1.585245, 4.6839504, 8.252846, 0.3208971, 0.002298355, 9.615554
773454452113108, -1.3615161, 5.6470613, 8.4347, -0.48100877, -0.007050514, 10.23014
773454461752587, -1.6031911, 4.359723, 8.321041, 0.6184375, 0.100510836, 9.509184
773454471392066, -1.4416757, 5.749953, 8.635697, -0.4419999, -0.03686142, 10.465129
773454481031545, -1.6737795, 4.3932223, 8.2253275, 0.5684469, -0.012795925, 9.456991
773454490671025, -1.524228, 5.6147585, 8.662018, -0.30445647, -0.067988396, 10.429862
773454500310504, -1.585245, 4.7712884, 8.349754, 0.27448368, 0.006012678, 9.742753
773454509949983, -1.4883357, 5.1924253, 8.592627, 0.0012452602, 0.058294296, 10.1491995
773454519589462, -1.3914263, 5.241478, 8.312666, -0.19656014, 0.0367589, 9.923184
773454529228941, -1.4739788, 4.749753, 8.274381, 0.21932602, 0.09169316, 9.650992
773454538868525, -1.282553, 5.6853466, 8.333005, -0.589473, 0.019949913, 10.151807
773454548508004, -1.5577276, 4.4434714, 8.159525, 0.4565401, 0.0641942, 9.409369
773454558147483, -1.3986049, 5.8265233, 8.4813595, -0.582345, -0.091614485, 10.36776
773454567786962, -1.6713866, 4.4135613, 8.17149, 0.5417752, -0.024089813, 9.420839
773454577426441, -1.4883357, 5.6650076, 8.652447, -0.3443191, -0.059829473, 10.442707
773454587065920, -1.6247265, 4.6935215, 8.365308, 0.36769295, 7.660389E-4, 9.721733
773454596705400, -1.5206388, 5.224728, 8.627322, 0.0065591335, 0.031989336, 10.199987
773454606344983, -1.430908, 5.168497, 8.352147, -0.09964895, 0.039168358, 9.925107
773454615984462, -1.5026926, 4.7952166, 8.342576, 0.23030066, 0.07242584, 9.736143
773454625623941, -1.3160524, 5.611169, 8.366505, -0.49435592, 0.02268672, 10.147449
773454635263420, -1.5397813, 4.4614177, 8.170293, 0.44579434, 0.0689373, 9.424722
773454644902900, -1.3471591, 5.8396835, 8.43111, -0.6415076, -0.034959078, 10.324128
773454654542379, -1.6618153, 4.4458647, 8.149954, 0.5079167, -0.04369688, 9.417495
773454664181962, -1.5122639, 5.697311, 8.589037, -0.38400197, -0.09270477, 10.4096985
773454673821441, -1.6546369, 4.6731825, 8.287541, 0.37580967, -0.05008006, 9.649668
773454683460920, -1.5577276, 5.325227, 8.603394, -0.06462383, -0.03194356, 10.237078
773454693100400, -1.4907285, 5.1421757, 8.32463, -0.05775833, -0.0124948025, 9.897486
773454702739879, -1.5314065, 4.9292145, 8.3784685, 0.15647268, 0.025751352, 9.83951
773454712379358, -1.4440684, 5.1086764, 8.289934, -0.064105034, 0.029509544, 9.843878
773454722018941, -1.4596218, 5.111069, 8.377272, -0.021922588, 0.043606043, 9.921181
773454731658420, -1.4679967, 5.087141, 8.390432, 0.006301403, 0.046603918, 9.921249
773454741297900, -1.5110675, 5.0919266, 8.3784685, 0.014787197, 0.0023553371, 9.92016
773454750937379, -1.5577276, 5.089534, 8.350951, 0.022862911, -0.048865557, 9.902796
773454760576858, -1.5577276, 5.093123, 8.349754, 0.019012928, -0.049773693, 9.903636
773454770216441, -1.5601203, 5.1003013, 8.360522, 0.01677394, -0.04984188, 9.916784
773454779855920, -1.5349957, 5.127819, 8.415557, 0.008525848, -0.015633821, 9.973568
773454789495400, -1.5182459, 5.103891, 8.438289, 0.032008886, 0.012778997, 9.977893
773454799134879, -1.4979069, 5.103891, 8.41795, 0.017565966, 0.024806261, 9.95763
773454808774358, -1.4907285, 5.127819, 8.4012, -0.011826992, 0.020997524, 9.954719
773454818413941, -1.4823537, 5.1290154, 8.335398, -0.043815374, 0.008879185, 9.898537
773454828053420, -1.4488541, 5.1146584, 8.3174515, -0.04965329, 0.03784561, 9.870918
773454837692900, -1.430908, 5.093123, 8.340183, -0.026670218, 0.06554723, 9.876288
773454847332379, -1.4656038, 5.109873, 8.373683, -0.012586355, 0.039092302, 9.918452
773454856971962, -1.5158532, 5.1014977, 8.370093, 0.0110394955, -0.0074038506, 9.918738
773454866611441, -1.5302101, 5.1003013, 8.395218, 0.028002262, -0.013952494, 9.941496
773454876250920, -1.5732809, 5.1086764, 8.416754, 0.044657707, -0.04966879, 9.97051
773454885890400, -1.5326029, 5.111069, 8.38804, 0.016094923, -0.02081418, 9.94135
773454895529983, -1.5433706, 5.0943193, 8.359326, 0.020365, -0.035125494, 9.910135
773454905169462, -1.5541383, 5.113462, 8.38804, 0.020962954, -0.040516615, 9.945852
773454914808941, -1.5684953, 5.1158547, 8.348558, 0.005843878, -0.06579471, 9.9159565
773454924448420, -1.5469599, 5.1266227, 8.3581295, -0.005264759, -0.044341564, 9.926312
773454934088004, -1.5672989, 5.1421757, 8.373683, -0.002770424, -0.059675217, 9.950548
773454943727483, -1.5230316, 5.1529436, 8.367701, -0.028872252, -0.021846533, 9.944323
773454953366962, -1.5206388, 5.1457653, 8.370093, -0.020606995, -0.016910791, 9.942284
773454963006441, -1.5014962, 5.1661043, 8.340183, -0.057445765, -0.013976812, 9.924631
773454972646025, -1.4811572, 5.1326046, 8.322237, -0.041492462, 0.008749485, 9.88915
773454982285504, -1.4416757, 5.096712, 8.346166, -0.015057802, 0.061275244, 9.884807
773454991924983, -1.4069797, 5.093123, 8.376076, -0.012376308, 0.10222864, 9.902905
773455001564566, -1.422533, 5.096712, 8.376076, -0.009385109, 0.08712673, 9.907121
773455011204045, -1.4536397, 5.12423, 8.392825, -0.013080597, 0.05400729, 9.940182
773455020843525, -1.4823537, 5.133801, 8.451449, 0.016293526, 0.04277134, 9.998911
773455030483004, -1.5098711, 5.1218367, 8.472985, 0.045899868, 0.026138306, 10.01507
773455040122587, -1.4991034, 5.0955157, 8.394022, 0.029355526, 0.017194033, 9.933279
773455049762066, -1.5230316, 5.12423, 8.315059, -0.019875288, -0.03632617, 9.885133
773455059401545, -1.5433706, 5.1529436, 8.260024, -0.060745478, -0.0786314, 9.85662
773455069041129, -1.5421742, 5.139783, 8.202596, -0.07463336, -0.089218855, 9.801261
773455078680608, -1.4991034, 5.123033, 8.270791, -0.04574704, -0.024855375, 9.843579
773455088320087, -1.5014962, 5.151747, 8.368897, -0.02542162, -0.0023038387, 9.941469
773455097959670, -1.5014962, 5.1062837, 8.348558, 0.0025920868, 0.0012955666, 9.900861
773455107599150, -1.4955142, 5.109873, 8.385647, 0.013403416, 0.01676178, 9.933075
773455117238629, -1.4799608, 5.09073, 8.443074, 0.04891205, 0.050807, 9.96927
773455126878212, -1.4859428, 5.0620165, 8.447861, 0.07462335, 0.051709652, 9.959425
773455136517691, -1.4811572, 5.1026945, 8.40479, 0.017447948, 0.03382659, 9.9433565
773455146157170, -1.4895321, 5.099105, 8.390432, 0.014588118, 0.021556377, 9.930672
773455155796754, -1.4943178, 5.066802, 8.368897, 0.032995224, 0.017046213, 9.896593
773455165436233, -1.5014962, 5.083552, 8.335398, 0.006392479, -0.0049290657, 9.878045
773455175075712, -1.5361922, 5.089534, 8.330612, 0.012019157, -0.039726734, 9.882338
773455184715295, -1.5409778, 5.1361938, 8.343773, -0.018624306, -0.051952362, 9.918196
773455194354775, -1.5134603, 5.1122656, 8.373683, 0.002011776, -0.011556864, 9.926947
773455203994254, -1.5038891, 5.123033, 8.421539, 0.00924778, 0.008866549, 9.971426
773455213633837, -1.5134603, 5.1218367, 8.433503, 0.018727064, 0.0033698082, 9.982355
773455223273316, -1.5038891, 5.12423, 8.414361, 0.004693985, 0.0049045086, 9.965984
773455232912795, -1.5110675, 5.103891, 8.4012, 0.018584967, -6.892681E-4, 9.945494
773455242552379, -1.5074782, 5.1361938, 8.374879, -0.020999432, -0.012972355, 9.939364
773455252191858, -1.538585, 5.1469617, 8.325827, -0.040698767, -0.057822466, 9.908223
773455261831441, -1.5613167, 5.156533, 8.283952, -0.06095624, -0.092708826, 9.88125
773455271470920, -1.5756737, 5.12423, 8.32463, -0.007871866, -0.08581185, 9.901138
773455281110400, -1.544567, 5.1014977, 8.379665, 0.025748253, -0.03594613, 9.931153
773455290749983, -1.5122639, 5.087141, 8.366505, 0.021235943, -0.0060765743, 9.907768
773455300389462, -1.4835501, 5.123033, 8.365308, -0.0187459, 0.012407541, 9.920901
773455310028941, -1.4656038, 5.1254263, 8.37129, -0.024139643, 0.030282974, 9.924463
773455319668525, -1.4321043, 5.1158547, 8.395218, -0.016643524, 0.06946468, 9.93466
773455329308004, -1.3986049, 5.117051, 8.383254, -0.03458476, 0.09531498, 9.920132
773455338947587, -1.4213367, 5.0919266, 8.361719, -0.016893387, 0.07192612, 9.892462
773455348587066, -1.4333007, 5.1003013, 8.379665, -0.011590242, 0.0632236, 9.913733
773455358226650, -1.4285151, 5.117051, 8.361719, -0.035989285, 0.05657506, 9.9065
773455367866129, -1.4919249, 5.130212, 8.313862, -0.045426607, -0.021077633, 9.882445
773455377505608, -1.5302101, 5.1529436, 8.356933, -0.031775713, -0.047780037, 9.936266
773455387145191, -1.5421742, 5.151747, 8.389236, -0.012855053, -0.04814434, 9.964718
773455396784670, -1.5373886, 5.123033, 8.427522, 0.025071144, -0.024224997, 9.98153
773455406424254, -1.544567, 5.0919266, 8.428718, 0.05304289, -0.021674156, 9.967618
773455416063733, -1.538585, 5.063213, 8.383254, 0.05352974, -0.022691727, 9.913573
773455425703212, -1.5924234, 5.06082, 8.329415, 0.051056623, -0.08691883, 9.875055
773455435342795, -1.5517455, 5.0476594, 8.405986, 0.07686043, -0.019981861, 9.926786
773455444982275, -1.4883357, 5.0715876, 8.463413, 0.05873418, 0.05013466, 9.977955
773455454621858, -1.4763715, 5.1062837, 8.467003, 0.025612354, 0.053008795, 9.997023
773455464261337, -1.5266209, 5.1086764, 8.383254, 0.00547719, -0.019829988, 9.935173
773455473900920, -1.5230316, 5.096712, 8.334201, -0.0066125393, -0.028802872, 9.88707
773455483540400, -1.4871392, 5.093123, 8.340183, -0.013158798, 0.007605791, 9.88483
773455493179879, -1.4596218, 5.10748, 8.328219, -0.03779292, 0.025480986, 9.8779545
773455502819462, -1.457229, 5.151747, 8.262417, -0.10324669, -0.0039029121, 9.844839
773455512458941, -1.5170496, 5.178068, 8.282756, -0.09337807, -0.058982134, 9.88462
773455522098525, -1.4919249, 5.17089, 8.336594, -0.07207155, -0.017234564, 9.922562
773455531738004, -1.4644074, 5.148158, 8.346166, -0.05923152, 0.015650988, 9.914774
773455541377587, -1.4979069, 5.1326046, 8.3174515, -0.04611659, -0.020730734, 9.887609
773455551017066, -1.5433706, 5.0751767, 8.355737, 0.03357935, -0.036646605, 9.897236
773455560656650, -1.5326029, 5.040481, 8.469396, 0.10732794, 0.017587423, 9.973674
773455570296129, -1.4919249, 5.029713, 8.545966, 0.1304524, 0.07999897, 10.026665
773455579935712, -1.5337993, 5.0416775, 8.486146, 0.11016059, 0.019947767, 9.988653
773455589575191, -1.5026926, 5.056034, 8.394022, 0.045048714, 0.01487112, 9.913572
773455599214670, -1.5074782, 5.0859447, 8.367701, 0.009956598, -0.005097151, 9.907452
773455608854254, -1.4955142, 5.119444, 8.331808, -0.037373066, -0.0139660835, 9.892559
773455618493733, -1.4835501, 5.1409793, 8.283952, -0.079025745, -0.022988796, 9.8614235
773455628133316, -1.4883357, 5.1409793, 8.316256, -0.06180072, -0.017508984, 9.889428
773455637772795, -1.4895321, 5.1469617, 8.364112, -0.0441103, -0.0065853596, 9.933092
773455647412379, -1.5278172, 5.178068, 8.40479, -0.03794384, -0.036745787, 9.98921
773455657051858, -1.5182459, 5.191229, 8.400003, -0.053759575, -0.03313899, 9.990495
773455666691441, -1.524228, 5.1816573, 8.368897, -0.056770325, -0.045193672, 9.960222
773455676330920, -1.5194423, 5.1361938, 8.322237, -0.039881706, -0.043337584, 9.896734
