timestamp_acc,device_acc_x,device_acc_y,device_acc_z,earth_acc_x,earth_acc_y,earth_acc_z
773869869068884, 5.026124, -0.43429732, 8.845069, -0.03755045, -0.049705625, 10.18243
773869878709301, 5.0620165, -0.41635114, 8.913264, -0.030113697, -0.06999457, 10.25855
773869888349717, 5.096712, -0.36490545, 8.9312105, -0.048535824, -0.117052674, 10.288834
773869897990134, 5.109873, -0.2847459, 8.943174, -0.045277596, -0.1860401, 10.302214
773869907630551, 5.10748, -0.22731815, 8.938389, -0.04254675, -0.21648937, 10.294861
773869917270967, 5.0955157, -0.19262223, 8.943174, -0.022019863, -0.24712998, 10.291754
773869926911384, 5.056034, -0.2009971, 8.9312105, 0.0037522316, -0.22026312, 10.262646
773869936551801, 5.06082, -0.18424734, 8.908479, -0.005223274, -0.22981095, 10.244707
773869946192217, 5.066802, -0.22731815, 8.925228, -0.013190746, -0.18795079, 10.263935
773869955832634, 5.0129633, -0.2943172, 8.922835, 0.014959812, -0.10968667, 10.238221
773869965473051, 4.9639106, -0.40677986, 8.908479, 0.021559715, 0.00969857, 10.206189
773869975113467, 4.9112687, -0.46061835, 8.867801, 0.02417183, 0.06981391, 10.147176
773869984753988, 4.84068, -0.5204389, 8.790034, 0.026746273, 0.13701308, 10.0473
773869994394405, 4.7712884, -0.485743, 8.790034, 0.09474945, 0.118273675, 10.012136
773870004034822, 4.7569313, -0.49172506, 8.799605, 0.10641575, 0.12715906, 10.013779
773870013675238, 4.718646, -0.49292147, 8.866604, 0.1681447, 0.14052212, 10.053719
773870023315655, 4.6600223, -0.49651068, 8.774481, 0.16824675, 0.14717388, 9.945042
773870032956072, 4.6372905, -0.552742, 8.835498, 0.19556236, 0.20916164, 9.989696
773870042596488, 4.666004, -0.5910272, 8.807981, 0.13555956, 0.22932506, 9.981506
773870052236905, 4.638487, -0.57906306, 8.839087, 0.17309141, 0.2311787, 9.994845
773870061877322, 4.5942197, -0.6197411, 8.806784, 0.17061043, 0.27752918, 9.947073
773870071517738, 4.536792, -0.59581286, 8.756535, 0.19950056, 0.26681036, 9.874382
773870081158155, 4.5427737, -0.5479564, 8.69791, 0.17439175, 0.21213168, 9.824218
773870090798572, 4.54397, -0.4941179, 8.73141, 0.20063257, 0.16124111, 9.852061
773870100438988, 4.625326, -0.37447673, 8.82473, 0.20733261, 0.032204628, 9.968235
773870110079405, 4.7246284, -0.29790643, 8.799605, 0.11605883, -0.062295735, 9.991325
773870119719926, 4.816752, -0.2644069, 8.737391, 0.017681599, -0.12476957, 9.979836
773870129360342, 4.87418, -0.2620141, 8.679964, -0.07136917, -0.12396604, 9.957289
773870139000759, 4.935197, -0.20937198, 8.743374, -0.07936716, -0.18370843, 10.040246
773870148641176, 5.005785, -0.21894327, 8.812766, -0.10114765, -0.14918554, 10.135985
773870158281592, 5.042874, -0.18903299, 8.839087, -0.11231375, -0.18446046, 10.17591
773870167922009, 5.0799623, -0.17467605, 8.782856, -0.15877485, -0.17616808, 10.144893
773870177562426, 5.0859447, -0.15194423, 8.82473, -0.13213158, -0.18293232, 10.18405
773870187202842, 5.0548377, -0.2213361, 8.774481, -0.1459508, -0.10379028, 10.127181
773870196843259, 5.042874, -0.2548356, 8.756535, -0.1532116, -0.07043874, 10.10663
773870206483676, 5.032106, -0.24526432, 8.770891, -0.12922716, -0.06997037, 10.113813
773870216124092, 5.046463, -0.2632105, 8.7984085, -0.13312674, -0.0525012, 10.145323
773870225764509, 5.0620165, -0.22731815, 8.879765, -0.089859486, -0.079324305, 10.223088
773870235404926, 5.1158547, -0.19501504, 8.882157, -0.12582636, -0.12302822, 10.250451
773870245045342, 5.15414, -0.17826529, 8.922835, -0.1299429, -0.12777525, 10.304403
773870254685759, 5.1924253, -0.12083755, 8.958728, -0.13185549, -0.18805343, 10.352873
773870264326280, 5.1661043, -0.10049855, 8.88455, -0.13739824, -0.19921148, 10.27499
773870273966697, 5.111069, -0.16510476, 8.861818, -0.1073637, -0.107788086, 10.230298
773870283607113, 5.0883374, -0.14237295, 8.88814, -0.060476303, -0.120129466, 10.241699
773870293247530, 5.046463, -0.11006984, 8.904889, -0.0059762, -0.14003861, 10.235053
773870302887947, 5.0105705, -0.13040884, 8.908479, 0.031004429, -0.118515134, 10.220999
773870312528363, 4.928018, -0.13878371, 8.833105, 0.06121683, -0.09802008, 10.1150875
773870322168780, 4.8789654, -0.19740787, 8.769695, 0.055380344, -0.044641018, 10.037218
773870331809197, 4.85743, -0.2727818, 8.760123, 0.046654224, 0.024172664, 10.020281
773870341449613, 4.85743, -0.3469593, 8.7469635, 0.023549557, 0.082163334, 10.010849
773870351090030, 4.8490553, -0.3924229, 8.758927, 0.02170086, 0.12950009, 10.018429
773870360730447, 4.837091, -0.45822555, 8.7577305, 0.015954018, 0.19103831, 10.013416
773870370370863, 4.7581277, -0.48095736, 8.744571, 0.07191229, 0.2267561, 9.964036
773870380011280, 4.761717, -0.48933223, 8.713464, 0.0558815, 0.22167087, 9.939093
773870389651697, 4.698307, -0.49651068, 8.689535, 0.09428692, 0.23246503, 9.887655
773870399292113, 4.6576295, -0.45822555, 8.662018, 0.12085533, 0.18175644, 9.843088
773870408932530, 4.6707897, -0.4319045, 8.688339, 0.12704945, 0.14608961, 9.871805
773870418573051, 4.6779685, -0.40438703, 8.712267, 0.13536167, 0.11528468, 9.895399
773870428213467, 4.6695933, -0.44745782, 8.744571, 0.14203978, 0.15910715, 9.921055
773870437853884, 4.7222357, -0.43788654, 8.750552, 0.099824905, 0.1359508, 9.951631
773870447494301, 4.7784667, -0.44147578, 8.752945, 0.052989483, 0.12531191, 9.981191
773870457134717, 4.772485, -0.45224348, 8.770891, 0.0609169, 0.14056295, 9.9943075
773870466775134, 4.7952166, -0.42592242, 8.787642, 0.052820683, 0.11296642, 10.019113
773870476415551, 4.82752, -0.3804588, 8.770891, 0.021847248, 0.05487269, 10.018721
773870486055967, 4.8323054, -0.357727, 8.780462, 0.025941849, 0.029913604, 10.028665
773870495696384, 4.867001, -0.2835495, 8.831908, 0.040825844, -0.045204997, 10.087963
773870505336801, 4.928018, -0.2428715, 8.842676, 0.003730774, -0.0978573, 10.125597
773870514977217, 4.9459643, -0.2644069, 8.816355, -0.027900219, -0.078822434, 10.112052
773870524617634, 4.9495535, -0.28713873, 8.800801, -0.04419899, -0.059037745, 10.10095
773870534258051, 4.9866424, -0.29312077, 8.776874, -0.0865469, -0.058815718, 10.098271
773870543898467, 4.999803, -0.2883351, 8.76132, -0.09939623, -0.06245607, 10.090993
773870553538884, 4.9866424, -0.2883351, 8.7577305, -0.090510845, -0.058969438, 10.081464
773870563179301, 5.0045886, -0.24047868, 8.752945, -0.093378544, -0.108938515, 10.084504
773870572819717, 4.9974103, -0.23808585, 8.734999, -0.09102821, -0.10823572, 10.065336
773870582460238, 4.968696, -0.2213361, 8.7469635, -0.056766987, -0.116824925, 10.061284
773870592100655, 4.9698925, -0.2321038, 8.750552, -0.05629778, -0.103019774, 10.06539
773870601741072, 4.9375896, -0.19621146, 8.782856, 0.0013899803, -0.117678225, 10.076855
773870611381488, 4.9471607, -0.25124636, 8.770891, -0.025802612, -0.06790924, 10.072775
773870621021905, 4.944768, -0.29192436, 8.751749, -0.039734364, -0.023759484, 10.056189
773870630662322, 4.9363933, -0.3385844, 8.788837, -0.02239132, 0.030549467, 10.085875
773870640302738, 4.9603214, -0.35294133, 8.787642, -0.042907715, 0.038900495, 10.096963
773870649943155, 4.968696, -0.32183465, 8.73141, -0.06666517, -0.0022662878, 10.0511
773870659583572, 4.999803, -0.2620141, 8.770891, -0.05604267, -0.06697506, 10.09889
773870669223988, 5.011767, -0.23090738, 8.723035, -0.08015013, -0.106250525, 10.062045
773870678864405, 4.999803, -0.24765715, 8.695518, -0.08327627, -0.08657545, 10.032794
773870688504822, 4.989035, -0.22612174, 8.685946, -0.07365942, -0.10564923, 10.018517
773870698145238, 5.011767, -0.22612174, 8.675179, -0.08784866, -0.10463995, 10.020431
773870707785655, 4.9734817, -0.24047868, 8.647661, -0.066345215, -0.081002, 9.978198
773870717426072, 5.0105705, -0.276371, 8.62134, -0.11418915, -0.055785418, 9.974644
773870727066488, 4.9974103, -0.29192436, 8.645268, -0.08992481, -0.035775423, 9.989527
773870736706905, 4.9782677, -0.30867413, 8.664411, -0.06899023, -0.012683451, 9.997278
773870746347322, 4.9938207, -0.317049, 8.671589, -0.07447338, -0.010337532, 10.011473
773870755987738, 4.948357, -0.317049, 8.718249, -0.0127539635, 0.004006803, 10.029679
773870765628155, 4.90409, -0.31106696, 8.693125, 0.013680458, 0.006501496, 9.985844
773870775268572, 4.875376, -0.32422748, 8.646464, 0.010320663, 0.021120846, 9.931525
773870784908988, 4.875376, -0.33260235, 8.666803, 0.015957832, 0.02968824, 9.949486
773870794549405, 4.895715, -0.34217364, 8.691928, 0.009905815, 0.035951138, 9.981649
773870804189822, 4.9256253, -0.3278167, 8.76491, 0.024097443, 0.02249235, 10.059412
773870813830342, 4.961518, -0.27038896, 8.841479, 0.048426628, -0.033002615, 10.141898
773870823470759, 4.9782677, -0.2739782, 8.835498, 0.030760288, -0.03243208, 10.145061
773870833111176, 4.974678, -0.27038896, 8.846265, 0.03472328, -0.029279232, 10.152579
773870842751592, 4.9531426, -0.29072794, 8.849854, 0.046115875, -0.004480481, 10.145735
773870852392009, 4.9543395, -0.35413775, 8.849854, 0.02755785, 0.05620247, 10.148246
773870862032426, 4.9603214, -0.34456646, 8.9013, 0.049684525, 0.048538685, 10.195678
773870871672842, 4.9435716, -0.36131623, 8.906086, 0.06641817, 0.062458694, 10.192129
773870881313259, 4.9172506, -0.38763726, 8.88814, 0.07155275, 0.09325528, 10.164391
773870890953676, 4.892126, -0.37208393, 8.865408, 0.08802891, 0.0786612, 10.131775
773870900594092, 4.883751, -0.32303107, 8.810373, 0.08376169, 0.018713117, 10.078229
773870910234509, 4.831109, -0.6687939, 8.695518, -0.024003983, 0.34774435, 9.963806
773870919874926, 4.9579287, 0.19501504, 8.76491, 0.15512991, -0.5128237, 10.057619
773870929515342, 4.76411, -0.99900347, 8.642876, -0.0940938, 0.6736218, 9.896031
773870939155759, 4.9938207, 0.3912265, 8.762517, 0.1911726, -0.70051634, 10.067063
773870948796176, 4.802395, -1.0073783, 8.615358, -0.14391279, 0.66648084, 9.891274
773870958436592, 5.026124, 0.21535404, 8.672786, 0.08734989, -0.5614724, 10.010126
773870968077009, 4.881358, -0.7286145, 8.585447, -0.138834, 0.36321718, 9.895313
773870977717426, 4.9842496, -0.18424734, 8.658429, -0.0047445297, -0.16601813, 9.990871
773870987357842, 5.028517, -0.23688944, 8.665607, -0.05122471, -0.12490106, 10.02081
773870996998259, 4.922036, -0.73340017, 8.624929, -0.14106798, 0.37203467, 9.949645
773871006638676, 5.0919266, 0.19621146, 8.750552, 0.081774235, -0.5393559, 10.111419
773871016279092, 4.871787, -1.0432707, 8.676374, -0.18459272, 0.68521196, 9.97991
773871025919509, 5.1086764, 0.3792624, 8.816355, 0.17228556, -0.7205744, 10.169642
773871035559926, 4.9052863, -1.0600204, 8.668, -0.20846272, 0.67910135, 9.99075
773871045200342, 5.150551, 0.36251262, 8.801998, 0.100111485, -0.71223176, 10.179267
773871054840759, 5.0009995, -0.6628119, 8.737391, -0.12056637, 0.29887414, 10.08402
773871064481176, 5.076373, -0.0634098, 8.755338, 0.01825428, -0.2921716, 10.116512
773871074121592, 5.052445, -0.25603202, 8.689535, -0.05018425, -0.10747337, 10.05419
773871083762009, 4.9722853, -0.6161518, 8.632108, -0.12573004, 0.25171113, 9.976843
773871093402426, 5.1086764, 0.21774685, 8.723035, 0.07245827, -0.56645036, 10.095108
773871103042842, 4.9112687, -0.9846465, 8.647661, -0.1715312, 0.6220208, 9.972752
773871112683259, 5.1146584, 0.3792624, 8.763713, 0.15216875, -0.7316102, 10.12659
773871122323676, 4.855037, -1.1006985, 8.630911, -0.18070745, 0.73415935, 9.934983
773871131964092, 5.0548377, 0.26081768, 8.717052, 0.13762617, -0.60144997, 10.061099
773871141604509, 4.8681974, -0.92602235, 8.630911, -0.12979889, 0.5489586, 9.936361
773871151244926, 4.9531426, -0.15672988, 8.730213, 0.09817076, -0.19284022, 10.036334
773871160885342, 4.924429, -0.3397808, 8.745767, 0.07260227, -0.004348874, 10.042339
773871170525759, 4.894519, -0.6089734, 8.687142, -0.015229702, 0.25184977, 9.986488
773871180166176, 4.9986067, 0.1052842, 8.755338, 0.15817785, -0.45111072, 10.070976
773871189806592, 4.847859, -0.9810573, 8.668, -0.11004782, 0.61532164, 9.960306
773871199447009, 5.058427, 0.38644084, 8.776874, 0.19643974, -0.72988224, 10.109363
773871209087426, 4.7880383, -1.0755738, 8.622537, -0.118507385, 0.7018229, 9.895641
773871218727842, 5.066802, 0.31226337, 8.717052, 0.12229681, -0.6892226, 10.063152
773871228368259, 4.90409, -0.9056834, 8.671589, -0.12741613, 0.5127015, 9.98938
773871238008676, 4.9878387, -0.12203395, 8.76132, 0.0788331, -0.24705952, 10.079034
773871247649092, 4.9782677, -0.50009996, 8.748159, -0.030787468, 0.117628336, 10.077141
773871257289509, 4.9519463, -0.58983076, 8.6548395, -0.08132982, 0.19558966, 9.986543
773871266929926, 5.089534, 0.07776674, 8.707481, 0.027819157, -0.48022622, 10.074633
773871276570342, 4.9674997, -0.9403793, 8.609376, -0.21712065, 0.51536256, 9.968399
773871286210655, 5.15414, 0.37447673, 8.730213, 0.06813002, -0.7714268, 10.115447
773871295851072, 4.877769, -1.1162517, 8.616554, -0.18767214, 0.7068866, 9.93724
773871305491488, 5.1182475, 0.3696911, 8.682357, 0.09579325, -0.75560796, 10.056656
773871315131905, 4.910072, -0.8913264, 8.539984, -0.1799798, 0.4835143, 9.877671
773871324772322, 5.0333023, -0.046660043, 8.598608, 0.009016037, -0.3487152, 9.957443
773871334412738, 4.9399824, -0.506082, 8.575876, -0.06921768, 0.10371983, 9.909069
773871344053155, 4.9363933, -0.56470615, 8.52802, -0.10755253, 0.1545999, 9.868055
773871353693572, 5.0452666, -0.0849452, 8.624929, 0.0023384094, -0.3239113, 9.987312
773871363333988, 4.843073, -1.0301101, 8.579466, -0.14664173, 0.62644213, 9.884825
773871372974405, 5.069195, 0.23090738, 8.743374, 0.1436944, -0.60744214, 10.089946
773871382614822, 4.782056, -1.2083755, 8.656036, -0.12271643, 0.81969476, 9.928154
773871392255238, 5.005785, 0.2943172, 8.788837, 0.23792624, -0.63995266, 10.095645
773871401895655, 4.776074, -1.026521, 8.691928, -0.037395477, 0.6518441, 9.949268
773871411536072, 4.918447, 0.023928227, 8.812766, 0.22301006, -0.35774922, 10.083592
773871421176488, 4.8442693, -0.573081, 8.829515, 0.10198879, 0.22198296, 10.084446
773871430816905, 4.883751, -0.47377887, 8.800801, 0.07825804, 0.1218282, 10.075148
773871440457322, 4.9770713, -0.09930214, 8.830712, 0.13585472, -0.2569654, 10.133019
773871450097738, 4.8646083, -0.96909314, 8.7266245, -0.103298664, 0.5858372, 10.020163
773871459738155, 5.10748, 0.2213361, 8.864211, 0.13778496, -0.6009501, 10.214179
773871469378572, 4.883751, -1.2263216, 8.748159, -0.19526052, 0.83337665, 10.057463
773871479018988, 5.1696935, 0.31345975, 8.827123, 0.116764545, -0.71042955, 10.2090025
773871488659405, 4.979464, -0.97866446, 8.702696, -0.21705246, 0.5489487, 10.056902
773871498299717, 5.1206403, 0.16749759, 8.7469635, 0.080349445, -0.5632082, 10.121005
773871507940134, 4.948357, -0.47856453, 8.706285, -0.017475128, 0.092583776, 10.025259
773871517580551, 5.099105, -0.16749759, 8.642876, -0.06634426, -0.24601781, 10.03311
773871527220967, 5.06082, 0.050249275, 8.609376, 0.00940609, -0.44269216, 9.976959
773871536861384, 4.883751, -0.7788638, 8.483752, -0.17487717, 0.37773842, 9.811138
773871546501801, 5.1409793, 0.3290131, 8.627322, 0.058922768, -0.72863805, 10.0216875
773871556142217, 4.924429, -1.0683953, 8.543573, -0.30199862, 0.64656794, 9.893173
773871565782634, 5.209175, 0.40079778, 8.751749, 0.09825468, -0.7848109, 10.161874
773871575423051, 4.985446, -1.0193424, 8.659625, -0.27502155, 0.58819544, 10.023036
773871585063467, 5.1625147, 0.20937198, 8.758927, 0.08651209, -0.587435, 10.151928
773871594703884, 5.0141597, -0.6149554, 8.758927, -0.10179186, 0.22653925, 10.108269
773871604344301, 5.0141597, -0.29671, 8.73141, 0.0068740845, -0.05917263, 10.072926
773871613984717, 5.009374, -0.17826529, 8.717052, 0.056922436, -0.16944969, 10.053888
773871623625134, 4.9160542, -0.8255238, 8.6548395, -0.1681633, 0.44187248, 9.976561
773871633265551, 5.029713, 0.1902294, 8.810373, 0.23467112, -0.5104457, 10.131202
773871642905863, 4.7581277, -1.1521441, 8.685946, -0.14954281, 0.8039875, 9.937008
773871652546280, 4.974678, 0.3278167, 8.758927, 0.30978942, -0.6346179, 10.053606
773871662186697, 4.712664, -1.1102697, 8.62134, -0.11837721, 0.76819324, 9.857245
773871671827113, 4.9136615, 0.12801601, 8.670393, 0.23183584, -0.44900143, 9.953936
773871681467530, 4.786842, -0.84347, 8.608179, -0.050438404, 0.4855761, 9.873587
773871691107947, 4.861019, -0.3696911, 8.683554, 0.09244537, 0.036207795, 9.957933
773871700748363, 4.9256253, -0.29910284, 8.737391, 0.09235144, -0.04812777, 10.034063
773871710388780, 4.90409, -0.80518484, 8.641679, -0.102818966, 0.42598867, 9.959167
773871720029197, 5.083552, 0.18065812, 8.739784, 0.12309313, -0.5406997, 10.0971
773871729669613, 4.8789654, -1.0923235, 8.642876, -0.17657566, 0.7138703, 9.95771
773871739310030, 5.109873, 0.3696911, 8.751749, 0.15838146, -0.7365509, 10.113011
773871748950342, 4.847859, -1.0636097, 8.62134, -0.16110182, 0.678301, 9.9234295
773871758590759, 5.0679984, 0.28115666, 8.742178, 0.15763903, -0.64062726, 10.087322
773871768231176, 4.88734, -0.6975078, 8.688339, -0.04396677, 0.3423406, 9.987029
773871777871592, 4.9567323, -0.13399807, 8.673982, 0.072767735, -0.21870553, 9.988592
773871787512009, 4.9579287, -0.20578274, 8.683554, 0.050192356, -0.14601111, 10.000183
773871797152426, 4.9268217, -0.60059845, 8.642876, -0.07068539, 0.23155773, 9.963682
773871806792842, 5.150551, 0.24047868, 8.7984085, 0.06848383, -0.6103164, 10.179432
773871816433259, 5.003392, -0.92602235, 8.804391, -0.1535716, 0.54399043, 10.153288
773871826073676, 5.271388, 0.5240282, 8.933603, 0.12064171, -0.8817464, 10.347916
773871835714092, 5.0679984, -0.9595219, 8.768498, -0.23960447, 0.56435543, 10.154603
773871845354405, 5.2701917, 0.40558344, 8.831908, 0.04659176, -0.774238, 10.263548
773871854994822, 5.0751767, -0.68075806, 8.790034, -0.15174055, 0.30927986, 10.166949
773871864635238, 5.1421757, 0.013160525, 8.894122, 0.0677042, -0.35360122, 10.267323
773871874275655, 5.066802, -0.21296121, 8.868998, 0.041484356, -0.12227392, 10.215689
773871883916072, 4.9495535, -0.53240305, 8.736196, -0.031003475, 0.19679725, 10.053008
773871893556488, 5.056034, 0.12801601, 8.807981, 0.13527584, -0.4636041, 10.145302
773871903196905, 4.802395, -1.0504491, 8.700303, -0.10464096, 0.7088436, 9.967361
773871912837322, 4.9902315, 0.35653058, 8.815159, 0.266582, -0.65468216, 10.111226
773871922477738, 4.7401814, -1.1904292, 8.642876, -0.12913036, 0.83812714, 9.8927555
773871932118155, 4.962714, 0.2105684, 8.754142, 0.21720195, -0.52271056, 10.049252
773871941758467, 4.8287163, -0.90448695, 8.723035, -0.06612873, 0.5544502, 9.995707
773871951398884, 4.95075, -0.076570325, 8.758927, 0.12933111, -0.25817645, 10.057396
773871961039301, 4.88734, -0.41156548, 8.707481, 0.045223236, 0.06775093, 9.993452
773871970679717, 4.880162, -0.6305088, 8.623733, -0.061899662, 0.2632653, 9.925177
773871980320134, 5.0273204, -0.0035892338, 8.713464, 0.079359055, -0.3584764, 10.0530405
773871989960551, 4.8299127, -1.0636097, 8.646464, -0.16246128, 0.68512964, 9.936039
773871999600967, 5.0572305, 0.30987054, 8.799605, 0.20166492, -0.6531422, 10.131011
773872009241384, 4.8299127, -1.1964114, 8.658429, -0.19631195, 0.80863106, 9.951655
773872018881697, 5.056034, 0.25962126, 8.708678, 0.13938618, -0.6233996, 10.053055
773872028522113, 4.8490553, -0.95712906, 8.583055, -0.16963482, 0.55068755, 9.88768
773872038162530, 4.975875, -0.05742774, 8.617751, 0.050015926, -0.31908607, 9.946053
773872047802947, 4.8693943, -0.51206404, 8.62134, -0.007203579, 0.13688076, 9.913724
773872057443363, 4.8562336, -0.56350976, 8.56152, -0.037354946, 0.18015993, 9.857298
773872067083780, 4.944768, -0.05383851, 8.623733, 0.08171511, -0.3209958, 9.935427
773872076724197, 4.779663, -1.026521, 8.609376, -0.086158276, 0.65358156, 9.878548
773872086364613, 5.026124, 0.30269206, 8.805588, 0.20218897, -0.65964735, 10.120075
773872096005030, 4.8059845, -1.1676974, 8.719446, -0.112752914, 0.8016708, 9.991714
773872105645342, 5.0536413, 0.3361916, 8.909675, 0.2327714, -0.6783724, 10.223515
773872115285759, 4.847859, -0.9774681, 8.874979, -0.012972832, 0.6214334, 10.140814
773872124926176, 5.0249276, 0.025124637, 9.000603, 0.20587826, -0.35126948, 10.300272
773872134566592, 4.9340005, -0.5922236, 8.908479, 0.04368639, 0.24339902, 10.197791
773872144207009, 4.932804, -0.5180461, 8.831908, 0.024845123, 0.1691432, 10.127899
773872153847426, 5.009374, -0.07058827, 8.82473, 0.09580994, -0.28411472, 10.143211
773872163487842, 4.9064827, -0.90089774, 8.725428, -0.12134504, 0.5214263, 10.036516
773872173128259, 5.117051, 0.37806597, 8.839087, 0.1623044, -0.7388104, 10.192369
773872182768572, 4.8849473, -1.0277174, 8.672786, -0.16237926, 0.646971, 9.984547
773872192408988, 5.1421757, 0.4031906, 8.668, 0.08267689, -0.79436684, 10.054896
773872202049405, 4.9196434, -0.9774681, 8.465807, -0.27040577, 0.56528264, 9.820161
773872211689822, 5.1146584, 0.14237295, 8.507681, -0.045862198, -0.5455258, 9.912664
773872221330238, 5.046463, -0.5395815, 8.456235, -0.22703218, 0.112972975, 9.859083
773872230970655, 5.0847483, -0.36251262, 8.446664, -0.20392418, -0.067064404, 9.863373
773872240611072, 5.174479, -0.0526421, 8.507681, -0.14155054, -0.37758577, 9.949675
773872250251488, 5.026124, -0.7752745, 8.480164, -0.26874304, 0.3421263, 9.878607
773872259891801, 5.206782, 0.37088752, 8.647661, 0.051097393, -0.7666421, 10.071735
773872269532217, 4.941179, -1.0468599, 8.569894, -0.24308348, 0.65601844, 9.922943
773872279172634, 5.1828537, 0.45942193, 8.73141, 0.12089586, -0.82552695, 10.129879
773872288813051, 4.9543395, -0.9068798, 8.65125, -0.15324068, 0.52831316, 9.995471
773872298453467, 5.1290154, 0.2440679, 8.807981, 0.12749195, -0.57822895, 10.178226
773872308093884, 4.9878387, -0.61016977, 8.781659, -0.028508186, 0.27732313, 10.113885
773872317734301, 5.020142, -0.30867413, 8.787642, 0.030052185, -0.0242095, 10.125131
773872327374613, 5.066802, -0.13878371, 8.803194, 0.041697502, -0.20062655, 10.15608
773872337015030, 4.9136615, -0.85902333, 8.703893, -0.08520508, 0.5185086, 10.018166
773872346655447, 5.076373, 0.21535404, 8.873783, 0.17234373, -0.5315083, 10.21018
773872356295863, 4.8442693, -1.1102697, 8.785249, -0.077651024, 0.7857684, 10.062644
773872365936280, 5.06082, 0.41515473, 8.879765, 0.25633717, -0.72812307, 10.199932
773872375576697, 4.8191447, -0.991825, 8.715857, -0.05309105, 0.65875256, 9.986855
773872385217113, 5.0129633, 0.23090738, 8.769695, 0.17641878, -0.54244804, 10.087879
773872394857530, 4.8909297, -0.66400826, 8.751749, -0.0067896843, 0.33007717, 10.042221
773872404497947, 4.9639106, -0.21296121, 8.776874, 0.08532524, -0.10756707, 10.0846615
773872414138259, 5.0309095, -0.16510476, 8.780462, 0.05262184, -0.17446446, 10.119319
773872423778676, 4.918447, -0.74536425, 8.672786, -0.10208225, 0.3943581, 9.989893
773872433419092, 5.0644093, 0.21415763, 8.766106, 0.15216446, -0.5485947, 10.110124
773872443059509, 4.8382874, -1.1078769, 8.683554, -0.1527257, 0.7592554, 9.971998
773872452699926, 5.063213, 0.34576288, 8.751749, 0.17891574, -0.670189, 10.092951
773872462340342, 4.7856455, -1.0887343, 8.647661, -0.11948395, 0.74593306, 9.91459
773872471980759, 5.023731, 0.22612174, 8.708678, 0.14723349, -0.57181597, 10.038995
773872481621072, 4.9172506, -0.75972116, 8.700303, -0.08590412, 0.39161527, 10.014542
773872491261488, 4.991428, -0.2117648, 8.799605, 0.072657585, -0.13249266, 10.117778
773872500901905, 5.0045886, -0.276371, 8.770891, 0.028503418, -0.07796228, 10.101681
773872510542322, 4.9088755, -0.7106683, 8.650054, -0.07730961, 0.35258663, 9.964702
773872520182738, 5.0392847, 0.18305093, 8.815159, 0.14974499, -0.52135885, 10.14104
773872529823155, 4.820341, -1.0468599, 8.7015, -0.08259487, 0.7001139, 9.97751
773872539463572, 5.0751767, 0.40558344, 8.781659, 0.16192722, -0.73785114, 10.122687
773872549103988, 4.82752, -1.0839486, 8.628518, -0.15355444, 0.7340981, 9.918101
773872558744405, 5.0476594, 0.2548356, 8.72782, 0.14228296, -0.6006087, 10.066661
773872568384717, 4.912465, -0.83748794, 8.626125, -0.1438241, 0.46781224, 9.950086
773872578025134, 4.9734817, -0.1698904, 8.601001, 0.002480507, -0.19629228, 9.934941
773872587665551, 4.9471607, -0.37447673, 8.606983, -0.03372717, 0.0068649054, 9.934465
773872597305967, 4.855037, -0.72502524, 8.534002, -0.09959078, 0.3609522, 9.83799
773872606946384, 5.0249276, 0.11724831, 8.676374, 0.089719296, -0.4706248, 10.015667
773872616586801, 4.883751, -0.9559326, 8.642876, -0.1383028, 0.5826689, 9.955175
773872626227217, 5.127819, 0.47377887, 8.793623, 0.15884495, -0.817322, 10.156455
773872635867634, 4.910072, -1.0301101, 8.639286, -0.18634748, 0.6729545, 9.965923
773872645507947, 5.194818, 0.38285163, 8.754142, 0.05383396, -0.74107194, 10.159509
773872655148363, 5.035695, -0.7896315, 8.650054, -0.2284689, 0.39549017, 10.029783
773872664788780, 5.1661043, -0.020338992, 8.752945, -0.036331654, -0.3448305, 10.157895
773872674429197, 5.1206403, -0.31465617, 8.718249, -0.109882355, -0.05315137, 10.114986
773872684069613, 5.048856, -0.47976094, 8.670393, -0.1252017, 0.120491266, 10.043239
773872693710030, 5.1158547, 0.2009971, 8.745767, 0.077254295, -0.5317447, 10.119886
773872703350447, 4.8705907, -0.8877372, 8.646464, -0.121845245, 0.5550766, 9.947316
773872712990863, 5.06082, 0.465404, 8.781659, 0.2301445, -0.7636211, 10.114839
773872722631280, 4.7676992, -1.0492527, 8.7015, -0.065736294, 0.75671124, 9.94842
773872732271592, 4.989035, 0.40438703, 8.830712, 0.28251958, -0.6791192, 10.123955
773872741912009, 4.8454657, -0.8781659, 8.733803, -0.043596268, 0.5659331, 10.010336
773872751552426, 4.938786, -0.025124637, 8.864211, 0.19057322, -0.2490046, 10.142393
773872761192842, 4.87418, -0.41994038, 8.857033, 0.12181139, 0.14147925, 10.116628
773872770833259, 4.8885365, -0.587438, 8.790034, 0.017956257, 0.30258906, 10.070536
773872780473676, 4.9603214, -0.031106694, 8.846265, 0.15617895, -0.24067283, 10.13804
773872790114092, 4.7988057, -1.038485, 8.816355, -0.037279606, 0.7591392, 10.062674
773872799754509, 5.0416775, 0.27158538, 9.004191, 0.259583, -0.53829443, 10.305852
773872809394926, 4.79402, -1.1557333, 8.857033, -0.04142952, 0.8830776, 10.098704
773872819035238, 5.063213, 0.36370903, 8.930014, 0.23611307, -0.6417692, 10.249192
773872828675655, 4.901697, -0.85064846, 8.804391, -0.060518265, 0.5577242, 10.09717
773872838316072, 5.035695, 0.15314065, 8.849854, 0.15299845, -0.4361329, 10.172904
773872847956488, 4.9519463, -0.38644084, 8.775677, 0.026735306, 0.09238583, 10.08337
773872857596905, 4.968696, -0.3481557, 8.683554, -0.017766953, 0.050142646, 10.010515
773872867237322, 5.093123, 0.06819545, 8.666803, -0.004532337, -0.3838886, 10.045429
773872876877738, 4.941179, -0.8865408, 8.541181, -0.20861244, 0.5528504, 9.889581
773872886518155, 5.1218367, 0.3361916, 8.672786, 0.07427311, -0.6542301, 10.056337
773872896158572, 4.853841, -1.0743774, 8.543573, -0.1963396, 0.7465892, 9.854479
773872905798988, 5.078766, 0.4211368, 8.630911, 0.116829395, -0.71650434, 9.9968405
773872915439301, 4.8382874, -0.93559366, 8.5112705, -0.14999247, 0.6305223, 9.813564
773872925079717, 5.0189457, 0.13519448, 8.679964, 0.11225748, -0.4168607, 10.018159
773872934720134, 4.9112687, -0.5072784, 8.719446, 0.020562649, 0.22028732, 10.017868
773872944360551, 4.9926243, -0.36370903, 8.737391, 0.0043525696, 0.07162297, 10.0695305
773872954000967, 5.0715876, -0.034695927, 8.816355, 0.07587862, -0.24891603, 10.167723
773872963641384, 4.95075, -0.7812566, 8.750552, -0.093084335, 0.49634033, 10.071615
773872973281801, 5.174479, 0.38883367, 8.9013, 0.1541214, -0.66024697, 10.281046
773872982922217, 4.9052863, -1.0049855, 8.749356, -0.12999487, 0.73207676, 10.053369
773872992562634, 5.10748, 0.4642076, 8.842676, 0.21854734, -0.70601726, 10.195516
773873002203051, 4.8789654, -0.9343972, 8.69791, -0.11146259, 0.65386766, 9.994553
773873011843467, 5.042874, 0.2117648, 8.769695, 0.16891003, -0.45420587, 10.106837
773873021483780, 4.9519463, -0.48454657, 8.743374, 0.0042352676, 0.21637404, 10.057649
773873031124197, 5.029713, -0.19381863, 8.738588, 0.035840034, -0.07367504, 10.084236
773873040764613, 5.1661043, 0.061016977, 8.812766, 0.037941933, -0.34302092, 10.209706
773873050405030, 5.1529436, -0.567099, 8.7469635, -0.18357897, 0.24651313, 10.163136
773873060045447, 5.3682976, 0.5383851, 8.880961, 0.047829628, -0.832579, 10.357821
773873069685863, 5.151747, -0.8662018, 8.739784, -0.28187752, 0.56066775, 10.162718
773873079326280, 5.375476, 0.58624154, 8.805588, 0.021476746, -0.8791561, 10.295846
773873088966697, 5.0979085, -0.8542377, 8.641679, -0.25772, 0.5606307, 10.050686
773873098607113, 5.2689953, 0.31944183, 8.702696, -0.00939846, -0.59697235, 10.160945
773873108247530, 5.0656056, -0.56829536, 8.616554, -0.14713573, 0.27954692, 10.006424
773873117887947, 5.093123, -0.13998012, 8.5938225, -0.045553207, -0.13773727, 9.989606
773873127528363, 5.040481, -0.11006984, 8.530413, -0.01683569, -0.17067873, 9.907427
773873137168676, 4.871787, -0.7645068, 8.4012, -0.14587545, 0.47678512, 9.728841
773873146809092, 4.9866424, 0.23688944, 8.554341, 0.16041613, -0.49815226, 9.890682
773873156449509, 4.773681, -1.0588241, 8.49452, -0.093575, 0.7854322, 9.769359
773873166089926, 5.0045886, 0.35653058, 8.608179, 0.20393729, -0.60598826, 9.943087
773873175730342, 4.759324, -1.1042876, 8.455039, -0.106012344, 0.8187008, 9.7302
773873185370759, 4.965107, 0.15672988, 8.560323, 0.14247036, -0.4297334, 9.886911
773873195011176, 4.8095737, -0.8063812, 8.5220375, -0.036216736, 0.5370372, 9.803961
773873204651592, 4.8622155, -0.33499518, 8.590233, 0.089645386, 0.082909465, 9.875756
773873214292009, 4.892126, -0.3505485, 8.640483, 0.08273029, 0.089592695, 9.934731
773873223932426, 4.8299127, -0.80518484, 8.599805, -0.029335499, 0.5390593, 9.881376
773873233572842, 4.971089, 0.10049855, 8.793623, 0.21760178, -0.34051144, 10.093876
773873243213259, 4.7808595, -1.079163, 8.773284, -0.012942791, 0.8304403, 10.015086
773873252853676, 5.0572305, 0.40917268, 8.96471, 0.3183217, -0.6286204, 10.276796
773873262494092, 4.816752, -1.0193424, 8.859426, -0.0077958107, 0.7963557, 10.104225
773873272134509, 5.10748, 0.43788654, 8.975478, 0.27894163, -0.6516906, 10.311876
773873281774926, 5.0009995, -0.54675996, 8.909675, 0.0206151, 0.2974869, 10.227528
773873291415238, 5.1182475, 0.11844472, 8.961121, 0.14509201, -0.34171104, 10.313795
773873301055655, 5.160122, -0.021535404, 8.907282, 0.048271656, -0.22156715, 10.291528
773873310696072, 5.1469617, -0.39960137, 8.779266, -0.11552429, 0.14525455, 10.182927
773873320336488, 5.288138, 0.3684947, 8.845069, 0.030651093, -0.6206548, 10.293166
773873329976905, 5.09073, -0.8279166, 8.69791, -0.22913647, 0.5649015, 10.093712
773873339617322, 5.3479586, 0.6149554, 8.813962, 0.055897236, -0.8655015, 10.291383
773873349257738, 5.1086764, -0.8530413, 8.627322, -0.28338528, 0.57534635, 10.042192
773873358898155, 5.3383875, 0.53359944, 8.706285, 0.001970768, -0.80362356, 10.194935
773873368538572, 5.127819, -0.5802595, 8.6141615, -0.20844841, 0.31464297, 10.034569
773873378178988, 5.2139606, 0.20937198, 8.657232, -0.0133395195, -0.45392418, 10.098053
773873387819405, 5.148158, -0.12083755, 8.618947, -0.076541424, -0.13324773, 10.038963
773873397459822, 5.066802, -0.41754755, 8.538788, -0.1366086, 0.16658783, 9.935357
773873407100238, 5.186443, 0.2644069, 8.595019, 0.0034079552, -0.5098605, 10.029133
773873416740655, 4.9902315, -0.8315059, 8.5220375, -0.19659519, 0.57872957, 9.891682
773873426381072, 5.194818, 0.4881358, 8.664411, 0.12538052, -0.7253475, 10.087348
773873436021488, 4.910072, -1.0253245, 8.568698, -0.17215157, 0.7769803, 9.896936
773873445661905, 5.15414, 0.38763726, 8.668, 0.11577654, -0.6095371, 10.07297
773873455302322, 4.9375896, -0.83030945, 8.581859, -0.13597918, 0.5907854, 9.917156
773873464942738, 5.022535, 0.010767702, 8.7015, 0.12087536, -0.21393347, 10.043989
773873474583155, 4.95075, -0.36729828, 8.729017, 0.074080944, 0.16064107, 10.040382
773873484223572, 4.910072, -0.50009996, 8.683554, 0.035866737, 0.2951635, 9.983717
773873493863988, 5.0069814, 0.076570325, 8.776874, 0.19015455, -0.26753914, 10.09958
773873503504405, 4.82752, -0.8913264, 8.720642, -0.010816574, 0.6970764, 9.983134
773873513144822, 5.089534, 0.4642076, 8.880961, 0.29343295, -0.6381116, 10.22238
773873522785238, 4.8299127, -1.018146, 8.749356, -0.046488285, 0.8093597, 10.012928
773873532425655, 5.0620165, 0.43070808, 8.815159, 0.27003765, -0.6065388, 10.152624
773873542066072, 4.900501, -0.84347, 8.672786, -0.090427876, 0.6101601, 9.97813
773873551706384, 5.066802, 0.12921242, 8.76132, 0.14576197, -0.33024466, 10.1153145
773873561346801, 4.9974103, -0.38285163, 8.745767, 0.023786068, 0.16041172, 10.07883
773873570987217, 5.0273204, -0.3924229, 8.664411, -0.04272127, 0.15678072, 10.02365
773873580627634, 5.1385865, 0.06460621, 8.718249, 0.04085207, -0.30043304, 10.115592
773873590268051, 4.9663033, -0.81595254, 8.636893, -0.14741516, 0.57520497, 9.978642
773873599908467, 5.2127643, 0.47377887, 8.770891, 0.13911772, -0.69570005, 10.189336
773873609548884, 4.9722853, -0.991825, 8.609376, -0.2138319, 0.7280418, 9.962577
773873619189301, 5.2235317, 0.5407779, 8.721839, 0.12777281, -0.76648235, 10.151078
773873628829717, 5.026124, -0.7477571, 8.642876, -0.14786482, 0.5054806, 10.012142
773873638470134, 5.174479, 0.28594232, 8.736196, 0.10649967, -0.5098463, 10.1442995
773873648110551, 5.0644093, -0.34337005, 8.71466, -0.019332409, 0.11399591, 10.084546
773873657750967, 5.0679984, -0.21415763, 8.706285, 0.013579369, -1.9526482E-4, 10.076195
773873667391384, 5.1182475, 0.13040884, 8.707481, 0.07504368, -0.34391654, 10.095038
773873677031801, 5.0009995, -0.67836523, 8.641679, -0.11361742, 0.44625175, 9.996838
773873686672217, 5.218746, 0.46779683, 8.803194, 0.16043139, -0.68346417, 10.220447
773873696312634, 4.9734817, -1.0169497, 8.69791, -0.16758013, 0.78841895, 10.038609
773873705953051, 5.2163534, 0.47736812, 8.807981, 0.17965889, -0.6924267, 10.222868
773873715593467, 5.0009995, -0.8877372, 8.606983, -0.18968534, 0.6309679, 9.972168
773873725233884, 5.1553364, 0.2428715, 8.69791, 0.094997406, -0.4702382, 10.102473
773873734874301, 5.040481, -0.46660042, 8.660822, -0.056005, 0.22954166, 10.028866
773873744514717, 5.1086764, -0.19980069, 8.62134, -0.045043945, -0.04069197, 10.023089
773873754155134, 5.180461, 0.0634098, 8.657232, 0.013124466, -0.30908227, 10.084303
773873763795551, 5.056034, -0.62452674, 8.589037, -0.13830328, 0.3744021, 9.978265
773873773435967, 5.2366924, 0.4534399, 8.721839, 0.12976265, -0.6789441, 10.159785
773873783076384, 5.0392847, -0.91405827, 8.601001, -0.20273209, 0.6586875, 9.986599
773873792716801, 5.2534423, 0.5288138, 8.678768, 0.12690163, -0.7724937, 10.128496
773873802357322, 5.009374, -0.94277215, 8.5423765, -0.22152567, 0.68068045, 9.921817
773873811997738, 5.1661043, 0.24047868, 8.659625, 0.097877026, -0.4798019, 10.074512
773873821638155, 5.032106, -0.56829536, 8.652447, -0.06283808, 0.328273, 10.019889
773873831278572, 5.0656056, -0.22253251, 8.656036, 0.024944305, -0.007737994, 10.031757
773873840918988, 5.040481, -0.104087785, 8.641679, 0.07874012, -0.11983752, 10.003766
773873850559405, 4.955536, -0.64606214, 8.601001, -0.057215214, 0.40825343, 9.938913
773873860199822, 5.1361938, 0.37447673, 8.737391, 0.20746565, -0.589226, 10.12287
773873869840238, 4.877769, -0.9834501, 8.640483, -0.08870363, 0.76434356, 9.94111
773873879480655, 5.1290154, 0.48215377, 8.760123, 0.2571435, -0.6853503, 10.136232
773873889121072, 4.9471607, -0.8745767, 8.636893, -0.110332966, 0.62898177, 9.971331
773873898761488, 5.083552, -0.14596218, 8.706285, 0.06291294, -0.08062053, 10.0823
773873908401905, 5.052445, -0.3493521, 8.708678, 0.014181614, 0.11910212, 10.073527
773873918042322, 5.083552, -0.25124636, 8.705089, 0.023653984, 0.018841386, 10.083813
773873927682738, 5.072784, -0.27756742, 8.707481, 0.023439884, 0.047285438, 10.081053
773873937323155, 5.1014977, -0.21894327, 8.724232, 0.027814388, -0.014724135, 10.108633
773873946963572, 5.103891, -0.22851457, 8.711071, 0.014444828, -0.009663343, 10.098732
773873956603988, 5.1014977, -0.19381863, 8.720642, 0.029263496, -0.0416286, 10.104942
773873966244405, 5.119444, -0.22492532, 8.672786, -0.018521786, -0.022675276, 10.073513
773873975884822, 5.1122656, -0.22013968, 8.671589, -0.0097055435, -0.024072886, 10.06874
773873985525238, 5.12423, -0.2009971, 8.65125, -0.02525568, -0.047401845, 10.0568075
773873995165655, 5.111069, -0.27038896, 8.627322, -0.04121971, 0.020899951, 10.031187
773874004806072, 5.093123, -0.24646074, 8.627322, -0.017714977, 0.003009379, 10.021527
773874014446488, 5.089534, -0.2428715, 8.5938225, -0.02666998, -0.0036213398, 9.990767
773874024086905, 5.0943193, -0.23808585, 8.603394, -0.022728443, -0.007496834, 10.001329
773874033727426, 5.081159, -0.21296121, 8.62134, 0.0043997765, -0.025815785, 10.009513
773874043367738, 5.0979085, -0.20697916, 8.662018, 0.011943817, -0.03127861, 10.052906
773874053008259, 5.1146584, -0.20338993, 8.675179, 0.0016026497, -0.033388138, 10.072672
773874062648676, 5.130212, -0.20937198, 8.720642, 0.0067949295, -0.02471292, 10.119873
773874072289092, 5.1290154, -0.18185452, 8.711071, 0.005426407, -0.05029279, 10.110394
773874081929509, 5.127819, -0.20817557, 8.699107, -0.0043702126, -0.025316954, 10.100082
773874091569926, 5.1421757, -0.20578274, 8.691928, -0.020113945, -0.026983738, 10.10113
773874101210342, 5.1421757, -0.2105684, 8.700303, -0.016986847, -0.021552145, 10.108454
773874110850759, 5.1385865, -0.20937198, 8.691928, -0.01302433, -0.021894634, 10.099399
773874120491176, 5.1421757, -0.20458634, 8.694321, -0.0115327835, -0.02759409, 10.103175
773874130131592, 5.139783, -0.19860429, 8.689535, -0.010293961, -0.0334512, 10.097704
773874139772009, 5.1254263, -0.21894327, 8.670393, -0.01138258, -0.014884591, 10.074389
773874149412426, 5.1158547, -0.26679972, 8.636893, -0.032461643, 0.028381884, 10.041775
773874159052842, 5.058427, -0.2416751, 8.623733, 0.014996052, 0.01368928, 10.000721
773874168693259, 5.056034, -0.21296121, 8.603394, 0.013941765, -0.017451227, 9.981318
773874178333676, 5.06082, -0.20937198, 8.597412, 0.00795126, -0.023382962, 9.978509
773874187974197, 5.0775695, -0.2440679, 8.585447, -0.02067852, 0.0049853325, 9.977512
773874197614613, 5.0823555, -0.27038896, 8.606983, -0.020756721, 0.031399667, 9.999111
773874207255030, 5.1050873, -0.2644069, 8.617751, -0.032676697, 0.021438181, 10.019778
773874216895447, 5.087141, -0.27876383, 8.628518, -0.016138554, 0.041400015, 10.020283
773874226535863, 5.0512486, -0.30987054, 8.639286, 0.011516571, 0.082624376, 10.012066
773874236176280, 5.023731, -0.28235307, 8.653643, 0.048307896, 0.06492126, 10.009825
773874245816697, 5.0644093, -0.2440679, 8.685946, 0.03815794, 0.022928953, 10.05741
773874255457113, 5.048856, -0.22492532, 8.723035, 0.07095003, 0.012071192, 10.081057
773874265097530, 5.0476594, -0.23688944, 8.762517, 0.08648968, 0.028312087, 10.114761
773874274737947, 5.0656056, -0.18544376, 8.773284, 0.08810139, -0.024793148, 10.131973
773874284378467, 5.093123, -0.16271193, 8.766106, 0.06361532, -0.051977694, 10.139242
773874294018884, 5.12423, -0.19501504, 8.756535, 0.022632599, -0.026423275, 10.147486
773874303659301, 5.109873, -0.1902294, 8.737391, 0.026022911, -0.025342584, 10.123621
773874313299717, 5.1409793, -0.20458634, 8.708678, -0.017563343, -0.021886945, 10.114931
773874322940134, 5.1529436, -0.21655045, 8.732606, -0.016151428, -0.008278847, 10.141884
773874332580551, 5.1649075, -0.21655045, 8.718249, -0.029341698, -0.011761129, 10.135584
773874342220967, 5.160122, -0.22013968, 8.687142, -0.038310528, -0.013290405, 10.106441
773874351861384, 5.151747, -0.23090738, 8.656036, -0.049559593, -0.0048127174, 10.075628
773874361501801, 5.1158547, -0.2117648, 8.644072, -0.020395279, -0.017901719, 10.046694
773874371142217, 5.0847483, -0.23090738, 8.632108, -0.0042505264, 0.0048807263, 10.02104
773874380782634, 5.050052, -0.24047868, 8.632108, 0.023597717, 0.021266997, 10.003655
773874390423155, 5.0309095, -0.24526432, 8.63809, 0.042394638, 0.030025601, 9.999206
773874400063572, 5.0045886, -0.23330021, 8.632108, 0.06416798, 0.022993028, 9.980429
773874409703988, 5.0141597, -0.21655045, 8.640483, 0.06339598, 0.0055797696, 9.992126
773874419344405, 5.076373, -0.20697916, 8.644072, 0.014081001, -0.017668009, 10.026559
773874428984822, 5.1062837, -0.20817557, 8.65125, -0.009468555, -0.021671712, 10.047936
773874438625238, 5.1158547, -0.22492532, 8.657232, -0.01906681, -0.0026956797, 10.058323
773874448265655, 5.1266227, -0.21296121, 8.658429, -0.023657799, -0.015448689, 10.064552
773874457906176, 5.1732826, -0.19262223, 8.650054, -0.05988741, -0.046571493, 10.080559
773874467546592, 5.1792645, -0.19740787, 8.640483, -0.06892586, -0.04319465, 10.07547
773874477187009, 5.1613183, -0.17706887, 8.624929, -0.05488205, -0.05790329, 10.052542
773874486827426, 5.1816573, -0.15314065, 8.623733, -0.06523609, -0.08446598, 10.061332
773874496467842, 5.133801, -0.1794617, 8.618947, -0.03562689, -0.046373248, 10.033491
773874506108259, 5.133801, -0.18664017, 8.650054, -0.022333145, -0.0356071, 10.060438
773874515748676, 5.156533, -0.17587246, 8.702696, -0.0166049, -0.04478109, 10.1170845
773874525389092, 5.151747, -0.17347965, 8.706285, -0.010236263, -0.045535326, 10.117699
773874535029613, 5.133801, -0.18424734, 8.69791, -0.004453182, -0.031594276, 10.101608
773874544670030, 5.1146584, -0.20937198, 8.719446, 0.01266861, 7.531643E-4, 10.110992
773874554310447, 5.099105, -0.21894327, 8.708678, 0.017036915, 0.0134881735, 10.094029
773874563950863, 5.0823555, -0.23449662, 8.734999, 0.03920412, 0.03694856, 10.108542
773874573591280, 5.0620165, -0.26799613, 8.724232, 0.036785603, 0.07159865, 10.089676
773874583231697, 5.0165524, -0.28115666, 8.707481, 0.05786419, 0.094298124, 10.0525055
773874592872113, 5.0177493, -0.2835495, 8.677571, 0.037026882, 0.08884871, 10.027421
773874602512530, 5.005785, -0.276371, 8.650054, 0.037014723, 0.08128226, 9.997486
773874612153051, 4.9902315, -0.27158538, 8.648857, 0.052119732, 0.07947075, 9.988488
773874621793467, 5.003392, -0.2428715, 8.670393, 0.06597328, 0.049684286, 10.013082
773874631433884, 5.0249276, -0.2632105, 8.65125, 0.03190565, 0.053127766, 10.007971
773874641074301, 5.046463, -0.25603202, 8.644072, 0.013171673, 0.035303473, 10.012537
773874650714717, 5.072784, -0.25842485, 8.626125, -0.01710701, 0.02534914, 10.010446
773874660355134, 5.0799623, -0.22612174, 8.664411, 0.005487919, -7.4338913E-4, 10.0463505
773874669995655, 5.109873, -0.2009971, 8.682357, -3.376007E-4, -0.02333796, 10.076407
773874679636072, 5.130212, -0.2009971, 8.683554, -0.016705513, -0.027665615, 10.087742
773874689276488, 5.1385865, -0.20578274, 8.678768, -0.026028633, -0.021672726, 10.087978
773874698916384, 5.1529436, -0.19501504, 8.676374, -0.036788464, -0.033541262, 10.092959
773874708556280, 5.150551, -0.148355, 8.694321, -0.014406204, -0.07646066, 10.106203
773874718197738, 5.1529436, -0.1591227, 8.679964, -0.026429653, -0.06515908, 10.095296
773874727838155, 5.1266227, -0.1794617, 8.676374, -0.0104932785, -0.03851998, 10.079303
773874737478676, 5.1385865, -0.19381863, 8.68475, -0.020071983, -0.026558995, 10.092889
773874747119092, 5.180461, -0.18544376, 8.703893, -0.041628838, -0.041188717, 10.130444
773874756759509, 5.139783, -0.17108682, 8.690732, -0.007739067, -0.045992136, 10.098182
773874766399926, 5.148158, -0.16271193, 8.671589, -0.01925087, -0.05717933, 10.085773
773874776040342, 5.148158, -0.15672988, 8.611769, -0.045062542, -0.070305586, 10.034126
773874785680759, 5.1409793, -0.1902294, 8.596215, -0.054062366, -0.03890431, 10.017801
773874795321280, 5.1266227, -0.21296121, 8.620144, -0.036427498, -0.010564864, 10.031603
773874804961697, 5.1182475, -0.2213361, 8.605786, -0.037287235, -0.0025004148, 10.015169
773874814602113, 5.0823555, -0.22013968, 8.616554, -0.0015087128, 0.0044335127, 10.006187
773874824242530, 5.0620165, -0.21296121, 8.620144, 0.018122196, 0.0017873049, 9.998797
773874833882947, 5.0512486, -0.2213361, 8.6345005, 0.026855469, 0.012951314, 10.00589
773874843523363, 5.052445, -0.24885355, 8.658429, 0.031586647, 0.04163468, 10.027702
773874853163884, 5.066802, -0.22013968, 8.68475, 0.03703022, 0.01255554, 10.057053
773874862804301, 5.0943193, -0.22492532, 8.703893, 0.021690845, 0.013008773, 10.087605
