timestamp_acc,device_acc_x,device_acc_y,device_acc_z,earth_acc_x,earth_acc_y,earth_acc_z
358562727526968, 9.020942, -1.2765709, 4.1240296, -0.008617997, -0.042717695, 10.000638
358562737166655, 9.013762, -1.262214, 4.141976, -0.02865231, -0.057137012, 9.999649
358562746806239, 9.038888, -1.2669996, 4.1431723, -0.024051905, -0.046204805, 10.02347
358562756445822, 9.038888, -1.2598212, 4.1575294, -0.035267234, -0.056661844, 10.028421
358562766085509, 9.047262, -1.288535, 4.1635113, -0.008685231, -0.06479335, 10.042102
358562775725093, 9.067601, -1.2729816, 4.1694937, -0.024753451, -0.055431128, 10.060957
358562785364676, 9.072387, -1.2729816, 4.1144586, -0.00814271, -0.0030059814, 10.042778
358562795004364, 9.079565, -1.2789637, 4.0833516, 0.0059827566, 0.0286839, 10.037289
358562804643947, 9.098708, -1.2813566, 4.0977087, 0.0019769669, 0.022905827, 10.060768
358562814283530, 9.092726, -1.294517, 4.1072803, 0.011544943, 0.0083835125, 10.060963
358562823923218, 9.081959, -1.3016955, 4.104887, 0.01742959, 0.0025422573, 10.051177
358562833562801, 9.11785, -1.3076776, 4.0642095, 0.03481567, 0.051024437, 10.067731
358562843202384, 9.115458, -1.2981063, 4.0773697, 0.020258784, 0.041968107, 10.069728
358562852842072, 9.055637, -1.3220345, 4.074977, 0.04173422, 0.010855675, 10.017779
358562862481655, 9.055637, -1.3124632, 4.0773697, 0.027296662, 0.013390303, 10.017542
358562872121239, 9.071191, -1.3016955, 4.071388, 0.015304327, 0.027746439, 10.027767
358562881760926, 9.056833, -1.2861422, 4.1228333, -0.014941812, -0.018556118, 10.033821
358562891400509, 9.0341015, -1.3016955, 4.1312084, -0.007378578, -0.043147087, 10.018702
358562901040093, 9.020942, -1.3040884, 4.1108694, -8.852482E-4, -0.03303504, 9.99881
358562910679780, 9.02812, -1.3160524, 4.0570307, 0.026204586, 0.013399839, 9.984868
358562920319364, 9.013762, -1.3495519, 4.034299, 0.0636071, 0.016654015, 9.966969
358562929959051, 9.036494, -1.3471591, 4.0558343, 0.053456306, 0.0060050488, 9.995998
358562939598634, 9.016156, -1.3507484, 4.0354953, 0.0602175, 0.008584738, 9.969811
358562949238218, 9.008977, -1.302892, 4.0271206, 0.017202258, 0.025371552, 9.9536915
358562958877905, 9.018549, -1.2801601, 4.045067, -0.011002064, 0.018669128, 9.9667015
358562968517489, 9.01137, -1.2789637, 4.068995, -0.019338846, -0.0059263706, 9.969796
358562978157072, 8.989835, -1.294517, 4.0354953, 0.0067151785, 0.009069681, 9.938712
358562987796759, 8.997013, -1.2933207, 3.9984066, 0.017878652, 0.045972586, 9.929941
358562997436343, 8.99462, -1.329213, 4.011567, 0.048946857, 0.025090218, 9.937789
358563007075926, 9.020942, -1.3304094, 4.034299, 0.040975332, 0.017460585, 9.971006
358563016715614, 9.014959, -1.3136597, 4.048656, 0.019634485, 0.0070044994, 9.969273
358563026355197, 9.02453, -1.2981063, 4.0761733, -0.0034866333, -0.008399248, 9.987107
358563035994780, 9.02812, -1.2933207, 4.058227, -0.0014363527, 0.013792038, 9.982416
358563045634468, 9.053245, -1.2765709, 4.082155, -0.022512674, 0.011941671, 10.012703
358563055274051, 9.036494, -1.282553, 4.071388, -0.010519743, 0.017252445, 9.993945
358563064913634, 9.072387, -1.2933207, 4.0151563, 0.01821649, 0.083102226, 10.004756
358563074553322, 9.046066, -1.2849457, 4.01396, 0.011339545, 0.07779074, 9.979383
358563084192905, 9.042477, -1.2765709, 4.058227, -0.009511948, 0.040092945, 9.993174
358563093832489, 9.022138, -1.2897314, 4.063013, 0.0016727448, 0.026134968, 9.978465
358563103472176, 9.048459, -1.2969099, 4.058227, 0.009790301, 0.043486357, 10.001191
358563113111759, 9.050852, -1.3136597, 4.098905, 0.014406681, 0.0049614906, 10.022197
358563122751343, 9.052048, -1.3399807, 4.1491547, 0.025135279, -0.04478407, 10.047287
358563132391030, 9.052048, -1.3387842, 4.165904, 0.019307375, -0.058286667, 10.053998
358563142030614, 9.02812, -1.3363914, 4.17069, 0.018145561, -0.0647192, 10.034094
358563151670197, 9.055637, -1.3304094, 4.135994, 0.02240491, -0.02131915, 10.043905
358563161309884, 9.073584, -1.3196417, 4.1491547, 0.010496855, -0.01760149, 10.0641165
358563170949468, 9.065208, -1.3076776, 4.188636, -0.008692145, -0.05347085, 10.071234
358563180589051, 9.072387, -1.288535, 4.210171, -0.032827854, -0.06438303, 10.084087
358563190228739, 9.083155, -1.2873386, 4.1982074, -0.029364467, -0.051862717, 10.088722
358563199868322, 9.110672, -1.2693924, 4.186243, -0.041399717, -0.028631926, 10.106325
358563209508009, 9.075976, -1.2658032, 4.1982074, -0.04737234, -0.053350925, 10.079458
358563219147593, 9.093923, -1.2777673, 4.1850467, -0.03139913, -0.037369013, 10.091795
358563228787176, 9.080762, -1.2753744, 4.115655, -0.014259815, 0.019152641, 10.051113
358563238426864, 9.065208, -1.2849457, 4.113262, -0.0051193237, 0.012834787, 10.037321
358563248066447, 9.071191, -1.2753744, 4.0869412, -0.007167101, 0.04060626, 10.030677
358563257706030, 9.065208, -1.2921243, 4.0977087, 0.0040067434, 0.023501396, 10.03186
358563267345718, 9.038888, -1.3172488, 4.0965123, 0.023491263, 0.0033802986, 10.010869
358563276985301, 9.029316, -1.3232309, 4.101298, 0.025250196, -0.00631094, 10.004972
358563286624884, 9.037691, -1.3232309, 4.066602, 0.03274405, 0.02926302, 9.998307
358563296264572, 9.010174, -1.3328022, 4.040281, 0.04938066, 0.038199663, 9.963914
358563305904155, 8.975478, -1.3196417, 4.031906, 0.03701222, 0.035915613, 9.927451
358563315543739, 8.956335, -1.3208381, 3.993621, 0.04909098, 0.06055379, 9.894619
358563325183426, 8.94796, -1.3208381, 4.007978, 0.04422152, 0.04230404, 9.892964
358563334823009, 8.962317, -1.3328022, 4.0151563, 0.050604463, 0.02809143, 9.910481
358563344462593, 8.950353, -1.314856, 4.063013, 0.01872933, -0.020715475, 9.916903
358563354102280, 8.988638, -1.329213, 4.095316, 0.022791028, -0.03604722, 9.966555
358563363741864, 9.008977, -1.3124632, 4.150351, -0.009512901, -0.07530999, 10.005193
358563373381447, 9.030513, -1.308874, 4.1491547, -0.011838317, -0.06577897, 10.023687
358563383021134, 9.044869, -1.2801601, 4.0773697, -0.014206052, 0.01776743, 10.003644
358563392660718, 9.050852, -1.274178, 4.0642095, -0.013068318, 0.037717104, 10.002882
358563402300301, 9.02812, -1.2861422, 4.042674, 0.006824374, 0.04702711, 9.975071
358563411939989, 9.048459, -1.3004991, 4.061816, 0.016549706, 0.037039757, 10.003129
358563421579572, 9.035298, -1.2717853, 4.0905304, -0.01749146, 0.0116117, 9.999304
358563431219155, 8.976674, -1.2490535, 4.2281175, -0.07199907, -0.13026142, 9.999783
358563440858843, 9.157332, -1.3064811, 4.219743, -0.018636584, -0.058218718, 10.166913
358563450498426, 9.019745, -1.3603196, 4.1479583, 0.06463361, -0.06461048, 10.020155
358563460138009, 9.064013, -1.3280165, 4.1072803, 0.04445231, -0.002670288, 10.0393095
358563469777697, 9.136993, -1.3040884, 4.17069, 0.0047990084, -0.019604683, 10.128157
358563479417280, 9.096315, -1.3064811, 4.1635113, 0.009655833, -0.03301263, 10.08878
358563489056864, 9.067601, -1.247857, 4.132405, -0.034428596, -0.004184246, 10.042615
358563498696551, 9.123833, -1.2418749, 4.1407795, -0.042390823, 0.014487267, 10.09607
358563508336134, 9.092726, -1.2263216, 4.0869412, -0.03753996, 0.049111128, 10.043945
358563517975718, 9.105886, -1.2418749, 4.0414777, -0.00919044, 0.08952713, 10.039167
358563527615301, 9.133404, -1.247857, 4.06062, -0.012117982, 0.07232165, 10.072711
358563537254989, 9.115458, -1.2514462, 4.104887, -0.025392532, 0.018475771, 10.075058
358563546894572, 9.138189, -1.2251252, 4.1001015, -0.049177647, 0.03929901, 10.090308
358563556534155, 9.132208, -1.2263216, 4.1144586, -0.054803252, 0.019108295, 10.090911
358563566173843, 9.116654, -1.2335001, 4.115655, -0.0485276, 0.0070517063, 10.07825
358563575813426, 9.092726, -1.2323036, 4.071388, -0.032176018, 0.040513992, 10.038415
358563585453009, 9.065208, -1.2119647, 3.979264, -0.024594665, 0.113657236, 9.97336
358563595092697, 9.038888, -1.2047862, 3.9696927, -0.026868343, 0.11990714, 9.944666
358563604732280, 9.02453, -1.2035898, 3.9673, -0.0292598, 0.11544442, 9.930562
358563614371864, 9.025727, -1.1964114, 3.993621, -0.044629097, 0.09122825, 9.941522
358563624011551, 9.016156, -1.2227324, 4.024728, -0.028518796, 0.04886079, 9.948938
358563633651134, 8.997013, -1.227518, 4.063013, -0.034394145, 0.006307125, 9.947858
358563643290718, 9.0233345, -1.2167503, 4.0438704, -0.039983034, 0.032776833, 9.962493
358563652930405, 9.016156, -1.2299109, 4.0677986, -0.034338832, 0.0019197464, 9.967425
358563662569989, 9.016156, -1.2311072, 4.0773697, -0.035280943, -0.011593819, 9.971474
358563672209572, 9.020942, -1.2299109, 4.078566, -0.03678465, -0.010300159, 9.976139
358563681849259, 9.014959, -1.2490535, 4.0474596, -0.009283423, 0.010344505, 9.960491
358563691488843, 8.99462, -1.247857, 4.0558343, -0.012563229, -0.0022928715, 9.94535
358563701128426, 9.010174, -1.268196, 4.0235314, 0.015971541, 0.030385494, 9.948829
358563710768009, 9.016156, -1.2861422, 4.0163527, 0.035912514, 0.041378736, 9.953559
358563720407697, 8.997013, -1.2837493, 4.0414777, 0.026455164, 0.012110233, 9.946203
358563730047280, 9.01137, -1.2897314, 4.0187454, 0.039070845, 0.039123535, 9.950651
358563739686864, 8.983852, -1.2957134, 4.0067816, 0.050489902, 0.040198088, 9.921624
358563749326551, 8.985049, -1.3016955, 4.0331025, 0.049027205, 0.016324997, 9.934223
358563758966134, 9.030513, -1.2658032, 4.066602, 0.004832506, 0.015173912, 9.984459
358563768605718, 9.029316, -1.4440684, 4.095316, 0.16656125, -0.058494568, 10.017703
358563778245405, 9.046066, -1.0253245, 4.214957, -0.26980925, -0.0431242, 10.02865
358563787884989, 8.9348, -1.8340986, 4.145565, 0.5169519, -0.2602508, 10.002266
358563797524572, 9.218349, -0.526421, 4.109673, -0.7055312, 0.26329708, 10.078561
358563807164155, 8.852247, -2.199004, 4.141976, 0.8597046, -0.40255117, 9.972599
358563816803843, 9.35833, -0.33140594, 4.054638, -0.8699907, 0.4445455, 10.157448
358563826443426, 8.874979, -2.1571295, 4.1647077, 0.8027613, -0.42437816, 9.996935
358563836083009, 9.412168, -0.5515456, 4.0594234, -0.64515316, 0.38977718, 10.237375
358563845722697, 8.991031, -1.6498512, 4.186243, 0.3460735, -0.22773767, 10.045579
358563855362280, 9.227921, -1.1306087, 4.0438704, -0.09497023, 0.15141654, 10.136752
358563865001864, 9.107083, -1.0372887, 4.092923, -0.20130491, 0.09339476, 10.035821
358563874641447, 9.055637, -1.7611175, 4.0594234, 0.49775946, -0.11286402, 10.066008
358563884281134, 9.250652, -0.51086766, 4.1611185, -0.7197188, 0.24127412, 10.127895
358563893920718, 8.845069, -2.201397, 4.253242, 0.8395438, -0.50116706, 10.010768
358563903560301, 9.357133, -0.31465617, 4.1467614, -0.92387235, 0.33651423, 10.192342
358563913199884, 8.793623, -2.1882362, 4.2664027, 0.83766186, -0.53230405, 9.966612
358563922839572, 9.332008, -0.51445687, 4.0941195, -0.7060047, 0.33782268, 10.17351
358563932479155, 8.8701935, -1.7551354, 4.17069, 0.44715738, -0.30462456, 9.942975
358563942118739, 9.194421, -1.0456635, 3.9972103, -0.16641033, 0.18888712, 10.07696
358563951758322, 9.0233345, -1.1162517, 4.046263, -0.12472248, 0.05638671, 9.950884
358563961398009, 8.979067, -1.7001005, 3.9601214, 0.45866156, -0.061721563, 9.948988
358563971037593, 9.203992, -0.54436713, 4.0007997, -0.64866155, 0.3328278, 10.024202
358563980677176, 8.82473, -2.1427727, 4.0366917, 0.8424499, -0.32247353, 9.896894
358563990316864, 9.266206, -0.2883351, 4.024728, -0.89546025, 0.41854143, 10.0581875
358563999956447, 8.723035, -2.2061825, 4.1144586, 0.8731365, -0.44260454, 9.845257
358564009596030, 9.269794, -0.48454657, 3.979264, -0.70375973, 0.38827062, 10.067392
358564019235614, 8.796016, -1.835295, 4.115655, 0.5126351, -0.3190608, 9.864696
358564028875301, 9.172886, -0.9906286, 3.970889, -0.2258538, 0.21874976, 10.039536
358564038514884, 8.968299, -1.2263216, 4.061816, -0.039663434, -0.021041393, 9.92122
358564048154468, 8.977871, -1.6654046, 3.9637108, 0.41291404, -0.079420805, 9.945347
358564057794051, 9.164511, -0.62093747, 3.9816568, -0.5800184, 0.31993747, 9.989428
358564067433739, 8.799605, -2.120041, 4.040281, 0.8155627, -0.3561759, 9.872158
358564077073322, 9.272188, -0.32542387, 3.9696927, -0.85371923, 0.4742961, 10.044106
358564086712905, 8.724232, -2.1966112, 4.065406, 0.8633354, -0.4282539, 9.825279
358564096352489, 9.276974, -0.42592242, 3.9816568, -0.7686486, 0.42063618, 10.066255
358564105992176, 8.793623, -1.8628124, 4.176672, 0.52723444, -0.3992629, 9.889646
358564115631759, 9.192028, -0.9320044, 4.0438704, -0.30508637, 0.17703652, 10.079211
358564125271343, 8.980264, -1.2430713, 4.132405, -0.036779642, -0.08485317, 9.962861
358564134910926, 9.080762, -1.5864414, 4.0366917, 0.3189776, -0.06798911, 10.058109
358564144550614, 9.189635, -0.66759753, 4.0977087, -0.5629096, 0.22529411, 10.065717
358564154190197, 8.877372, -2.0901306, 4.1072803, 0.7767267, -0.36357093, 9.965473
358564163829780, 9.292527, -0.32662028, 4.0127635, -0.85393786, 0.45969892, 10.080648
358564173469364, 8.772088, -2.199004, 4.06062, 0.8773241, -0.39872956, 9.866362
358564183109051, 9.286545, -0.39720857, 3.9828532, -0.76166874, 0.45851922, 10.073254
358564192748634, 8.790034, -1.9118652, 4.145565, 0.57456946, -0.37805653, 9.88092
358564202388218, 9.223135, -0.84107715, 3.9900317, -0.36660987, 0.28248692, 10.073718
358564212027801, 8.941978, -1.3328022, 4.0869412, 0.057536483, -0.07494497, 9.921166
358564221667384, 9.08794, -1.5314065, 3.999603, 0.27849233, -0.002236843, 10.042665
358564231307072, 9.18126, -0.72023964, 4.1276193, -0.52823114, 0.17216587, 10.076846
358564240946655, 8.924032, -2.0267208, 4.1431723, 0.6999984, -0.34663367, 10.015074
358564250586239, 9.342776, -0.33738798, 4.065406, -0.86702037, 0.40277433, 10.149624
358564260225822, 8.840283, -2.2360928, 4.0977087, 0.9056959, -0.42271233, 9.947008
358564269865509, 9.391829, -0.36370903, 3.9661036, -0.80737793, 0.5004077, 10.157088
358564279505093, 8.840283, -1.9812572, 4.1084766, 0.65227497, -0.366297, 9.919473
358564289144676, 9.29133, -0.82313097, 4.0007997, -0.3777883, 0.29937148, 10.138069
358564298784259, 8.961121, -1.4440684, 4.1084766, 0.15187109, -0.13797474, 9.96115
358564308423843, 9.113065, -1.4392828, 4.037888, 0.18061495, -0.004393816, 10.069328
358564318063530, 9.142975, -0.75254273, 4.135994, -0.49263763, 0.16497898, 10.049718
358564327703114, 8.88814, -2.0063818, 4.152744, 0.6721395, -0.36914635, 9.984079
358564337342697, 9.262616, -0.37686956, 4.101298, -0.8373233, 0.34622383, 10.096422
358564346982280, 8.749356, -2.2337, 4.1036906, 0.90943027, -0.44061327, 9.867104
358564356621864, 9.29133, -0.3505485, 3.9816568, -0.82913244, 0.45350003, 10.070362
358564366261551, 8.7469635, -2.0135603, 4.132405, 0.6944144, -0.39176965, 9.849105
358564375901134, 9.186047, -0.7262217, 4.034299, -0.49759865, 0.24170041, 10.043924
358564385540718, 8.82832, -1.4548361, 4.1443686, 0.15335739, -0.21480584, 9.857074
358564395180301, 9.006584, -1.3627125, 4.071388, 0.09128225, -0.04503703, 9.977045
358564404819884, 8.9826565, -0.8327023, 4.152744, -0.43710208, 0.048647642, 9.92136
358564414459572, 8.781659, -1.942972, 4.115655, 0.612695, -0.36160493, 9.86535
358564424099155, 9.11785, -0.39361933, 4.085745, -0.8199313, 0.31039023, 9.960664
358564433738739, 8.666803, -2.2384856, 4.109673, 0.8970387, -0.4780264, 9.796965
358564443378322, 9.224331, -0.32183465, 4.0007997, -0.85257107, 0.4599688, 10.012982
358564453017905, 8.721839, -2.0219352, 4.119244, 0.7069026, -0.36733413, 9.823046
358564462657593, 9.212367, -0.6376872, 3.973282, -0.53862274, 0.39047146, 10.03089
358564472297176, 8.9348, -1.463211, 4.0498524, 0.21879637, -0.03337717, 9.915844
358564481936759, 9.164511, -1.2442678, 3.9840498, 0.04180193, 0.18507504, 10.068422
358564491576343, 9.15135, -0.84825563, 4.0941195, -0.3681839, 0.19350958, 10.05264
358564501215926, 9.036494, -1.8293129, 4.1204405, 0.5556767, -0.16362572, 10.082018
358564510855509, 9.329616, -0.3804588, 4.1168513, -0.8109801, 0.39234877, 10.164808
358564520495197, 8.885747, -2.1559331, 4.106084, 0.8618977, -0.32143998, 9.980895
358564530134780, 9.367901, -0.23330021, 3.999603, -0.9015809, 0.5745065, 10.13242
358564539774364, 8.816355, -2.0207388, 4.1491547, 0.7273575, -0.32034945, 9.919441
358564549413947, 9.302098, -0.55513483, 4.028317, -0.6115378, 0.42710948, 10.124633
358564559053530, 8.909675, -1.538585, 4.1479583, 0.27591884, -0.13289523, 9.9429035
358564568693218, 9.1681, -1.1952149, 4.080959, -0.024744272, 0.13668227, 10.105323
358564578332801, 9.123833, -0.971486, 4.2077785, -0.27721053, 0.069262505, 10.090185
358564587972384, 8.988638, -1.8640088, 4.2329035, 0.5680214, -0.25830913, 10.089513
358564597611968, 9.257831, -0.48454657, 4.2317066, -0.7409014, 0.24965882, 10.1606245
358564607251551, 8.82114, -2.2372892, 4.258028, 0.9103601, -0.45912623, 9.9954605
358564616891134, 9.302098, -0.36729828, 4.1515474, -0.8124846, 0.40174246, 10.152721
358564626530822, 8.774481, -2.1667008, 4.28076, 0.8443978, -0.45998788, 9.954216
358564636170405, 9.243474, -0.58624154, 4.2448673, -0.63623136, 0.23470092, 10.16585
358564645809989, 8.780462, -1.6223338, 4.415954, 0.2872914, -0.40834022, 9.948861
358564655449572, 9.078369, -1.1688938, 4.3274198, -0.099675536, -0.054641724, 10.124066
358564665089155, 8.976674, -1.0301101, 4.290331, -0.22010839, -0.029620647, 9.99997
358564674728739, 8.891729, -1.7982062, 4.2006, 0.5447384, -0.19906592, 9.980234
358564684368426, 9.138189, -0.5347959, 4.260421, -0.66506135, 0.2354629, 10.072038
358564694008009, 8.773284, -2.2217357, 4.3740797, 0.88691187, -0.5250907, 9.998842
358564703647593, 9.26142, -0.33260235, 4.2723846, -0.8670754, 0.319937, 10.162855
358564713287176, 8.752945, -2.1762722, 4.389633, 0.8269875, -0.5539572, 9.9814
358564722926759, 9.269794, -0.5455636, 4.2771707, -0.67056775, 0.25178456, 10.198425
358564732566343, 8.85464, -1.727618, 4.339384, 0.4202, -0.33213305, 9.9966345
358564742205926, 9.134601, -1.079163, 4.1108694, -0.11783266, 0.17293715, 10.072785
358564751845614, 8.989835, -1.0767702, 4.113262, -0.12071419, 0.112089634, 9.943256
358564761485197, 8.952746, -1.7180467, 4.058227, 0.50020707, -0.05705452, 9.965895
358564771124780, 9.152547, -0.5491528, 4.082155, -0.6070669, 0.366251, 10.011594
358564780764364, 8.744571, -2.158326, 4.1168513, 0.8908402, -0.3251531, 9.8577385
358564790403947, 9.249456, -0.30508488, 4.066602, -0.83702207, 0.48494267, 10.062158
358564800043530, 8.737391, -2.213361, 4.2006, 0.91758263, -0.4168725, 9.892941
358564809683218, 9.24826, -0.4989035, 4.1443686, -0.69495153, 0.327245, 10.117558
358564819322801, 8.830712, -1.7694924, 4.2388854, 0.47538555, -0.29965758, 9.938056
358564828962384, 9.15135, -0.97507524, 4.091727, -0.22047472, 0.20071077, 10.067339
358564838601968, 8.965906, -1.1282159, 4.141976, -0.0870384, 0.03779149, 9.940187
358564848241551, 8.968299, -1.5972091, 4.045067, 0.3951801, -0.00536561, 9.959309
358564857881134, 9.172886, -0.51565325, 4.1084766, -0.64362997, 0.33726525, 10.037893
358564867520718, 8.837891, -2.0482562, 4.188636, 0.7939923, -0.30293417, 9.956211
358564877160405, 9.293723, -0.2536392, 4.1850467, -0.9100378, 0.39509487, 10.147314
358564886799989, 8.807981, -2.097309, 4.2568316, 0.8093703, -0.40694237, 9.963893
358564896439572, 9.293723, -0.34337005, 4.182654, -0.82834464, 0.36259508, 10.157173
358564906079155, 8.8187475, -1.7240287, 4.331009, 0.43047905, -0.3605311, 9.959164
358564915718739, 9.192028, -0.8135597, 4.191029, -0.37317944, 0.19569278, 10.126325
358564925358322, 8.956335, -1.1138589, 4.2388854, -0.10953283, -0.045259, 9.970492
358564934998009, 8.989835, -1.4644074, 4.1575294, 0.24958348, -0.07246876, 10.008952
358564944637593, 9.158528, -0.56111693, 4.208975, -0.61398757, 0.2387681, 10.073479
358564954277176, 8.822337, -2.0063818, 4.269992, 0.7041391, -0.43051338, 9.970501
358564963916759, 9.287741, -0.27876383, 4.1778684, -0.8616153, 0.42184782, 10.142687
358564973556343, 8.7673025, -2.1774685, 4.1958146, 0.88323927, -0.44961882, 9.911082
358564983195926, 9.276974, -0.38285163, 4.113262, -0.7597439, 0.42301965, 10.117886
358564992835509, 8.766106, -1.8448663, 4.191029, 0.5764078, -0.32366443, 9.867923
358565002475197, 9.141779, -0.8147561, 3.9984066, -0.31591868, 0.32795024, 10.0007925
358565012114780, 8.876176, -1.2466606, 4.061816, 0.059559584, 0.02511692, 9.840469
358565021754364, 8.953942, -1.4931214, 3.9804604, 0.32139015, 0.050831318, 9.906599
358565031393947, 9.047262, -0.6735796, 4.034299, -0.47119468, 0.28671098, 9.913527
358565041033530, 8.825927, -2.009971, 4.1491547, 0.7553686, -0.30717444, 9.924088
358565050673114, 9.24467, -0.34097722, 4.1671004, -0.8205978, 0.3590305, 10.106564
358565060312697, 8.762517, -2.204986, 4.2759743, 0.8945147, -0.5075538, 9.943331
358565069952280, 9.288938, -0.35653058, 4.1874394, -0.81676584, 0.3388877, 10.156979
358565079591968, 8.801998, -1.8975084, 4.3334017, 0.5944265, -0.4427464, 9.965177
358565089231551, 9.193225, -0.8003992, 4.180261, -0.38834023, 0.18193221, 10.121595
358565098871134, 8.906086, -1.3603196, 4.2329035, 0.121225595, -0.15137935, 9.952321
358565108510718, 9.000603, -1.4177474, 4.0797625, 0.22853577, 0.006583214, 9.980635
358565118150301, 9.05803, -0.7118647, 4.1515474, -0.4585507, 0.18655491, 9.977221
358565127789884, 8.830712, -1.9525433, 4.191029, 0.7040516, -0.30175686, 9.938404
358565137429468, 9.267402, -0.2943172, 4.182654, -0.8625727, 0.36063623, 10.128764
358565147069155, 8.780462, -2.160719, 4.2915273, 0.8781023, -0.45956945, 9.959929
358565156708739, 9.340384, -0.30149564, 4.220939, -0.8641539, 0.35333848, 10.211679
358565166348322, 8.825927, -1.9561325, 4.2999024, 0.6864983, -0.39093518, 9.9794035
358565175987905, 9.265009, -0.68075806, 4.193422, -0.49790645, 0.2329781, 10.177742
358565185627489, 8.922835, -1.3531412, 4.2329035, 0.12709963, -0.12912083, 9.966576
358565195267072, 9.071191, -1.3100704, 4.085745, 0.13186944, 0.073969126, 10.033606
358565204906655, 9.116654, -0.7429714, 4.132405, -0.42326534, 0.20821214, 10.025951
358565214546343, 8.895318, -1.869991, 4.15394, 0.6440257, -0.21992683, 9.970739
358565224185926, 9.250652, -0.2835495, 4.1671004, -0.8719069, 0.3517592, 10.106224
358565233825509, 8.816355, -2.1535404, 4.2245283, 0.8853129, -0.4201064, 9.962543
358565243465093, 9.333204, -0.28953153, 4.0773697, -0.8249326, 0.47644567, 10.144455
358565253104676, 8.803194, -1.9872392, 4.191029, 0.7332746, -0.3548832, 9.916977
358565262744259, 9.247063, -0.6305088, 4.1144586, -0.51693547, 0.31568694, 10.122627
358565272383843, 8.9108715, -1.477568, 4.202993, 0.24928975, -0.15330887, 9.95823
358565282023426, 9.081959, -1.2514462, 4.091727, 0.07303262, 0.080320835, 10.038852
358565291663114, 9.066405, -0.82672024, 4.1671004, -0.35295498, 0.14097834, 10.005171
358565301302697, 8.930014, -1.8077775, 4.1635113, 0.5706762, -0.21450496, 9.998818
358565310942280, 9.235099, -0.3696911, 4.168297, -0.78305846, 0.34170127, 10.102896
358565320581864, 8.784052, -2.152344, 4.28076, 0.84940076, -0.49877954, 9.957248
358565330221447, 9.332008, -0.27038896, 4.2364926, -0.8923943, 0.34731317, 10.207369
358565339861030, 8.822337, -2.003989, 4.4231324, 0.67703974, -0.5500963, 10.032584
358565349500614, 9.274581, -0.5312066, 4.3094735, -0.6667221, 0.18116403, 10.217352
358565359140197, 8.886943, -1.4608182, 4.362116, 0.188043, -0.3071649, 10.0005045
358565368779884, 9.110672, -1.0899308, 4.1922255, -0.098324895, 0.0514493, 10.087355
358565378419468, 9.013762, -0.82911307, 4.194618, -0.3479371, 0.08766842, 9.970026
358565388059051, 8.926425, -1.7048861, 4.1575294, 0.4862343, -0.19276166, 9.979939
358565397698634, 9.223135, -0.33499518, 4.156333, -0.799451, 0.35291266, 10.08414
358565407338218, 8.800801, -2.0877378, 4.168297, 0.8384863, -0.37602353, 9.916804
358565416977801, 9.297313, -0.23090738, 4.06062, -0.87221646, 0.4924419, 10.09845
358565426617384, 8.793623, -2.0219352, 4.1850467, 0.7494606, -0.40886426, 9.909681
358565436257072, 9.282955, -0.4761717, 4.1108694, -0.6658088, 0.35265088, 10.135659
358565445896655, 8.865408, -1.5637096, 4.197011, 0.3137765, -0.24075866, 9.924673
358565455536239, 9.083155, -1.0779666, 4.0031924, -0.07740629, 0.16727948, 9.982848
358565465175822, 8.985049, -0.9762716, 4.0103707, -0.17832029, 0.15019965, 9.884985
358565474815405, 8.878569, -1.698904, 3.9433718, 0.5255734, -0.059372425, 9.848133
358565484454989, 9.140582, -0.43429732, 3.9888353, -0.6764202, 0.40633655, 9.951231
358565494094572, 8.752945, -2.1248264, 4.0845485, 0.8764006, -0.36988044, 9.844165
358565503734259, 9.230313, -0.2440679, 4.0187454, -0.87328845, 0.45449948, 10.021944
358565513373843, 8.724232, -2.0877378, 4.2281175, 0.7846824, -0.5033004, 9.873135
358565523013426, 9.242277, -0.4354937, 4.119244, -0.7190822, 0.33258438, 10.097021
358565532653009, 8.812766, -1.6677973, 4.2448673, 0.3861525, -0.3434205, 9.909502
358565542292593, 9.119047, -1.006182, 4.1407795, -0.19205081, 0.08490777, 10.063368
358565551932176, 8.988638, -1.0396814, 4.223332, -0.19064689, -0.0474267, 9.983711
358565561571759, 8.946764, -1.672583, 4.1611185, 0.43232536, -0.20797348, 9.996342
358565571211447, 9.163314, -0.49292147, 4.194618, -0.6784773, 0.24117112, 10.064075
358565580851030, 8.822337, -2.0817556, 4.206582, 0.80371094, -0.4150617, 9.952107
358565590490614, 9.328419, -0.27876383, 4.150351, -0.85527194, 0.423656, 10.1691475
358565600130197, 8.804391, -2.1631117, 4.2352962, 0.874434, -0.46343732, 9.957645
358565609769780, 9.311669, -0.4642076, 4.1383867, -0.6887356, 0.35097337, 10.171106
358565619409364, 8.883354, -1.7515461, 4.267599, 0.4747597, -0.33856153, 9.992712
358565629048947, 9.225528, -0.9774681, 4.1288157, -0.20272017, 0.16321826, 10.151117
358565638688634, 9.013762, -1.1413764, 4.1718864, -0.06517279, -0.012339354, 9.997545
358565648328218, 9.026923, -1.6019948, 4.0797625, 0.403224, -0.055636168, 10.026489
358565657967801, 9.189635, -0.53240305, 4.0797625, -0.60371447, 0.32638693, 10.045214
358565667607384, 8.845069, -2.0602202, 4.1551366, 0.81522167, -0.34054852, 9.948083
358565677246968, 9.305687, -0.25962126, 4.15394, -0.8872795, 0.38255715, 10.148143
358565686886551, 8.7984085, -2.1355941, 4.2592244, 0.8376726, -0.50299597, 9.957863
358565696526134, 9.309277, -0.38883367, 4.1407795, -0.76764494, 0.34468746, 10.161289
358565706165822, 8.841479, -1.8305093, 4.2041893, 0.56815994, -0.3372681, 9.937865
358565715805405, 9.174082, -0.92243314, 4.0187454, -0.2229675, 0.23650861, 10.052828
358565725444989, 8.973084, -1.2167503, 4.0642095, 0.031763434, 0.021651983, 9.925374
358565735084572, 8.986245, -1.5302101, 4.048656, 0.33286417, -0.055015087, 9.968547
358565744724155, 9.107083, -0.59342, 4.1168513, -0.57025534, 0.2283287, 9.993112
358565754363739, 8.799605, -2.0207388, 4.1312084, 0.7586671, -0.36888576, 9.893011
358565764003426, 9.213564, -0.2835495, 4.052245, -0.8379749, 0.41725922, 10.025696
358565773643009, 8.709874, -2.1918256, 4.0869412, 0.93589854, -0.42340994, 9.813965
358565783282593, 9.224331, -0.40438703, 3.9972103, -0.7081884, 0.42458773, 10.027348
358565792922176, 8.745767, -1.8843478, 4.1575294, 0.6217296, -0.37355995, 9.838604
358565802561759, 9.157332, -0.8135597, 4.078566, -0.3560288, 0.19370747, 10.049329
358565812201343, 8.895318, -1.2311072, 4.220939, -0.01833868, -0.16806626, 9.921192
358565821841030, 8.976674, -1.430908, 4.133601, 0.20163429, -0.12515545, 9.982912
358565831480614, 9.110672, -0.62811595, 4.1347976, -0.5514339, 0.18103957, 10.007926
358565841120197, 8.903693, -1.9537396, 4.1180477, 0.7026149, -0.29566455, 9.97347
358565850759780, 9.29492, -0.29072794, 4.045067, -0.8338742, 0.4347198, 10.097441
358565860399364, 8.79482, -2.1738794, 4.098905, 0.91458285, -0.40626574, 9.893134
358565870038947, 9.353543, -0.35653058, 4.0091743, -0.7629685, 0.46972585, 10.143303
358565879678634, 8.853444, -1.8975084, 4.1838503, 0.62453854, -0.35984135, 9.948319
358565889318218, 9.218349, -0.7393822, 4.1001015, -0.4336239, 0.2277453, 10.104237
358565898957801, 8.9312105, -1.3196417, 4.182654, 0.079472065, -0.14483333, 9.948631
358565908597384, 9.083155, -1.3459628, 4.089334, 0.13906527, -0.009268045, 10.050798
358565918236968, 9.129815, -0.70947194, 4.1575294, -0.48609614, 0.13684797, 10.044248
358565927876551, 8.924032, -1.942972, 4.1515474, 0.6857921, -0.30123067, 10.004388
358565937516239, 9.316455, -0.317049, 4.162315, -0.86223173, 0.29985213, 10.168006
358565947155822, 8.843872, -2.1619153, 4.24726, 0.86024547, -0.49121523, 9.9972925
358565956795405, 9.381062, -0.26919255, 4.1108694, -0.89035404, 0.400481, 10.1991625
358565966434989, 8.841479, -1.9525433, 4.213761, 0.6787405, -0.3850584, 9.956455
358565976074572, 9.272188, -0.68075806, 4.068995, -0.4892887, 0.26944637, 10.133194
358565985714155, 8.95155, -1.4201403, 4.1168513, 0.20263898, -0.09613156, 9.952146
358565995353843, 9.108279, -1.302892, 3.9684963, 0.14302564, 0.13375759, 10.018428
358566004993426, 9.141779, -0.7920243, 4.080959, -0.379314, 0.19751263, 10.033483
358566014633009, 8.949157, -1.8628124, 4.1443686, 0.6173215, -0.24302578, 10.014646
358566024272593, 9.284152, -0.31226337, 4.193422, -0.8687707, 0.29419065, 10.150688
358566033912176, 8.815159, -2.1571295, 4.26401, 0.85424507, -0.499475, 9.978117
358566043551864, 9.335598, -0.27876383, 4.1347976, -0.8774865, 0.3804381, 10.169216
358566053191447, 8.790034, -1.9932213, 4.2664027, 0.68872845, -0.4773035, 9.936682
358566062831030, 9.236296, -0.6269195, 4.1671004, -0.56301767, 0.20813107, 10.134426
358566072470614, 8.855837, -1.4991034, 4.304688, 0.2084831, -0.32901812, 9.952477
358566082110197, 9.097511, -1.2179468, 4.1383867, 5.7280064E-4, 0.003172636, 10.068482
358566091749884, 9.020942, -0.83988076, 4.1958146, -0.3768022, 0.039641857, 9.97718
358566101389468, 8.877372, -1.8424734, 4.1084766, 0.5982939, -0.24607825, 9.93295
358566111029051, 9.196814, -0.4031906, 4.0677986, -0.74432445, 0.35922027, 10.030347
358566120668634, 8.760123, -2.2025933, 4.063013, 0.94959605, -0.36839604, 9.851995
358566130308218, 9.306884, -0.29671, 4.004389, -0.833225, 0.47738934, 10.090546
358566139947905, 8.754142, -2.0805593, 4.21735, 0.7802619, -0.46772337, 9.895564
358566149587489, 9.24826, -0.6017949, 4.078566, -0.5787124, 0.2904265, 10.104846
358566159227072, 8.8701935, -1.605584, 4.173083, 0.3369769, -0.24826455, 9.924601
358566168866655, 9.097511, -1.2035898, 4.028317, 0.001095295, 0.09143925, 10.021592
358566178506343, 9.036494, -0.9798609, 4.1288157, -0.24307692, 0.048494816, 9.980183
358566188145926, 8.9348, -1.8305093, 4.1431723, 0.55237436, -0.26591516, 9.998575
358566197785509, 9.218349, -0.4331009, 4.199404, -0.7744263, 0.24276495, 10.106526
358566207425093, 8.781659, -2.1427727, 4.258028, 0.8188876, -0.5113454, 9.945239
358566217064676, 9.285348, -0.27038896, 4.091727, -0.8857645, 0.4149239, 10.103281
358566226704364, 8.750552, -2.0757737, 4.1371903, 0.7936183, -0.39864135, 9.859442
358566236343947, 9.263813, -0.506082, 4.004389, -0.6319654, 0.41847658, 10.076456
358566245983530, 8.851051, -1.6019948, 4.2448673, 0.31706703, -0.29538774, 9.93673
358566255623114, 9.15494, -1.1030912, 4.1790648, -0.13173449, 0.03563738, 10.123028
358566265262697, 9.090333, -1.032503, 4.2664027, -0.22663283, -0.04846549, 10.0920105
358566274902384, 9.013762, -1.7611175, 4.2041893, 0.48269153, -0.23035645, 10.086556
358566284541968, 9.262616, -0.5024927, 4.2053857, -0.7131506, 0.22899985, 10.157402
358566294181551, 8.896515, -2.1655045, 4.1982074, 0.8599504, -0.40406203, 10.027939
358566303821134, 9.373882, -0.28594232, 4.098905, -0.88032657, 0.442415, 10.187333
358566313460822, 8.834301, -2.1451654, 4.197011, 0.83015215, -0.43994308, 9.968892
358566323100405, 9.355937, -0.47018966, 4.0366917, -0.6894831, 0.42406344, 10.168298
358566332739989, 8.91805, -1.7228323, 4.1874394, 0.4337418, -0.277817, 9.988449
358566342379572, 9.232706, -1.0277174, 4.0737805, -0.17764306, 0.16680503, 10.1407795
358566352019155, 9.068798, -1.0899308, 4.135994, -0.1475941, 0.021625996, 10.025729
358566361658843, 9.029316, -1.6689938, 4.085745, 0.40538847, -0.14373732, 10.041036
358566371298426, 9.241081, -0.5276174, 4.1001015, -0.668169, 0.29599667, 10.097163
358566380938009, 8.860622, -2.1128623, 4.1240296, 0.8009161, -0.38933134, 9.959387
358566390577593, 9.3104725, -0.30388847, 4.0163527, -0.8519733, 0.46530104, 10.09782
358566400217280, 8.816355, -2.1882362, 4.1347976, 0.86996996, -0.43462276, 9.933141
358566409856864, 9.281759, -0.4869394, 4.004389, -0.6908443, 0.38931465, 10.089325
358566419496447, 8.797213, -1.7862421, 4.112066, 0.48864126, -0.3082881, 9.85682
358566429136030, 9.101101, -1.0049855, 3.979264, -0.19641387, 0.18286324, 9.980108
358566438775718, 8.956335, -1.1581261, 4.0558343, -0.08244634, 0.006150484, 9.899503
358566448415301, 8.970692, -1.6187445, 4.040281, 0.35395753, -0.11979437, 9.963828
358566458054884, 9.108279, -0.5886344, 4.1611185, -0.6552264, 0.15692544, 10.008407
358566467694468, 8.784052, -2.1128623, 4.191029, 0.7545303, -0.49468374, 9.91839
358566477334155, 9.256635, -0.34456646, 4.0642095, -0.84279096, 0.3881073, 10.072781
358566486973739, 8.768498, -2.2097716, 4.1551366, 0.85632944, -0.5056708, 9.901808
358566496613322, 9.3200445, -0.41156548, 4.0642095, -0.78243965, 0.38946056, 10.138369
358566506252905, 8.806784, -1.8544376, 4.2257247, 0.49735427, -0.43909097, 9.920432
358566515892593, 9.150154, -0.8997013, 4.0235314, -0.3119315, 0.19877768, 10.029297
358566525532176, 8.968299, -1.2430713, 4.0498524, -0.006426573, -0.015998363, 9.918499
358566535171759, 9.030513, -1.5696917, 3.9481573, 0.33586442, -0.016034126, 9.974416
358566544811343, 9.132208, -0.6831509, 4.0570307, -0.5259908, 0.23775506, 9.999512
358566554451030, 8.85464, -2.0685952, 4.1587257, 0.7074553, -0.45889878, 9.963316
358566564090614, 9.317652, -0.28235307, 4.113262, -0.9119877, 0.4127431, 10.139783
358566573730197, 8.827123, -2.158326, 4.1611185, 0.7877058, -0.5030432, 9.950772
358566583369884, 9.3511505, -0.36251262, 4.048656, -0.8161772, 0.4374094, 10.154289
358566593009468, 8.866604, -1.8843478, 4.133601, 0.55594254, -0.3543868, 9.940797
358566602649051, 9.217153, -0.79441714, 3.92064, -0.37431884, 0.33769655, 10.035152
358566612288634, 8.946764, -1.2586247, 3.9840498, 0.03396058, 0.021096468, 9.874197
358566621928322, 9.081959, -1.4620147, 3.912265, 0.25273395, 0.07469177, 9.992788
358566631567905, 9.157332, -0.6472585, 4.0390844, -0.5511424, 0.26111197, 10.010893
358566641207489, 8.915657, -1.9776679, 4.1443686, 0.65502906, -0.36510372, 10.000677
358566650847072, 9.314062, -0.3290131, 4.1443686, -0.89588416, 0.30970526, 10.155652
358566660486759, 8.849854, -2.2037897, 4.1874394, 0.84561276, -0.50835514, 9.986881
358566670126343, 9.397811, -0.33499518, 4.028317, -0.84590125, 0.44864082, 10.185362
358566679765926, 8.848659, -1.9274186, 4.1671004, 0.6021775, -0.38360977, 9.943273
358566689405614, 9.257831, -0.77766734, 4.007978, -0.41530955, 0.2895279, 10.1054325
358566699045197, 8.94796, -1.4033905, 4.0833516, 0.14532673, -0.09312701, 9.933754
358566708684780, 9.123833, -1.4117653, 3.9613178, 0.19654274, 0.08982611, 10.04404
358566718324364, 9.165708, -0.76331043, 4.1443686, -0.47110832, 0.15100789, 10.075907
358566727964051, 8.937193, -1.9872392, 4.2245283, 0.65308833, -0.3947823, 10.0541935
358566737603634, 9.27817, -0.39601216, 4.173083, -0.8354754, 0.26303625, 10.143406
358566747243218, 8.865408, -2.0374885, 4.1982074, 0.7135898, -0.4041152, 9.984951
358566756882905, 9.110672, -1.0480564, 4.1371903, -0.20950377, 0.036164522, 10.058525
358566766522489, 9.036494, -1.3435699, 4.135994, 0.070041776, -0.07951021, 10.027894
358566776162072, 9.0544405, -1.2083755, 4.1850467, -0.073352575, -0.07578015, 10.047216
358566785801759, 9.048459, -1.2562319, 4.1898327, -0.0287925, -0.096940756, 10.049736
358566795441343, 9.056833, -1.2167503, 4.1383867, -0.0480026, -0.0400784, 10.0314045
358566805080926, 9.056833, -1.2430713, 4.095316, -0.010082006, -0.009975433, 10.01713
358566814720509, 9.065208, -1.2382857, 4.1144586, -0.017869353, -0.02560997, 10.031906
358566824360197, 9.053245, -1.2550355, 4.0941195, 0.0041068792, -0.017576694, 10.01488
358566833999780, 9.0341015, -1.2981063, 4.104887, 0.041359186, -0.047409773, 10.007307
358566843639364, 9.035298, -1.2777673, 4.1024942, 0.020363927, -0.037937164, 10.004894
358566853279051, 9.052048, -1.282553, 4.1228333, 0.013282061, -0.042072058, 10.028974
358566862918634, 9.047262, -1.2574283, 4.1240296, -0.011104941, -0.038615942, 10.02198
358566872558218, 9.041281, -1.2669996, 4.0965123, 0.0057444572, -0.016649246, 10.006556
358566882197905, 9.0747795, -1.2430713, 4.0701914, -0.008071065, 0.028425694, 10.023095
358566891837489, 9.062816, -1.2705889, 4.0594234, 0.026468754, 0.025748491, 10.011323
358566901477072, 9.056833, -1.247857, 4.0498524, 0.0077730417, 0.037468433, 9.999161
358566911116759, 9.037691, -1.2394822, 4.017549, 0.010995507, 0.059817553, 9.9676075
358566920756343, 8.99821, -1.2442678, 4.0067816, 0.017739058, 0.051306248, 9.928108
358566930395926, 8.999406, -1.227518, 4.046263, -0.017489314, 0.019331217, 9.943223
358566940035614, 8.992228, -1.2263216, 4.1443686, -0.052218795, -0.07014513, 9.976582
358566949675197, 9.008977, -1.2574283, 4.1850467, -0.036417723, -0.106591225, 10.012231
358566959314780, 9.038888, -1.2574283, 4.1754756, -0.031947374, -0.08604407, 10.035377
358566968954468, 9.048459, -1.2705889, 4.145565, -0.0041303635, -0.054449797, 10.033531
358566978594051, 9.062816, -1.2777673, 4.1431723, 0.0038218498, -0.048306227, 10.046434
358566988233634, 9.049655, -1.268196, 4.135994, -6.1392784E-5, -0.041749954, 10.030418
358566997873322, 9.066405, -1.2418749, 4.1108694, -0.015891433, -0.002979517, 10.031998
358567007512905, 9.086744, -1.2466606, 4.119244, -0.013419628, -0.0028278828, 10.054405
358567017152489, 9.099904, -1.2155539, 4.1754756, -0.059369206, -0.037902594, 10.085409
358567026792176, 9.093923, -1.2131611, 4.173083, -0.061611295, -0.040914536, 10.078708
358567036431759, 9.109476, -1.2287145, 4.152744, -0.041197658, -0.023410082, 10.086391
358567046071343, 9.138189, -1.2370893, 4.101298, -0.020168543, 0.02935791, 10.092386
358567055711030, 9.107083, -1.2490535, 4.1036906, -0.0136163235, 0.0054860115, 10.066735
358567065350614, 9.113065, -1.2598212, 4.089334, 6.5255165E-4, 0.01786685, 10.067642
358567074990197, 9.109476, -1.253839, 4.0594234, 3.0040741E-5, 0.04114747, 10.051462
358567084629884, 9.084352, -1.253839, 4.0414777, 0.0023014545, 0.043408155, 10.021438
358567094269468, 9.068798, -1.2658032, 4.025924, 0.014061689, 0.043691874, 10.002565
358567103909051, 9.037691, -1.2897314, 4.0187454, 0.038193345, 0.030920267, 9.974527
358567113548739, 8.98146, -1.3052847, 4.0007997, 0.05807054, 0.01918745, 9.918319
358567123188322, 8.983852, -1.2981063, 3.9637108, 0.062355757, 0.05382657, 9.9044895
358567132828009, 8.952746, -1.2981063, 3.9900317, 0.052810073, 0.016689777, 9.887064
358567142467593, 8.938389, -1.2993027, 4.06062, 0.033207297, -0.050547123, 9.9029255
358567152107176, 8.949157, -1.3016955, 4.0977087, 0.024897456, -0.080669165, 9.928036
358567161746864, 9.004191, -1.3076776, 3.979264, 0.06806362, 0.043668985, 9.930431
358567171386447, 9.022138, -1.2586247, 4.1072803, -0.016407132, -0.05176878, 9.992493
358567181026030, 9.035298, -1.3004991, 4.17069, 0.0044876337, -0.11755133, 10.035375
358567190665718, 9.056833, -1.2215359, 4.193422, -0.077082515, -0.106951475, 10.054144
358567200305301, 9.035298, -1.1700903, 4.1838503, -0.12252164, -0.097442865, 10.024261
358567209944884, 9.066405, -1.1700903, 4.1371903, -0.09879911, -0.04250002, 10.033622
358567219584572, 9.089137, -1.1569297, 4.0642095, -0.09027934, 0.03461194, 10.022941
358567229224155, 9.089137, -1.1832508, 4.095316, -0.06558335, 0.0033357143, 10.038916
358567238863843, 9.116654, -1.1892328, 4.0642095, -0.05034709, 0.04035783, 10.05193
358567248503426, 9.126225, -1.1832508, 4.0737805, -0.05739057, 0.039546013, 10.063742
358567258143009, 9.09153, -1.2227324, 4.0211387, -0.0042711496, 0.06358576, 10.015811
358567267782697, 9.099904, -1.2442678, 3.952943, 0.036385894, 0.12564564, 9.998255
358567277422280, 9.109476, -1.2442678, 3.9421754, 0.03828776, 0.14171433, 10.002499
358567287061864, 9.134601, -1.2705889, 3.979264, 0.04759407, 0.10459232, 10.043737
358567296701551, 9.132208, -1.2634103, 4.106084, 0.0016839504, -0.009278774, 10.092237
358567306341134, 9.128618, -1.2669996, 4.15394, -0.007735133, -0.053422213, 10.10887
358567315980822, 9.101101, -1.2430713, 4.091727, -0.012290359, 0.0032818317, 10.055711
358567325620405, 9.032906, -1.2358929, 4.005585, 0.0053373575, 0.05112028, 9.958057
358567335259989, 9.02453, -1.2239288, 3.940979, 0.014670014, 0.11859441, 9.922562
358567344899676, 9.004191, -1.2143575, 3.9673, -0.0028259754, 0.08740687, 9.913725
358567354539259, 8.968299, -1.2502499, 4.0271206, 0.012404084, 0.0045650005, 9.910149
358567364178947, 9.001799, -1.2669996, 4.1144586, 8.1813335E-4, -0.0680058, 9.978066
358567373818530, 9.047262, -1.2801601, 4.1790648, -0.008637667, -0.11186981, 10.047077
358567383458114, 9.049655, -1.3004991, 4.180261, 0.01043272, -0.11735749, 10.052276
358567393097801, 9.075976, -1.288535, 4.1754756, 8.6665154E-4, -0.09839988, 10.072665
358567402737384, 9.042477, -1.2753744, 4.174279, -0.009160399, -0.09981871, 10.040296
358567412377072, 9.035298, -1.2777673, 4.1611185, -3.361702E-4, -0.08733654, 10.028788
358567422016655, 9.0436735, -1.2765709, 4.1647077, -0.0016759634, -0.0865953, 10.037676
358567431656239, 9.036494, -1.2993027, 4.191029, 0.015904546, -0.114700556, 10.044787
358567441295926, 9.042477, -1.2897314, 4.191029, 0.01055491, -0.10642576, 10.049035
358567450935509, 9.067601, -1.2813566, 4.188636, 0.0028713942, -0.09155846, 10.069735
358567460575197, 9.064013, -1.282553, 4.182654, 0.00854373, -0.08685279, 10.064207
358567470214780, 9.065208, -1.2346965, 4.1467614, -0.028341413, -0.04285717, 10.044673
358567479854364, 9.067601, -1.2311072, 4.121637, -0.026094079, -0.020163774, 10.036127
358567489494051, 9.071191, -1.2358929, 4.0869412, -0.012111306, 0.010455847, 10.025805
358567499133634, 9.073584, -1.2227324, 4.0594234, -0.018771052, 0.03593564, 10.015101
358567508773322, 9.092726, -1.2370893, 4.0558343, -0.0060147047, 0.03858161, 10.0327635
358567518412905, 9.072387, -1.274178, 4.0271206, 0.03691709, 0.03990984, 10.00732
358567528052593, 9.133404, -1.2969099, 4.0295134, 0.056668878, 0.050964117, 10.06639
358567537692176, 9.110672, -1.3004991, 4.031906, 0.05971062, 0.03835249, 10.047232
358567547331759, 9.089137, -1.2693924, 4.01396, 0.035525322, 0.053067923, 10.016564
358567556971447, 9.093923, -1.2203395, 3.9924245, -0.0048969984, 0.08865881, 10.006011
358567566611030, 9.042477, -1.2071791, 3.9445682, -0.002005577, 0.112000704, 9.938347
358567576250718, 8.992228, -1.2083755, 3.918247, 0.0063636303, 0.11024094, 9.882348
358567585890301, 9.0029955, -1.2023934, 3.9421754, -0.00454998, 0.095615625, 9.901074
358567595529884, 8.985049, -1.2311072, 4.0127635, -2.8920174E-4, 0.00819087, 9.917104
358567605169572, 9.005388, -1.2466606, 4.0354953, 0.008017302, -0.006945133, 9.946673
358567614809155, 9.006584, -1.262214, 4.042674, 0.019271731, -0.014249086, 9.952608
358567624448843, 9.02812, -1.2789637, 4.0390844, 0.036322236, 2.527237E-4, 9.972742
358567634088426, 9.052048, -1.2801601, 4.058227, 0.032006264, -0.0062482357, 10.002326
358567643728114, 9.062816, -1.2777673, 4.0845485, 0.023641229, -0.010760546, 10.022484
358567653367697, 9.086744, -1.2502499, 4.1647077, -0.022836685, -0.058730602, 10.073376
358567663007280, 9.089137, -1.2837493, 4.2125645, -0.00313735, -0.107417345, 10.099237
358567672646968, 9.08794, -1.2753744, 4.1371903, 0.014583111, -0.025294542, 10.066416
358567682286551, 9.067601, -1.2753744, 4.2161536, -0.0047551394, -0.103205204, 10.080339
358567691926239, 9.102298, -1.2370893, 4.2125645, -0.04197073, -0.069392204, 10.105512
358567701565822, 9.067601, -1.1904292, 4.1671004, -0.075963974, -0.026714563, 10.049714
358567711205509, 9.068798, -1.227518, 4.1467614, -0.039125264, -0.0042028427, 10.04709
358567720845093, 9.081959, -1.2131611, 4.1371903, -0.05072224, 0.013777018, 10.053225
