timestamp_acc,device_acc_x,device_acc_y,device_acc_z,earth_acc_x,earth_acc_y,earth_acc_z
264102194489175, -0.6771688, 4.5020957, 8.927621, 0.04626727, -0.03450471, 10.021303
264102204128966, -0.6891329, 4.526024, 8.915657, 0.01906252, -0.047507584, 10.022282
264102213768654, -0.6795616, 4.5451665, 8.873783, -0.017769337, -0.040638864, 9.993117
264102223408446, -0.6795616, 4.523631, 8.833105, -0.015886784, -0.0427773, 9.947195
264102233048237, -0.6556334, 4.5212383, 8.760123, -0.04621625, -0.02454549, 9.879702
264102242688029, -0.62093747, 4.53081, 8.766106, -0.052847385, 0.010448217, 9.887139
264102252327716, -0.61854464, 4.520042, 8.775677, -0.037858486, 0.013802588, 9.890615
264102261967508, -0.62093747, 4.5224347, 8.819944, -0.019478083, 0.01439476, 9.931206
264102271607300, -0.63888365, 4.5296135, 8.863015, -0.006481886, -0.001122117, 9.973893
264102281246987, -0.65682983, 4.5320063, 8.8905325, 0.004502058, -0.016695797, 10.000588
264102290886779, -0.61854464, 4.5320063, 8.88814, 4.2915344E-6, 0.021275401, 9.996014
264102300526571, -0.5982057, 4.5284166, 8.879765, -0.0022075176, 0.040361226, 9.98564
264102310166362, -0.5886344, 4.523631, 8.863015, -0.0062482357, 0.04852867, 9.967966
264102319806050, -0.6125626, 4.5116673, 8.851051, 0.0016653538, 0.023026168, 9.953441
264102329445841, -0.64606214, 4.5116673, 8.825927, -0.0068585873, -0.01263243, 9.933244
264102339085633, -0.67477596, 4.499703, 8.8187475, 0.0033073425, -0.04100126, 9.92327
264102348725425, -0.68075806, 4.479364, 8.842676, 0.032768965, -0.043629885, 9.935698
264102358365112, -0.67836523, 4.5128636, 8.848659, 0.0044801235, -0.04184252, 9.9560585
264102368004904, -0.6412765, 4.5212383, 8.848659, -0.0062093735, -0.004798889, 9.957485
264102377644696, -0.6472585, 4.506881, 8.842676, 0.0042316914, -0.010145545, 9.946041
264102387284383, -0.6269195, 4.508078, 8.857033, 0.008033514, 0.011411607, 9.958045
264102396924175, -0.613759, 4.537988, 8.853444, -0.021205902, 0.022919238, 9.967572
264102406563966, -0.60658056, 4.540381, 8.845069, -0.027434587, 0.028766513, 9.960756
264102416203758, -0.62811595, 4.546363, 8.815159, -0.04385805, 0.0034760833, 9.938262
264102425843446, -0.64965135, 4.5355954, 8.787642, -0.04302764, -0.020055413, 9.910303
264102435483237, -0.6329016, 4.5212383, 8.774481, -0.036964417, -0.0036339164, 9.891023
264102445123029, -0.6376872, 4.523631, 8.770891, -0.040331364, -0.008889437, 9.889221
264102454762716, -0.6580262, 4.506881, 8.806784, -0.007832289, -0.02521193, 9.914823
264102464402508, -0.6305088, 4.499703, 8.853444, 0.016714573, 0.00657475, 9.951284
264102474042300, -0.6161518, 4.4841495, 8.907282, 0.052298546, 0.02622652, 9.99117
264102483682091, -0.62452674, 4.4925246, 8.930014, 0.052363396, 0.018415809, 10.015732
264102493321779, -0.64606214, 4.4841495, 8.908479, 0.051398277, -0.004968643, 9.994164
264102502961571, -0.66041905, 4.486542, 8.864211, 0.029316902, -0.023136199, 9.95681
264102512601362, -0.63170516, 4.486542, 8.843872, 0.018130302, 0.003720522, 9.936893
264102522241050, -0.65324056, 4.4985065, 8.835498, 0.0048851967, -0.019011438, 9.936243
264102531880841, -0.6723832, 4.510471, 8.833105, -0.005414486, -0.038402498, 9.94076
264102541520633, -0.6652047, 4.53081, 8.834301, -0.023233175, -0.03184092, 9.950582
264102551160425, -0.6520442, 4.549952, 8.817552, -0.048182487, -0.020701349, 9.943526
264102560800112, -0.64247286, 4.557131, 8.817552, -0.05378151, -0.010611236, 9.946177
264102570439904, -0.6305088, 4.551149, 8.811569, -0.05214405, 0.0010508299, 9.937381
264102580079696, -0.6329016, 4.537988, 8.807981, -0.040935516, -8.984208E-4, 9.92838
264102589719383, -0.62093747, 4.5487556, 8.801998, -0.052891016, 0.009770751, 9.927187
264102599359175, -0.5886344, 4.508078, 8.7984085, -0.020581722, 0.0422135, 9.903486
264102608998966, -0.5623133, 4.4985065, 8.786445, -0.01959014, 0.06769127, 9.886828
264102618638758, -0.5838487, 4.4685965, 8.811569, 0.019155502, 0.04819143, 9.896985
264102628278446, -0.6364908, 4.4518466, 8.85464, 0.054590225, -6.850958E-4, 9.931049
264102637918237, -0.695115, 4.4602213, 8.900104, 0.0680151, -0.05501187, 9.979026
264102647558029, -0.721436, 4.4817567, 8.935996, 0.06643391, -0.07875943, 10.022378
264102657197716, -0.72502524, 4.517649, 8.930014, 0.02953124, -0.08210868, 10.033562
264102666837508, -0.6963114, 4.51406, 8.919247, 0.024763584, -0.052616715, 10.020536
264102676477300, -0.6580262, 4.5415773, 8.898908, -0.010101795, -0.015543163, 10.012449
264102686117091, -0.62093747, 4.5475593, 8.85464, -0.0350523, 0.017092466, 9.973413
264102695756779, -0.5778667, 4.540381, 8.781659, -0.06369805, 0.05422908, 9.9025
264102705396571, -0.5395815, 4.5320063, 8.689535, -0.0966835, 0.08434528, 9.814367
264102715036362, -0.51565325, 4.540381, 8.690732, -0.102431536, 0.1067273, 9.817734
264102724676050, -0.5204389, 4.5595236, 8.723035, -0.102193594, 0.10298437, 9.855477
264102734315841, -0.5706882, 4.520042, 8.785249, -0.036637068, 0.05524218, 9.896094
264102743955633, -0.6448657, 4.4841495, 8.878569, 0.039809942, -0.012249112, 9.967483
264102753595321, -0.70588267, 4.4889355, 8.971889, 0.07832146, -0.06615555, 10.056494
264102763235112, -0.7405786, 4.4638104, 8.992228, 0.108219385, -0.09574664, 10.065454
264102772874904, -0.7369894, 4.4578285, 8.958728, 0.098263025, -0.09476584, 10.032725
264102782514696, -0.7082755, 4.4817567, 8.886943, 0.04312706, -0.06867546, 9.977924
264102792154383, -0.66041905, 4.5044885, 8.806784, -0.0158844, -0.028042138, 9.9138775
264102801794175, -0.62093747, 4.520042, 8.768498, -0.047922373, 0.008893967, 9.884357
264102811433966, -0.56350976, 4.5487556, 8.76132, -0.07734203, 0.06461668, 9.887329
264102821073654, -0.54436713, 4.5559344, 8.780462, -0.07572436, 0.08332878, 9.906399
264102830713446, -0.5563313, 4.5284166, 8.782856, -0.047986746, 0.07169819, 9.896826
264102840353237, -0.59940207, 4.5391846, 8.790034, -0.05115843, 0.028508902, 9.910841
264102849992925, -0.62452674, 4.5451665, 8.792427, -0.053627253, 0.0036500692, 9.917282
264102859632716, -0.6580262, 4.54397, 8.786445, -0.05299735, -0.029963851, 9.913555
264102869272508, -0.66161543, 4.5188456, 8.809176, -0.020593166, -0.029944181, 9.9226
264102878912196, -0.65922266, 4.4949174, 8.851051, 0.01943016, -0.02343887, 9.948822
264102888551987, -0.65324056, 4.486542, 8.87139, 0.034805775, -0.015349448, 9.962727
264102898191779, -0.68075806, 4.453043, 8.894122, 0.07498932, -0.040081143, 9.969515
264102907831466, -0.65922266, 4.459025, 8.914461, 0.076400995, -0.016982615, 9.988942
264102917471258, -0.6197411, 4.4662037, 8.906086, 0.061923265, 0.02170676, 9.982239
264102927111050, -0.60777694, 4.496114, 8.8905325, 0.02764988, 0.031899333, 9.981193
264102936750737, -0.61016977, 4.5152564, 8.851051, -0.006321907, 0.025476575, 9.954911
264102946390529, -0.62093747, 4.540381, 8.796016, -0.05269122, 0.009631693, 9.918047
264102956030321, -0.6233303, 4.5487556, 8.758927, -0.07305336, 0.0034610033, 9.889045
264102965670008, -0.6376872, 4.5475593, 8.734999, -0.081790924, -0.013156176, 9.868144
264102975309800, -0.64008003, 4.558327, 8.736196, -0.08756065, -0.01583898, 9.874273
264102984949591, -0.6305088, 4.54397, 8.752945, -0.06792188, -0.0035422444, 9.882035
264102994589279, -0.6269195, 4.5008993, 8.797213, -0.00910759, 0.004407227, 9.901615
264103004229071, -0.6221339, 4.4925246, 8.851051, 0.022080421, 0.013993561, 9.945364
264103013868862, -0.6448657, 4.4985065, 8.902496, 0.039851904, -0.005107224, 9.995261
264103023508550, -0.67477596, 4.499703, 8.909675, 0.040430307, -0.034225106, 10.004106
264103033148341, -0.6628119, 4.5020957, 8.900104, 0.033509254, -0.022990465, 9.995919
264103042788133, -0.63529444, 4.4889355, 8.866604, 0.028490305, 0.0021730661, 9.958413
264103052427821, -0.5802595, 4.490132, 8.836694, 0.012675762, 0.054683924, 9.928847
264103062067612, -0.5802595, 4.5008993, 8.800801, -0.012732983, 0.050906003, 9.901826
264103071707404, -0.6029913, 4.505685, 8.786445, -0.022099733, 0.027218163, 9.892684
264103081347091, -0.63170516, 4.540381, 8.793623, -0.047258615, -0.0020331144, 9.916637
264103090986883, -0.6472585, 4.5391846, 8.792427, -0.045203686, -0.01823479, 9.916024
264103100626675, -0.6735796, 4.5355954, 8.82832, -0.023852348, -0.041050255, 9.947981
264103110266362, -0.6628119, 4.523631, 8.827123, -0.014339447, -0.030164778, 9.940803
264103119906154, -0.65682983, 4.5116673, 8.825927, -0.0041565895, -0.023355544, 9.933931
264103129545841, -0.64965135, 4.51406, 8.807981, -0.014560223, -0.017105639, 9.918608
264103139185633, -0.6221339, 4.5092745, 8.805588, -0.013237953, 0.010398865, 9.912554
264103148825425, -0.60059845, 4.505685, 8.8187475, -0.0055675507, 0.03304833, 9.921246
264103158465112, -0.6233303, 4.5116673, 8.842676, 0.0010197163, 0.012082815, 9.946682
264103168104904, -0.6364908, 4.505685, 8.836694, 0.0040555, -0.0019677281, 9.939492
264103177744696, -0.64008003, 4.4913282, 8.823533, 0.010655165, -0.0064368844, 9.921509
264103187384383, -0.62452674, 4.5128636, 8.833105, -0.0057058334, 0.009196699, 9.938793
264103197024175, -0.60777694, 4.510471, 8.843872, -4.029274E-4, 0.026836753, 9.946211
264103206663966, -0.62931234, 4.506881, 8.87139, 0.01612401, 0.0076042414, 9.97042
264103216303654, -0.6329016, 4.526024, 8.867801, -0.0024063587, 0.002620995, 9.976139
264103225943446, -0.6436693, 4.5272202, 8.830712, -0.019206524, -0.011434972, 9.944397
264103235583133, -0.6831509, 4.1467614, 8.788837, 0.30463004, -0.03991115, 9.737125
264103245222925, -0.55034924, 5.072784, 8.754142, -0.54509497, 0.045504987, 10.117897
264103254862716, -0.7178468, 3.9756749, 8.846265, 0.49155712, -0.055867016, 9.712515
264103264502404, -0.6879365, 4.892126, 8.76132, -0.3736887, -0.077741444, 10.050929
264103274142196, -0.56590253, 4.3465624, 8.950353, 0.18691325, 0.08537638, 9.963906
264103283781883, -0.7429714, 4.4135613, 8.695518, 0.029811144, -0.117069304, 9.779005
264103293421675, -0.45942193, 4.8323054, 8.9348, -0.2603345, 0.16933125, 10.163486
264103303061466, -0.81834537, 3.9828532, 8.723035, 0.43453765, -0.15972179, 9.613001
264103312701154, -0.4761717, 5.1553364, 8.975478, -0.5255065, 0.13182664, 10.34746
264103322340946, -0.7812566, 3.778267, 8.840283, 0.6590409, -0.1164844, 9.622287
264103331980633, -0.50009996, 5.2259245, 8.823533, -0.66124463, 0.09844172, 10.2453985
264103341620425, -0.6759724, 3.926622, 8.813962, 0.50610256, -0.017300487, 9.659439
264103351260216, -0.6364908, 4.9459643, 8.706285, -0.44914675, -0.034560144, 10.023183
264103360899904, -0.59700924, 4.3322053, 8.902496, 0.18914008, 0.052066803, 9.916671
264103370539696, -0.76331043, 4.487739, 8.660822, -0.04666853, -0.14453137, 9.783108
264103380179383, -0.4941179, 4.79402, 8.896515, -0.23623586, 0.13341004, 10.114405
264103389819175, -0.80757767, 3.999603, 8.687142, 0.40549254, -0.16510886, 9.587689
264103399458966, -0.46660042, 5.148158, 8.976674, -0.5158272, 0.14563584, 10.3447895
264103409098654, -0.7956135, 3.778267, 8.852247, 0.6783564, -0.11847162, 9.633089
264103418738446, -0.4977071, 5.191229, 8.8905325, -0.5900545, 0.0970822, 10.289828
264103428378133, -0.67477596, 3.8739798, 8.85464, 0.57174134, 0.0016712546, 9.67165
264103438017925, -0.59581286, 4.9902315, 8.760123, -0.46050906, 0.0025484562, 10.0888605
264103447657716, -0.5515456, 4.261617, 8.922835, 0.2466619, 0.10487449, 9.900037
264103457297404, -0.7118647, 4.526024, 8.687142, -0.069866896, -0.09362632, 9.820613
264103466937196, -0.4977071, 4.752146, 8.940782, -0.18005943, 0.13321787, 10.13499
264103476576883, -0.85064846, 4.0558343, 8.73141, 0.37859154, -0.19983214, 9.655449
264103486216675, -0.4977071, 5.1457653, 8.992228, -0.50421476, 0.116499126, 10.359488
264103495856362, -0.84825563, 3.7974095, 8.793623, 0.6413543, -0.18293118, 9.5928545
264103505496154, -0.5180461, 5.227121, 8.788837, -0.6703384, 0.084074974, 10.216575
264103515135946, -0.6939186, 3.8536408, 8.724232, 0.5376923, -0.034377277, 9.54746
264103524775633, -0.56590253, 5.046463, 8.679964, -0.54296756, 0.032916546, 10.041558
264103534415425, -0.5455636, 4.2448673, 8.897711, 0.25691247, 0.10678381, 9.86957
264103544055112, -0.70348984, 4.610969, 8.740981, -0.12520576, -0.082080424, 9.906477
264103553694904, -0.49292147, 4.7246284, 9.005388, -0.124215126, 0.14781511, 10.179629
264103563334591, -0.82313097, 4.0977087, 8.7469635, 0.34678793, -0.17886543, 9.686376
264103572974383, -0.49172506, 5.0751767, 8.974281, -0.4486456, 0.12706226, 10.311134
264103582614071, -0.8350951, 3.8069808, 8.762517, 0.6183226, -0.16930848, 9.568763
264103592253862, -0.48933223, 5.231907, 8.817552, -0.6551068, 0.108575106, 10.2430725
264103601893654, -0.7298109, 3.8165522, 8.768498, 0.60457516, -0.058043897, 9.571645
264103611533341, -0.59581286, 5.063213, 8.743374, -0.52802324, 0.0017151237, 10.107368
264103621173133, -0.61734825, 4.176672, 8.928818, 0.3347633, 0.048100352, 9.870922
264103630812821, -0.72502524, 4.648058, 8.739784, -0.14846778, -0.10730344, 9.92373
264103640452612, -0.49292147, 4.621737, 8.943174, -0.06550574, 0.1462155, 10.077605
264103650092300, -0.77647096, 4.1312084, 8.694321, 0.29251337, -0.12677056, 9.65191
264103659732091, -0.4546363, 5.046463, 8.959925, -0.4408598, 0.15793085, 10.282724
264103669371779, -0.8362915, 3.824927, 8.813962, 0.6215148, -0.15091956, 9.623217
264103679011571, -0.4761717, 5.24746, 8.882157, -0.65377593, 0.11326462, 10.306068
264103688651258, -0.72741807, 3.8141594, 8.7673025, 0.5961528, -0.05080521, 9.569983
264103698291050, -0.57427746, 5.117051, 8.68475, -0.6028998, 0.0011822581, 10.078463
264103707930737, -0.61734825, 4.126423, 8.857033, 0.34915185, 0.047267377, 9.78424
264103717570529, -0.69272214, 4.6875396, 8.702696, -0.19990396, -0.08276099, 9.906715
264103727210216, -0.485743, 4.595416, 8.962317, -0.03053379, 0.15645307, 10.082239
264103736850008, -0.7812566, 4.194618, 8.71466, 0.24678993, -0.13835311, 9.698991
264103746489696, -0.485743, 5.029713, 8.987442, -0.40679216, 0.13447809, 10.301675
264103756129487, -0.8458628, 3.8380876, 8.797213, 0.6021211, -0.17571121, 9.614777
264103765769175, -0.4989035, 5.2402816, 8.908479, -0.62057924, 0.09938985, 10.32838
264103775408966, -0.74536425, 3.8009987, 8.788837, 0.62044835, -0.067509115, 9.584221
264103785048654, -0.5515456, 5.127819, 8.742178, -0.5883229, 0.037203252, 10.132961
264103794688446, -0.6436693, 4.0833516, 8.894122, 0.40728116, 0.019857824, 9.799348
264103804328133, -0.69272214, 4.752146, 8.73141, -0.24583387, -0.07969141, 9.961601
264103813967925, -0.52163535, 4.5451665, 8.944371, 0.014667511, 0.123214126, 10.045747
264103823607612, -0.7788638, 4.2329035, 8.635697, 0.17676926, -0.14899123, 9.646032
264103833247404, -0.46779683, 4.983053, 8.9108715, -0.39303303, 0.1524474, 10.211542
264103842887091, -0.82911307, 3.8835511, 8.750552, 0.53970265, -0.17179048, 9.592747
264103852526883, -0.47736812, 5.2438707, 8.943174, -0.60548496, 0.1396156, 10.359553
264103862166571, -0.78843504, 3.7806597, 8.819944, 0.6555927, -0.1214878, 9.605305
264103871806362, -0.56111693, 5.1696935, 8.782856, -0.61674047, 0.036185443, 10.188104
264103881446050, -0.64965135, 4.0366917, 8.874979, 0.4404981, 0.018485725, 9.761546
264103891085841, -0.6975078, 4.7976093, 8.737391, -0.29005504, -0.08644372, 9.987692
264103900725529, -0.5276174, 4.4817567, 8.94796, 0.07270074, 0.123308, 10.020479
264103910365321, -0.74416786, 4.3130627, 8.669196, 0.11905813, -0.11107051, 9.710033
264103920005008, -0.43669012, 4.9292145, 8.926425, -0.34749937, 0.18320763, 10.198753
264103929644800, -0.8063812, 3.8931224, 8.755338, 0.53902864, -0.14374232, 9.599552
264103939284487, -0.47736812, 5.2079782, 8.940782, -0.58636045, 0.13370496, 10.340542
264103948924279, -0.80518484, 3.7818563, 8.801998, 0.6475513, -0.14250821, 9.59095
264103958563966, -0.59342, 5.1696935, 8.774481, -0.6063447, 0.006997168, 10.183402
264103968203758, -0.7082755, 3.9888353, 8.873783, 0.49756145, -0.044002175, 9.742022
264103977843446, -0.6843473, 4.871787, 8.736196, -0.36060882, -0.06750643, 10.01944
264103987483237, -0.5395815, 4.4602213, 8.932407, 0.09018135, 0.10898119, 9.99763
264103997122925, -0.7369894, 4.368098, 8.65125, 0.059075117, -0.109565675, 9.718645
264104006762716, -0.41515473, 4.877769, 8.920443, -0.3005433, 0.2143141, 10.168728
264104016402404, -0.7860422, 3.9302113, 8.734999, 0.4899366, -0.12871999, 9.597293
264104026042196, -0.46899325, 5.2079782, 8.979067, -0.55822563, 0.15030235, 10.374605
264104035681883, -0.80518484, 3.757928, 8.848659, 0.7015171, -0.13655633, 9.620726
264104045321571, -0.5479564, 5.178068, 8.812766, -0.59783196, 0.062356293, 10.218425
264104054961362, -0.70588267, 3.946961, 8.855837, 0.51714206, -0.05159849, 9.707345
264104064601050, -0.6855437, 4.9196434, 8.709874, -0.4043815, -0.074528575, 10.018267
264104074240841, -0.59940207, 4.4039903, 8.894122, 0.12314534, 0.04737109, 9.941951
264104083880529, -0.76570326, 4.4398823, 8.633304, -0.007899761, -0.14258581, 9.737167
264104093520321, -0.4211368, 4.8693943, 8.891729, -0.29739094, 0.21289617, 10.1398945
264104103160008, -0.7573284, 3.993621, 8.706285, 0.4203844, -0.11058241, 9.598597
264104112799800, -0.41874397, 5.1625147, 8.957532, -0.5264778, 0.20393664, 10.331774
264104122439487, -0.7860422, 3.7411783, 8.816355, 0.69475627, -0.118888915, 9.583611
264104132079175, -0.526421, 5.1876397, 8.815159, -0.604918, 0.07284999, 10.223724
264104141718966, -0.72382885, 3.891926, 8.85464, 0.5803323, -0.05100578, 9.681751
264104151358654, -0.69272214, 4.9363933, 8.768498, -0.4003935, -0.082547605, 10.07806
264104160998446, -0.5886344, 4.3465624, 8.9826565, 0.2175734, 0.07175559, 9.993734
264104170638133, -0.7800602, 4.5128636, 8.734999, -0.022327423, -0.15133756, 9.861605
264104180277925, -0.47856453, 4.8239303, 8.943174, -0.23751545, 0.15272313, 10.168578
264104189917612, -0.7788638, 4.0211387, 8.660822, 0.38408518, -0.12793797, 9.571945
264104199557404, -0.38165522, 5.186443, 8.882157, -0.5984149, 0.2179619, 10.272876
264104209197091, -0.7190432, 3.7938204, 8.71466, 0.60822034, -0.051178038, 9.512246
264104218836779, -0.4749753, 5.215157, 8.772088, -0.6526518, 0.11280608, 10.194818
264104228476571, -0.7046863, 3.8440695, 8.848659, 0.61131, -0.030934215, 9.653889
264104238116258, -0.70229346, 4.965107, 8.835498, -0.3929882, -0.09518623, 10.151257
264104247756050, -0.6759724, 4.2448673, 9.066405, 0.35377264, -0.0035523176, 10.027481
264104257395737, -0.8207382, 4.5044885, 8.799605, 0.016227245, -0.18676418, 9.917758
264104267035529, -0.5312066, 4.7401814, 8.95155, -0.15743876, 0.10384208, 10.141311
264104276675216, -0.80757767, 4.0881376, 8.645268, 0.31673574, -0.16206324, 9.590575
264104286314904, -0.42592242, 5.156533, 8.874979, -0.5652156, 0.18458575, 10.255875
264104295954696, -0.7465607, 3.8165522, 8.7266245, 0.5829158, -0.08490533, 9.535745
264104305594383, -0.46181476, 5.2570314, 8.790034, -0.694674, 0.1390248, 10.228025
264104315234175, -0.6999006, 3.8703907, 8.79482, 0.57162786, -0.03445685, 9.617209
264104324873862, -0.6149554, 5.050052, 8.7673025, -0.4969759, -0.008680522, 10.124214
264104334513654, -0.6376872, 4.213761, 8.977871, 0.33232808, 0.032007456, 9.932426
264104344153341, -0.8039884, 4.5882373, 8.760123, -0.07358575, -0.17611593, 9.919761
264104353793029, -0.5276174, 4.7078786, 8.958728, -0.124812126, 0.11164051, 10.132783
264104363432821, -0.77407813, 4.0977087, 8.669196, 0.31844878, -0.11952782, 9.614036
264104373072508, -0.43070808, 5.069195, 8.9348, -0.46483183, 0.1786719, 10.26961
264104382712300, -0.802792, 3.798606, 8.774481, 0.62844706, -0.11789173, 9.573744
264104392351987, -0.49052864, 5.2283173, 8.872586, -0.6228621, 0.10739499, 10.290735
264104401991675, -0.7477571, 3.8201413, 8.834301, 0.6273954, -0.056215465, 9.633312
264104411631466, -0.5982057, 5.0440702, 8.7673025, -0.5066714, 0.0030631423, 10.119751
264104421271154, -0.62931234, 4.1551366, 8.932407, 0.36880136, 0.042632937, 9.864648
264104430910946, -0.72382885, 4.651647, 8.723035, -0.16413093, -0.10113907, 9.910395
264104440550633, -0.5288138, 4.6612186, 8.957532, -0.08508253, 0.11518353, 10.110563
264104450190321, -0.8315059, 4.1718864, 8.699107, 0.26645112, -0.18384165, 9.678104
264104459830112, -0.4354937, 5.0644093, 8.979067, -0.4440918, 0.18928498, 10.30672
264104469469800, -0.7573284, 3.8476589, 8.79123, 0.5927081, -0.08262819, 9.607582
264104479109591, -0.42711884, 5.215157, 8.876176, -0.6251328, 0.17973244, 10.283175
264104488749279, -0.715454, 3.7866418, 8.774481, 0.6266911, -0.03561002, 9.562847
264104498388966, -0.58624154, 5.10748, 8.732606, -0.568166, -0.004525602, 10.117589
264104508028758, -0.6771688, 4.1276193, 8.912068, 0.38134193, -2.8812885E-4, 9.837446
264104517668446, -0.75493556, 4.723432, 8.748159, -0.20182323, -0.14070892, 9.967472
264104527308237, -0.5371887, 4.62413, 8.957532, -0.050685883, 0.107813954, 10.094273
264104536947925, -0.7812566, 4.219743, 8.671589, 0.20855522, -0.13733816, 9.672159
264104546587612, -0.44027936, 5.002196, 8.938389, -0.40543962, 0.17983568, 10.242749
264104556227404, -0.7752745, 3.839284, 8.769695, 0.58738303, -0.09600741, 9.586162
264104565867091, -0.43429732, 5.2342997, 8.938389, -0.60370684, 0.17390817, 10.348267
264104575506883, -0.7286145, 3.792624, 8.827123, 0.64631605, -0.04276359, 9.613191
264104585146571, -0.5910272, 5.131408, 8.763713, -0.5866587, 0.0022268295, 10.155745
264104594786258, -0.6843473, 4.0869412, 8.88814, 0.40683556, -0.013661742, 9.7982025
264104604426050, -0.721436, 4.7676992, 8.73141, -0.26055455, -0.11091614, 9.970394
264104614065737, -0.55034924, 4.5355954, 8.953942, 0.025289536, 0.09973854, 10.051717
264104623705529, -0.82672024, 4.26401, 8.693125, 0.18493319, -0.18280947, 9.714322
264104633345216, -0.4869394, 4.983053, 8.944371, -0.3833766, 0.13140863, 10.242336
264104642984904, -0.8422736, 3.8727834, 8.738588, 0.56005, -0.15536296, 9.577734
264104652624696, -0.47976094, 5.224728, 8.895318, -0.6236124, 0.115939975, 10.307876
264104662264383, -0.762114, 3.7962132, 8.788837, 0.6303029, -0.067961335, 9.582996
264104671904071, -0.567099, 5.163711, 8.758927, -0.6098962, 0.014016628, 10.165242
264104681543862, -0.65922266, 4.031906, 8.904889, 0.4684422, 0.027192771, 9.7860985
264104691183550, -0.67477596, 4.8047876, 8.784052, -0.27860785, -0.058807075, 10.030943
264104700823341, -0.5300102, 4.479364, 9.001799, 0.09128857, 0.13124281, 10.067395
264104710463029, -0.782453, 4.308277, 8.715857, 0.15036058, -0.13533455, 9.751857
264104720102716, -0.4761717, 4.9340005, 8.965906, -0.33629417, 0.14509106, 10.238379
264104729742508, -0.8350951, 3.897908, 8.756535, 0.5426216, -0.1436292, 9.604837
264104739382196, -0.47258246, 5.224728, 8.932407, -0.61365914, 0.11177856, 10.340212
264104749021883, -0.80159557, 3.7866418, 8.781659, 0.6498933, -0.09695041, 9.574289
264104758661675, -0.526421, 5.186443, 8.776874, -0.62976694, 0.04547429, 10.188778
264104768301362, -0.6436693, 3.9649072, 8.8701935, 0.49942827, 0.05126059, 9.724355
264104777941154, -0.6412765, 4.822734, 8.775677, -0.2925346, -0.036952257, 10.029734
264104787580841, -0.5479564, 4.408776, 8.9826565, 0.1498282, 0.117257, 10.019456
264104797220529, -0.78723866, 4.369294, 8.702696, 0.09009004, -0.14918077, 9.768164
264104806860321, -0.4953143, 4.9028935, 8.946764, -0.31394672, 0.12044108, 10.208586
264104816500008, -0.8386843, 3.9481573, 8.713464, 0.47188306, -0.16319054, 9.589916
264104826139800, -0.4977071, 5.2366924, 8.944371, -0.6115682, 0.106768966, 10.357946
264104835779487, -0.78723866, 3.8081772, 8.812766, 0.6307721, -0.09581274, 9.61144
264104845419175, -0.52283174, 5.206782, 8.799605, -0.63699985, 0.05748689, 10.2180195
264104855058966, -0.64008003, 3.9445682, 8.860622, 0.52516484, 0.04472059, 9.705778
264104864698654, -0.6269195, 4.914858, 8.723035, -0.4078796, -0.027062178, 10.023626
264104874338341, -0.56111693, 4.351348, 8.921639, 0.17337632, 0.099573076, 9.940058
264104883978133, -0.7585248, 4.3968115, 8.671589, 0.050565004, -0.12700385, 9.751158
264104893617821, -0.45942193, 4.8394837, 8.941978, -0.257797, 0.16923577, 10.173276
264104903257612, -0.8243274, 3.9900317, 8.760123, 0.45639777, -0.15438348, 9.649223
264104912897300, -0.48095736, 5.18405, 9.022138, -0.53538513, 0.12583625, 10.402028
264104922536987, -0.8039884, 3.7710886, 8.891729, 0.70039654, -0.095323086, 9.6659565
264104932176779, -0.5395815, 5.211568, 8.878569, -0.6071701, 0.046927452, 10.291245
264104941816466, -0.6855437, 3.885944, 8.865408, 0.57002187, 0.008616626, 9.687156
264104951456258, -0.61016977, 4.930411, 8.725428, -0.42587972, -0.0099669695, 10.031593
264104961095946, -0.55752766, 4.3238306, 8.9108715, 0.19041967, 0.10109544, 9.917837
264104970735633, -0.73818576, 4.506881, 8.6548395, -0.06196904, -0.11875981, 9.784949
264104980375425, -0.48933223, 4.816752, 8.925228, -0.24363971, 0.13904446, 10.149954
264104990015112, -0.8470592, 4.0103707, 8.72782, 0.42268562, -0.19303918, 9.631175
264104999654800, -0.50368917, 5.1589255, 9.017352, -0.49978256, 0.11791533, 10.388321
264105009294591, -0.8422736, 3.7531424, 8.877372, 0.7203698, -0.15622836, 9.646755
264105018934279, -0.5587241, 5.2008, 8.882157, -0.60268927, 0.050159097, 10.290165
264105028574071, -0.7286145, 3.8644085, 8.849854, 0.58796763, -0.044322193, 9.666272
264105038213758, -0.6257231, 5.0105705, 8.719446, -0.48877406, -0.025706112, 10.064121
264105047853446, -0.57188463, 4.2867417, 8.896515, 0.21962023, 0.088081, 9.889145
264105057493237, -0.70348984, 4.5726843, 8.672786, -0.118207216, -0.0816406, 9.828576
264105067132925, -0.45104706, 4.7569313, 8.912068, -0.19777799, 0.183622, 10.108608
264105076772612, -0.7800602, 4.072584, 8.688339, 0.34205866, -0.12731147, 9.620211
264105086412404, -0.4546363, 5.1290154, 8.9826565, -0.4942813, 0.16405559, 10.340716
264105096052091, -0.8350951, 3.7770705, 8.851051, 0.6849644, -0.15790862, 9.633827
264105105691883, -0.53359944, 5.224728, 8.9108715, -0.60192823, 0.07757634, 10.325589
264105115331571, -0.7716853, 3.8285162, 8.868998, 0.6412294, -0.09404546, 9.669134
264105124971258, -0.6269195, 5.0309095, 8.752945, -0.49281454, -0.022645414, 10.103156
264105134611050, -0.63888365, 4.2006, 8.906086, 0.30494642, 0.029098392, 9.862948
264105144250737, -0.72382885, 4.595416, 8.699107, -0.12548327, -0.10169691, 9.863577
264105153890425, -0.47856453, 4.718646, 8.932407, -0.15421963, 0.16028291, 10.111038
264105163530216, -0.78364944, 4.1084766, 8.696713, 0.3158934, -0.13154781, 9.644139
264105173169904, -0.43070808, 5.087141, 8.983852, -0.46451902, 0.18046606, 10.321133
264105182809696, -0.8171489, 3.7962132, 8.836694, 0.65567756, -0.12195158, 9.629191
264105192449383, -0.49292147, 5.2259245, 8.907282, -0.6223321, 0.10362196, 10.319636
264105202089071, -0.7501499, 3.8321054, 8.830712, 0.61097884, -0.058426917, 9.636002
264105211728862, -0.6257231, 5.081159, 8.7577305, -0.54453254, -0.03047502, 10.129665
264105221368550, -0.6233303, 4.1635113, 8.922835, 0.3541143, 0.047828496, 9.859649
264105231008341, -0.7046863, 4.6707897, 8.720642, -0.18351865, -0.087812066, 9.915698
264105240648029, -0.50368917, 4.6372905, 8.928818, -0.08169365, 0.13713717, 10.072561
264105250287716, -0.7956135, 4.1467614, 8.676374, 0.27400208, -0.14923155, 9.644208
264105259927508, -0.47377887, 5.050052, 8.974281, -0.4334855, 0.14743197, 10.29833
264105269567196, -0.8458628, 3.824927, 8.82473, 0.6335721, -0.16297168, 9.632936
264105279206987, -0.5084748, 5.231907, 8.940782, -0.6108427, 0.09731096, 10.353086
264105288846675, -0.7609176, 3.7878382, 8.868998, 0.66784453, -0.06178862, 9.650699
264105298486362, -0.55513483, 5.111069, 8.823533, -0.5407553, 0.03958726, 10.197647
264105308126154, -0.61734825, 4.1084766, 8.943174, 0.39911366, 0.06321728, 9.852806
264105317765841, -0.6903293, 4.718646, 8.752945, -0.21636605, -0.07210195, 9.965151
264105327405529, -0.5096712, 4.6169515, 8.940782, -0.060528517, 0.1334616, 10.074329
264105337045321, -0.78843504, 4.2341, 8.6548395, 0.18562007, -0.15008372, 9.66429
264105346685008, -0.47856453, 5.0165524, 8.932407, -0.41748214, 0.13686925, 10.246447
264105356324800, -0.8422736, 3.842873, 8.769695, 0.59333634, -0.17074782, 9.591845
264105365964487, -0.526421, 5.245067, 8.924032, -0.6147504, 0.07443249, 10.346147
264105375604175, -0.7956135, 3.8057845, 8.85464, 0.6511936, -0.10561079, 9.648131
264105385243966, -0.56829536, 5.143372, 8.787642, -0.5806153, 0.026596785, 10.1814575
264105394883654, -0.6149554, 4.109673, 8.897711, 0.38106823, 0.06027341, 9.812647
264105404523446, -0.65922266, 4.8011985, 8.700303, -0.31244087, -0.05154121, 9.953947
264105414163133, -0.52163535, 4.5332026, 8.906086, 0.0012936592, 0.12524176, 10.006234
264105423802821, -0.7908279, 4.2161536, 8.653643, 0.20320034, -0.15134215, 9.6551895
264105433442612, -0.46181476, 4.955536, 8.957532, -0.354537, 0.16503775, 10.239874
264105443082300, -0.782453, 3.8787656, 8.816355, 0.57058644, -0.10658026, 9.646152
264105452722091, -0.45822555, 5.191229, 8.957532, -0.55815315, 0.15639758, 10.3469925
264105462361779, -0.75493556, 3.7830527, 8.853444, 0.66416454, -0.07717073, 9.634201
264105472001466, -0.5563313, 5.1852465, 8.796016, -0.6166825, 0.04747218, 10.207039
264105481641258, -0.7046863, 4.042674, 8.872586, 0.4358964, -0.03667313, 9.76582
264105491280946, -0.6987042, 4.8490553, 8.734999, -0.3412118, -0.08333498, 10.008914
264105500920737, -0.51565325, 4.470989, 8.9312105, 0.0707562, 0.13604677, 9.999932
264105510560425, -0.75493556, 4.3058844, 8.678768, 0.12810135, -0.118640244, 9.716023
264105520200112, -0.4642076, 4.9064827, 8.962317, -0.3098011, 0.16064703, 10.222055
264105529839904, -0.81595254, 3.8727834, 8.800801, 0.57521987, -0.13772535, 9.63164
264105539479591, -0.4749753, 5.209175, 9.008977, -0.5562582, 0.13106841, 10.401739
264105549119383, -0.7860422, 3.7794633, 8.867801, 0.6741471, -0.097489476, 9.647597
264105558759071, -0.56829536, 5.17089, 8.837891, -0.5891464, 0.026789367, 10.238241
264105568398862, -0.6795616, 3.9768713, 8.892925, 0.49701023, -0.008997321, 9.752658
264105578038550, -0.66041905, 4.8646083, 8.787642, -0.33028603, -0.051319838, 10.060392
264105587678237, -0.5563313, 4.4195433, 8.971889, 0.12898922, 0.100699484, 10.015482
264105597318029, -0.782453, 4.3812585, 8.647661, 0.04366684, -0.15564364, 9.7243805
264105606957716, -0.49172506, 4.907679, 8.886943, -0.34354782, 0.13044316, 10.157254
264105616597508, -0.8602197, 3.9541395, 8.694321, 0.4492426, -0.20766526, 9.577131
264105626237196, -0.49172506, 5.194818, 8.935996, -0.5793643, 0.13257986, 10.330862
264105635876883, -0.7932207, 3.7770705, 8.830712, 0.6686835, -0.115748525, 9.613345
264105645516675, -0.50009996, 5.1828537, 8.85823, -0.596401, 0.102598846, 10.257391
264105655156362, -0.66161543, 3.9349968, 8.939586, 0.55328727, 0.014828682, 9.774037
264105664796154, -0.64965135, 4.9160542, 8.841479, -0.35532808, -0.030327857, 10.130856
264105674435841, -0.5766702, 4.3501515, 9.0233345, 0.2126379, 0.09006351, 10.031131
264105684075529, -0.7513463, 4.462614, 8.691928, -0.013914347, -0.12433815, 9.798643
264105693715321, -0.45822555, 4.8598228, 8.8905325, -0.31043053, 0.1596514, 10.136447
264105703355008, -0.8135597, 3.9972103, 8.650054, 0.3910756, -0.1519444, 9.554422
264105712994800, -0.4869394, 5.1589255, 8.932407, -0.54886127, 0.11092901, 10.311448
264105722634487, -0.8207382, 3.7555351, 8.830712, 0.68442345, -0.12261534, 9.606023
264105732274279, -0.52163535, 5.204389, 8.883354, -0.6185193, 0.069033146, 10.290016
264105741913966, -0.66759753, 3.871587, 8.9013, 0.5997963, 0.031956017, 9.711192
264105751553758, -0.6041877, 4.907679, 8.812766, -0.37719798, -0.0015484095, 10.098165
264105761193446, -0.567099, 4.308277, 8.995817, 0.23853469, 0.103830695, 9.986988
264105770833133, -0.7680961, 4.4925246, 8.755338, -0.00838685, -0.13583845, 9.86966
264105780472925, -0.50368917, 4.7916274, 9.012567, -0.19201088, 0.13574219, 10.216872
264105790112612, -0.85064846, 4.0211387, 8.766106, 0.42080474, -0.19218189, 9.670768
264105799752404, -0.5096712, 5.1756754, 8.969496, -0.5474844, 0.10293442, 10.353208
264105809392091, -0.8219346, 3.830909, 8.754142, 0.58750415, -0.15077543, 9.571758
264105819031883, -0.49651068, 5.2570314, 8.745767, -0.71598315, 0.08923358, 10.19072
264105828671571, -0.6556334, 3.8775692, 8.749356, 0.5189967, -3.4713745E-4, 9.57848
264105838311258, -0.57906306, 5.0081778, 8.7266245, -0.49244142, 0.030797362, 10.066165
264105847951050, -0.57188463, 4.249653, 9.004191, 0.29628634, 0.09399867, 9.968224
264105857590737, -0.7190432, 4.5128636, 8.803194, -0.01054287, -0.08214271, 9.918282
264105867230529, -0.50129634, 4.725825, 9.02453, -0.12716007, 0.14506108, 10.197533
264105876870216, -0.8422736, 4.034299, 8.7780695, 0.41071343, -0.17836046, 9.687054
264105886510008, -0.47736812, 5.0943193, 9.004191, -0.46334028, 0.14958006, 10.344971
264105896149696, -0.8315059, 3.790231, 8.834301, 0.65244365, -0.16216695, 9.625495
264105905789487, -0.5024927, 5.231907, 8.867801, -0.65370965, 0.102603555, 10.287146
264105915429175, -0.7429714, 3.8548372, 8.806784, 0.56778455, -0.062828064, 9.62522
264105925068862, -0.5982057, 5.0620165, 8.729017, -0.552866, 0.0012885928, 10.093164
264105934708654, -0.57547385, 4.202993, 8.903693, 0.2876618, 0.08748317, 9.858078
264105944348341, -0.701097, 4.587041, 8.681161, -0.13226175, -0.081131816, 9.842304
264105953988133, -0.4749753, 4.6839504, 8.919247, -0.1387465, 0.16244954, 10.083268
264105963627821, -0.80159557, 4.0941195, 8.718249, 0.33145952, -0.14384097, 9.658245
264105973267612, -0.4869394, 5.066802, 9.038888, -0.43368292, 0.13198453, 10.363667
264105982907300, -0.8530413, 3.7878382, 8.900104, 0.69042635, -0.15075809, 9.68441
264105992547091, -0.5455636, 5.2223353, 8.975478, -0.59755015, 0.05909401, 10.381189
264106002186779, -0.7692925, 3.8093736, 8.878569, 0.64145756, -0.06585622, 9.6703825
264106011826571, -0.6029913, 5.058427, 8.7673025, -0.526562, -0.012076318, 10.126177
264106021466258, -0.6305088, 4.1276193, 8.909675, 0.36663198, 0.046503484, 9.8326235
264106031105946, -0.72023964, 4.6528435, 8.695518, -0.18966198, -0.10729498, 9.885964
264106040745737, -0.50129634, 4.619344, 8.924032, -0.08282471, 0.139081, 10.05991
264106050385425, -0.77407813, 4.168297, 8.676374, 0.2431829, -0.122636795, 9.652937
264106060025216, -0.41635114, 5.0715876, 8.971889, -0.4740007, 0.18671364, 10.301922
264106069664904, -0.7968099, 3.863212, 8.804391, 0.5755737, -0.108043075, 9.629831
264106079304696, -0.43788654, 5.2570314, 8.924032, -0.6619401, 0.15493912, 10.344288
264106088944383, -0.7118647, 3.8261235, 8.839087, 0.6033821, -0.022108853, 9.639028
264106098584175, -0.573081, 5.1266227, 8.772088, -0.5871818, 0.008155465, 10.159498
264106108223862, -0.6580262, 4.078566, 8.937193, 0.41673803, 0.018663168, 9.837028
264106117863654, -0.75493556, 4.685147, 8.772088, -0.17614532, -0.13512766, 9.970998
264106127503341, -0.5778667, 4.5487556, 9.008977, 0.027564764, 0.07615733, 10.108423
264106137143133, -0.8255238, 4.1838503, 8.749356, 0.25717282, -0.17933404, 9.728259
264106146782821, -0.47377887, 4.9722853, 9.031709, -0.34805965, 0.16175151, 10.313707
264106156422612, -0.8171489, 3.8333018, 8.830712, 0.59938574, -0.15178704, 9.641634
264106166062300, -0.45583272, 5.2462635, 8.933603, -0.6415849, 0.16740662, 10.348947
264106175702091, -0.75254273, 3.798606, 8.788837, 0.6056235, -0.08597553, 9.584635
264106185341779, -0.5623133, 5.1385865, 8.733803, -0.6254339, 0.04457313, 10.129532
264106194981571, -0.66400826, 4.0737805, 8.867801, 0.3908484, -0.004616976, 9.77352
264106204621258, -0.70229346, 4.7976093, 8.705089, -0.3127327, -0.08910334, 9.959072
264106214261050, -0.6125626, 4.2975097, 8.85464, 0.18517041, 0.036863863, 9.859657
264106223900737, -0.6771688, 4.578666, 8.799605, -0.08002877, -0.043491364, 9.942207
264106233540529, -0.64965135, 4.4662037, 8.876176, 0.047853947, -0.004889369, 9.957572
264106243180216, -0.6376872, 4.53081, 8.878569, -0.009636641, 0.005492449, 9.988178
264106252819904, -0.6197411, 4.4638104, 8.907282, 0.058700323, 0.028394103, 9.982241
264106262459696, -0.65324056, 4.5248275, 8.94796, 0.02513194, -0.0036885142, 10.04819
264106272099487, -0.6735796, 4.476971, 8.943174, 0.06566429, -0.02352798, 10.023598
264106281739175, -0.65922266, 4.5008993, 8.880961, 0.015897036, -0.015663385, 9.978159
264106291378966, -0.6364908, 4.4985065, 8.839087, -0.0013022423, 0.0033145547, 9.938366
264106301018654, -0.65084773, 4.4913282, 8.799605, -0.010577202, -0.014613807, 9.9009285
264106310658446, -0.6269195, 4.496114, 8.7984085, -0.016803026, 0.008617282, 9.90049
264106320298133, -0.6029913, 4.487739, 8.815159, -0.003661871, 0.03436935, 9.910058
264106329937925, -0.65324056, 4.5092745, 8.853444, -0.001947403, -0.013199627, 9.957087
264106339577612, -0.66759753, 4.505685, 8.882157, 0.013833523, -0.02469474, 9.981924
264106349217404, -0.6879365, 4.508078, 8.892925, 0.017374754, -0.04356724, 9.9938965
264106358857091, -0.69152576, 4.5128636, 8.902496, 0.017394304, -0.04654348, 10.004804
264106368496883, -0.6664011, 4.5212383, 8.877372, -0.0031044483, -0.023125172, 9.984632
264106378136571, -0.62811595, 4.5116673, 8.852247, -0.00792098, 0.013735414, 9.955486
264106387776362, -0.62452674, 4.5116673, 8.823533, -0.020320654, 0.0148127675, 9.929716
264106397416050, -0.6029913, 4.496114, 8.816355, -0.009921074, 0.034801245, 9.914911
264106407055841, -0.62811595, 4.486542, 8.825927, 0.0046355724, 0.011073768, 9.920709
264106416695529, -0.62811595, 4.486542, 8.839087, 0.010281086, 0.011617005, 9.932413
264106426335321, -0.6305088, 4.49731, 8.866604, 0.012305737, 0.011311293, 9.961914
264106435975008, -0.65084773, 4.5008993, 8.892925, 0.021820307, -0.0063458085, 9.98826
264106445614800, -0.63529444, 4.5224347, 8.908479, 0.0063562393, 0.009290397, 10.0108385
264106455254487, -0.64845496, 4.551149, 8.906086, -0.018467903, -0.0061406493, 10.022547
264106464894279, -0.63888365, 4.5415773, 8.867801, -0.02680707, 1.1301041E-4, 9.983549
264106474533966, -0.64247286, 4.540381, 8.830712, -0.041954994, -0.0067909956, 9.950252
264106484173758, -0.6412765, 4.54397, 8.811569, -0.052366257, -0.00770694, 9.934781
264106493813446, -0.6305088, 4.517649, 8.786445, -0.038106203, 0.0012819171, 9.899842
264106503453237, -0.59700924, 4.5128636, 8.79123, -0.034125328, 0.034857333, 9.899783
264106513092925, -0.5778667, 4.4949174, 8.805588, -0.0125927925, 0.056280494, 9.903194
264106522732716, -0.5946164, 4.490132, 8.842676, 0.009118557, 0.0424549, 9.935085
264106532372404, -0.634098, 4.4805603, 8.8905325, 0.03905797, 0.0064311028, 9.975847
264106542012196, -0.65922266, 4.476971, 8.930014, 0.061822414, -0.014357626, 10.010943
264106551651987, -0.6843473, 4.4817567, 8.969496, 0.07362151, -0.035310388, 10.04986
264106561291675, -0.715454, 4.4781675, 8.974281, 0.08079648, -0.065050066, 10.054492
264106570931466, -0.6879365, 4.5020957, 8.922835, 0.034450293, -0.0425843, 10.01779
264106580571154, -0.6987042, 4.505685, 8.848659, 8.6545944E-5, -0.059504747, 9.954124
264106590210946, -0.6448657, 4.5128636, 8.766106, -0.04716754, -0.013577163, 9.880486
264106599850633, -0.5910272, 4.53081, 8.712267, -0.08792424, 0.03543204, 9.837283
264106609490425, -0.5419743, 4.5475593, 8.705089, -0.10986161, 0.08289951, 9.835325
264106619130112, -0.55752766, 4.523631, 8.76491, -0.059690952, 0.0723449, 9.878711
264106628769904, -0.5910272, 4.5044885, 8.852247, -0.0031547546, 0.046088398, 9.949869
264106638409591, -0.6364908, 4.4985065, 8.933603, 0.039440155, 0.0075654984, 10.022443
264106648049383, -0.67836523, 4.490132, 8.953942, 0.059114933, -0.031683385, 10.039424
264106657689071, -0.70229346, 4.4913282, 8.953942, 0.056542397, -0.05629468, 10.0415125
264106667328862, -0.70348984, 4.4685965, 8.928818, 0.06372881, -0.058334112, 10.008972
264106676968654, -0.6855437, 4.476971, 8.898908, 0.04071021, -0.04111272, 9.985012
264106686608341, -0.6472585, 4.485346, 8.863015, 0.015399218, -0.0056295395, 9.954398
264106696248133, -0.64606214, 4.5020957, 8.836694, -0.010605574, -0.007080078, 9.938475
264106705887821, -0.6329016, 4.510471, 8.819944, -0.025357485, 0.004010737, 9.926515
264106715527612, -0.6125626, 4.5116673, 8.819944, -0.026769638, 0.02368313, 9.925751
264106725167300, -0.61016977, 4.5128636, 8.831908, -0.022768736, 0.026921093, 9.936781
264106734807091, -0.6149554, 4.49731, 8.835498, -0.005844116, 0.021658003, 9.93325
264106744446779, -0.6364908, 4.4949174, 8.834301, -0.002954483, 1.244545E-4, 9.932485
264106754086571, -0.63888365, 4.5212383, 8.82473, -0.030992746, -0.004262924, 9.936028
264106763726362, -0.66400826, 4.506881, 8.823533, -0.016831398, -0.028735936, 9.93008
264106773366050, -0.6735796, 4.508078, 8.857033, -0.0025229454, -0.035003245, 9.961039
264106783005841, -0.6664011, 4.49731, 8.880961, 0.015866756, -0.024725556, 9.977
264106792645529, -0.65324056, 4.5128636, 8.8905325, 0.00549531, -0.01121217, 9.991699
264106802285321, -0.6269195, 4.493721, 8.9013, 0.024691105, 0.016612232, 9.990938
264106811925008, -0.62811595, 4.508078, 8.895318, 0.009349585, 0.013732016, 9.992181
264106821564800, -0.64008003, 4.517649, 8.879765, -0.005198717, 2.002716E-5, 9.983438
264106831204487, -0.6376872, 4.5092745, 8.867801, -0.0016202927, 8.8459253E-4, 9.968857
264106840844279, -0.65324056, 4.5116673, 8.841479, -0.013443232, -0.01741594, 9.947517
264106850484071, -0.62931234, 4.5116673, 8.810373, -0.027992249, 0.003647387, 9.918319
264106860123758, -0.61734825, 4.499703, 8.79482, -0.024357557, 0.0145254135, 9.898309
264106869763550, -0.6197411, 4.493721, 8.799605, -0.01661396, 0.012729526, 9.900012
264106879403237, -0.6197411, 4.4817567, 8.815159, 5.977154E-4, 0.014558554, 9.908431
264106889043029, -0.6556334, 4.5152564, 8.857033, -0.009658098, -0.018438458, 9.963132
264106898682716, -0.6556334, 4.506881, 8.878569, 0.0076272488, -0.016665995, 9.9785
264106908322508, -0.6448657, 4.506881, 8.903693, 0.017485142, -0.0034443736, 10.000163
264106917962300, -0.66161543, 4.51406, 8.927621, 0.021935463, -0.01817882, 10.025771
264106927601987, -0.66161543, 4.505685, 8.879765, 0.0075776577, -0.022105038, 9.97941
264106937241779, -0.63888365, 4.499703, 8.853444, 0.0013382435, -0.0011290908, 9.951834
264106946881466, -0.6221339, 4.5008993, 8.815159, -0.017771244, 0.012512445, 9.917242
264106956521258, -0.62811595, 4.510471, 8.815159, -0.02526021, 0.0060047507, 9.921959
264106966160946, -0.61854464, 4.496114, 8.800801, -0.018241405, 0.014023721, 9.902081
264106975800737, -0.6412765, 4.508078, 8.807981, -0.024437428, -0.008214235, 9.915335
264106985440529, -0.65324056, 4.4949174, 8.815159, -0.009223461, -0.019190371, 9.91653
264106995080216, -0.6448657, 4.4949174, 8.863015, 0.010332346, -0.006591141, 9.958567
264107004720008, -0.6305088, 4.49731, 8.9013, 0.024902344, 0.010492742, 9.9927845
264107014359696, -0.6161518, 4.516453, 8.900104, 0.0055265427, 0.024637878, 9.99946
264107023999487, -0.6233303, 4.517649, 8.891729, 4.1484833E-5, 0.016226947, 9.993012
264107033639279, -0.66041905, 4.503292, 8.8701935, 0.004464388, -0.022305787, 9.969736
264107043278966, -0.64965135, 4.4985065, 8.853444, 0.0010373592, -0.013030648, 9.951982
264107052918758, -0.6520442, 4.496114, 8.830712, -0.006333351, -0.01677376, 9.93083
264107062558446, -0.6472585, 4.5188456, 8.815159, -0.033387423, -0.013397455, 9.926965
264107072198237, -0.6580262, 4.5044885, 8.82832, -0.014189243, -0.022551239, 9.932871
264107081837925, -0.6257231, 4.508078, 8.848659, -0.009330273, 0.011402786, 9.950519
264107091477716, -0.62093747, 4.5020957, 8.857033, -3.3664703E-4, 0.016862333, 9.954957
264107101117508, -0.6161518, 4.499703, 8.863015, 0.0037977695, 0.021729767, 9.958893
264107110757196, -0.6197411, 4.4913282, 8.867801, 0.0134289265, 0.018147707, 9.959593
264107120396987, -0.6364908, 4.4949174, 8.865408, 0.009501219, 0.0010010004, 9.960159
264107130036675, -0.6520442, 4.493721, 8.872586, 0.014506102, -0.013933182, 9.966999
264107139676466, -0.62931234, 4.5092745, 8.861818, -0.005211115, 0.007772386, 9.962997
264107149316258, -0.6149554, 4.510471, 8.851051, -0.0114429, 0.021371007, 9.953043
264107158955946, -0.62452674, 4.508078, 8.848659, -0.009747505, 0.011178076, 9.950443
264107168595737, -0.63170516, 4.506881, 8.835498, -0.013949156, 0.00280118, 9.938654
264107178235425, -0.64965135, 4.5020957, 8.82832, -0.011864185, -0.015612543, 9.9312525
264107187875216, -0.6472585, 4.4949174, 8.830712, -0.0043900013, -0.013001442, 9.929979
