timestamp_acc,device_acc_x,device_acc_y,device_acc_z,earth_acc_x,earth_acc_y,earth_acc_z
1130802037226256, 8.977871, -0.6556334, 4.5882373, -0.07823157, -0.062146664, 10.103166
1130802046866152, 9.030513, -0.695115, 4.621737, -0.043193802, -0.06858969, 10.167952
1130802056506048, 9.066405, -0.7262217, 4.618148, -0.013075575, -0.04666853, 10.20059
1130802066145943, 9.065208, -0.72741807, 4.5224347, -0.007135138, 0.038693905, 10.156674
1130802075785787, 8.980264, -0.7190432, 4.408776, -0.005126223, 0.1007216, 10.029422
1130802085425631, 8.914461, -0.69272214, 4.3740797, -0.024175957, 0.09973836, 9.953368
1130802095065527, 8.864211, -0.7046863, 4.354937, -0.009045787, 0.08970547, 9.900918
1130802104705423, 8.849854, -0.7465607, 4.375276, 0.030768298, 0.06380963, 9.900268
1130802114345318, 8.836694, -0.74895346, 4.487739, 0.031337865, -0.04267311, 9.93907
1130802123985214, 8.867801, -0.74895346, 4.5475593, 0.021558002, -0.082904816, 9.9935875
1130802133625110, 8.9312105, -0.7429714, 4.633701, 0.0065683275, -0.13067818, 10.08824
1130802143265006, 8.995817, -0.7429714, 4.6564326, -4.1529536E-5, -0.12023449, 10.156015
1130802152904902, 9.012567, -0.7812566, 4.5858445, 0.039184056, -0.04932642, 10.142126
1130802162544798, 8.995817, -0.75493556, 4.432704, 0.01984796, 0.08290863, 10.056653
1130802172184693, 8.953942, -0.762114, 4.331009, 0.033964604, 0.15183282, 9.974335
1130802181824589, 8.896515, -0.7322037, 4.3118663, 0.007563874, 0.13729, 9.912486
1130802191464433, 8.867801, -0.7322037, 4.304688, 0.009699017, 0.13083291, 9.88368
1130802201104277, 8.865408, -0.70947194, 4.3537407, -0.016488075, 0.07639027, 9.901906
1130802210744173, 8.868998, -0.7118647, 4.4255257, -0.016406074, 0.0138607025, 9.937339
1130802220384068, 8.894122, -0.70229346, 4.475775, -0.029918864, -0.020217657, 9.981477
1130802230023964, 8.943174, -0.71306115, 4.5523453, -0.024963647, -0.063485146, 10.06022
1130802239663860, 8.988638, -0.7118647, 4.5834517, -0.026320264, -0.0625124, 10.114633
1130802249303756, 9.032906, -0.7046863, 4.6025944, -0.036987722, -0.059735775, 10.162131
1130802258943652, 9.042477, -0.715454, 4.5188456, -0.01748459, 0.020780563, 10.133978
1130802268583548, 8.992228, -0.7537391, 4.4410787, 0.028918684, 0.06450796, 10.057158
1130802278223443, 8.932407, -0.7968099, 4.4602213, 0.0744884, 0.01999855, 10.01551
1130802287863339, 8.940782, -0.7920243, 4.4805603, 0.067735314, 0.0017075539, 10.031736
1130802297503235, 8.903693, -0.7968099, 4.4578285, 0.07326861, 0.0027339458, 9.98887
1130802307143079, 8.87139, -0.782453, 4.4542394, 0.058307648, -0.009335518, 9.957439
1130802316782923, 8.872586, -0.7645068, 4.479364, 0.036275238, -0.03183484, 9.968431
1130802326422818, 8.892925, -0.75493556, 4.5415773, 0.021115497, -0.07849574, 10.01366
1130802336062714, 8.937193, -0.701097, 4.506881, -0.034475416, -0.026520252, 10.033696
1130802345702610, 8.99821, -0.6652047, 4.4243293, -0.0704401, 0.07695866, 10.048586
1130802355342506, 8.932407, -0.67836523, 4.4279184, -0.0516371, 0.04070878, 9.992508
1130802364982402, 8.921639, -0.6723832, 4.402794, -0.055623546, 0.05727315, 9.971256
1130802374622298, 8.958728, -0.66041905, 4.3932223, -0.07003982, 0.08201814, 9.9991865
1130802384262193, 8.932407, -0.6999006, 4.4554358, -0.031588048, 0.014940977, 10.0063715
1130802393902089, 8.956335, -0.73340017, 4.5248275, -0.0016589165, -0.03636217, 10.061142
1130802403541985, 8.930014, -0.7645068, 4.5296135, 0.03010416, -0.051674604, 10.042083
1130802413181881, 8.902496, -0.7728817, 4.5595236, 0.039499983, -0.09041214, 10.031517
1130802422821777, 8.914461, -0.7465607, 4.5726843, 0.010886416, -0.09553695, 10.046152
1130802432461620, 8.924032, -0.7429714, 4.475775, 0.010462925, -0.0018942356, 10.011135
1130802442101464, 8.928818, -0.7393822, 4.3357944, 0.012690127, 0.12525582, 9.952575
1130802451741360, 8.935996, -0.72263247, 4.351348, -0.0039059669, 0.114462614, 9.964705
1130802461381256, 8.965906, -0.72382885, 4.4745784, -0.013073206, 0.008215189, 10.046543
1130802471021152, 8.985049, -0.7369894, 4.4685965, -0.0015199631, 0.022387028, 10.061915
1130802480661048, 9.010174, -0.71425754, 4.475775, -0.026405469, 0.028862, 10.085854
1130802490300943, 8.958728, -0.75254273, 4.516453, 0.013324708, -0.03118515, 10.06093
1130802499940839, 8.922835, -0.74416786, 4.5559344, 0.0049741864, -0.082392216, 10.045919
1130802509580735, 8.915657, -0.762114, 4.5152564, 0.026685402, -0.04867363, 10.022686
1130802519220631, 8.891729, -0.7537391, 4.503292, 0.022140518, -0.045655727, 9.995401
1130802528860527, 8.903693, -0.7585248, 4.4051867, 0.030015528, 0.047465563, 9.962611
1130802538500423, 8.9108715, -0.72741807, 4.365705, 0.0011247545, 0.08565092, 9.949112
1130802548140266, 8.916854, -0.6735796, 4.3992043, -0.053973854, 0.058046103, 9.965476
1130802557780110, 8.933603, -0.6580262, 4.406383, -0.07083979, 0.05921936, 9.982483
1130802567420006, 8.957532, -0.67118675, 4.4195433, -0.05811657, 0.060393333, 10.010655
1130802577059902, 8.937193, -0.7070791, 4.4398823, -0.020806685, 0.031591415, 10.004224
1130802586699798, 8.943174, -0.7322037, 4.4482574, 0.004139319, 0.024018288, 10.015134
1130802596339693, 8.933603, -0.7405786, 4.510471, 0.010129079, -0.03600335, 10.034972
1130802605979589, 8.957532, -0.74536425, 4.5248275, 0.012737006, -0.04052162, 10.063062
1130802615619485, 8.965906, -0.76570326, 4.4350967, 0.036349714, 0.042930126, 10.031984
1130802625259381, 8.909675, -0.77766734, 4.4578285, 0.051101327, -0.0034513474, 9.992831
1130802634899277, 8.920443, -0.7537391, 4.523631, 0.02382645, -0.059597254, 10.030031
1130802644539173, 8.9108715, -0.695115, 4.5044885, -0.03398721, -0.044110537, 10.008703
1130802654179016, 8.908479, -0.66400826, 4.5248275, -0.0649419, -0.0598557, 10.0134
1130802663818860, 8.961121, -0.67477596, 4.516453, -0.05508113, -0.026299953, 10.057417
1130802673458756, 8.987442, -0.71665037, 4.465007, -0.01134935, 0.031943798, 10.060957
1130802683098652, 8.962317, -0.7262217, 4.4111686, 0.0017146468, 0.068796396, 10.015199
1130802692738548, 8.959925, -0.72741807, 4.3465624, 0.0059010834, 0.119650364, 9.984369
1130802702378443, 8.921639, -0.73459655, 4.3764725, 0.013648346, 0.07585549, 9.964078
1130802712018339, 8.9108715, -0.77647096, 4.4075794, 0.051377684, 0.039386272, 9.971415
1130802721658235, 8.907282, -0.7812566, 4.4410787, 0.055478945, 0.0075502396, 9.983491
1130802731298131, 8.896515, -0.7692925, 4.4985065, 0.0368654, -0.04892397, 9.99863
1130802740938027, 8.904889, -0.7322037, 4.5475593, -0.0020722896, -0.089256525, 10.025243
1130802750577923, 8.933603, -0.721436, 4.546363, -0.015847579, -0.0748992, 10.049542
1130802760217766, 8.897711, -0.7082755, 4.5092745, -0.022877708, -0.053728342, 10.000053
1130802769857610, 8.924032, -0.71425754, 4.496114, -0.018261, -0.03017354, 10.018099
1130802779497506, 8.973084, -0.75613195, 4.4638104, 0.023294605, 0.02102375, 10.050503
1130802789137402, 8.961121, -0.75254273, 4.3764725, 0.02584225, 0.09284639, 10.000611
1130802798777298, 8.950353, -0.715454, 4.2867417, -0.008209996, 0.16685057, 9.948314
1130802808417193, 8.940782, -0.6939186, 4.3058844, -0.03160558, 0.14258957, 9.946779
1130802818057089, 8.946764, -0.69272214, 4.4147577, -0.035666943, 0.04783845, 10.000549
1130802827696985, 8.970692, -0.69152576, 4.4781675, -0.04317484, 7.572174E-4, 10.050057
1130802837336881, 8.96471, -0.72502524, 4.510471, -0.0100204125, -0.03058052, 10.061561
1130802846976777, 8.946764, -0.7322037, 4.570291, -0.0028156266, -0.09220004, 10.072723
1130802856616620, 8.9312105, -0.721436, 4.5882373, -0.014182866, -0.11520696, 10.066053
1130802866256464, 8.965906, -0.7322037, 4.584648, -0.004903421, -0.09402275, 10.096224
1130802875896360, 8.957532, -0.7537391, 4.558327, 0.020218372, -0.06973791, 10.078619
1130802885536256, 8.961121, -0.7812566, 4.4805603, 0.053581513, 0.007971287, 10.049107
1130802895176152, 8.943174, -0.77407813, 4.3645086, 0.051661074, 0.10226321, 9.980751
1130802904816048, 8.868998, -0.7680961, 4.3465624, 0.050831296, 0.08526063, 9.906154
1130802914455943, 8.85464, -0.73340017, 4.3740797, 0.015884101, 0.050914526, 9.903144
1130802924095839, 8.943174, -0.6879365, 4.4279184, -0.04271677, 0.043040276, 10.002819
1130802933735683, 8.965906, -0.66999036, 4.4602213, -0.063286945, 0.024072409, 10.0362015
1130802943375527, 8.975478, -0.68195444, 4.520042, -0.056041017, -0.023918152, 10.072307
1130802953015423, 8.959925, -0.7118647, 4.5726843, -0.026503943, -0.07899046, 10.084121
1130802962655318, 8.938389, -0.72741807, 4.5044885, -0.0061951727, -0.026288033, 10.03562
1130802972295214, 8.892925, -0.74177504, 4.436293, 0.0131610185, 0.014413595, 9.965674
1130802981935110, 8.872586, -0.7465607, 4.338187, 0.026258394, 0.095770836, 9.904047
1130802991575006, 8.860622, -0.76570326, 4.2759743, 0.048470333, 0.14551735, 9.866985
1130803001214902, 8.879765, -0.7609176, 4.2975097, 0.042499363, 0.13194513, 9.893361
1130803010854798, 8.9013, -0.73818576, 4.389633, 0.013928339, 0.056715727, 9.952063
1130803020494641, 8.956335, -0.7118647, 4.508078, -0.019942775, -0.024433136, 10.052089
1130803030134485, 9.037691, -0.6843473, 4.5762734, -0.05672279, -0.049981594, 10.153069
1130803039774381, 8.989835, -0.7513463, 4.60738, 0.011689261, -0.09568024, 10.12918
1130803049414277, 8.991031, -0.7956135, 4.6085763, 0.05571705, -0.09649658, 10.134011
1130803059054173, 8.94796, -0.78364944, 4.5284166, 0.050482377, -0.03743124, 10.058962
1130803068694068, 8.933603, -0.7645068, 4.503292, 0.03314142, -0.021446228, 10.033536
1130803078333964, 8.943174, -0.8889336, 4.4446683, 0.15933666, 0.034304857, 10.024923
1130803087973860, 8.965906, -0.33260235, 4.4111686, -0.39544326, 0.07827282, 9.989696
1130803097613704, 8.781659, -1.294517, 4.2759743, 0.57763416, 0.10482383, 9.835275
1130803107253548, 8.99462, 0.014356935, 4.4817567, -0.7434529, 0.03132105, 10.02177
1130803116893443, 8.781659, -1.3698909, 4.321438, 0.64518976, 0.05305171, 9.861536
1130803126533339, 9.041281, -0.11844472, 4.633701, -0.6241987, -0.07664108, 10.140734
1130803136173235, 8.861818, -1.1078769, 4.3334017, 0.3842947, 0.08080411, 9.918839
1130803145813131, 9.016156, -0.5132605, 4.709075, -0.24276721, -0.17370558, 10.180411
1130803155453027, 8.896515, -0.72263247, 4.432704, -0.007995725, 0.01939249, 9.965871
1130803165092870, 8.937193, -1.012164, 4.53081, 0.27681318, -0.052173853, 10.067115
1130803174732714, 8.999406, -0.28594232, 4.432704, -0.449252, 0.0792048, 10.025559
1130803184372610, 8.82832, -1.3974084, 4.438686, 0.6686238, -0.014523506, 9.957241
1130803194012506, 9.0544405, -0.08015956, 4.5726843, -0.66548765, -0.029335499, 10.122006
1130803203652402, 8.837891, -1.402194, 4.301099, 0.6860273, 0.12260628, 9.903951
1130803213292298, 9.080762, -0.07537391, 4.6528435, -0.6761962, -0.08880854, 10.180853
1130803222932193, 8.845069, -1.1676974, 4.31067, 0.44045562, 0.10939574, 9.898217
1130803232572037, 9.035298, -0.4749753, 4.615755, -0.26399803, -0.075306416, 10.153425
1130803242211881, 8.9013, -0.7262217, 4.3405805, 0.0010215044, 0.10347462, 9.929274
1130803251851777, 8.792427, -1.0145568, 4.633701, 0.28773326, -0.20415068, 9.984127
1130803261491673, 8.928818, -0.38404804, 4.322634, -0.33972082, 0.13252139, 9.92086
1130803271131568, 8.873783, -1.2442678, 4.3908296, 0.52164257, 0.050916433, 9.964783
1130803280771464, 8.962317, -0.03708875, 4.578666, -0.6942401, -0.07684517, 10.039961
1130803290411308, 8.7780695, -1.4524434, 4.3238306, 0.72946405, 0.07313156, 9.865199
1130803300051152, 9.136993, -0.07537391, 4.638487, -0.6775385, -0.048861027, 10.224697
1130803309691048, 8.868998, -1.1760724, 4.254439, 0.45046997, 0.17106128, 9.894964
1130803319330943, 9.0436735, -0.357727, 4.597809, -0.38681102, -0.0578022, 10.144106
1130803328970839, 8.945567, -0.74895346, 4.3154554, 0.0220422, 0.15207958, 9.959099
1130803338610735, 9.0029955, -0.9056834, 4.5714874, 0.1649999, -0.057172775, 10.136183
1130803348250579, 9.008977, -0.3505485, 4.4542394, -0.38384837, 0.057068825, 10.048593
1130803357890423, 8.842676, -1.3196417, 4.5044885, 0.59346735, -0.08364034, 9.993277
1130803367530318, 8.99821, -0.08733802, 4.5559344, -0.65480304, -0.026913643, 10.064911
1130803377170214, 8.713464, -1.4835501, 4.3441696, 0.77750266, -0.0058562756, 9.817975
1130803386810110, 9.006584, -0.11485548, 4.5918264, -0.61489165, -0.07006931, 10.091264
1130803396450006, 8.787642, -1.2837493, 4.281956, 0.57916486, 0.091083765, 9.841853
1130803406089850, 8.980264, -0.40677986, 4.5655055, -0.3218315, -0.048344135, 10.077128
1130803415729693, 8.852247, -0.84107715, 4.2281175, 0.13012615, 0.18202305, 9.843609
1130803425369589, 8.920443, -0.8171489, 4.5631127, 0.085427284, -0.08440423, 10.052342
1130803435009485, 9.006584, -0.32183465, 4.4255257, -0.40578339, 0.09488845, 10.031638
1130803444649381, 8.9108715, -1.2658032, 4.5296135, 0.53507507, -0.073483706, 10.061392
1130803454289225, 9.053245, -0.104087785, 4.618148, -0.63517344, -0.0594635, 10.143589
1130803463929068, 8.812766, -1.463211, 4.395615, 0.7348786, -0.013922691, 9.9291
1130803473568964, 9.030513, -0.08015956, 4.604987, -0.6681654, -0.056566715, 10.114981
1130803483208860, 8.748159, -1.3447664, 4.269992, 0.6262679, 0.08831167, 9.806707
1130803492848756, 8.957532, -0.35294133, 4.5942197, -0.38178775, -0.08064175, 10.065611
1130803502488600, 8.830712, -0.8769695, 4.2999024, 0.15326092, 0.10825157, 9.859235
1130803512128443, 8.94796, -0.74895346, 4.5918264, 0.0034858733, -0.097887516, 10.084751
1130803521768339, 8.970692, -0.36610186, 4.430311, -0.37147588, 0.06371927, 10.004646
1130803531408235, 8.915657, -1.1641082, 4.5535417, 0.4231994, -0.0976572, 10.069271
1130803541048131, 9.0951185, -0.039481573, 4.570291, -0.71499574, 0.008821487, 10.153768
1130803550687975, 8.851051, -1.4213367, 4.358526, 0.7003, 0.045744896, 9.943116
1130803560327818, 9.062816, -0.041874398, 4.5762734, -0.70982635, -0.0037522316, 10.127923
1130803569967714, 8.792427, -1.329213, 4.2556353, 0.60904086, 0.09727168, 9.838884
1130803579607610, 9.005388, -0.30867413, 4.526024, -0.4244446, -0.0031428337, 10.0745735
1130803589247506, 8.788837, -0.9379865, 4.214957, 0.22708571, 0.14897323, 9.788545
1130803598887350, 8.863015, -0.7585248, 4.4434714, 0.037661403, -0.01137495, 9.943405
1130803608527193, 8.906086, -0.51445687, 4.290331, -0.19663697, 0.15758419, 9.8957815
1130803618167089, 8.872586, -1.2239288, 4.520042, 0.5011659, -0.074332714, 10.019724
1130803627806985, 9.037691, -0.1471586, 4.6301117, -0.58851194, -0.07696247, 10.138401
1130803637446881, 8.886943, -1.4823537, 4.5523453, 0.75673187, -0.099787235, 10.065604
1130803647086725, 9.139386, -0.09212367, 4.746164, -0.65185773, -0.1422739, 10.277052
1130803656726568, 8.845069, -1.4392828, 4.386044, 0.7110671, 0.03384447, 9.951754
1130803666366464, 9.072387, -0.25842485, 4.6815577, -0.48316988, -0.10710573, 10.200346
1130803676006360, 8.860622, -0.9415757, 4.2592244, 0.22266611, 0.15393066, 9.872432
1130803685646256, 8.889337, -0.5946164, 4.490132, -0.13451076, -0.023103476, 9.975797
1130803695286100, 8.865408, -0.47138608, 4.23051, -0.23520657, 0.20825434, 9.829353
1130803704925943, 8.825927, -1.1485549, 4.3740797, 0.42904866, 0.036723852, 9.907741
1130803714565839, 8.945567, -0.15792629, 4.4243293, -0.5731672, 0.087542295, 9.964268
1130803724205735, 8.806784, -1.451247, 4.4745784, 0.71821964, -0.07543588, 9.958206
1130803733845579, 9.136993, -0.07776674, 4.7102714, -0.69144994, -0.06299639, 10.256475
1130803743485423, 8.904889, -1.4703895, 4.447061, 0.72684, 0.003608942, 10.035294
1130803753125318, 9.164511, -0.31944183, 4.7880383, -0.45881686, -0.13601398, 10.33376
1130803762765214, 8.930014, -1.1246266, 4.3728833, 0.38918823, 0.10318327, 9.998496
1130803772405058, 8.956335, -0.6723832, 4.6085763, -0.08041778, -0.087741375, 10.094198
1130803782044902, 8.835498, -0.6089734, 4.2161536, -0.11272049, 0.21146083, 9.805887
1130803791684798, 8.750552, -1.0576276, 4.290331, 0.3340012, 0.09251547, 9.796814
1130803801324693, 8.846265, -0.13878371, 4.331009, -0.5924867, 0.12914586, 9.831866
1130803810964537, 8.738588, -1.3531412, 4.3740797, 0.6285813, 0.004463911, 9.845372
1130803820604381, 9.022138, 0.01794617, 4.615755, -0.7789106, -0.054486275, 10.104198
1130803830244277, 8.805588, -1.3579268, 4.4243293, 0.6274483, -0.019744635, 9.927889
1130803839884173, 9.092726, -0.14476576, 4.7976093, -0.6206704, -0.17375088, 10.261592
1130803849524068, 8.873783, -1.0612168, 4.516453, 0.32428306, -0.05255413, 10.008028
1130803859163912, 8.99821, -0.54436713, 4.786842, -0.21888044, -0.21236563, 10.202205
1130803868803756, 8.943174, -0.59700924, 4.388437, -0.13247374, 0.11751032, 9.978166
1130803878443652, 8.921639, -1.0360922, 4.5655055, 0.29840857, -0.07126117, 10.070693
1130803888083548, 8.976674, -0.22851457, 4.4889355, -0.5037937, 0.05262375, 10.02631
1130803897723391, 8.775677, -1.3686945, 4.3848476, 0.65337706, 0.011488438, 9.883607
1130803907363235, 8.997013, -0.023928227, 4.5487556, -0.7191428, 0.019173622, 10.055868
1130803917003131, 8.73141, -1.4153546, 4.3130627, 0.7072705, 0.06803608, 9.815214
1130803926643027, 8.989835, -0.17228323, 4.644469, -0.5756459, -0.078467846, 10.103485
1130803936282870, 8.805588, -1.1844472, 4.336991, 0.47098917, 0.08340454, 9.875322
1130803945922714, 8.988638, -0.6125626, 4.7018967, -0.12997195, -0.1435895, 10.160767
1130803955562610, 8.907282, -0.7680961, 4.4255257, 0.04168257, 0.06357956, 9.975428
1130803965202506, 8.897711, -1.0731809, 4.540381, 0.34063637, -0.05207777, 10.040783
1130803974842350, 8.999406, -0.31465617, 4.4781675, -0.42115355, 0.07163763, 10.047875
1130803984482193, 8.85464, -1.4189439, 4.4339004, 0.6974131, 0.027445555, 9.979498
1130803994122089, 9.035298, -0.058624156, 4.5296135, -0.6861518, 0.04346752, 10.083887
1130804003761985, 8.768498, -1.4249259, 4.3322053, 0.711577, 0.06736922, 9.857693
1130804013401829, 9.046066, -0.08255238, 4.642076, -0.65804416, -0.058426857, 10.146456
1130804023041673, 8.812766, -1.1617154, 4.3202415, 0.4439022, 0.11097813, 9.872666
1130804032681568, 9.008977, -0.44626144, 4.6959143, -0.30959064, -0.11360264, 10.163841
1130804042321412, 8.902496, -0.73459655, 4.4231324, 0.004150972, 0.072066784, 9.967596
1130804051961256, 8.940782, -0.95353985, 4.631308, 0.21223156, -0.09777069, 10.11144
1130804061601152, 8.989835, -0.2955136, 4.5224347, -0.44265193, 0.027534008, 10.057841
1130804071241048, 8.830712, -1.3351951, 4.4398823, 0.6032385, 0.02360177, 9.955517
1130804080880891, 9.029316, -0.031106694, 4.5475593, -0.70611846, 0.016311169, 10.085185
1130804090520735, 8.760123, -1.4404793, 4.358526, 0.7223453, 0.05682063, 9.863391
1130804100160631, 9.064013, -0.086141616, 4.692325, -0.6757729, -0.08839941, 10.184163
1130804109800527, 8.819944, -1.253839, 4.3836513, 0.5159889, 0.07187772, 9.915066
1130804119440370, 8.968299, -0.45583272, 4.705486, -0.30426723, -0.14176464, 10.132477
1130804129080214, 8.841479, -0.8350951, 4.3669014, 0.09990221, 0.09283781, 9.895473
1130804138720110, 8.874979, -0.9343972, 4.575077, 0.18839821, -0.078302145, 10.026367
1130804148360006, 8.900104, -0.37208393, 4.4207397, -0.36518413, 0.08357811, 9.937449
1130804157999850, 8.786445, -1.2873386, 4.406383, 0.55108684, 0.025731087, 9.898014
1130804167639693, 9.000603, -0.04546363, 4.5858445, -0.71130264, 0.00695467, 10.0765505
1130804177279589, 8.8187475, -1.422533, 4.4554358, 0.6786332, -0.019031763, 9.959112
1130804186919433, 9.090333, -0.06699903, 4.749753, -0.6921633, -0.10781193, 10.232697
1130804196559277, 8.830712, -1.2693924, 4.4315076, 0.53966326, 0.025368452, 9.946819
1130804206199173, 8.99821, -0.37208393, 4.7784667, -0.39043486, -0.18658686, 10.185909
1130804215839068, 8.811569, -0.8446664, 4.398008, 0.11143769, 0.057580233, 9.88352
1130804225478912, 8.915657, -0.83389866, 4.584648, 0.09054053, -0.061219692, 10.059393
1130804235118756, 8.907282, -0.38644084, 4.3788652, -0.34370604, 0.13275886, 9.926113
1130804244758652, 8.807981, -1.2514462, 4.456632, 0.5176966, -0.010857582, 9.936806
1130804254398495, 9.008977, -0.0526421, 4.6169515, -0.7006641, -0.04149103, 10.098912
1130804264038339, 8.847462, -1.4763715, 4.485346, 0.7453197, -0.025385141, 10.000971
1130804273678235, 9.104691, -0.10049855, 4.8035913, -0.67133945, -0.15592957, 10.271561
1130804283318131, 8.803194, -1.3411771, 4.4745784, 0.6003119, -0.03551078, 9.947624
1130804292957975, 9.005388, -0.34217364, 4.752146, -0.42073622, -0.15631294, 10.178189
1130804302597818, 8.79123, -0.9056834, 4.3501515, 0.17785466, 0.08464384, 9.848401
1130804312237714, 8.79123, -0.8039884, 4.475775, 0.0758737, -0.021624088, 9.897398
1130804321877558, 8.768498, -0.40797627, 4.1898327, -0.30253705, 0.23015499, 9.719219
1130804331517402, 8.739784, -1.1880364, 4.287938, 0.47970143, 0.09443021, 9.795032
1130804341157298, 8.952746, -0.051445685, 4.406383, -0.6712867, 0.13685799, 9.954958
1130804350797193, 8.779266, -1.4237294, 4.308277, 0.7129972, 0.079419136, 9.856423
1130804360437037, 9.111869, -0.05742774, 4.679165, -0.6901771, -0.041279316, 10.219881
1130804370076881, 8.930014, -1.3722838, 4.51406, 0.6383764, -0.030791998, 10.079514
1130804379716777, 9.195618, -0.32063824, 4.8969116, -0.45028895, -0.19704103, 10.4115505
1130804389356673, 8.99462, -0.9810573, 4.6097727, 0.22991025, -0.06130123, 10.151802
1130804398996516, 9.069994, -0.76570326, 4.892126, -0.0027080476, -0.26550484, 10.330221
1130804408636360, 9.02812, -0.5024927, 4.5535417, -0.23664925, 0.028338432, 10.121137
1130804418276256, 8.864211, -1.227518, 4.520042, 0.4980853, -0.03631258, 10.013112
1130804427916100, 8.91805, -0.1591227, 4.4949174, -0.56999207, 0.038568974, 9.971703
1130804437555943, 8.72782, -1.4476577, 4.3405805, 0.74229014, 0.03905964, 9.826428
1130804447195839, 8.971889, -0.031106694, 4.53081, -0.69397163, 0.029768944, 10.02704
1130804456835683, 8.705089, -1.3806586, 4.220939, 0.66968614, 0.13784504, 9.748519
1130804466475527, 8.920443, -0.26081768, 4.6085763, -0.47296673, -0.0734849, 10.032557
1130804476115423, 8.762517, -1.0013963, 4.328616, 0.27577436, 0.083185196, 9.820309
1130804485755318, 8.9348, -0.6520442, 4.7365923, -0.10566008, -0.19162321, 10.1313
1130804495395162, 8.94796, -0.5312066, 4.516453, -0.21334022, 0.018820763, 10.034971
1130804505035006, 8.915657, -1.154537, 4.6396832, 0.406749, -0.12474918, 10.107798
1130804514674902, 9.055637, -0.18185452, 4.658826, -0.5776865, -0.048610687, 10.168884
1130804524314745, 8.823533, -1.4297116, 4.5044885, 0.6875488, -0.054311275, 9.985668
1130804533954589, 9.013762, -0.01794617, 4.5487556, -0.7308556, 0.04105282, 10.069934
1130804543594485, 8.709874, -1.3447664, 4.2006, 0.6269399, 0.17711973, 9.741197
1130804553234381, 8.977871, -0.14596218, 4.566702, -0.5896404, 1.7166138E-5, 10.056369
1130804562874225, 8.799605, -1.0097711, 4.273581, 0.2949286, 0.15216756, 9.828839
1130804572514068, 9.0029955, -0.61734825, 4.621737, -0.1325129, -0.059583187, 10.13777
1130804582153964, 8.950353, -0.59342, 4.426722, -0.14320283, 0.090382814, 10.00141
1130804591793808, 8.95155, -1.1102697, 4.6169515, 0.3650839, -0.09092808, 10.126086
1130804601433652, 9.085547, -0.23569304, 4.6528435, -0.5242046, -0.044546604, 10.196809
1130804611073548, 8.886943, -1.5050855, 4.5858445, 0.75697565, -0.10194588, 10.084126
1130804620713443, 9.0747795, -0.13399807, 4.679165, -0.6174336, -0.06946182, 10.192062
1130804630353287, 8.786445, -1.5038891, 4.341777, 0.78205955, 0.039422274, 9.88439
1130804639993131, 8.999406, -0.24526432, 4.597809, -0.4992755, -0.05154276, 10.096404
1130804649633027, 8.707481, -1.154537, 4.2017965, 0.43423808, 0.1331191, 9.7263565
1130804659272870, 8.864211, -0.63170516, 4.4279184, -0.102577955, 0.018894196, 9.928185
1130804668912714, 8.863015, -0.587438, 4.2759743, -0.14527848, 0.15927172, 9.855738
1130804678552610, 8.883354, -1.0169497, 4.5427737, 0.26618052, -0.0813992, 10.025343
1130804688192506, 8.976674, -0.17706887, 4.517649, -0.57724404, 4.1866302E-4, 10.03434
1130804697832350, 8.865408, -1.3112668, 4.5678983, 0.5564852, -0.11910558, 10.042744
1130804707472193, 9.140582, 0.023928227, 4.7653065, -0.78718925, -0.14783525, 10.277036
1130804717112089, 8.892925, -1.3627125, 4.402794, 0.63162297, 0.056490183, 9.996177
1130804726751985, 9.140582, -0.08255238, 4.6504507, -0.6808278, -0.034710884, 10.233232
1130804736391829, 8.886943, -1.1365907, 4.3262234, 0.41429782, 0.11456108, 9.939871
1130804746031673, 9.016156, -0.5288138, 4.6002016, -0.21494168, -0.05254793, 10.133292
1130804755671568, 8.872586, -0.71425754, 4.3058844, -0.011756808, 0.13951826, 9.887061
1130804765311412, 8.851051, -1.0432707, 4.526024, 0.30702624, -0.0742681, 9.990728
1130804774951256, 8.892925, -0.34456646, 4.53081, -0.3910852, -0.046624184, 9.978775
1130804784591152, 8.787642, -1.4404793, 4.402794, 0.70840365, 0.002003193, 9.908602
1130804794230995, 8.99462, -0.078963146, 4.599005, -0.6756647, -0.041792393, 10.079782
1130804803870839, 8.739784, -1.4548361, 4.4578285, 0.73057497, -0.05640149, 9.8911915
1130804813510735, 9.050852, -0.12203395, 4.6971107, -0.6271684, -0.11279678, 10.1778965
1130804823150631, 8.859426, -1.1533405, 4.3058844, 0.43194494, 0.13580966, 9.907333
1130804832790475, 8.985049, -0.44506502, 4.666004, -0.30776605, -0.11267662, 10.1288395
1130804842430318, 8.8701935, -0.7322037, 4.368098, 0.0075578094, 0.092455864, 9.914036
1130804852070214, 8.926425, -0.951147, 4.537988, 0.21254578, -0.043263912, 10.05644
1130804861710058, 8.98146, -0.31106696, 4.421936, -0.42510435, 0.10694647, 10.006236
1130804871349902, 8.807981, -1.3710874, 4.4721856, 0.64351404, -0.059976578, 9.952044
1130804880989798, 9.025727, -0.0634098, 4.62413, -0.6921333, -0.048319817, 10.117756
1130804890629693, 8.797213, -1.4404793, 4.408776, 0.71693486, -0.011885166, 9.919127
1130804900269537, 9.035298, -0.08733802, 4.638487, -0.6585082, -0.05333376, 10.135251
1130804909909381, 8.7984085, -1.2095718, 4.334598, 0.4805058, 0.06461668, 9.870599
1130804919549277, 9.007781, -0.4127619, 4.727021, -0.34621084, -0.15393591, 10.1740675
1130804929189173, 8.885747, -0.8003992, 4.421936, 0.06758195, 0.045947313, 9.957108
1130804938829016, 8.938389, -0.910469, 4.615755, 0.16710746, -0.10353041, 10.099026
1130804948468860, 8.962317, -0.34097722, 4.4913282, -0.3902078, 0.04581952, 10.022827
1130804958108756, 8.819944, -1.302892, 4.4721856, 0.5832505, -0.036013603, 9.957305
1130804967748600, 8.99462, -0.050249275, 4.4674, -0.67244554, 0.09734273, 10.020066
1130804977388443, 8.748159, -1.4524434, 4.2687955, 0.73984444, 0.09822655, 9.813536
1130804987028339, 9.0544405, -0.06819545, 4.638487, -0.66827714, -0.046308517, 10.151571
1130804996668235, 8.836694, -1.288535, 4.3800616, 0.56045145, 0.05342841, 9.930532
1130805006308079, 9.084352, -0.3924229, 4.733003, -0.36582878, -0.13264513, 10.243502
1130805015947923, 8.895318, -0.8745767, 4.4147577, 0.14778411, 0.054548264, 9.967791
1130805025587818, 8.967103, -0.8350951, 4.6372905, 0.09143013, -0.115557194, 10.128626
1130805035227714, 8.944371, -0.39840496, 4.4315076, -0.33149987, 0.074813604, 9.984152
1130805044867558, 8.815159, -1.2490535, 4.4446683, 0.52866477, -0.023141384, 9.936911
1130805054507402, 8.999406, -0.031106694, 4.5475593, -0.7013159, 0.002676487, 10.0587635
1130805064147298, 8.76491, -1.4117653, 4.3537407, 0.6906241, 0.019348621, 9.863795
1130805073787193, 9.020942, -0.034695927, 4.5475593, -0.7037567, 0.021101475, 10.077857
1130805083427037, 8.7577305, -1.2705889, 4.2759743, 0.55732214, 0.09523535, 9.812061
1130805093066881, 9.016156, -0.29312077, 4.662415, -0.44130665, -0.10653448, 10.144407
1130805102706777, 8.892925, -0.89013004, 4.375276, 0.1761555, 0.07418156, 9.9490185
1130805112346673, 8.987442, -0.8279166, 4.631308, 0.09556779, -0.10921812, 10.14335
1130805121986516, 8.988638, -0.48454657, 4.4949174, -0.24074852, 0.021147728, 10.058642
1130805131626360, 8.933603, -1.2586247, 4.526024, 0.53729314, -0.049649715, 10.079044
1130805141266256, 9.075976, -0.10767702, 4.5116673, -0.62563014, 0.057949543, 10.116587
1130805150906100, 8.7673025, -1.4500505, 4.2352962, 0.75456333, 0.13594413, 9.81418
1130805160545943, 9.005388, -0.019142581, 4.4889355, -0.6967564, 0.05890751, 10.037878
1130805170185839, 8.724232, -1.2873386, 4.2915273, 0.57949156, 0.061413527, 9.790153
1130805179825735, 8.980264, -0.22851457, 4.7042894, -0.5021034, -0.1648717, 10.126618
1130805189465579, 8.852247, -0.930808, 4.453043, 0.20737833, -0.016753197, 9.950627
1130805199105423, 9.013762, -0.71425754, 4.779663, -0.035220116, -0.2186141, 10.225177
1130805208745318, 8.980264, -0.5180461, 4.642076, -0.2192798, -0.101901054, 10.119481
1130805218385214, 8.950353, -1.2335001, 4.692325, 0.49960518, -0.1845777, 10.166837
1130805228025058, 9.062816, -0.18305093, 4.5475593, -0.5438827, 0.028513432, 10.126786
1130805237664902, 8.784052, -1.4895321, 4.2795634, 0.7811244, 0.10554099, 9.852493
1130805247304798, 8.989835, -0.021535404, 4.4542394, -0.70692855, 0.06878853, 10.007665
1130805256944693, 8.730213, -1.3244274, 4.1587257, 0.6239549, 0.18095493, 9.7387705
1130805266584537, 9.000603, -0.1698904, 4.5535417, -0.55477107, -0.020514488, 10.073048
1130805276224381, 8.800801, -0.9212367, 4.2388854, 0.2140071, 0.15841317, 9.808163
1130805285864277, 8.921639, -0.6257231, 4.546363, -0.103886366, -0.05825138, 10.03207
1130805295504173, 8.9108715, -0.51206404, 4.4207397, -0.20982626, 0.05290556, 9.95801
1130805305144068, 8.9348, -1.134198, 4.6121655, 0.40424892, -0.11999774, 10.109961
1130805314783912, 9.069994, -0.1471586, 4.65404, -0.59414643, -0.0707531, 10.177845
1130805324423756, 8.902496, -1.4452649, 4.5918264, 0.7127019, -0.11371446, 10.094912
1130805334063652, 9.160921, -0.09212367, 4.7222357, -0.65586865, -0.08554554, 10.285573
1130805343703548, 8.845069, -1.4596218, 4.321438, 0.74493647, 0.106892824, 9.923418
1130805353343391, 9.012567, -0.22253251, 4.575077, -0.49755242, -0.024706364, 10.097477
1130805362983235, 8.749356, -1.0336994, 4.241278, 0.3394646, 0.13321042, 9.771143
1130805372623131, 8.914461, -0.59342, 4.5320063, -0.123393685, -0.042623997, 10.017076
1130805382263027, 8.87139, -0.5515456, 4.290331, -0.1582932, 0.15271306, 9.867337
1130805391902870, 8.8701935, -1.0588241, 4.51406, 0.33717054, -0.06472659, 10.0030155
1130805401542714, 9.032906, -0.18783657, 4.601398, -0.55278474, -0.03268671, 10.123977
1130805411182610, 8.9013, -1.4129617, 4.578666, 0.67549354, -0.122066975, 10.085763
1130805420822506, 9.128618, -0.016749758, 4.749753, -0.74222255, -0.11042023, 10.262993
1130805430462402, 8.813962, -1.4273187, 4.3812585, 0.70420045, 0.0064222813, 9.92082
1130805440102245, 9.080762, -0.1902294, 4.618148, -0.54461855, -0.026556015, 10.174792
1130805449742089, 8.804391, -1.1102697, 4.2759743, 0.39812073, 0.11607766, 9.841847
1130805459381985, 8.912068, -0.5347959, 4.5930233, -0.20182753, -0.097204685, 10.037762
1130805469021881, 8.840283, -0.6029913, 4.3728833, -0.11345109, 0.06508446, 9.880242
1130805478661725, 8.846265, -1.0205388, 4.4781675, 0.29568377, -0.03880763, 9.963079
1130805488301568, 8.961121, -0.19621146, 4.4721856, -0.5300816, 0.046448708, 10.002874
1130805497941464, 8.830712, -1.3710874, 4.485346, 0.6396599, -0.06748557, 9.978275
1130805507581360, 9.0951185, -0.008374879, 4.6289153, -0.73105896, -0.010877132, 10.179072
1130805517221256, 8.837891, -1.4189439, 4.31067, 0.6966317, 0.10518503, 9.909956
1130805526861100, 9.115458, -0.106480606, 4.613362, -0.6414548, 0.009821415, 10.196788
1130805536500943, 8.859426, -1.1425728, 4.368098, 0.43160966, 0.05945325, 9.93405
1130805546140839, 9.014959, -0.5096712, 4.642076, -0.22669426, -0.0817852, 10.1498785
1130805555780735, 8.85823, -0.6879365, 4.3740797, -0.026621759, 0.0763576, 9.902904
1130805565420579, 8.839087, -1.0360922, 4.5834517, 0.30994055, -0.13257456, 10.004864
1130805575060423, 8.952746, -0.31465617, 4.5044885, -0.4082056, 0.021466255, 10.0186825
1130805584700318, 8.805588, -1.4045869, 4.575077, 0.6812298, -0.14648318, 9.997853
1130805594340214, 9.055637, -0.062213387, 4.7688956, -0.6826509, -0.16413021, 10.210674
1130805603980110, 8.827123, -1.457229, 4.359723, 0.7432941, 0.063925505, 9.924326
1130805613619954, 9.077172, -0.09810573, 4.558327, -0.6482321, 0.033169746, 10.137147
1130805623259798, 8.835498, -1.1772687, 4.223332, 0.47113013, 0.19906235, 9.850225
1130805632899693, 8.991031, -0.4019942, 4.570291, -0.3366406, -0.022534847, 10.08831
1130805642539589, 8.848659, -0.7046863, 4.301099, -0.00811176, 0.14762521, 9.862704
1130805652179485, 8.9013, -0.91525465, 4.57747, 0.18509105, -0.0785799, 10.049062
1130805661819329, 8.997013, -0.30388847, 4.516453, -0.42930266, 0.042455196, 10.062346
1130805671459173, 8.866604, -1.3208381, 4.5415773, 0.5964515, -0.078410625, 10.031217
1130805681099068, 9.047262, -0.101694964, 4.668397, -0.6465473, -0.06269932, 10.160477
1130805690738964, 8.787642, -1.5254245, 4.465007, 0.8091638, -0.05450058, 9.941235
1130805700378860, 9.044869, -0.148355, 4.741378, -0.60685754, -0.13768816, 10.1943655
1130805710018756, 8.797213, -1.2490535, 4.388437, 0.52468723, 0.029931545, 9.896123
1130805719658600, 9.018549, -0.36729828, 4.62413, -0.37058368, -0.05141735, 10.134681
1130805729298443, 8.846265, -0.7692925, 4.210171, 0.057089716, 0.22183299, 9.824524
1130805738938339, 8.897711, -0.86141616, 4.388437, 0.140138, 0.07087183, 9.957159
1130805748578235, 8.950353, -0.31465617, 4.3465624, -0.41118294, 0.14976239, 9.945297
1130805758218131, 8.85823, -1.2586247, 4.5224347, 0.5222459, -0.0873549, 10.011214
1130805767857975, 9.067601, -0.078963146, 4.6707897, -0.6660867, -0.083610535, 10.178078
1130805777497818, 8.807981, -1.5194423, 4.5188456, 0.79088473, -0.10185528, 9.983653
1130805787137714, 9.090333, -0.13280165, 4.7676992, -0.6201886, -0.15621233, 10.24567
1130805796777610, 8.812766, -1.3244274, 4.429115, 0.5983878, -0.011249065, 9.933671
1130805806417506, 9.016156, -0.3385844, 4.6899323, -0.418965, -0.120657444, 10.1592865
1130805816057402, 8.836694, -0.8315059, 4.2592244, 0.11212595, 0.17131567, 9.842644
1130805825697245, 8.892925, -0.7716853, 4.479364, 0.040293097, -0.0031802654, 9.987126
1130805835337089, 8.9108715, -0.35653058, 4.3070807, -0.36627197, 0.1662476, 9.895449
1130805844976985, 8.806784, -1.2358929, 4.3908296, 0.51257753, 0.017154694, 9.904707
1130805854616881, 9.013762, -0.05742774, 4.5559344, -0.6854054, 0.003590107, 10.076605
1130805864256777, 8.837891, -1.4488541, 4.4051867, 0.73081696, 0.003313303, 9.953846
1130805873896673, 9.08794, -0.021535404, 4.6408796, -0.71951276, -0.031136513, 10.178911
1130805883536516, 8.825927, -1.3447664, 4.432704, 0.6126417, -0.023218393, 9.948788
1130805893176360, 9.084352, -0.33499518, 4.772485, -0.41942745, -0.16241884, 10.257289
1130805902816256, 8.913264, -0.910469, 4.3944187, 0.18683875, 0.075988054, 9.977247
1130805912456152, 8.970692, -0.7716853, 4.6707897, 0.026162922, -0.1403842, 10.142222
1130805922096048, 8.945567, -0.48215377, 4.462614, -0.24811241, 0.04319763, 10.005357
1130805931735943, 8.860622, -1.2550355, 4.4674, 0.53194594, -0.025306463, 9.987984
1130805941375787, 8.971889, -0.11365908, 4.4889355, -0.6125839, 0.044312, 10.014042
1130805951015631, 8.712267, -1.4261223, 4.3070807, 0.7196412, 0.05348158, 9.796306
1130805960655527, 9.036494, -0.013160525, 4.5619164, -0.7337172, 0.007686615, 10.096092
1130805970295423, 8.787642, -1.3256238, 4.3178487, 0.6125466, 0.06820631, 9.861231
1130805979935318, 9.025727, -0.24765715, 4.6468616, -0.49413264, -0.08386898, 10.142347
1130805989575214, 8.877372, -0.96430755, 4.412365, 0.2309111, 0.031478405, 9.957523
1130805999215110, 9.020942, -0.7262217, 4.6815577, -0.025583178, -0.1339221, 10.188384
1130806008854954, 8.965906, -0.5084748, 4.442275, -0.22595957, 0.06540251, 10.0162115
1130806018494798, 8.909675, -1.2011969, 4.503292, 0.46213174, -0.043002605, 10.044373
1130806028134693, 9.017352, -0.15672988, 4.5332026, -0.5890228, 0.019382, 10.076697
1130806037774589, 8.800801, -1.4344971, 4.4458647, 0.69965124, -0.06515694, 9.939007
1130806047414485, 9.069994, -0.033499517, 4.5858445, -0.71835184, 0.0054044724, 10.138038
1130806057054381, 8.787642, -1.3639089, 4.2245283, 0.64649075, 0.13720345, 9.823072
1130806066694277, 8.927621, -0.4331009, 4.485346, -0.29390034, 0.0073957443, 9.996094
1130806076334173, 8.91805, -0.7752745, 4.409972, 0.04242441, 0.05321002, 9.978773
1130806085974016, 8.979067, -0.695115, 4.5044885, -0.042617112, -0.0013227463, 10.069531
1130806095613860, 8.987442, -0.8003992, 4.54397, 0.057304114, -0.037602425, 10.102364
1130806105253756, 9.007781, -0.7800602, 4.566702, 0.03300044, -0.047673702, 10.129168
1130806114893652, 8.967103, -0.7920243, 4.5284166, 0.048541114, -0.0315423, 10.076679
1130806124533548, 8.94796, -0.7920243, 4.51406, 0.049855307, -0.02633667, 10.053202
1130806134173443, 8.912068, -0.7812566, 4.4745784, 0.042871833, -0.007106781, 10.002766
1130806143813339, 8.880961, -0.77766734, 4.4147577, 0.041901708, 0.03211856, 9.948043
1130806153453183, 8.880961, -0.74416786, 4.436293, 0.0076762885, 0.012965441, 9.955186
1130806163093027, 8.908479, -0.6867401, 4.4889355, -0.054171994, -0.023106575, 9.998984
1130806172732923, 8.939586, -0.67477596, 4.465007, -0.06873237, 0.013700485, 10.015135
1130806182372818, 8.953942, -0.6580262, 4.4985065, -0.08649203, -0.0017108917, 10.041672
1130806192012714, 8.971889, -0.6855437, 4.49731, -0.059037983, 0.0090909, 10.0591755
1130806201652610, 8.995817, -0.6867401, 4.505685, -0.05820568, 0.011304855, 10.084346
1130806211292506, 8.957532, -0.7429714, 4.5798626, -0.0019066483, -0.07533789, 10.087559
1130806220932402, 8.95155, -0.7692925, 4.6097727, 0.024299175, -0.10481167, 10.097549
1130806230572298, 8.969496, -0.79920274, 4.486542, 0.058834866, 0.013201237, 10.060616
1130806240212141, 8.938389, -0.81834537, 4.459025, 0.08104809, 0.023450613, 10.021987
1130806249851985, 8.8701935, -0.81236327, 4.442275, 0.079443336, 0.0044698715, 9.953279
1130806259491881, 8.842676, -0.7800602, 4.345366, 0.050825164, 0.07634139, 9.883078
1130806269131777, 8.82832, -0.72741807, 4.2951164, 0.0017032474, 0.11565137, 9.843933
1130806278771673, 8.864211, -0.69152576, 4.3669014, -0.043079615, 0.06825471, 9.905339
1130806288411568, 8.924032, -0.6795616, 4.506881, -0.06485158, -0.029636621, 10.02033
1130806298051464, 8.9826565, -0.6999006, 4.5762734, -0.051196948, -0.06499815, 10.105118
1130806307691360, 9.014959, -0.72382885, 4.601398, -0.029631525, -0.064563274, 10.146981
1130806317331256, 9.006584, -0.77766734, 4.6731825, 0.021682397, -0.1330204, 10.175647
1130806326971152, 9.014959, -0.7896315, 4.6372905, 0.036673084, -0.095425606, 10.16794
1130806336611048, 8.965906, -0.7932207, 4.510471, 0.05098477, -0.0031261444, 10.067691
1130806346250891, 8.902496, -0.7716853, 4.362116, 0.040645257, 0.09830046, 9.943173
1130806355890735, 8.85464, -0.73579293, 4.362116, 0.0072906166, 0.077442646, 9.897882
1130806365530631, 8.843872, -0.7046863, 4.4111686, -0.027824402, 0.020507097, 9.907969
1130806375170527, 8.915657, -0.68075806, 4.4207397, -0.05649148, 0.04440093, 9.974474
1130806384810423, 8.921639, -0.66041905, 4.4805603, -0.0819938, -0.005378723, 10.005022
1130806394450318, 8.968299, -0.7070791, 4.5355954, -0.042049497, -0.032799244, 10.074677
1130806404090214, 9.005388, -0.7429714, 4.5690947, -0.008359402, -0.03899765, 10.125418
1130806413730110, 8.983852, -0.76331043, 4.534399, 0.015166953, -0.018215656, 10.092198
1130806423370006, 8.98146, -0.7752745, 4.5224347, 0.029753998, -0.0069494247, 10.085593
1130806433009902, 8.957532, -0.84107715, 4.476971, 0.102656126, 0.017033815, 10.048743
1130806442649798, 8.897711, -0.8362915, 4.486542, 0.10034092, -0.019873857, 9.999363
1130806452289693, 8.878569, -0.78364944, 4.45065, 0.050761998, 0.0046055317, 9.962368
1130806461929589, 8.8701935, -0.7405786, 4.496114, 0.0037103146, -0.036439657, 9.972086
1130806471569485, 8.906086, -0.7190432, 4.486542, -0.019553602, -0.009795666, 9.998199
1130806481209329, 8.944371, -0.70588267, 4.4374895, -0.031873822, 0.051514626, 10.009381
1130806490849173, 8.926425, -0.7046863, 4.415954, -0.031448483, 0.06074977, 9.983667
1130806500489068, 8.921639, -0.7118647, 4.4518466, -0.025431007, 0.026400566, 9.995998
1130806510128964, 8.965906, -0.7118647, 4.517649, -0.030612424, -0.014220238, 10.064902
1130806519768860, 8.941978, -0.71425754, 4.53081, -0.027156398, -0.036729336, 10.049642
1130806529408756, 8.940782, -0.74416786, 4.5894337, 5.8701634E-4, -0.089233875, 10.077019
1130806539048652, 8.965906, -0.75493556, 4.6085763, 0.008752689, -0.09484148, 10.108774
1130806548688548, 8.976674, -0.76331043, 4.6169515, 0.016895607, -0.09770727, 10.122734
1130806558328443, 8.933603, -0.77766734, 4.5427737, 0.036606476, -0.050800323, 10.05221
1130806567968339, 8.895318, -0.75972116, 4.386044, 0.028643787, 0.07277918, 9.946614
1130806577608235, 8.853444, -0.71665037, 4.2867417, -0.0045458972, 0.1420865, 9.861694
1130806587248131, 8.85464, -0.6687939, 4.261617, -0.04873213, 0.16392636, 9.848049
1130806596888027, 8.87139, -0.6687939, 4.2891345, -0.0506725, 0.14708924, 9.875289
1130806606527923, 8.889337, -0.7046863, 4.389633, -0.02164489, 0.06188631, 9.938886
1130806616167818, 8.959925, -0.70229346, 4.523631, -0.035349578, -0.026136398, 10.061548
1130806625807714, 9.016156, -0.7322037, 4.6408796, -0.013589874, -0.10577059, 10.166296
1130806635447610, 8.999406, -0.7728817, 4.6803613, 0.027581394, -0.14610004, 10.172037
1130806645087506, 8.995817, -0.7956135, 4.5930233, 0.055537254, -0.07002449, 10.131416
1130806654727350, 8.970692, -0.7752745, 4.415954, 0.04737173, 0.08416176, 10.028245
1130806664367193, 8.925228, -0.78723866, 4.341777, 0.06438124, 0.12597322, 9.955422
1130806674007089, 8.877372, -0.78843504, 4.3836513, 0.0637721, 0.06350422, 9.93165
1130806683646985, 8.864211, -0.76689965, 4.368098, 0.044033095, 0.07162142, 9.911387
1130806693286881, 8.865408, -0.7369894, 4.382455, 0.009880245, 0.06119013, 9.916686
1130806702926777, 8.919247, -0.7704889, 4.4674, 0.02957885, 0.013962507, 10.005158
1130806712566673, 8.959925, -0.7573284, 4.5320063, 0.008925214, -0.022286892, 10.069374
1130806722206568, 8.988638, -0.7298109, 4.570291, -0.022274733, -0.040057182, 10.11008
1130806731846464, 8.975478, -0.74177504, 4.6492543, -0.011734396, -0.11487627, 10.134677
1130806741486360, 8.950353, -0.7322037, 4.6875396, -0.019579917, -0.1578703, 10.128802
1130806751126256, 8.958728, -0.75493556, 4.6672006, 0.00530079, -0.13415194, 10.128844
1130806760766152, 8.94796, -0.7513463, 4.60738, 0.007297665, -0.08515453, 10.092133
1130806770406048, 8.880961, -0.75254273, 4.503292, 0.016533718, -0.022598743, 9.985823
1130806780045943, 8.85823, -0.7106683, 4.4614177, -0.021067023, 0.002980709, 9.943697
1130806789685839, 8.879765, -0.6257231, 4.382455, -0.10315381, 0.08534193, 9.921176
1130806799325735, 8.882157, -0.60059845, 4.3788652, -0.128185, 0.08998227, 9.9198475
1130806808965631, 8.914461, -0.6221339, 4.4518466, -0.10981652, 0.039929867, 9.982984
1130806818605527, 8.943174, -0.6975078, 4.5415773, -0.04043974, -0.028173923, 10.05437
1130806828245423, 8.973084, -0.73818576, 4.5595236, -9.025037E-4, -0.028485775, 10.092055
1130806837885318, 8.997013, -0.7501499, 4.57747, 0.008952588, -0.03376293, 10.122302
1130806847525214, 8.986245, -0.7752745, 4.557131, 0.036778256, -0.020039082, 10.105413
1130806857165110, 8.961121, -0.7812566, 4.487739, 0.047107622, 0.030899048, 10.052299
1130806866805006, 8.938389, -0.7920243, 4.4171505, 0.063136086, 0.08197212, 10.001133
1130806876444902, 8.896515, -0.74416786, 4.388437, 0.019143, 0.08659339, 9.947475
1130806886084798, 8.88455, -0.7537391, 4.4518466, 0.02679938, 0.021092892, 9.966
1130806895724693, 8.9108715, -0.76570326, 4.487739, 0.035227314, -0.0017561913, 10.006422
1130806905364589, 8.9348, -0.7692925, 4.5332026, 0.032797173, -0.030278683, 10.048403
1130806915004485, 8.943174, -0.74177504, 4.5008993, 0.005854219, 0.002275467, 10.039355
1130806924644381, 8.937193, -0.72741807, 4.517649, -0.009919703, -0.0129776, 10.040491
1130806934284277, 8.941978, -0.7465607, 4.5762734, 0.0061629564, -0.06222582, 10.072473
1130806943924173, 8.970692, -0.762114, 4.59063, 0.019074783, -0.061102867, 10.105637
1130806953564068, 8.980264, -0.7716853, 4.5631127, 0.028671071, -0.031086445, 10.102517
1130806963203964, 8.969496, -0.7585248, 4.4781675, 0.01949279, 0.039545536, 10.053818
1130806972843860, 8.902496, -0.695115, 4.4004006, -0.036493838, 0.0764184, 9.9545965
1130806982483756, 8.863015, -0.6448657, 4.3058844, -0.07732886, 0.13919759, 9.873408
1130806992123652, 8.847462, -0.64606214, 4.2831526, -0.07369298, 0.15122962, 9.849472
1130807001763548, 8.85823, -0.6867401, 4.4039903, -0.037425175, 0.047604084, 9.916215
1130807011403443, 8.878569, -0.71665037, 4.4685965, -0.0113256425, 8.943081E-4, 9.965481
1130807021043339, 8.924032, -0.7477571, 4.5619164, 0.013244361, -0.062204838, 10.0501
1130807030683235, 8.937193, -0.7573284, 4.6396832, 0.018573955, -0.11847067, 10.0974865
