timestamp_acc,device_acc_x,device_acc_y,device_acc_z,earth_acc_x,earth_acc_y,earth_acc_z
785274525068406, 0.27517462, 5.302495, 8.3784685, 0.0035669208, 0.012780666, 9.91921
785274534707468, 0.28953153, 5.3300123, 8.403593, 0.018164635, 0.022043228, 9.955523
785274544346531, 0.31585258, 5.35753, 8.422736, 0.04497373, 0.031473637, 9.98711
785274553985593, 0.30388847, 5.3515477, 8.419147, 0.03186357, 0.030931473, 9.980555
785274563624656, 0.30149564, 5.373083, 8.396415, 0.032084763, 0.06164694, 9.972757
785274573263718, 0.29671, 5.352744, 8.40479, 0.023904264, 0.040728092, 9.968859
785274582902781, 0.2835495, 5.367101, 8.408379, 0.010900497, 0.052024364, 9.979187
785274592541843, 0.27756742, 5.339584, 8.405986, 0.0024730563, 0.030760288, 9.96232
785274602180906, 0.2835495, 5.2977095, 8.40479, 0.004188359, -0.005054474, 9.939143
785274611819968, 0.32542387, 5.2845488, 8.456235, 0.03919208, -0.049124718, 9.976789
785274621458979, 0.3361916, 5.285745, 8.486146, 0.046259582, -0.06378889, 10.003029
785274631097989, 0.30987054, 5.291727, 8.486146, 0.019729853, -0.054657936, 10.005485
785274640737052, 0.30867413, 5.288138, 8.451449, 0.020764232, -0.039183617, 9.974201
785274650376114, 0.27756742, 5.2570314, 8.437093, -0.011837006, -0.053392887, 9.944594
785274660015177, 0.31226337, 5.2701917, 8.402397, 0.02677232, -0.028683186, 9.9232645
785274669654239, 0.3278167, 5.2642097, 8.455039, 0.03644824, -0.062160492, 9.965031
785274679293302, 0.3074777, 5.352744, 8.459825, 0.022283196, 0.015767574, 10.015702
785274688932364, 0.2416751, 5.3144593, 8.502895, -0.05142045, -0.028897285, 10.029837
785274698571427, 0.19740787, 5.3096733, 8.536395, -0.09720564, -0.04353237, 10.054368
785274708210489, 0.16151553, 5.3180485, 8.5112705, -0.1292777, -0.018550396, 10.036552
785274717849552, 0.15672988, 5.35753, 8.443074, -0.12100726, 0.049972057, 9.999804
785274727488614, 0.19860429, 5.352744, 8.340183, -0.0688048, 0.09229612, 9.911443
785274737127677, 0.25842485, 5.3623157, 8.295917, -0.0034887195, 0.11022329, 9.880855
785274746766739, 0.32063824, 5.343173, 8.282756, 0.057218134, 0.09094906, 9.861277
785274756405750, 0.31944183, 5.3156557, 8.251649, 0.05476868, 0.08254862, 9.820293
785274766044760, 0.28953153, 5.2929235, 8.237292, 0.022381425, 0.07386923, 9.795197
785274775683822, 0.2943172, 5.252246, 8.260024, 0.02210331, 0.027019978, 9.7928295
785274785322885, 0.31226337, 5.2498527, 8.26481, 0.038211107, 0.020890713, 9.796103
785274794961947, 0.2835495, 5.2283173, 8.263613, 0.008184135, 0.0076317787, 9.7827835
785274804601010, 0.28953153, 5.2259245, 8.276773, 0.012798369, -0.0020256042, 9.792801
785274814240072, 0.2943172, 5.261817, 8.27797, 0.022722125, 0.029794693, 9.813089
785274823879135, 0.24885355, 5.2773705, 8.330612, -0.02574271, 0.020353794, 9.864612
785274833518197, 0.1902294, 5.285745, 8.437093, -0.09086472, -0.019701004, 9.957469
785274843157260, 0.21655045, 5.325227, 8.562716, -0.06965357, -0.049660206, 10.08552
785274852796322, 0.26081768, 5.3515477, 8.599805, -0.028217316, -0.04868555, 10.132154
785274862435385, 0.2943172, 5.3706903, 8.682357, -0.0038130283, -0.07730389, 10.213142
785274872074447, 0.36490545, 5.380262, 8.685946, 0.06607634, -0.080749035, 10.223265
785274881713510, 0.3900301, 5.383851, 8.644072, 0.08840698, -0.053486824, 10.190548
785274891352572, 0.41754755, 5.363512, 8.610572, 0.11364609, -0.055358887, 10.152218
785274900991635, 0.40917268, 5.3587265, 8.52443, 0.11129415, -0.011880398, 10.076546
785274910630645, 0.36610186, 5.3383875, 8.523234, 0.066930294, -0.022118568, 10.063448
785274920269656, 0.31106696, 5.300102, 8.52443, 0.008387029, -0.048244, 10.042479
785274929908718, 0.26919255, 5.279763, 8.4705925, -0.027279258, -0.033792973, 9.984861
785274939547781, 0.26799613, 5.2869415, 8.41795, -0.021455765, -0.0017023087, 9.944093
785274949186843, 0.22851457, 5.3072805, 8.374879, -0.054023862, 0.04067278, 9.917333
785274958825906, 0.17228323, 5.2905307, 8.397611, -0.1130898, 0.021759987, 9.926027
785274968464968, 0.1160519, 5.2534423, 8.444271, -0.17481095, -0.028202057, 9.944169
785274978104031, 0.12562318, 5.24746, 8.469396, -0.16584772, -0.04862976, 9.962552
785274987743093, 0.16271193, 5.2307105, 8.402397, -0.11934805, -0.03393984, 9.898066
785274997382156, 0.21894327, 5.2642097, 8.364112, -0.056749344, 0.0072693825, 9.885086
785275007021218, 0.2847459, 5.3132625, 8.323434, 0.018669367, 0.058545113, 9.878643
785275016660281, 0.33738798, 5.339584, 8.305488, 0.072987616, 0.07749891, 9.879008
785275026299343, 0.36251262, 5.3407803, 8.298309, 0.099330485, 0.078030586, 9.874277
785275035938354, 0.3493521, 5.339584, 8.319844, 0.08113706, 0.063364506, 9.891533
785275045577364, 0.34337005, 5.3276196, 8.348558, 0.07025498, 0.037326813, 9.909264
785275055216427, 0.31944183, 5.312066, 8.347362, 0.04532826, 0.027841568, 9.899278
785275064855489, 0.3062813, 5.296513, 8.336594, 0.030531347, 0.020220757, 9.881514
785275074494552, 0.3062813, 5.3156557, 8.325827, 0.03333628, 0.04221964, 9.882637
785275084133614, 0.2955136, 5.319245, 8.304291, 0.025652885, 0.056553364, 9.866056
785275093772677, 0.317049, 5.2941203, 8.26122, 0.04939717, 0.05407381, 9.8168545
785275103411739, 0.31944183, 5.2929235, 8.256434, 0.05215609, 0.05521202, 9.812238
785275113050802, 0.2739782, 5.2953167, 8.390432, -0.007366419, -0.0060548782, 9.925457
785275122689864, 0.2548356, 5.285745, 8.457432, -0.03403133, -0.046555996, 9.976416
785275132328927, 0.29072794, 5.312066, 8.513663, -3.311634E-4, -0.0567894, 10.039014
785275141967989, 0.34456646, 5.3336015, 8.505288, 0.05587071, -0.040935516, 10.044956
785275151607052, 0.35653058, 5.3563333, 8.437093, 0.073375225, 0.0115356445, 9.999823
785275161246062, 0.30867413, 5.365905, 8.377272, 0.03141439, 0.056414604, 9.953026
785275170885072, 0.2536392, 5.349155, 8.377272, -0.024383962, 0.048826694, 9.942509
785275180524135, 0.22372891, 5.3144593, 8.372486, -0.05710441, 0.025720596, 9.91908
785275190163197, 0.23449662, 5.312066, 8.38804, -0.04689628, 0.014199734, 9.931255
785275199802260, 0.25722843, 5.296513, 8.397611, -0.025814772, -0.0064783096, 9.931685
785275209441322, 0.2632105, 5.2929235, 8.420342, -0.022578478, -0.02191782, 9.949146
785275219080385, 0.27996024, 5.276174, 8.407183, -0.007245183, -0.030916214, 9.929558
785275228719447, 0.30149564, 5.300102, 8.379665, 0.018839478, 0.0013537407, 9.919698
785275238358510, 0.27158538, 5.3132625, 8.349754, -0.0059221983, 0.0337739, 9.900594
785275247997572, 0.2428715, 5.304888, 8.374879, -0.03766203, 0.017535686, 9.916537
785275257636635, 0.22731815, 5.2666025, 8.403593, -0.05793482, -0.027645111, 9.919931
785275267275645, 0.19501504, 5.285745, 8.428718, -0.08691114, -0.019410133, 9.950501
785275276914656, 0.20937198, 5.2833524, 8.420342, -0.07084906, -0.018924236, 9.942556
785275286553718, 0.26919255, 5.312066, 8.421539, -0.008953571, -0.0031142235, 9.96056
785275296192781, 0.29790643, 5.337191, 8.426325, 0.021173298, 0.011820316, 9.978813
785275305831843, 0.32183465, 5.3359947, 8.467003, 0.039284885, -0.013957024, 10.013231
785275315470906, 0.32183465, 5.325227, 8.447861, 0.036664784, -0.013495445, 9.991318
785275325109968, 0.30987054, 5.316852, 8.421539, 0.02638191, -0.005335331, 9.964264
785275334749031, 0.30508488, 5.3108697, 8.400003, 0.023175538, 0.0010905266, 9.942732
785275344388093, 0.3062813, 5.3300123, 8.38804, 0.027495027, 0.023252487, 9.942875
785275354027156, 0.31106696, 5.3300123, 8.385647, 0.034775734, 0.022230625, 9.940986
785275363666218, 0.29312077, 5.3300123, 8.362915, 0.019336224, 0.036583424, 9.92127
785275373305229, 0.27756742, 5.319245, 8.325827, 0.008046389, 0.046664715, 9.883752
785275382944239, 0.24526432, 5.319245, 8.293523, -0.021254897, 0.068026066, 9.855554
785275392583302, 0.23928227, 5.328816, 8.299505, -0.027411163, 0.07139492, 9.86557
785275402222364, 0.2739782, 5.325227, 8.333005, 0.0034472346, 0.04625845, 9.892923
785275411861427, 0.29072794, 5.261817, 8.315059, 0.01592648, -8.8882446E-4, 9.844349
785275421500489, 0.20458634, 5.224728, 8.425129, -0.08201164, -0.07978201, 9.915106
785275431139552, 0.25004998, 5.279763, 8.489735, -0.036821127, -0.071416855, 10.000379
785275440778614, 0.29910284, 5.261817, 8.426325, 0.015872717, -0.059025288, 9.938581
785275450417677, 0.32303107, 5.2893343, 8.437093, 0.041677415, -0.044570923, 9.963041
785275460056687, 0.34217364, 5.3443694, 8.438289, 0.065172434, -0.0019488335, 9.993989
785275469695697, 0.31944183, 5.3539405, 8.390432, 0.047106087, 0.03477335, 9.958045
785275479334760, 0.28713873, 5.3312087, 8.343773, 0.015723169, 0.044573307, 9.905582
785275488973822, 0.2847459, 5.316852, 8.3174515, 0.013305306, 0.04648161, 9.875608
785275498612885, 0.30029923, 5.339584, 8.322237, 0.029548764, 0.060830593, 9.892238
785275508251947, 0.34576288, 5.352744, 8.325827, 0.07446504, 0.06261349, 9.903603
785275517891010, 0.3589234, 5.3383875, 8.330612, 0.0821411, 0.047246456, 9.900371
785275527530072, 0.31944183, 5.3312087, 8.384451, 0.03211379, 0.01901865, 9.940898
785275537169135, 0.29312077, 5.316852, 8.477771, -0.0047289133, -0.037654877, 10.011293
785275546808145, 0.29671, 5.3072805, 8.547162, -0.007948875, -0.08276701, 10.064906
785275556447156, 0.29790643, 5.296513, 8.541181, -0.0077568293, -0.08751583, 10.054146
785275566086218, 0.28235307, 5.308477, 8.553144, -0.024962246, -0.080019474, 10.070199
785275575725281, 0.22013968, 4.90409, 8.471788, -0.1159063, -0.36888313, 9.783672
785275585364343, 0.33499518, 5.9653068, 8.514859, 0.09163809, 0.49184752, 10.389881
785275595003406, 0.11844472, 4.6564326, 8.429914, -0.23765373, -0.544471, 9.612853
785275604642468, 0.2620141, 5.858826, 8.428718, 0.024197996, 0.44739342, 10.258511
785275614281479, 0.12323037, 4.979464, 8.493324, -0.20944846, -0.29505682, 9.839506
785275623920489, 0.17347965, 5.4257255, 8.165507, -0.07288879, 0.23583078, 9.802203
785275633559552, 0.22971097, 5.426922, 8.402397, -0.040359855, 0.10632992, 10.00458
785275643198614, 0.20697916, 4.948357, 8.033902, -0.08298987, -0.10358143, 9.436899
785275652837677, 0.3900301, 5.8636117, 8.394022, 0.18178487, 0.43874645, 10.235628
785275662476739, 0.2105684, 4.587041, 8.10808, -0.13301283, -0.4525969, 9.306112
785275672115802, 0.4438686, 6.0430737, 8.384451, 0.2475518, 0.58937025, 10.325026
785275681754812, 0.24047868, 4.6085763, 8.274381, -0.119635105, -0.5182681, 9.459349
785275691393822, 0.4319045, 5.869594, 8.281559, 0.22759157, 0.50033, 10.144987
785275701032885, 0.26919255, 4.9028935, 8.444271, -0.07889521, -0.37065935, 9.760783
785275710671947, 0.35174492, 5.4628143, 8.251649, 0.09193665, 0.18495846, 9.900157
785275720311010, 0.3385844, 5.393422, 8.569894, 0.03431034, -0.029634953, 10.1313715
785275729950072, 0.23688944, 4.9435716, 8.238488, -0.08332729, -0.21517467, 9.608042
785275739589135, 0.39960137, 5.852844, 8.641679, 0.13497531, 0.31686687, 10.439131
785275749228145, 0.22851457, 4.625326, 8.359326, -0.13487, -0.5403218, 9.540128
785275758867156, 0.4331009, 6.0729837, 8.672786, 0.18815559, 0.47506714, 10.58418
785275768506218, 0.23569304, 4.633701, 8.506484, -0.13746184, -0.61466265, 9.669039
785275778145281, 0.39840496, 5.966503, 8.446664, 0.15307033, 0.51609373, 10.335098
785275787784343, 0.2416751, 4.9316072, 8.534002, -0.098593354, -0.37038517, 9.851978
785275797423406, 0.27756742, 5.5537415, 8.376076, 2.0605326E-4, 0.2235384, 10.051357
785275807062416, 0.23808585, 5.4089756, 8.65125, -0.07220411, -0.03166437, 10.20547
785275816701427, 0.16510476, 5.0548377, 8.248059, -0.14002717, -0.112356186, 9.673517
785275826340489, 0.3290131, 5.8157554, 8.523234, 0.066906214, 0.363204, 10.316997
785275835979552, 0.18783657, 4.621737, 8.179864, -0.14818716, -0.4416051, 9.385571
785275845618614, 0.41994038, 6.0155563, 8.459825, 0.1840285, 0.5460472, 10.373035
785275855257677, 0.19501504, 4.5224347, 8.283952, -0.16516793, -0.587914, 9.420263
785275864896687, 0.3684947, 5.875576, 8.30788, 0.1367122, 0.52392244, 10.167885
785275874535697, 0.19860429, 4.7653065, 8.382058, -0.16078407, -0.4204781, 9.633475
785275884174760, 0.2835495, 5.5106707, 8.262417, 0.020231545, 0.24497747, 9.932522
785275893813822, 0.2955136, 5.2941203, 8.544769, -0.018467009, -0.078009605, 10.055929
785275903452885, 0.26799613, 5.072784, 8.184649, -0.03397757, -0.071772575, 9.632608
785275913091895, 0.40438703, 5.7762737, 8.551949, 0.14435446, 0.30533695, 10.322338
785275922730906, 0.21296121, 4.698307, 8.273184, -0.14616704, -0.4246974, 9.50596
785275932369968, 0.40558344, 6.0598235, 8.595019, 0.17987931, 0.5219221, 10.509785
785275942009031, 0.23330021, 4.5834517, 8.396415, -0.17023921, -0.58531284, 9.549381
785275951648093, 0.465404, 5.9617176, 8.452646, 0.23638213, 0.495399, 10.339468
785275961287156, 0.27158538, 4.833502, 8.492127, -0.11483061, -0.43233275, 9.764867
785275970926166, 0.3804588, 5.6267223, 8.32463, 0.11933941, 0.29808378, 10.0499325
785275980565177, 0.3469593, 5.2570314, 8.573483, 0.0109990835, -0.12826729, 10.062049
785275990204239, 0.3062813, 5.1014977, 8.240881, -0.012602329, -0.0833168, 9.696603
785275999843302, 0.41874397, 5.721239, 8.590233, 0.12950593, 0.23930025, 10.325986
785276009482364, 0.24765715, 4.686343, 8.26481, -0.13259959, -0.4282856, 9.493641
785276019121375, 0.4534399, 6.003592, 8.554341, 0.20111454, 0.4833603, 10.447556
785276028760385, 0.22372891, 4.546363, 8.263613, -0.16683257, -0.5504174, 9.416791
785276038399447, 0.37806597, 5.9712887, 8.271988, 0.16067314, 0.62141085, 10.188869
785276048038510, 0.16151553, 4.7605205, 8.301898, -0.20625842, -0.37071443, 9.561913
785276057677572, 0.2117648, 5.5872407, 8.238488, -0.03344345, 0.34097195, 9.950749
785276067316583, 0.15672988, 5.1792645, 8.581859, -0.18341106, -0.17114449, 10.021713
785276076955593, 0.18783657, 5.1732826, 8.238488, -0.11149627, -0.0029482841, 9.729254
785276086594656, 0.35413775, 5.6985073, 8.545966, 0.07887721, 0.24787903, 10.274448
785276096233718, 0.24047868, 4.7282176, 8.157132, -0.104133606, -0.34843445, 9.42446
785276105872729, 0.4642076, 5.9760747, 8.513663, 0.21098018, 0.486835, 10.398552
785276115511739, 0.27756742, 4.536792, 8.347362, -0.10161078, -0.60948277, 9.484525
785276125150802, 0.4989035, 5.985646, 8.456235, 0.23534662, 0.5182824, 10.356677
785276134789864, 0.32542387, 4.698307, 8.472985, -0.03976369, -0.5444937, 9.678502
785276144428927, 0.45104706, 5.741578, 8.360522, 0.18169218, 0.36689568, 10.143959
785276154067937, 0.33140594, 5.2235317, 8.504091, 0.0030241609, -0.12733555, 9.984912
785276163706947, 0.28235307, 5.252246, 8.1738825, -0.008421123, 0.078472614, 9.719669
785276173346010, 0.3385844, 5.6757755, 8.506484, 0.056450427, 0.2507844, 10.228552
785276182985072, 0.17347965, 4.81077, 8.179864, -0.16186392, -0.28345728, 9.485634
785276192624135, 0.36610186, 5.9653068, 8.559127, 0.10596341, 0.46572304, 10.4283
785276202263145, 0.15074782, 4.5116673, 8.382058, -0.23868328, -0.63806915, 9.49593
785276211902156, 0.36251262, 5.9952173, 8.525627, 0.11704236, 0.5104928, 10.415666
785276221541218, 0.17228323, 4.65404, 8.441878, -0.1957193, -0.5565908, 9.623252
785276231180281, 0.3182454, 5.716453, 8.353344, 0.06282145, 0.3708954, 10.120077
785276240819291, 0.2536392, 5.111069, 8.548359, -0.08027792, -0.23954582, 9.959818
785276250458302, 0.30388847, 5.300102, 8.226524, 0.021318257, 0.08392143, 9.790386
785276260097364, 0.39481574, 5.6243296, 8.548359, 0.11009467, 0.1721487, 10.238245
785276269736427, 0.24765715, 4.8035913, 8.200203, -0.09092808, -0.3117485, 9.501247
785276279375437, 0.43429732, 5.9473605, 8.55793, 0.19294566, 0.42773724, 10.420062
785276289014447, 0.19740787, 4.546363, 8.330612, -0.18421346, -0.58725977, 9.472524
785276298653510, 0.41515473, 6.0490556, 8.475378, 0.18914765, 0.55202246, 10.404564
785276308292572, 0.20937198, 4.664808, 8.334201, -0.1678496, -0.49935365, 9.538641
785276317931583, 0.38644084, 5.7930236, 8.208578, 0.16509974, 0.4785285, 10.041563
785276327570593, 0.29671, 5.0775695, 8.390432, -0.035541058, -0.20015621, 9.809577
785276337209656, 0.31944183, 5.367101, 8.100901, 0.05805105, 0.18933153, 9.720761
785276346848718, 0.3397808, 5.5704913, 8.410771, 0.07108313, 0.194139, 10.091787
785276356487729, 0.18305093, 4.7856455, 8.1020975, -0.14193445, -0.2785566, 9.406495
785276366126739, 0.3481557, 5.849255, 8.541181, 0.09277898, 0.36368036, 10.351131
785276375765802, 0.1363909, 4.505685, 8.370093, -0.2539907, -0.6375809, 9.481942
785276385404864, 0.3278167, 5.985646, 8.569894, 0.08854312, 0.4593854, 10.447948
785276395043875, 0.09930214, 4.5918264, 8.459825, -0.29119492, -0.5992904, 9.603096
785276404682885, 0.33260235, 5.831309, 8.416754, 0.100236595, 0.42178535, 10.235653
785276414321947, 0.2632105, 5.048856, 8.627322, -0.09986645, -0.33686256, 9.993372
785276423961010, 0.34217364, 5.4580283, 8.38804, 0.06538099, 0.11457157, 10.012442
785276433600020, 0.38165522, 5.601598, 8.636893, 0.09774399, 0.099732876, 10.300486
785276443239031, 0.28115666, 4.983053, 8.2660055, -0.04478568, -0.21066475, 9.653513
785276452878093, 0.42711884, 5.9820566, 8.585447, 0.19109201, 0.4314747, 10.462059
785276462517156, 0.2117648, 4.6229334, 8.267202, -0.15179324, -0.50959086, 9.459401
785276472156166, 0.41754755, 6.076573, 8.427522, 0.204884, 0.5971937, 10.378996
785276481795177, 0.19142582, 4.6169515, 8.303095, -0.17424077, -0.53579426, 9.485612
785276491434239, 0.38524446, 5.8600225, 8.23131, 0.159437, 0.52310085, 10.096715
785276501073250, 0.27038896, 4.9375896, 8.355737, -0.068942964, -0.3078785, 9.704209
785276510712260, 0.33738798, 5.3994045, 8.146365, 0.075605094, 0.18282127, 9.777092
785276520351322, 0.36490545, 5.4352965, 8.432307, 0.076675236, 0.058289528, 10.038433
785276529990385, 0.25603202, 4.894519, 8.097312, -0.0619812, -0.20324373, 9.462727
785276539629395, 0.38763726, 5.8803616, 8.536395, 0.1471734, 0.3685298, 10.365398
785276549268406, 0.1794617, 4.6229334, 8.238488, -0.19206798, -0.48638463, 9.434137
785276558907468, 0.35413775, 6.0251274, 8.5016985, 0.12466198, 0.52045774, 10.412495
785276568546531, 0.09571291, 4.584648, 8.471788, -0.28273517, -0.6331835, 9.6082535
785276578185541, 0.31944183, 5.938986, 8.472985, 0.07947326, 0.46083307, 10.341489
785276587824552, 0.21296121, 4.9495535, 8.584251, -0.1306684, -0.4023795, 9.902212
785276597463614, 0.317049, 5.5274205, 8.3174515, 0.050747454, 0.2078166, 9.989352
785276607102625, 0.34337005, 5.4484572, 8.547162, 0.048195243, 0.01772976, 10.141742
785276616741635, 0.2656033, 5.022535, 8.224132, -0.03713, -0.16556597, 9.638669
785276626380697, 0.39481574, 5.898308, 8.592627, 0.12208688, 0.363173, 10.422685
785276636019760, 0.19501504, 4.6528435, 8.283952, -0.14515775, -0.5032196, 9.48876
785276645658770, 0.40558344, 6.067002, 8.513663, 0.16525465, 0.53711176, 10.446995
785276655297781, 0.23090738, 4.604987, 8.312666, -0.12120384, -0.563869, 9.488256
785276664936843, 0.41635114, 5.9449677, 8.289934, 0.18660009, 0.5485735, 10.193295
785276674575854, 0.25722843, 4.8693943, 8.379665, -0.07966703, -0.37135267, 9.68771
785276684214864, 0.32063824, 5.532206, 8.195417, 0.06265843, 0.27044725, 9.889183
785276693853927, 0.31944183, 5.35753, 8.49452, 0.014527857, -0.033260345, 10.047923
785276703492989, 0.25004998, 5.0129633, 8.170293, -0.058281124, -0.14592266, 9.587561
785276713132000, 0.4019942, 5.800202, 8.523234, 0.13542181, 0.31104374, 10.311856
785276722771010, 0.19740787, 4.651647, 8.220542, -0.15137625, -0.46994686, 9.434528
785276732410072, 0.40079778, 6.0729837, 8.5423765, 0.16071057, 0.5231919, 10.474466
785276742049083, 0.17467605, 4.6061835, 8.372486, -0.19599432, -0.5850742, 9.537569
785276751688093, 0.37208393, 6.0047884, 8.392825, 0.14060551, 0.5481925, 10.310924
785276761327156, 0.2105684, 4.8502517, 8.46461, -0.14308196, -0.43340874, 9.747337
785276770966218, 0.29671, 5.605187, 8.338987, 0.03629321, 0.26126862, 10.048645
785276780605229, 0.25842485, 5.3036914, 8.618947, -0.064124286, -0.13328218, 10.122267
785276790244239, 0.24646074, 5.072784, 8.238488, -0.064406276, -0.12799025, 9.677089
785276799883302, 0.39960137, 5.7810597, 8.584251, 0.1294049, 0.26197863, 10.352985
785276809522312, 0.23569304, 4.6971107, 8.271988, -0.118647754, -0.46118045, 9.503548
785276819161322, 0.4331009, 6.0311093, 8.548359, 0.18780082, 0.48992395, 10.45758
785276828800385, 0.2117648, 4.5714874, 8.330612, -0.15264422, -0.5895107, 9.485338
785276838439395, 0.40917268, 5.9880385, 8.327023, 0.18020493, 0.5735178, 10.247046
785276848078406, 0.22971097, 4.7856455, 8.313862, -0.11891693, -0.40234828, 9.58642
785276857717468, 0.32063824, 5.6446686, 8.170293, 0.07457656, 0.3756671, 9.928347
785276867356531, 0.27876383, 5.2546387, 8.411968, -0.03207177, -0.07243252, 9.921888
785276876995541, 0.28235307, 5.1326046, 8.100901, -0.011440694, -0.017106533, 9.59414
785276886634552, 0.37806597, 5.7260246, 8.489735, 0.108714044, 0.2630353, 10.243285
785276896273614, 0.20578274, 4.6803613, 8.219346, -0.14900249, -0.44715476, 9.449001
785276905912625, 0.4103691, 6.023931, 8.573483, 0.1694352, 0.46706533, 10.4744425
785276915551635, 0.18305093, 4.5619164, 8.402397, -0.21347976, -0.6275165, 9.539681
785276925190697, 0.3924229, 6.0023956, 8.469396, 0.15290362, 0.5128412, 10.374344
785276934829708, 0.18903299, 4.790431, 8.4705925, -0.17425287, -0.48400545, 9.719583
785276944468718, 0.32183465, 5.7583275, 8.359326, 0.062090397, 0.3681507, 10.148935
785276954107781, 0.20937198, 5.2402816, 8.618947, -0.117321074, -0.18235731, 10.086803
785276963746843, 0.19262223, 5.218746, 8.309076, -0.106559455, -0.038532257, 9.813274
785276973385854, 0.3469593, 5.7248282, 8.676374, 0.059547603, 0.17296839, 10.399041
785276983024864, 0.21296121, 4.782056, 8.328219, -0.12970799, -0.42089415, 9.595764
785276992663927, 0.4019942, 6.02752, 8.583055, 0.15024513, 0.470335, 10.484161
785277002302937, 0.17706887, 4.558327, 8.335398, -0.18287438, -0.61349344, 9.480439
785277011941947, 0.43429732, 6.0430737, 8.335398, 0.222799, 0.60420465, 10.284529
785277021581010, 0.21894327, 4.723432, 8.331808, -0.14259046, -0.47594738, 9.56718
785277031220020, 0.37447673, 5.7379885, 8.237292, 0.14280772, 0.40413046, 10.036633
785277040859031, 0.317049, 5.1816573, 8.456235, -6.533265E-4, -0.16755962, 9.921185
785277050498093, 0.31585258, 5.267799, 8.151151, 0.037879765, 0.0580616, 9.710094
785277060137156, 0.36490545, 5.643472, 8.443074, 0.09825444, 0.21298599, 10.159351
785277069776166, 0.20817557, 4.7880383, 8.082955, -0.11019927, -0.29196334, 9.391773
785277079415177, 0.38524446, 5.977271, 8.4682, 0.1491878, 0.47109938, 10.360619
785277089054239, 0.21894327, 4.5595236, 8.246863, -0.13369572, -0.57121897, 9.407646
785277098693250, 0.43669012, 6.0011992, 8.325827, 0.21208066, 0.558187, 10.255142
785277108332260, 0.12203395, 4.685147, 8.334201, -0.2280674, -0.50535035, 9.545523
785277117971322, 0.28594232, 5.8337016, 8.361719, 0.0558815, 0.42893076, 10.190439
785277127610333, 0.23090738, 5.144569, 8.577073, -0.09374654, -0.25446272, 10.0006275
785277137249343, 0.2620141, 5.346762, 8.325827, -0.019652128, 0.042901993, 9.898166
785277146888406, 0.3589234, 5.6685967, 8.609376, 0.080889404, 0.1468029, 10.3128605
785277156527468, 0.27517462, 4.867001, 8.190632, -0.047721386, -0.29001236, 9.526988
785277166166479, 0.45702913, 6.0215383, 8.516056, 0.22474027, 0.47918892, 10.426452
785277175805489, 0.22492532, 4.618148, 8.321041, -0.14906299, -0.562701, 9.5015135
785277185444552, 0.38883367, 6.064609, 8.453842, 0.16518557, 0.5504608, 10.395569
785277195083562, 0.14237295, 4.633701, 8.405986, -0.223697, -0.5846176, 9.579157
785277204722572, 0.31226337, 5.7834525, 8.321041, 0.08456057, 0.40825176, 10.129744
785277214361635, 0.2213361, 5.0273204, 8.578269, -0.12466353, -0.35048723, 9.938374
785277224000645, 0.23090738, 5.328816, 8.385647, -0.060246766, 0.009004593, 9.938057
785277233639656, 0.28953153, 5.5477595, 8.687142, -0.009623408, 0.024583817, 10.311508
785277243278718, 0.21296121, 4.8765726, 8.293523, -0.12038499, -0.31870985, 9.617318
785277252917729, 0.4354937, 5.989235, 8.541181, 0.19718379, 0.45336246, 10.429188
785277262556739, 0.25244278, 4.6600223, 8.26122, -0.09747255, -0.49560213, 9.474818
785277272195802, 0.4103691, 6.1567326, 8.414361, 0.2016508, 0.6614661, 10.411389
785277281834864, 0.15074782, 4.671986, 8.29113, -0.19634515, -0.4930861, 9.503228
785277291473875, 0.3182454, 5.8600225, 8.219346, 0.09672427, 0.52651596, 10.085248
785277301112885, 0.21296121, 4.9878387, 8.408379, -0.116399884, -0.29729986, 9.773577
785277310751947, 0.27038896, 5.4173503, 8.219346, 0.0053058267, 0.15964508, 9.846468
785277320390958, 0.35413775, 5.4699926, 8.507681, 0.06441742, 0.04023695, 10.120332
785277330029968, 0.26081768, 4.8705907, 8.1738825, -0.05551046, -0.27534723, 9.514419
785277339669031, 0.4319045, 5.9066825, 8.537591, 0.18138373, 0.37635708, 10.382263
785277349308041, 0.21415763, 4.631308, 8.273184, -0.14575082, -0.5141113, 9.468626
785277358947052, 0.40677986, 6.081359, 8.482556, 0.18556893, 0.55302334, 10.428898
785277368586114, 0.16510476, 4.6025944, 8.373683, -0.20597005, -0.5798845, 9.536824
785277378225177, 0.30029923, 5.8935223, 8.372486, 0.077263236, 0.48100615, 10.231567
785277387864187, 0.15672988, 4.968696, 8.585447, -0.18598676, -0.38488102, 9.911594
785277397503197, 0.2105684, 5.4640107, 8.402397, -0.061276793, 0.11747408, 10.024094
785277407142260, 0.2656033, 5.4436717, 8.69791, -0.03787893, -0.062054634, 10.264134
785277416781270, 0.23090738, 4.9770713, 8.355737, -0.087447226, -0.2699914, 9.724318
785277426420281, 0.43908295, 5.933004, 8.685946, 0.18149155, 0.3331337, 10.5211735
785277436059343, 0.25842485, 4.686343, 8.322237, -0.08615428, -0.49606252, 9.541212
785277445698406, 0.48933223, 6.10768, 8.487342, 0.26550996, 0.5700846, 10.449054
785277455337416, 0.2321038, 4.613362, 8.318648, -0.12604344, -0.56058335, 9.497723
785277464976427, 0.35174492, 5.928218, 8.329415, 0.13023823, 0.51741314, 10.215771
785277474615489, 0.16151553, 4.914858, 8.441878, -0.17996031, -0.36137915, 9.761365
785277484254500, 0.2835495, 5.495117, 8.184649, 0.033003867, 0.23965216, 9.8593445
785277493893510, 0.33379877, 5.4089756, 8.4502535, 0.05155617, 0.02453518, 10.038525
785277503532572, 0.25603202, 5.0416775, 8.129615, -0.03581077, -0.10711813, 9.568801
785277513171635, 0.39361933, 5.837291, 8.462217, 0.14862603, 0.36448526, 10.280229
785277522810645, 0.19381863, 4.5894337, 8.1942215, -0.14103621, -0.51142836, 9.378927
785277532449656, 0.38165522, 6.020342, 8.502895, 0.14851213, 0.49607754, 10.412554
785277542088718, 0.16271193, 4.5475593, 8.347362, -0.19727433, -0.62398505, 9.484564
785277551727729, 0.36131623, 5.9342003, 8.392825, 0.12935364, 0.49967527, 10.272216
785277561366739, 0.19142582, 4.8885365, 8.486146, -0.1417461, -0.41578245, 9.785506
785277571005802, 0.28713873, 5.6327047, 8.251649, 0.044383287, 0.3206916, 9.98973
785277580644864, 0.276371, 5.4125648, 8.530413, -0.015004933, -0.007765293, 10.106426
785277590283875, 0.20697916, 5.1086764, 8.221739, -0.083589554, -0.09036636, 9.681076
785277599922885, 0.37806597, 5.8301125, 8.590233, 0.11928362, 0.2988615, 10.383721
785277609561947, 0.2440679, 4.6707897, 8.333005, -0.12107748, -0.51682043, 9.541124
785277619200958, 0.46301118, 6.0514483, 8.628518, 0.22935474, 0.44570255, 10.537291
785277628839968, 0.24047868, 4.5678983, 8.410771, -0.1395399, -0.6434734, 9.5514965
785277638479031, 0.4438686, 5.983253, 8.398808, 0.22404581, 0.5145054, 10.306376
785277648118093, 0.23330021, 4.7988057, 8.398808, -0.120090365, -0.4319787, 9.665501
785277657757104, 0.2883351, 5.582455, 8.215756, 0.046946228, 0.309402, 9.932154
785277667396114, 0.23808585, 5.2749777, 8.439486, -0.06057775, -0.062250614, 9.95487
785277677035177, 0.2009971, 5.111069, 8.155936, -0.084436595, -0.041996956, 9.626725
785277686674239, 0.2955136, 5.753542, 8.567501, 0.035250545, 0.26486588, 10.320913
785277696313250, 0.13519448, 4.688736, 8.355737, -0.20443666, -0.49478006, 9.567353
785277705952260, 0.39840496, 6.0921264, 8.636893, 0.16585958, 0.495286, 10.563894
785277715591322, 0.2117648, 4.5894337, 8.396415, -0.15447623, -0.6099608, 9.550477
785277725230333, 0.43788654, 6.0107703, 8.423932, 0.21011299, 0.5358629, 10.341782
785277734869343, 0.26919255, 4.7976093, 8.440681, -0.08099115, -0.46652818, 9.701053
785277744508406, 0.38644084, 5.682954, 8.27797, 0.14115512, 0.3530302, 10.041193
785277754147468, 0.30508488, 5.276174, 8.537591, -0.007337451, -0.11982441, 10.040276
785277763786479, 0.25124636, 5.1732826, 8.238488, -0.04223585, -0.041162968, 9.731144
785277773425489, 0.3505485, 5.7451673, 8.579466, 0.078884065, 0.24975204, 10.328044
785277783064552, 0.19621146, 4.74736, 8.258827, -0.1351074, -0.40309572, 9.518582
785277792703614, 0.41515473, 6.0418773, 8.555537, 0.16580623, 0.50154114, 10.468754
785277802342625, 0.18185452, 4.599005, 8.346166, -0.17724544, -0.5705552, 9.512384
785277811981635, 0.38285163, 6.0227346, 8.440681, 0.15438938, 0.546165, 10.360641
785277821620697, 0.20937198, 4.7425747, 8.414361, -0.14612895, -0.48725557, 9.647723
785277831259760, 0.27038896, 5.68415, 8.27797, 0.02839017, 0.36487246, 10.038601
785277840898770, 0.23569304, 5.1696935, 8.539984, -0.0861581, -0.19841051, 9.983276
785277850537781, 0.24646074, 5.2307105, 8.236095, -0.037312806, 0.0115242, 9.759754
785277860176843, 0.38883367, 5.6685967, 8.537591, 0.12215531, 0.19855547, 10.25282
785277869815906, 0.26919255, 4.718646, 8.184649, -0.067189276, -0.3930967, 9.442857
785277879454916, 0.44985065, 5.977271, 8.536395, 0.21875477, 0.44237566, 10.41905
785277889093927, 0.19142582, 4.5332026, 8.329415, -0.16879046, -0.6132345, 9.463677
785277898732989, 0.3589234, 5.983253, 8.472985, 0.12112379, 0.49837732, 10.366127
785277908372052, 0.14955142, 4.6803613, 8.446664, -0.21436214, -0.53884554, 9.640433
785277918011114, 0.2739782, 5.743971, 8.303095, 0.035681546, 0.40163088, 10.091932
785277927650125, 0.2213361, 5.143372, 8.477771, -0.08934808, -0.1836319, 9.916359
785277937289135, 0.23330021, 5.3180485, 8.169097, -0.027754784, 0.12662792, 9.749534
785277946928197, 0.3397808, 5.649454, 8.449057, 0.085329115, 0.24297857, 10.16622
785277956567260, 0.17228323, 4.8059845, 8.163115, -0.13320374, -0.29450035, 9.468851
785277966206270, 0.33499518, 5.98086, 8.601001, 0.094194174, 0.44419575, 10.471578
785277975845281, 0.111266255, 4.5535417, 8.415557, -0.24105537, -0.62884593, 9.545427
785277985484343, 0.42831525, 6.04427, 8.563912, 0.18430799, 0.5017133, 10.477192
785277995123406, 0.29312077, 4.709075, 8.4705925, -0.05349815, -0.54595995, 9.680462
785278004762416, 0.46899325, 5.8432727, 8.342576, 0.23421896, 0.4420843, 10.183911
785278014401427, 0.35413775, 5.1457653, 8.537591, 0.03500694, -0.22290182, 9.972155
785278024040489, 0.33738798, 5.3359947, 8.267202, 0.059218645, 0.07410288, 9.845014
785278033679552, 0.34217364, 5.562116, 8.58784, 0.057640076, 0.09678841, 10.236822
785278043318562, 0.20817557, 4.837091, 8.251649, -0.12253678, -0.31310272, 9.561247
785278052957572, 0.35533416, 5.9294147, 8.584251, 0.11449236, 0.4072156, 10.430469
785278062596635, 0.12801601, 4.5523453, 8.329415, -0.24974877, -0.5807028, 9.4720545
785278072235697, 0.36490545, 6.038288, 8.457432, 0.1474685, 0.56777954, 10.381623
785278081874760, 0.18664017, 4.6468616, 8.353344, -0.18163681, -0.5228846, 9.544638
785278091513770, 0.32662028, 5.8133626, 8.310273, 0.092472434, 0.46605253, 10.135914
785278101152781, 0.19980069, 5.002196, 8.59143, -0.15215182, -0.34809828, 9.936308
785278110791843, 0.21535404, 5.3515477, 8.321041, -0.0647378, 0.08950567, 9.8951
785278120430906, 0.28115666, 5.521438, 8.586644, -0.008211136, 0.081058025, 10.212207
785278130069968, 0.23928227, 4.8885365, 8.1738825, -0.07357931, -0.22747183, 9.524193
785278139708979, 0.46660042, 5.966503, 8.518449, 0.2309336, 0.45988607, 10.397885
785278149347989, 0.2440679, 4.6301117, 8.274381, -0.11033136, -0.49636936, 9.471236
785278158987052, 0.41754755, 6.050252, 8.525627, 0.18936688, 0.5374441, 10.447082
785278168626114, 0.1591227, 4.60738, 8.433503, -0.2152738, -0.5942445, 9.590506
785278178265125, 0.31465617, 5.851648, 8.413164, 0.08602631, 0.4466591, 10.242814
785278187904135, 0.20817557, 4.9842496, 8.547162, -0.13538599, -0.3341365, 9.889898
785278197543197, 0.29910284, 5.440082, 8.2456665, 0.036094308, 0.18550825, 9.881258
785278207182260, 0.34576288, 5.4819565, 8.496913, 0.062384725, 0.086313725, 10.117193
785278216821322, 0.23330021, 4.930411, 8.158329, -0.08019006, -0.182405, 9.533206
785278226460333, 0.41994038, 5.930611, 8.53161, 0.1817981, 0.43298626, 10.388278
785278236099343, 0.22372891, 4.5619164, 8.256434, -0.13672644, -0.5400908, 9.419102
785278245738406, 0.32303107, 6.005985, 8.645268, 0.08412719, 0.45468807, 10.521552
785278255377468, 0.13519448, 4.5918264, 8.585447, -0.24914443, -0.67290664, 9.710724
785278265016531, 0.3385844, 5.858826, 8.502895, 0.098480344, 0.39515018, 10.323463
785278274655593, 0.16390835, 4.8993044, 8.647661, -0.19518715, -0.44742775, 9.928434
785278284294604, 0.31226337, 5.5633125, 8.398808, 0.049954236, 0.2150445, 10.076666
785278293933614, 0.3792624, 5.5046883, 8.581859, 0.091848254, 0.06040001, 10.202041
785278303572677, 0.3074777, 5.0344987, 8.181061, 0.008128881, -0.12014055, 9.610201
785278313211739, 0.44506502, 5.933004, 8.488539, 0.2189337, 0.44386768, 10.354177
785278322850802, 0.25603202, 4.668397, 8.152347, -0.08623201, -0.41532397, 9.388307
785278332489812, 0.4534399, 6.0598235, 8.348558, 0.25289035, 0.6138253, 10.304599
785278342128822, 0.20817557, 4.5738807, 8.199007, -0.14290798, -0.50753903, 9.376003
785278351767885, 0.41515473, 5.892326, 8.136793, 0.22000545, 0.5836191, 10.03545
785278361406947, 0.2620141, 4.8155556, 8.208578, -0.07314646, -0.3288517, 9.514488
785278371046010, 0.32422748, 5.4723854, 8.141579, 0.07709664, 0.25283432, 9.811604
785278380685020, 0.29671, 5.337191, 8.537591, -0.011561573, -0.06307745, 10.072735
785278390324031, 0.19621146, 4.9531426, 8.220542, -0.11976802, -0.20004559, 9.596619
785278399963093, 0.26081768, 5.7655063, 8.666803, -0.011077762, 0.23578835, 10.409942
785278409602156, 0.06580263, 4.6085763, 8.397611, -0.31429726, -0.55076957, 9.558298
785278419241218, 0.3589234, 6.0837517, 8.630911, 0.13488495, 0.5070791, 10.552637
785278428880281, 0.20578274, 4.65404, 8.463413, -0.17909008, -0.57255244, 9.642195
785278438519343, 0.45822555, 6.0454664, 8.482556, 0.23897183, 0.540164, 10.409732
785278448158354, 0.3074777, 4.9112687, 8.536395, -0.05278921, -0.4037099, 9.844765
785278457797364, 0.3924229, 5.615955, 8.413164, 0.13030028, 0.22780418, 10.119556
785278467436427, 0.3361916, 5.3503513, 8.73141, 0.0054139495, -0.14745188, 10.244758
785278477075489, 0.25603202, 5.0955157, 8.384451, -0.06511915, -0.16636229, 9.813103
785278486714552, 0.34456646, 5.7954164, 8.687142, 0.06942743, 0.25004196, 10.445318
785278496353614, 0.15314065, 4.6767716, 8.299505, -0.19731003, -0.46140575, 9.514494
785278505992625, 0.36251262, 6.0418773, 8.5423765, 0.13303965, 0.5315709, 10.455029
785278515631635, 0.13280165, 4.564309, 8.323434, -0.23349226, -0.56797504, 9.473806
785278525270697, 0.31944183, 5.966503, 8.34138, 0.10115552, 0.568882, 10.244314
785278534909760, 0.15194423, 4.770092, 8.380861, -0.18679368, -0.42346048, 9.633354
785278544548822, 0.24047868, 5.588437, 8.283952, -0.0045901537, 0.29782772, 9.991178
785278554187885, 0.17228323, 4.991428, 8.507681, -0.14838219, -0.31359434, 9.859224
785278563826895, 0.31106696, 5.3742795, 8.398808, 0.033004344, 0.048998833, 9.975777
785278573465906, 0.35533416, 5.2869415, 8.389236, 0.06890285, -0.026154995, 9.922292
785278583104968, 0.39481574, 5.3826547, 8.348558, 0.11812401, 0.07080555, 9.940237
785278592744031, 0.37088752, 5.3359947, 8.356933, 0.089645505, 0.030330658, 9.921682
785278602383093, 0.36490545, 5.363512, 8.385647, 0.08226848, 0.034988403, 9.960497
785278612022156, 0.35174492, 5.334798, 8.377272, 0.06674862, 0.016018867, 9.937695
785278621661218, 0.31944183, 5.3240304, 8.390432, 0.031736553, 0.0034127235, 9.942118
785278631300229, 0.28953153, 5.328816, 8.374879, 0.003984928, 0.019486904, 9.9306755
785278640939239, 0.276371, 5.319245, 8.330612, -0.0053230524, 0.035975933, 9.887796
785278650578302, 0.276371, 5.322834, 8.29472, -6.714463E-4, 0.05718994, 9.859415
785278660217364, 0.27996024, 5.343173, 8.305488, 0.0042449236, 0.06766558, 9.879494
785278669856427, 0.27517462, 5.3383875, 8.336594, -0.004251361, 0.048358917, 9.903058
785278679495489, 0.24765715, 5.325227, 8.422736, -0.041583657, -0.0029973984, 9.967956
785278689134552, 0.20458634, 5.2737813, 8.487342, -0.094507396, -0.07397747, 9.993758
785278698773614, 0.22013968, 5.2773705, 8.520842, -0.081092, -0.09162378, 10.024413
785278708412625, 0.25962126, 5.3096733, 8.59143, -0.044974267, -0.10462284, 10.102462
785278718051635, 0.28713873, 5.386244, 8.565108, -0.007091224, -0.027570248, 10.121972
785278727690697, 0.30269206, 5.386244, 8.513663, 0.013139546, -0.0024614334, 10.078965
785278737329760, 0.33379877, 5.393422, 8.475378, 0.046642244, 0.018381596, 10.051366
785278746968822, 0.3278167, 5.3910294, 8.447861, 0.04243356, 0.030137539, 10.026681
785278756607885, 0.31226337, 5.363512, 8.402397, 0.028493762, 0.033154964, 9.973121
785278766246947, 0.28953153, 5.3383875, 8.340183, 0.0106057525, 0.043809414, 9.906505
785278775886010, 0.25962126, 5.3144593, 8.318648, -0.017498374, 0.036707878, 9.87467
785278785525072, 0.23688944, 5.3036914, 8.349754, -0.043990076, 0.014026165, 9.894521
785278795164083, 0.24646074, 5.2749777, 8.35454, -0.03589964, -0.015322685, 9.883469
785278804803093, 0.26081768, 5.328816, 8.347362, -0.013189852, 0.030210495, 9.906649
785278814442156, 0.24526432, 5.312066, 8.329415, -0.027972877, 0.0273242, 9.882097
785278824081218, 0.25722843, 5.2773705, 8.29113, -0.015823722, 0.016875267, 9.831537
785278833720281, 0.276371, 5.2749777, 8.333005, -0.0014445186, -0.008459091, 9.866139
785278843359343, 0.24526432, 5.3012986, 8.463413, -0.042729676, -0.050456047, 9.989442
785278852998406, 0.27517462, 5.3515477, 8.499306, -0.01246047, -0.028627872, 10.047487
785278862637468, 0.34456646, 5.375476, 8.4347, 0.06539309, 0.014642239, 10.007705
785278872276531, 0.36131623, 5.35753, 8.380861, 0.0846585, 0.024142265, 9.95313
785278881915593, 0.3505485, 5.3718867, 8.370093, 0.07583046, 0.04302454, 9.951427
785278891554604, 0.3505485, 5.393422, 8.402397, 0.074816644, 0.04417658, 9.990227
785278901193614, 0.32183465, 5.35753, 8.432307, 0.03810078, 0.0019307137, 9.995452
785278910832677, 0.28594232, 5.3204412, 8.458628, -0.0054607987, -0.037222862, 9.996792
785278920471739, 0.2656033, 5.3276196, 8.477771, -0.026412249, -0.038098812, 10.016214
785278930110802, 0.25603202, 5.337191, 8.422736, -0.029067159, 9.6845627E-4, 9.974609
785278939749864, 0.27158538, 5.3144593, 8.391629, -0.01284647, -0.003829956, 9.9366255
785278949388927, 0.29671, 5.3096733, 8.353344, 0.015545666, 0.008504391, 9.90246
785278959027989, 0.29671, 5.306084, 8.3377905, 0.01645255, 0.014031887, 9.887409
785278968667052, 0.28953153, 5.2737813, 8.372486, 0.001980245, -0.029402256, 9.899204
785278978306114, 0.24526432, 5.2510495, 8.413164, -0.048119843, -0.06370449, 9.920113
785278987945125, 0.22013968, 5.2630134, 8.472985, -0.07676524, -0.080453396, 9.976317
785278997584135, 0.2105684, 5.3096733, 8.487342, -0.08119547, -0.046444416, 10.013151
785279007223197, 0.22851457, 5.3587265, 8.43111, -0.051354766, 0.023414135, 9.992426
785279016862260, 0.25244278, 5.377869, 8.377272, -0.018835247, 0.06447458, 9.95788
785279026501322, 0.276371, 5.3503513, 8.356933, 0.005499065, 0.047435284, 9.926666
785279036140385, 0.25603202, 5.3479586, 8.367701, -0.01509881, 0.041171074, 9.933917
785279045779447, 0.24765715, 5.319245, 8.421539, -0.0309785, -0.010953903, 9.963781
785279055418510, 0.26679972, 5.306084, 8.453842, -0.016344309, -0.041505337, 9.984546
785279065057572, 0.29312077, 5.319245, 8.502895, 0.006121278, -0.059414864, 10.033741
785279074696635, 0.3397808, 5.3383875, 8.502895, 0.054410756, -0.04913664, 10.04528
785279084335697, 0.36729828, 5.3647084, 8.462217, 0.08814144, -0.010413647, 10.025778
785279093974760, 0.3589234, 5.363512, 8.444271, 0.08061081, -2.117157E-4, 10.00976
785279103613822, 0.34337005, 5.3886366, 8.469396, 0.0638268, 0.010202885, 10.043993
785279113252885, 0.32542387, 5.3982077, 8.432307, 0.050964534, 0.037644863, 10.0173025
785279122891947, 0.23688944, 5.3539405, 8.432307, -0.039734185, 0.009952068, 9.991142
785279132531010, 0.18783657, 5.3300123, 8.4502535, -0.09237331, -0.013225079, 9.992117
785279142170020, 0.1794617, 5.3132625, 8.449057, -0.09618491, -0.03188753, 9.981945
785279151809031, 0.22971097, 5.325227, 8.477771, -0.0458017, -0.046664238, 10.013947
785279161448093, 0.29790643, 5.3682976, 8.449057, 0.028136909, -0.006755829, 10.014645
785279171087156, 0.33020952, 5.4053864, 8.405986, 0.06471634, 0.039531708, 9.999103
785279180726218, 0.31944183, 5.3826547, 8.391629, 0.05349654, 0.029067516, 9.974504
785279190365281, 0.29072794, 5.3623157, 8.416754, 0.016581297, -0.0049324036, 9.984007
785279200004343, 0.27996024, 5.308477, 8.410771, 0.0020695329, -0.04574108, 9.9497385
785279209643406, 0.23808585, 5.2462635, 8.37129, -0.042358816, -0.073672295, 9.8818655
785279219282468, 0.23688944, 5.2259245, 8.30788, -0.040723205, -0.057914734, 9.817448
785279228921531, 0.31585258, 5.2833524, 8.263613, 0.047231197, 0.00300169, 9.813187
785279238560593, 0.37088752, 5.3718867, 8.176275, 0.11986154, 0.113600254, 9.788715
785279248199656, 0.36729828, 5.424529, 8.032705, 0.13407439, 0.22827864, 9.696116
785279257838718, 0.34456646, 5.3970113, 7.978867, 0.1143384, 0.23700428, 9.635326
785279267477781, 0.28713873, 5.369494, 8.029117, 0.04894334, 0.18920279, 9.661388
785279277116843, 0.16749759, 5.3036914, 8.179864, -0.09173912, 0.07299709, 9.749544
785279286755906, 0.12801601, 5.2642097, 8.244471, -0.13895166, 0.011451721, 9.781623
785279296394968, 0.14596218, 5.2342997, 8.221739, -0.12088251, -0.0038218498, 9.746875
785279306034031, 0.16510476, 5.231907, 8.316256, -0.11183238, -0.05582857, 9.82571
785279315673093, 0.25004998, 5.3132625, 8.416754, -0.029950857, -0.048591137, 9.956492
785279325312104, 0.31585258, 5.3886366, 8.529217, 0.028867006, -0.049284935, 10.093636
785279334951114, 0.32542387, 5.4927244, 8.610572, 0.037392557, -0.0017724037, 10.218436
785279344590177, 0.35533416, 5.5298133, 8.665607, 0.06539655, -0.003765583, 10.285601
785279354229239, 0.35413775, 5.534599, 8.724232, 0.053753853, -0.025158882, 10.337596
785279363868302, 0.3589234, 5.5070815, 8.724232, 0.054948807, -0.047407627, 10.322969
785279373507364, 0.33379877, 5.4233327, 8.691928, 0.025043726, -0.09746122, 10.250045
785279383146427, 0.3505485, 5.375476, 8.6345005, 0.041854084, -0.109303474, 10.17642
785279392785489, 0.33499518, 5.3718867, 8.605786, 0.028821945, -0.09508562, 10.149831
785279402424552, 0.3469593, 5.3443694, 8.5220375, 0.04609555, -0.07560682, 10.064787
785279412063614, 0.27876383, 5.319245, 8.435896, -0.013450801, -0.043743134, 9.976689
785279421702677, 0.18903299, 5.3108697, 8.389236, -0.096587, -0.015107632, 9.930298
785279431341739, 0.11844472, 5.265406, 8.365308, -0.1686883, -0.030962467, 9.883698
785279440980802, 0.09451649, 5.2666025, 8.331808, -0.18306917, -0.01127243, 9.855526
785279450619864, 0.15792629, 5.334798, 8.295917, -0.10989177, 0.05698538, 9.863667
785279460258927, 0.2536392, 5.369494, 8.238488, -0.004666865, 0.10161781, 9.836573
785279469897989, 0.33738798, 5.3850474, 8.212168, 0.078799546, 0.11019564, 9.825167
785279479537052, 0.38165522, 5.3970113, 8.196614, 0.122023106, 0.1187315, 9.81982
785279489176114, 0.39840496, 5.395815, 8.219346, 0.13616663, 0.103728294, 9.838795
785279498815177, 0.357727, 5.352744, 8.240881, 0.08685416, 0.05846405, 9.83265
785279508454239, 0.30029923, 5.325227, 8.239685, 0.026431024, 0.040435314, 9.8152075
785279518093302, 0.25124636, 5.2929235, 8.249256, -0.025613964, 0.0129776, 9.804467
