timestamp_acc,device_acc_x,device_acc_y,device_acc_z,earth_acc_x,earth_acc_y,earth_acc_z
780595676903936, 0.46181476, 6.0430737, 8.04467, -0.036093593, 0.009343624, 10.072107
780595686543936, 0.47377887, 6.0167527, 7.987242, -0.025932074, 0.026994705, 10.011015
780595696184041, 0.49052864, 5.968896, 7.972885, 0.002374053, 0.0050058365, 9.971722
780595705824041, 0.51206404, 5.98086, 7.9537425, 0.013893604, 0.031641483, 9.9646225
780595715464041, 0.5240282, 5.962914, 7.8759756, 0.015487671, 0.0656724, 9.89229
780595725104145, 0.5168497, 5.938986, 7.832905, 0.00733459, 0.0680027, 9.843191
780595734744145, 0.485743, 5.938986, 7.8281193, -0.022665858, 0.058045864, 9.83784
780595744384249, 0.5180461, 5.9617176, 7.873583, 0.008423209, 0.060131073, 9.889391
780595754024249, 0.4749753, 5.959325, 7.881958, -0.028704047, 0.037552357, 9.892532
780595763664249, 0.46660042, 5.946164, 7.884351, -0.029546857, 0.02234602, 9.886162
780595773304353, 0.47018966, 5.956932, 7.885547, -0.027718663, 0.030880451, 9.893747
780595782944353, 0.46899325, 5.9617176, 7.925029, -0.023007035, 0.011389732, 9.928114
780595792584353, 0.4546363, 5.973682, 7.982456, -0.02748549, -0.017384052, 9.980486
780595802224457, 0.4749753, 5.942575, 8.035098, 0.011345625, -0.062491894, 10.004927
780595811864457, 0.47138608, 5.928218, 8.04467, 0.014055371, -0.078902245, 10.003814
780595821504457, 0.485743, 5.9437714, 8.003992, 0.013339281, -0.036151886, 9.981321
780595831144561, 0.4941179, 5.9641104, 7.966903, 0.0078520775, 0.0030646324, 9.964249
780595840784561, 0.4941179, 5.9760747, 7.9022965, -0.008492827, 0.04873705, 9.91975
780595850424666, 0.50488555, 5.9952173, 7.877172, -0.008953214, 0.07944393, 9.911661
780595860064666, 0.4833502, 5.9916277, 7.873583, -0.02816999, 0.071116924, 9.90559
780595869704666, 0.4761717, 5.973682, 7.87119, -0.029377222, 0.05601406, 9.892584
780595879344770, 0.4833502, 5.966503, 7.932207, -0.009418607, 0.01816225, 9.937419
780595888984770, 0.4989035, 5.9413786, 7.9740815, 0.02048564, -0.018464565, 9.956612
780595898624770, 0.47377887, 5.918647, 7.9334035, -0.003082633, -0.020150661, 9.909255
780595908264874, 0.47138608, 5.9270215, 7.9680996, -0.0016245842, -0.034731388, 9.941891
780595917904874, 0.5192425, 5.9676995, 7.9633136, 0.028966784, 0.015591145, 9.964756
780595927544874, 0.50368917, 5.953343, 7.96451, 0.0189718, -6.136894E-4, 9.956358
780595937184978, 0.4642076, 5.9700923, 7.999206, -0.018238425, -0.02295494, 9.992195
780595946824978, 0.4881358, 5.9820566, 8.012366, 7.7211857E-4, -0.013752937, 10.011049
780595956464978, 0.48454657, 5.9904313, 7.987242, -0.011879683, 0.0045113564, 9.995795
780595966105082, 0.46779683, 5.962914, 7.905886, -0.03422141, 0.023685455, 9.913449
780595975745082, 0.4989035, 5.9437714, 7.844869, -0.011183739, 0.054210663, 9.854757
780595985385186, 0.5024927, 5.9449677, 7.856833, -0.00823307, 0.047671795, 9.865223
780595995025186, 0.54436713, 5.933004, 7.865208, 0.032955527, 0.046918392, 9.866868
780596004665186, 0.5300102, 5.912665, 7.911868, 0.030438423, -0.0014343262, 9.89127
780596014305291, 0.50009996, 5.9114685, 7.9070826, 0.002049446, -0.010203838, 9.885212
780596023945291, 0.5288138, 5.979664, 7.853244, -0.0012521744, 0.08060837, 9.884481
780596033585291, 0.52163535, 5.9904313, 7.8233337, -0.01345408, 0.103117466, 9.866667
780596043225395, 0.48095736, 5.9581285, 7.920243, -0.024653792, 0.009185314, 9.92271
780596052865395, 0.45702913, 5.948557, 7.9884386, -0.028971672, -0.04576254, 9.970276
780596062505499, 0.46061835, 5.9988065, 8.014759, -0.033947825, -0.020326614, 10.021608
780596072145499, 0.47736812, 5.983253, 8.01117, -0.013957143, -0.0237751, 10.010259
780596081785499, 0.45104706, 5.9641104, 8.019546, -0.031333566, -0.0514493, 10.004175
780596091425603, 0.47377887, 5.9581285, 7.9501534, -0.020788431, -0.0077958107, 9.946266
780596101065603, 0.4833502, 5.942575, 7.9369926, -0.0086236, -0.0079956055, 9.92691
780596110705603, 0.47138608, 5.916254, 7.895118, -0.01840508, -0.007179737, 9.877084
780596120345707, 0.49052864, 5.9150577, 7.861619, -0.006030202, 0.017945766, 9.850544
780596129985707, 0.53599226, 5.9377894, 7.880761, 0.033150792, 0.040517807, 9.881716
780596139625707, 0.49052864, 5.9294147, 7.9130645, -0.0016392469, -6.88076E-4, 9.900262
780596149265811, 0.51445687, 5.948557, 7.9657063, 0.023931503, -0.008485317, 9.95499
780596158905811, 0.5563313, 5.9916277, 7.9920278, 0.053964615, 0.023260117, 10.003907
780596168545811, 0.5491528, 6.013163, 7.987242, 0.039158344, 0.0400486, 10.012623
780596178185916, 0.5479564, 6.0155563, 8.006385, 0.039145947, 0.029951096, 10.029304
780596187825916, 0.49651068, 6.003592, 7.999206, -0.0066913366, 0.0074090958, 10.013833
780596197465916, 0.4749753, 5.9964137, 7.960921, -0.031281233, 0.016204834, 9.977856
780596207106020, 0.50129634, 5.994021, 7.9334035, -0.00756526, 0.038410187, 9.955748
780596216746020, 0.46660042, 5.9724855, 7.9022965, -0.03888023, 0.028244019, 9.916263
780596226386124, 0.47377887, 5.940182, 7.8628154, -0.028056502, 0.027960777, 9.865726
780596236026124, 0.49172506, 5.930611, 7.804191, -0.015821218, 0.05890608, 9.814053
780596245666124, 0.4869394, 5.9234324, 7.759924, -0.025723815, 0.0774107, 9.774145
780596255306228, 0.4642076, 5.9138613, 7.745567, -0.04641664, 0.06750536, 9.7558365
780596264946228, 0.45822555, 5.910272, 7.7587276, -0.048903823, 0.054854393, 9.763901
780596274586228, 0.47856453, 5.9246287, 7.792227, -0.029066324, 0.052972794, 9.800275
780596284226332, 0.49052864, 5.946164, 7.9094753, -0.0036580563, 0.005795479, 9.907433
780596293866332, 0.4761717, 5.9270215, 7.9537425, -0.0041692257, -0.03786087, 9.930603
780596303506332, 0.4941179, 5.936593, 8.000402, 0.016354442, -0.049411774, 9.974521
780596313146436, 0.5168497, 5.9784675, 8.035098, 0.027364373, -0.02767229, 10.028484
780596322786436, 0.5192425, 6.0107703, 8.063812, 0.02473712, -0.019330978, 10.070903
780596332426436, 0.49052864, 6.005985, 8.059027, -0.004873872, -0.030736923, 10.062774
780596342066541, 0.4977071, 5.9700923, 8.050652, 0.011137247, -0.04990816, 10.034944
780596351706541, 0.526421, 5.99761, 8.032705, 0.025408864, -0.009601593, 10.038528
780596361346541, 0.50129634, 5.9784675, 7.954939, -0.007281065, 0.011983871, 9.963646
780596370986645, 0.47976094, 5.9437714, 7.91785, -0.023153424, 2.0599365E-4, 9.912134
780596380626645, 0.5072784, 5.9234324, 7.8664045, 0.0010230541, 0.023347378, 9.860231
780596390266645, 0.5168497, 5.9294147, 7.798209, -0.0035934448, 0.07040787, 9.809802
780596399906749, 0.48215377, 5.916254, 7.8484583, -0.023217082, 0.01942873, 9.840321
780596409546749, 0.4642076, 5.9270215, 7.8987074, -0.034818888, -0.007446766, 9.886021
780596419186749, 0.49172506, 5.953343, 7.9334035, -0.0111141205, 0.0023126602, 9.930905
780596428826853, 0.4833502, 5.9676995, 7.9238324, -0.02520585, 0.015312195, 9.931432
780596438466853, 0.48454657, 5.9844494, 7.941778, -0.026257753, 0.017739773, 9.955865
780596448106853, 0.50129634, 5.986842, 7.9836526, -0.0035619736, 8.325577E-4, 9.991611
780596457746957, 0.52522457, 5.9880385, 7.9704924, 0.016074657, 0.017250538, 9.983019
780596467386957, 0.5455636, 5.992824, 7.9716887, 0.03398502, 0.027132988, 9.987867
780596477026957, 0.5288138, 5.977271, 8.000402, 0.029987574, -0.007671356, 10.000645
780596486667061, 0.5168497, 5.953343, 7.9704924, 0.021929145, -0.012597084, 9.961803
780596496307061, 0.50009996, 5.946164, 7.9346, 0.0035934448, -0.0033979416, 9.927982
780596505947061, 0.46779683, 5.9473605, 7.9310107, -0.025570393, -0.01189518, 9.924217
780596515587166, 0.46779683, 5.9413786, 7.9034934, -0.028594613, -4.9209595E-4, 9.898647
780596525227166, 0.4953143, 5.9497533, 7.88794, -0.005879879, 0.024883747, 9.892614
780596534867166, 0.47736812, 5.956932, 7.8699937, -0.026133776, 0.034398556, 9.881693
780596544507270, 0.4749753, 5.9557357, 7.8664045, -0.026999831, 0.034692764, 9.8779955
780596554147270, 0.50009996, 5.9712887, 7.914261, 0.0011746883, 0.026800632, 9.926793
780596563787270, 0.50368917, 5.953343, 7.908279, 0.009783149, 0.01757431, 9.911431
780596573427374, 0.49052864, 5.9521465, 7.884351, -0.006722212, 0.025589943, 9.890954
780596583067374, 0.49292147, 5.9641104, 7.8831544, -0.008351922, 0.035951138, 9.89729
780596592707374, 0.48933223, 5.966503, 7.8687973, -0.01564002, 0.0432806, 9.887086
780596602347478, 0.49052864, 5.9844494, 7.847262, -0.024139881, 0.068387985, 9.880715
780596611987478, 0.47976094, 5.966503, 7.810173, -0.03530276, 0.072591305, 9.839798
780596621627478, 0.48095736, 5.9557357, 7.8592257, -0.02156651, 0.03600216, 9.872577
780596631267582, 0.46301118, 5.9294147, 7.90469, -0.022013545, -0.016933441, 9.892204
780596640907582, 0.50129634, 5.942575, 7.925029, 0.013100743, -0.0053400993, 9.918236
780596650547582, 0.46899325, 5.9318075, 7.9657063, -0.006682873, -0.046862602, 9.942662
780596660187686, 0.4642076, 5.946164, 7.9920278, -0.01107347, -0.050196648, 9.972072
780596669827686, 0.4953143, 5.9724855, 8.017152, 0.01425159, -0.034307003, 10.009459
780596679467686, 0.485743, 5.9844494, 8.009974, -1.4674664E-4, -0.023171425, 10.010432
780596689107686, 0.506082, 6.0011992, 8.006385, 0.013296843, -0.0016927719, 10.01861
780596698747791, 0.5168497, 6.000003, 7.989635, 0.020530581, 0.010859966, 10.005043
780596708387791, 0.506082, 5.8564334, 7.978867, 0.05205357, -0.09356165, 9.909833
780596718027791, 0.5766702, 6.458228, 7.8927255, -0.083404064, 0.4242444, 10.205362
780596727667895, 0.44147578, 5.3790655, 7.8963146, 0.12548983, -0.4206581, 9.554493
780596737307895, 0.49052864, 6.5288167, 7.838887, -0.19957411, 0.47494698, 10.200433
780596746947895, 0.5347959, 5.5094743, 7.776674, 0.1535343, -0.2318039, 9.541471
780596756587999, 0.36490545, 6.1770716, 7.9298143, -0.19090164, 0.11318731, 10.055948
780596766227999, 0.65084773, 5.95095, 7.7587276, 0.11980474, 0.1459403, 9.797938
780596775867999, 0.30029923, 5.7224355, 7.982456, -0.099277854, -0.27763367, 9.82187
780596785507999, 0.68195444, 6.3720865, 7.7611203, 0.0115379095, 0.46830177, 10.054059
780596795148103, 0.30388847, 5.3682976, 8.029117, 0.029969335, -0.5667367, 9.646533
780596804788103, 0.6197411, 6.6652074, 7.90469, -0.121178985, 0.5787678, 10.341352
780596814428103, 0.40438703, 5.3156557, 8.045866, 0.15258372, -0.576704, 9.633266
780596824068207, 0.50368917, 6.579066, 7.987242, -0.17963529, 0.41598225, 10.350292
780596833708207, 0.54675996, 5.5274205, 7.928618, 0.19239533, -0.30111027, 9.674018
780596843348207, 0.3469593, 6.2787666, 8.032705, -0.22132397, 0.11615324, 10.198294
780596852988207, 0.6448657, 5.9449677, 7.7910304, 0.12193549, 0.12262964, 9.819815
780596862628311, 0.32422748, 5.8013983, 7.993224, -0.08924234, -0.21872807, 9.879128
780596872268311, 0.7070791, 6.384051, 7.6953177, 0.012950897, 0.51762295, 10.010286
780596881908311, 0.3074777, 5.400601, 7.90469, 0.0041339397, -0.46685266, 9.566983
780596891548311, 0.6329016, 6.626922, 7.745567, -0.11995304, 0.63995314, 10.192474
780596901188416, 0.41994038, 5.2486563, 7.908279, 0.1586504, -0.5401695, 9.484127
780596910828416, 0.5419743, 6.5754766, 7.8592257, -0.16626573, 0.49244308, 10.248313
780596920468416, 0.5204389, 5.4484572, 7.844869, 0.17337406, -0.33032036, 9.558209
780596930108416, 0.3696911, 6.2979093, 7.9429746, -0.22230685, 0.17820263, 10.139526
780596939748520, 0.6329016, 5.8839507, 7.830512, 0.13170874, 0.04437399, 9.814227
780596949388520, 0.25962126, 5.8564334, 8.100901, -0.15427399, -0.27209044, 9.994598
780596959028520, 0.6831509, 6.3493547, 7.856833, 0.031050324, 0.38878155, 10.117249
780596968668624, 0.2847459, 5.426922, 8.073383, 0.0047386885, -0.55731344, 9.716042
780596978308624, 0.63888365, 6.6245294, 7.877172, -0.09828007, 0.5540867, 10.296881
780596987948624, 0.39960137, 5.2833524, 8.033902, 0.14150715, -0.5963721, 9.6042385
780596997588624, 0.5383851, 6.6161547, 7.9094753, -0.17494941, 0.4924202, 10.312616
780597007228728, 0.5395815, 5.4352965, 7.8580294, 0.19895577, -0.33032942, 9.562088
780597016868728, 0.4211368, 6.367301, 7.9106717, -0.20092165, 0.27431345, 10.157902
780597026508728, 0.64606214, 5.8229337, 7.7216387, 0.1509366, 0.06103897, 9.691294
780597036148728, 0.29790643, 5.892326, 7.9429746, -0.15642285, -0.14272738, 9.892131
780597045788832, 0.6855437, 6.2608204, 7.7180495, 0.04468882, 0.4007783, 9.953569
780597055428832, 0.31345975, 5.4628143, 7.969296, 0.0030246973, -0.4703679, 9.655518
780597065068832, 0.634098, 6.5647087, 7.7742805, -0.09733963, 0.57187843, 10.178428
780597074708832, 0.36610186, 5.2486563, 7.972885, 0.1272471, -0.6104679, 9.532074
780597084348936, 0.5766702, 6.652047, 7.8927255, -0.14614046, 0.5386429, 10.323076
780597093988936, 0.52522457, 5.413761, 7.8867435, 0.20241034, -0.37061262, 9.571159
780597103628936, 0.41874397, 6.4199433, 7.96451, -0.2111361, 0.26798725, 10.232694
780597113268936, 0.6041877, 5.7894344, 7.8113694, 0.14034426, -0.03098917, 9.740607
780597122908936, 0.32303107, 5.956932, 8.050652, -0.13110888, -0.14962149, 10.018125
780597132549041, 0.6867401, 6.2344995, 7.8149586, 0.07369459, 0.32342386, 10.015196
780597142189041, 0.26919255, 5.487939, 8.026724, -0.0307194, -0.49528646, 9.714523
780597151829041, 0.66400826, 6.5575304, 7.816155, -0.05727458, 0.5552316, 10.208959
780597161469041, 0.38644084, 5.302495, 7.999206, 0.1308037, -0.56892776, 9.58709
780597171109145, 0.5479564, 6.649654, 7.9238324, -0.17871237, 0.51661634, 10.344393
780597180749145, 0.49052864, 5.3742795, 7.9190464, 0.18321157, -0.43311596, 9.571502
780597190389145, 0.42831525, 6.4462643, 7.9238324, -0.21514487, 0.31704998, 10.21656
780597200029145, 0.62452674, 5.7355957, 7.728817, 0.1570853, -0.012947559, 9.643488
780597209669249, 0.3074777, 6.0287166, 7.9537425, -0.1857673, -0.048666477, 9.983241
780597219309249, 0.68075806, 6.189036, 7.756335, 0.07458174, 0.31976557, 9.940851
780597228949249, 0.32542387, 5.5429735, 8.012366, -0.0037497282, -0.4330182, 9.738633
780597238589249, 0.6891329, 6.519245, 7.810173, -0.012110472, 0.53077936, 10.182947
780597248229249, 0.3589234, 5.282156, 8.02792, 0.10933757, -0.61447954, 9.596246
780597257869353, 0.60777694, 6.669993, 7.946564, -0.11207354, 0.5311971, 10.378408
780597267509353, 0.47976094, 5.345566, 7.9704924, 0.19658971, -0.49734354, 9.594164
780597277149353, 0.42711884, 6.4845495, 8.02792, -0.21139538, 0.29135132, 10.322294
780597286789353, 0.61734825, 5.6961145, 7.920243, 0.19606984, -0.15718985, 9.7721
780597296429353, 0.31106696, 6.0933228, 8.078169, -0.1820997, -0.07049513, 10.121465
780597306069457, 0.6556334, 6.1567326, 7.7754774, 0.066851735, 0.27413225, 9.935474
780597315709457, 0.31345975, 5.6279187, 7.9704924, -0.048874736, -0.34949255, 9.755816
780597325349457, 0.6843473, 6.4905314, 7.737192, -0.018377066, 0.54611206, 10.107469
780597334989457, 0.3684947, 5.300102, 7.928618, 0.10597372, -0.55430174, 9.527401
780597344629457, 0.62452674, 6.650851, 7.756335, -0.13277471, 0.6237197, 10.216551
780597354269561, 0.4354937, 5.328816, 7.789834, 0.13808393, -0.42915106, 9.437382
780597363909561, 0.4319045, 6.468996, 7.8029947, -0.24060762, 0.39886904, 10.134308
780597373549561, 0.60777694, 5.6004014, 7.806584, 0.21141028, -0.16539478, 9.623128
780597383189561, 0.35294133, 6.1387863, 8.02792, -0.15809631, -0.006486416, 10.110971
780597392829561, 0.64965135, 6.0777693, 7.798209, 0.089045286, 0.19798708, 9.90587
780597402469666, 0.29072794, 5.669793, 8.037491, -0.059505105, -0.3758583, 9.832981
780597412109666, 0.70229346, 6.5347986, 7.844869, -0.00915575, 0.51924086, 10.221012
780597421749666, 0.33379877, 5.3647084, 8.048259, 0.083434224, -0.58074427, 9.660319
780597431389666, 0.634098, 6.672386, 7.944171, -0.089548945, 0.5453496, 10.379171
780597441029666, 0.4761717, 5.319245, 7.975278, 0.2127912, -0.5167661, 9.581953
780597450669770, 0.48215377, 6.5252275, 7.87119, -0.19373512, 0.41460896, 10.225324
780597460309770, 0.56829536, 5.5944195, 7.7647095, 0.16327691, -0.16395521, 9.58424
780597469949770, 0.3397808, 6.175875, 7.895118, -0.20950007, 0.09801006, 10.026779
780597479589770, 0.6628119, 6.01436, 7.6402826, 0.093423486, 0.24568748, 9.742519
780597489229770, 0.28235307, 5.7152567, 7.8987074, -0.10951555, -0.26362753, 9.74946
780597498869770, 0.65922266, 6.4271216, 7.6749787, -0.03567052, 0.52098274, 10.018736
780597508509874, 0.33738798, 5.3240304, 7.946564, 0.083143115, -0.5595944, 9.55442
780597518149874, 0.64008003, 6.6592255, 7.838887, -0.09013951, 0.5882292, 10.288294
780597527789874, 0.43070808, 5.288138, 7.9716887, 0.17632997, -0.56526804, 9.557569
780597537429874, 0.50368917, 6.5778694, 7.952546, -0.17203844, 0.415699, 10.32292
780597547069874, 0.56829536, 5.5465627, 7.8891363, 0.20230746, -0.2748971, 9.654495
780597556709978, 0.3469593, 6.224928, 8.070991, -0.19241428, 0.040103912, 10.196685
780597566349978, 0.64247286, 5.9700923, 7.8556366, 0.12563539, 0.08573055, 9.886489
780597575989978, 0.30987054, 5.7726846, 8.060223, -0.08631933, -0.29928732, 9.914136
780597585629978, 0.6855437, 6.4175506, 7.797013, 0.011475205, 0.46631336, 10.110922
780597595269978, 0.31585258, 5.3790655, 8.029117, 0.043693423, -0.5690689, 9.652725
780597604909978, 0.613759, 6.6568327, 7.8496547, -0.12684202, 0.57700396, 10.293599
780597614549978, 0.4127619, 5.2893343, 7.9836526, 0.158584, -0.57154846, 9.567356
780597624190082, 0.52283174, 6.5659056, 7.9011, -0.17012405, 0.44795084, 10.275322
780597633830082, 0.53599226, 5.483153, 7.834101, 0.18404782, -0.29566956, 9.571004
780597643470082, 0.37088752, 6.257231, 7.9369926, -0.20110297, 0.15023947, 10.110556
780597653110082, 0.66041905, 5.8935223, 7.771888, 0.15542674, 0.08626461, 9.774477
780597662750082, 0.2739782, 5.7966127, 7.9968133, -0.1325289, -0.25491953, 9.8763485
780597672390082, 0.65922266, 6.344569, 7.7647095, 0.010370731, 0.42093706, 10.039997
780597682030186, 0.29790643, 5.4149575, 8.04467, 0.020326614, -0.5470772, 9.6864605
780597691670186, 0.62931234, 6.62094, 7.9477606, -0.07489884, 0.5073161, 10.350691
780597701310186, 0.36610186, 5.272585, 8.070991, 0.13689625, -0.64437914, 9.625024
780597710950186, 0.50129634, 6.597012, 7.9633136, -0.1914283, 0.44474983, 10.341749
780597720590186, 0.5838487, 5.5022955, 7.91785, 0.23239315, -0.29909945, 9.652203
780597730230186, 0.39481574, 6.346962, 7.987242, -0.19944274, 0.20123005, 10.205664
780597739870186, 0.62093747, 5.8731833, 7.749156, 0.121558666, 0.07669783, 9.7421055
780597749510291, 0.3278167, 5.881558, 7.9477606, -0.11761761, -0.13929796, 9.8911
780597759150291, 0.7082755, 6.302695, 7.753942, 0.06609821, 0.41989183, 10.008426
780597768790291, 0.2955136, 5.407779, 7.9597244, 9.938478E-4, -0.5016508, 9.614414
780597778430291, 0.6221339, 6.5682983, 7.806584, -0.085078835, 0.55007124, 10.206004
780597788070291, 0.38763726, 5.252246, 8.014759, 0.14048839, -0.61379814, 9.569549
780597797710291, 0.52522457, 6.606583, 7.881958, -0.1770209, 0.49817324, 10.284385
780597807350395, 0.50368917, 5.4029937, 7.8628154, 0.18313515, -0.36962605, 9.5446205
780597816990395, 0.4235296, 6.381658, 7.978867, -0.18152297, 0.25045156, 10.221134
780597826630395, 0.62452674, 5.808577, 7.8520474, 0.16768444, -0.026578426, 9.785471
780597836270395, 0.26799613, 5.918647, 8.031509, -0.16383624, -0.1822586, 9.977339
780597845910395, 0.6723832, 6.253642, 7.7910304, 0.055835724, 0.35652876, 10.0065
780597855550395, 0.30149564, 5.501099, 7.9920278, -0.0061957836, -0.45144892, 9.696478
780597865190395, 0.61734825, 6.556334, 7.7742805, -0.09510398, 0.56950235, 10.1721525
780597874830395, 0.36251262, 5.261817, 7.9944205, 0.12289202, -0.6075165, 9.557444
780597884470499, 0.57547385, 6.6221366, 7.925029, -0.13128734, 0.5167937, 10.3298435
780597894110499, 0.4941179, 5.369494, 7.8891363, 0.19363081, -0.4170704, 9.54477
780597903750499, 0.4139583, 6.4163537, 7.995617, -0.20388901, 0.26398802, 10.254735
780597913390499, 0.61016977, 5.7810597, 7.865208, 0.16174793, -0.05055809, 9.778842
780597923030499, 0.28713873, 5.99761, 8.037491, -0.17467248, -0.11275053, 10.030544
780597932670499, 0.65682983, 6.212964, 7.783852, 0.04711914, 0.3267622, 9.9755535
780597942310499, 0.2835495, 5.521438, 8.031509, -0.017070293, -0.46169662, 9.739526
780597951950603, 0.654437, 6.558727, 7.820941, -0.057551026, 0.5542803, 10.212824
780597961590603, 0.3469593, 5.2929235, 7.9740815, 0.11141372, -0.5712967, 9.559425
780597971230603, 0.5563313, 6.643672, 7.856833, -0.16822577, 0.5573344, 10.287798
780597980870603, 0.51565325, 5.3383875, 7.881958, 0.22831905, -0.4130516, 9.521913
780597990510603, 0.45702913, 6.4175506, 7.8963146, -0.1779753, 0.34332085, 10.178216
780598000150603, 0.59342, 5.6793647, 7.8221374, 0.1750114, -0.10744524, 9.68251
780598009790603, 0.32422748, 6.0311093, 8.056634, -0.15052879, -0.08346462, 10.067726
780598019430603, 0.6867401, 6.181857, 7.8317084, 0.098262906, 0.28809452, 9.996497
780598029070707, 0.276371, 5.5800624, 8.04108, -0.05434835, -0.4250245, 9.782068
780598038710707, 0.6664011, 6.532406, 7.8352976, -0.03169179, 0.5336108, 10.208946
780598048350707, 0.34337005, 5.312066, 8.068598, 0.10401964, -0.60486174, 9.646841
780598057990707, 0.5563313, 6.6484575, 7.9537425, -0.1543243, 0.51919127, 10.367264
780598067630707, 0.4833502, 5.3036914, 7.9800634, 0.22148466, -0.50523806, 9.5780945
780598077270707, 0.44027936, 6.4642105, 7.962117, -0.1982497, 0.3281126, 10.25808
780598086910707, 0.5694918, 5.6279187, 7.8460655, 0.17058635, -0.16611624, 9.669636
780598096550707, 0.34097722, 6.0729837, 7.9884386, -0.16058493, -0.004632473, 10.03926
780598106190811, 0.65682983, 6.0921264, 7.743174, 0.08082509, 0.2684741, 9.8703375
780598115830811, 0.28235307, 5.619544, 7.940582, -0.075400114, -0.32941103, 9.726131
780598125470811, 0.701097, 6.4737816, 7.7300134, -0.0030466318, 0.56639576, 10.091269
780598135110811, 0.36490545, 5.3012986, 7.9513497, 0.10241842, -0.54677343, 9.547326
780598144750811, 0.60658056, 6.641279, 7.8580294, -0.11736095, 0.5772219, 10.289616
780598154390811, 0.4426722, 5.2941203, 7.960921, 0.16876459, -0.52249384, 9.555022
780598164030811, 0.46181476, 6.4941206, 8.008778, -0.18415952, 0.3402853, 10.313955
780598173670916, 0.5623133, 5.6075797, 7.9190464, 0.17727959, -0.22130728, 9.715556
780598183310916, 0.32542387, 6.1196437, 8.045866, -0.18462586, -0.0055446625, 10.112257
780598192950916, 0.65682983, 6.0777693, 7.8197446, 0.096785665, 0.21311617, 9.922918
780598202590916, 0.2727818, 5.6685967, 8.084151, -0.082849026, -0.3774252, 9.86973
780598212230916, 0.6975078, 6.4498534, 7.838887, 0.016051412, 0.48761463, 10.163526
780598221870916, 0.3397808, 5.3407803, 8.063812, 0.07917297, -0.5795107, 9.660349
780598231510916, 0.6053841, 6.6424756, 7.895118, -0.12000191, 0.560689, 10.31955
780598241150916, 0.44147578, 5.267799, 7.940582, 0.177217, -0.5332842, 9.522689
780598250791020, 0.485743, 6.546763, 7.897511, -0.1952089, 0.4463296, 10.258139
780598260431020, 0.57906306, 5.541777, 7.8029947, 0.19566894, -0.20055628, 9.584092
780598270071020, 0.3505485, 6.157929, 7.9704924, -0.18761158, 0.072815895, 10.07627
780598279711020, 0.6412765, 5.979664, 7.7671022, 0.10154462, 0.16887522, 9.821236
780598289351020, 0.2632105, 5.7200427, 8.0614195, -0.10696828, -0.3314042, 9.881974
780598298991020, 0.65922266, 6.4259253, 7.8089767, -0.019845128, 0.47365904, 10.123362
780598308631020, 0.31226337, 5.3336015, 8.030313, 0.057337165, -0.57512045, 9.6279125
780598318271020, 0.6029913, 6.63769, 7.8699937, -0.13135076, 0.5795584, 10.295931
780598327911020, 0.40797627, 5.265406, 7.989635, 0.16383421, -0.56320167, 9.55935
780598337551124, 0.49052864, 6.5611196, 8.001599, -0.18577778, 0.39523506, 10.350063
780598347191124, 0.55393845, 5.4963136, 7.946564, 0.21414363, -0.3212762, 9.6703205
780598356831124, 0.3792624, 6.227321, 8.085348, -0.16249144, 0.07513666, 10.210983
780598366471124, 0.6628119, 5.948557, 7.8520474, 0.14946866, 0.1083312, 9.871435
780598376111124, 0.29910284, 5.7810597, 8.019546, -0.1003145, -0.24629736, 9.886987
780598385751124, 0.7082755, 6.3744793, 7.746763, 0.036950827, 0.49714088, 10.044871
780598395391124, 0.317049, 5.3790655, 7.999206, 0.03651297, -0.52869844, 9.63023
780598405031228, 0.62931234, 6.5898337, 7.834101, -0.085541606, 0.5776353, 10.239829
780598414671228, 0.41515473, 5.239085, 7.975278, 0.16439557, -0.5841627, 9.531902
780598424311228, 0.4941179, 6.582655, 7.90469, -0.19531095, 0.48450518, 10.285268
780598433951228, 0.4977071, 5.456832, 7.8592257, 0.15180457, -0.31777954, 9.5743475
780598443591228, 0.35533416, 6.2883377, 8.014759, -0.21096349, 0.14539623, 10.1902
780598453231228, 0.6364908, 5.898308, 7.8496547, 0.1430161, 0.058796883, 9.838106
780598462871228, 0.28713873, 5.812166, 8.045866, -0.118347645, -0.243155, 9.926054
780598472511228, 0.6987042, 6.343373, 7.749156, 0.048167825, 0.46835756, 10.027678
780598482151332, 0.33140594, 5.447261, 8.053044, 0.04060507, -0.50437117, 9.714832
780598491791332, 0.6580262, 6.611369, 7.9226356, -0.047434688, 0.5521388, 10.324934
780598501431332, 0.3924229, 5.245067, 8.04467, 0.16381407, -0.62589216, 9.589728
780598511071332, 0.5096712, 6.6185474, 7.9477606, -0.18893743, 0.4781289, 10.342511
780598520711332, 0.5240282, 5.432904, 7.8963146, 0.1924814, -0.34600925, 9.590936
780598530351332, 0.3804588, 6.323034, 7.9704924, -0.21292901, 0.19994783, 10.176884
780598539991332, 0.63529444, 5.844469, 7.816155, 0.15130627, 0.037366867, 9.779029
780598549631436, 0.30987054, 5.8971114, 7.993224, -0.1332016, -0.14826393, 9.935988
780598559271436, 0.6723832, 6.2727847, 7.716853, 0.02944374, 0.41924763, 9.95857
780598568912247, 0.28594232, 5.4412785, 7.995617, -0.0042635202, -0.48895836, 9.663336
780598578551361, 0.65084773, 6.5886374, 7.8783684, -0.05540228, 0.5472717, 10.276178
780598588191361, 0.38644084, 5.24746, 8.059027, 0.16027665, -0.6270814, 9.60282
780598597831361, 0.5288138, 6.597012, 7.9166536, -0.1685983, 0.49679995, 10.30526
780598607471361, 0.51445687, 5.3910294, 7.9238324, 0.20430994, -0.39775753, 9.587231
780598617111466, 0.40797627, 6.384051, 7.975278, -0.19846249, 0.2542777, 10.218786
780598626751466, 0.62452674, 5.791827, 7.838887, 0.16504955, -0.021979332, 9.765025
780598636391466, 0.30508488, 5.9449677, 8.080562, -0.14042544, -0.16381454, 10.034174
780598646031466, 0.6975078, 6.2416778, 7.8077803, 0.07781625, 0.35357475, 10.013762
780598655671466, 0.30149564, 5.5130634, 8.002795, -0.018636703, -0.4415431, 9.712579
780598665311466, 0.6556334, 6.5898337, 7.7706914, -0.084074736, 0.61666155, 10.190783
780598674951466, 0.38285163, 5.288138, 7.975278, 0.12564325, -0.5535798, 9.560009
780598684591466, 0.54675996, 6.6532435, 7.8376904, -0.19061077, 0.5737066, 10.277575
780598694231570, 0.47856453, 5.3503513, 7.847262, 0.17168653, -0.39871502, 9.499809
780598703871570, 0.41635114, 6.385247, 7.9310107, -0.20702088, 0.2750535, 10.184653
780598713511570, 0.60777694, 5.6961145, 7.850851, 0.1825931, -0.10344267, 9.716322
780598723151570, 0.3182454, 5.98086, 8.062616, -0.143394, -0.12369871, 10.042007
780598732791570, 0.6771688, 6.1770716, 7.795816, 0.07630813, 0.30544853, 9.964457
780598742431570, 0.29072794, 5.515456, 8.070991, -0.021041632, -0.476573, 9.768221
780598752071570, 0.6652047, 6.541977, 7.8699937, -0.030153394, 0.5317006, 10.241734
780598761711674, 0.3361916, 5.261817, 8.07458, 0.09618914, -0.6465759, 9.621396
780598771351674, 0.55034924, 6.6305118, 7.9800634, -0.14567566, 0.49506998, 10.376978
780598780991674, 0.47976094, 5.346762, 8.019546, 0.19892311, -0.5068536, 9.635076
780598790631674, 0.4534399, 6.489335, 8.017152, -0.18028986, 0.33812046, 10.317218
780598800271674, 0.567099, 5.709275, 7.867601, 0.13677645, -0.11370516, 9.735755
780598809911674, 0.33140594, 6.0801625, 8.048259, -0.16601348, -0.03172922, 10.090794
780598819551674, 0.6999006, 6.148358, 7.7790666, 0.10973334, 0.30410957, 9.934864
780598829191778, 0.30388847, 5.5836515, 7.9800634, -0.04101038, -0.3697362, 9.737175
780598838831778, 0.6723832, 6.503692, 7.737192, -0.042765856, 0.5734401, 10.113535
780598848471778, 0.3385844, 5.2749777, 7.960921, 0.0885365, -0.5801358, 9.537919
780598858111778, 0.58624154, 6.6089764, 7.8424764, -0.13457859, 0.5548606, 10.256739
780598867751778, 0.44506502, 5.2630134, 7.864012, 0.18178844, -0.49069786, 9.45866
780598877391778, 0.4546363, 6.474978, 7.881958, -0.207793, 0.38451767, 10.201288
780598887031882, 0.5886344, 5.6243296, 7.8029947, 0.18069494, -0.1382575, 9.634029
780598896671882, 0.31944183, 6.0957155, 8.086544, -0.17257488, -0.054127216, 10.130118
780598906311882, 0.6903293, 6.1196437, 7.91785, 0.13054812, 0.20141792, 10.028029
780598915951882, 0.28713873, 5.6889358, 8.142776, -0.06027901, -0.39700842, 9.92925
780598925591882, 0.66041905, 6.501299, 7.844869, -0.034032464, 0.5124798, 10.197117
780598935231882, 0.317049, 5.334798, 8.043473, 0.06591582, -0.58981895, 9.638768
780598944871986, 0.5982057, 6.6711893, 7.926225, -0.1311208, 0.56864357, 10.360846
780598954511986, 0.465404, 5.304888, 7.9800634, 0.20443797, -0.5189729, 9.577512
780598964151986, 0.45702913, 6.509674, 7.9513497, -0.20221877, 0.38419962, 10.27717
780598973791986, 0.56590253, 5.5429735, 7.818548, 0.1900518, -0.21363401, 9.596496
780598983431986, 0.3589234, 6.1471615, 7.9357963, -0.1771636, 0.090438366, 10.042596
780598993071986, 0.6723832, 6.0370917, 7.737192, 0.11611426, 0.23380613, 9.833341
780599002712091, 0.26799613, 5.6793647, 7.9633136, -0.10538006, -0.3051343, 9.779426
780599012352091, 0.67477596, 6.4366927, 7.735996, -0.006207466, 0.5254574, 10.072529
780599021992091, 0.33499518, 5.3479586, 8.01117, 0.07109499, -0.5495095, 9.622096
780599031632091, 0.59700924, 6.623333, 7.88794, -0.12161231, 0.55361795, 10.301615
780599041272091, 0.42592242, 5.2773705, 7.984849, 0.16820908, -0.55148077, 9.563338
780599050912091, 0.49651068, 6.5647087, 7.9776707, -0.1771307, 0.414299, 10.333545
780599060552195, 0.55393845, 5.538188, 7.911868, 0.18728256, -0.27034616, 9.667878
780599070192195, 0.32183465, 6.202196, 8.021938, -0.21675467, 0.06270409, 10.142552
780599079832195, 0.68195444, 5.9724855, 7.8017983, 0.15296233, 0.15713787, 9.846605
780599089472195, 0.28953153, 5.761917, 8.043473, -0.10053599, -0.27879047, 9.894097
780599099112195, 0.6520442, 6.3804617, 7.780263, -0.011533618, 0.4565463, 10.072704
780599108752195, 0.3074777, 5.345566, 8.05783, 0.051759124, -0.5822053, 9.656945
780599118392299, 0.65922266, 6.6125655, 7.9369926, -0.05072117, 0.5378275, 10.337534
780599128032299, 0.4139583, 5.255835, 8.042277, 0.17268717, -0.5974989, 9.596175
780599137672299, 0.48215377, 6.567102, 7.966903, -0.19675744, 0.4233756, 10.325353
780599147312299, 0.5706882, 5.511867, 7.9477606, 0.21771681, -0.29710436, 9.681818
780599156952299, 0.38285163, 6.253642, 8.031509, -0.1769718, 0.1300931, 10.183885
780599166592403, 0.6161518, 5.9377894, 7.832905, 0.10503471, 0.09797907, 9.847375
780599176232403, 0.3278167, 5.828916, 8.070991, -0.08262956, -0.2282567, 9.958198
780599185872403, 0.7106683, 6.3385873, 7.733603, 0.047644615, 0.4821005, 10.012825
780599195512403, 0.27876383, 5.386244, 7.9884386, 2.632141E-4, -0.5286827, 9.624187
780599205152403, 0.61854464, 6.6257257, 7.838887, -0.11064315, 0.5995765, 10.264465
780599214792507, 0.40438703, 5.2462635, 7.9908314, 0.15699196, -0.58744526, 9.548323
780599224432507, 0.506082, 6.5682983, 7.940582, -0.1780175, 0.46126604, 10.305681
780599234072507, 0.53240305, 5.4233327, 7.9513497, 0.21316612, -0.37617874, 9.629799
780599243712507, 0.40079778, 6.279963, 8.063812, -0.16321898, 0.13137197, 10.226423
780599253352507, 0.6376872, 5.8432727, 7.8520474, 0.15605915, 0.024721622, 9.807148
780599262992507, 0.26799613, 5.849255, 8.019546, -0.15836954, -0.20354414, 9.926339
780599272632611, 0.66759753, 6.3290157, 7.8077803, 0.014104009, 0.4205103, 10.064121
780599282272611, 0.31226337, 5.4388857, 8.088937, 0.024266124, -0.52396536, 9.738314
780599291912611, 0.6580262, 6.599405, 7.9094753, -0.063756704, 0.55062246, 10.307167
780599301552611, 0.38524446, 5.2366924, 8.031509, 0.15532005, -0.6154506, 9.574634
780599311192716, 0.5180461, 6.617351, 7.932207, -0.19044566, 0.51220655, 10.328552
780599320832716, 0.5072784, 5.400601, 7.8927255, 0.18294299, -0.36252642, 9.568388
780599330472716, 0.40797627, 6.3457656, 7.9298143, -0.20072281, 0.27255535, 10.158867
780599340112716, 0.6233303, 5.770292, 7.769495, 0.15854383, 0.016145706, 9.696621
780599349752716, 0.25722843, 5.8875403, 8.026724, -0.1751355, -0.17624521, 9.954691
780599359392820, 0.67836523, 6.259624, 7.759924, 0.049837947, 0.40026665, 9.984828
780599369032820, 0.28594232, 5.4592247, 8.002795, -0.015832186, -0.46675587, 9.680471
780599378672820, 0.65084773, 6.5850477, 7.8376904, -0.058870673, 0.58115673, 10.240832
780599388312820, 0.3912265, 5.278567, 8.051848, 0.14478016, -0.59795856, 9.616137
780599397952820, 0.53599226, 6.62094, 7.9884386, -0.15269232, 0.47873974, 10.377225
780599407592924, 0.50129634, 5.3647084, 8.007581, 0.20469368, -0.46849728, 9.638017
780599417232924, 0.424726, 6.4055862, 8.054241, -0.18472767, 0.25587845, 10.29481
780599426872924, 0.6113662, 5.736792, 7.8963146, 0.1683265, -0.088652134, 9.777534
780599436512924, 0.31585258, 5.9377894, 8.072187, -0.14279234, -0.14400053, 10.023782
780599446153028, 0.72263247, 6.2261243, 7.812566, 0.106782794, 0.36236334, 10.009011
780599455793028, 0.3062813, 5.4927244, 8.02792, -0.020191073, -0.45522928, 9.7213
780599465433028, 0.66400826, 6.5276203, 7.830512, -0.035513878, 0.5563173, 10.2008295
780599475073028, 0.3900301, 5.2642097, 8.014759, 0.13455665, -0.58708286, 9.577976
780599484713028, 0.5802595, 6.606583, 7.880761, -0.13825822, 0.5562339, 10.284042
780599494353132, 0.45583272, 5.282156, 7.905886, 0.17739439, -0.48413658, 9.505059
780599503993132, 0.3924229, 6.4031935, 7.975278, -0.23656034, 0.28274632, 10.22859
780599513633132, 0.58265233, 5.716453, 7.891529, 0.14375448, -0.10566664, 9.760213
780599523273132, 0.28115666, 5.99761, 8.094919, -0.19100142, -0.12860346, 10.075964
780599532913236, 0.6628119, 6.1627145, 7.864012, 0.07268512, 0.2622795, 10.009344
780599542553236, 0.30149564, 5.575277, 8.063812, -0.042898893, -0.4127941, 9.79936
780599552193236, 0.66759753, 6.533602, 7.812566, -0.045356274, 0.57098484, 10.190279
780599561833236, 0.35294133, 5.2905307, 8.048259, 0.08624911, -0.5938158, 9.6191845
780599571473341, 0.56829536, 6.641279, 7.884351, -0.15764844, 0.56432104, 10.307726
780599581113341, 0.48215377, 5.302495, 7.861619, 0.16967475, -0.43283272, 9.483557
780599590753341, 0.47976094, 6.45105, 7.895118, -0.17777324, 0.38639116, 10.197952
780599600393341, 0.6364908, 5.662615, 7.899904, 0.21290302, -0.14146948, 9.73722
780599610033445, 0.36490545, 6.04427, 8.105687, -0.12264323, -0.075110435, 10.116713
780599619673445, 0.715454, 6.0729837, 7.8927255, 0.15139294, 0.19671345, 9.981308
780599629313445, 0.32662028, 5.6004014, 8.146365, -0.014216304, -0.44038343, 9.881311
780599638953445, 0.69152576, 6.530013, 7.893922, -0.029885054, 0.5257077, 10.25456
780599648593549, 0.3397808, 5.339584, 8.1344, 0.0757314, -0.6232052, 9.716016
780599658233549, 0.57427746, 6.660422, 7.9764743, -0.16527283, 0.5202327, 10.393132
780599667873549, 0.44147578, 5.3180485, 7.9537425, 0.14326823, -0.48898697, 9.564463
780599677513549, 0.46899325, 6.5084777, 7.897511, -0.23359334, 0.4109578, 10.2336445
780599687153653, 0.5982057, 5.6039906, 7.746763, 0.16232145, -0.110803604, 9.577907
780599696793653, 0.44626144, 6.2548385, 7.8903327, -0.16963434, 0.22489452, 10.074729
780599706433653, 0.5407779, 5.8863435, 7.8376904, 0.034947276, 0.019382, 9.816785
780599716073653, 0.5383851, 5.966503, 7.9238324, 0.025007129, 0.027971268, 9.933515
780599725713757, 0.5276174, 5.9234324, 7.9034934, 0.027315736, 0.004839897, 9.8909
780599735353757, 0.5288138, 5.946164, 7.9166536, 0.025288582, 0.015617371, 9.915091
780599744993757, 0.5623133, 5.98086, 7.8759756, 0.03828776, 0.07650232, 9.905078
780599754633757, 0.5276174, 5.9916277, 7.884351, 0.0060067177, 0.067793846, 9.916468
780599764273861, 0.51086766, 5.9676995, 7.879565, -0.003537774, 0.0461998, 9.897465
780599773913861, 0.53599226, 5.9748783, 7.8903327, 0.018466473, 0.053496838, 9.91164
780599783553861, 0.51565325, 5.979664, 7.948957, 0.007621169, 0.016013622, 9.960317
780599793193861, 0.506082, 5.956932, 7.975278, 0.010214686, -0.017350197, 9.967237
780599802833966, 0.47018966, 5.9473605, 7.944171, -0.025042534, -0.017329216, 9.934843
780599812473966, 0.4534399, 5.9437714, 7.954939, -0.037727356, -0.032015324, 9.940454
780599822113966, 0.4546363, 5.9377894, 7.9740815, -0.02985382, -0.043672085, 9.952246
780599831754070, 0.47138608, 5.9353967, 8.030313, -0.0036087036, -0.07184458, 9.996593
780599841394070, 0.4642076, 5.933004, 8.038688, -0.00829196, -0.078201294, 10.001516
780599851034070, 0.44985065, 5.9353967, 8.04467, -0.021493077, -0.084955215, 10.007014
780599860674070, 0.47736812, 5.9294147, 8.009974, -0.0027501583, -0.058960915, 9.977076
780599870314174, 0.47018966, 5.9497533, 8.015956, -0.016571522, -0.05038929, 9.993667
780599879954174, 0.4761717, 5.9497533, 8.033902, -0.007909179, -0.058568, 10.008316
780599889594174, 0.45583272, 5.973682, 8.054241, -0.031673074, -0.060512066, 10.03787
780599899234278, 0.47138608, 5.948557, 8.033902, -0.010811806, -0.061677456, 10.007358
780599908874278, 0.46181476, 5.9473605, 8.003992, -0.024756193, -0.04873371, 9.982248
780599918514278, 0.47736812, 5.966503, 7.975278, -0.014798284, -0.0115094185, 9.971546
780599928154278, 0.4989035, 5.9748783, 7.9429746, -0.002923131, 0.02079773, 9.951808
780599937794382, 0.47258246, 5.9449677, 7.8580294, -0.025395513, 0.03767824, 9.864711
780599947434382, 0.49651068, 5.9342003, 7.800602, -0.0064399242, 0.07026625, 9.813545
780599957074382, 0.55393845, 5.968896, 7.789834, 0.035248995, 0.121985435, 9.828527
780599966714486, 0.54317075, 5.979664, 7.7383885, 0.016071916, 0.15306759, 9.7933855
780599976354486, 0.552742, 5.9473605, 7.739585, 0.035054207, 0.13175678, 9.77544
780599985994486, 0.5587241, 5.98086, 7.818548, 0.04010105, 0.108820915, 9.858961
780599995634591, 0.5694918, 5.9964137, 7.9034934, 0.060132623, 0.07507801, 9.936663
780600005274591, 0.55034924, 5.99761, 7.9011, 0.033734202, 0.06780863, 9.93458
780600014914591, 0.5180461, 5.9844494, 7.98126, 0.017056704, -7.510185E-4, 9.989105
780600024554695, 0.5132605, 6.003592, 8.050652, 0.01866746, -0.028294563, 10.055765
780600034194695, 0.51206404, 5.9880385, 8.049456, 0.01587832, -0.039839268, 10.04543
780600043834695, 0.47377887, 5.959325, 8.042277, -0.013594031, -0.06941366, 10.02054
780600053474695, 0.44985065, 5.9653068, 8.012366, -0.042042255, -0.054442883, 9.999027
780600063114799, 0.44865423, 5.9449677, 7.9716887, -0.041463733, -0.04438114, 9.954299
780600072754799, 0.42711884, 5.9473605, 7.9334035, -0.06919062, -0.028139114, 9.924053
780600082394799, 0.43070808, 5.933004, 7.8723865, -0.06861651, -7.8201294E-4, 9.866905
780600092034903, 0.43669012, 5.9150577, 7.8089767, -0.06476843, 0.025510788, 9.805809
780600101674903, 0.44865423, 5.8887367, 7.789834, -0.045493603, 0.022427082, 9.775352
780600111314903, 0.49292147, 5.916254, 7.8376904, -0.0026404858, 0.03231716, 9.832263
780600120955007, 0.4881358, 5.956932, 7.9154572, -0.0071452856, 0.016163826, 9.918542
780600130595007, 0.485743, 5.938986, 7.9573317, 0.004207015, -0.02180481, 9.941133
780600140235007, 0.5407779, 5.9521465, 7.975278, 0.051711798, -0.0019435883, 9.966086
780600149875111, 0.54675996, 6.0023956, 8.049456, 0.05472672, -0.0052428246, 10.055765
780600159515111, 0.5276174, 6.0215383, 8.088937, 0.036293864, -0.020503044, 10.097845
780600169155111, 0.5288138, 6.0346985, 8.062616, 0.027319789, 0.0052189827, 10.084752
780600178795216, 0.51445687, 6.0227346, 8.032705, 0.0126514435, 0.010091782, 10.052966
780600188435216, 0.4953143, 5.985646, 8.030313, 0.00714612, -0.022414207, 10.027893
780600198075216, 0.485743, 5.979664, 7.9573317, -0.011288166, 0.011976242, 9.9655
780600207715320, 0.48095736, 5.95095, 7.926225, -0.010125041, 0.006875038, 9.923206
780600217355320, 0.48454657, 5.928218, 7.8987074, -0.0045542717, 0.0072484016, 9.887773
780600226995320, 0.47377887, 5.9150577, 7.8903327, -0.00887084, -0.0012955666, 9.872672
780600236635424, 0.48933223, 5.899504, 7.884351, 0.010302067, -0.0038166046, 9.859334
780600246275424, 0.485743, 5.9246287, 7.87119, -0.0032093525, 0.02029419, 9.863691
780600255915424, 0.4546363, 5.936593, 7.867601, -0.036011577, 0.018899918, 9.866476
780600265555528, 0.44506502, 5.9473605, 7.8903327, -0.04363382, 0.009978771, 9.890629
780600275195528, 0.46660042, 5.985646, 7.932207, -0.027994514, 0.022445679, 9.94808
780600284835528, 0.4761717, 5.9880385, 7.9980097, -0.0077296495, -0.010336876, 10.002567
780600294475632, 0.4761717, 5.986842, 8.013563, -0.0046470165, -0.020109177, 10.01428
780600304115632, 0.48933223, 5.973682, 8.003992, 0.009991646, -0.01961565, 9.999386
780600313755632, 0.47976094, 5.9676995, 7.9633136, -0.0037533045, -0.00462389, 9.962828
780600323395736, 0.4749753, 5.9724855, 7.9537425, -0.011454344, 0.0026550293, 9.957815
780600333035736, 0.485743, 5.985646, 7.941778, -0.0070352554, 0.022759914, 9.956665
780600342675736, 0.506082, 5.959325, 7.975278, 0.026986122, -0.008905888, 9.968645
780600352315841, 0.485743, 5.9377894, 7.9334035, 0.008438468, -0.008211613, 9.921293
780600361955841, 0.4749753, 5.930611, 7.8963146, -0.0050958395, 0.003938675, 9.886835
780600371595841, 0.50129634, 5.9784675, 7.8987074, 0.006843686, 0.046733856, 9.918706
780600381235945, 0.4642076, 5.9700923, 7.920243, -0.02101624, 0.014657974, 9.929103
780600390875945, 0.44745782, 5.9497533, 7.8903327, -0.034561872, 0.009568214, 9.892212
780600400516049, 0.4749753, 5.9712887, 7.921439, -0.0078498125, 0.018084526, 9.931299
780600410156049, 0.4642076, 5.9988065, 7.9357963, -0.023672938, 0.026277542, 9.958756
780600419796049, 0.47377887, 5.9820566, 7.948957, -0.006696701, 0.009552956, 9.959681
780600429436153, 0.47736812, 5.9653068, 7.9393854, 1.3542175E-4, 0.0035800934, 9.9421625
780600439076153, 0.4989035, 5.9581285, 7.911868, 0.017460465, 0.021173954, 9.916911
780600448716153, 0.5072784, 5.9641104, 7.9034934, 0.021462202, 0.032196045, 9.914214
780600458356257, 0.4977071, 5.9964137, 7.9154572, 0.0048297644, 0.04576826, 9.942687
780600467996257, 0.48215377, 5.98086, 7.8891363, -0.009949684, 0.04303789, 9.911593
780600477636257, 0.48215377, 5.973682, 7.8723865, -0.01063776, 0.04624939, 9.893917
780600487276361, 0.47976094, 5.989235, 7.9501534, -0.0037267208, 0.010498047, 9.965235
780600496916361, 0.45104706, 5.98086, 7.941778, -0.029491544, -7.1430206E-4, 9.952139
780600506556361, 0.46181476, 5.9724855, 7.9274216, -0.018791318, 0.004917145, 9.936171
780600516196466, 0.47377887, 5.948557, 7.944171, 0.0029144287, -0.01811552, 9.9357605
780600525836466, 0.46660042, 5.930611, 7.926225, -9.112358E-4, -0.022964, 9.9103155
780600535476570, 0.4761717, 5.9174504, 7.8963146, 0.007320881, -0.010825634, 9.878997
780600545116570, 0.4546363, 5.940182, 7.944171, -0.011251688, -0.028172493, 9.929824
780600554756570, 0.47856453, 5.9724855, 7.975278, 0.0065313578, -0.012383461, 9.975193
780600564396674, 0.46779683, 5.9724855, 7.928618, -0.01199162, 0.010476589, 9.937412
780600574036674, 0.46061835, 5.983253, 7.9130645, -0.024923205, 0.024834156, 9.931106
780600583676674, 0.47976094, 5.9916277, 7.9070826, -0.011046171, 0.039936066, 9.93227
780600593316778, 0.51086766, 6.017949, 7.9166536, 0.011246562, 0.06511259, 9.957193
780600602956778, 0.5024927, 5.9952173, 7.962117, 0.018459678, 0.017400742, 9.979469
780600612596882, 0.48933223, 5.9641104, 7.948957, 0.013664126, -0.002679348, 9.949663
780600622236882, 0.4941179, 5.959325, 7.9166536, 0.013811946, 0.014128208, 9.9212265
780600631876882, 0.49651068, 5.973682, 7.944171, 0.01644957, 0.009792805, 9.951929
780600641516986, 0.4534399, 5.956932, 7.920243, -0.022639036, -0.004175663, 9.920705
780600651156986, 0.45583272, 5.95095, 7.893922, -0.022482514, 0.008117199, 9.896213
780600660796986, 0.46301118, 5.9545393, 7.8903327, -0.017534375, 0.015386581, 9.8958435
780600670437091, 0.44147578, 5.956932, 7.908279, -0.035114527, -3.6239624E-4, 9.91058
