timestamp_acc,device_acc_x,device_acc_y,device_acc_z,earth_acc_x,earth_acc_y,earth_acc_z
780688804003369, -6.7130637, 0.7513463, 7.02772, 0.03345847, 0.03522539, 9.747627
780688813643473, -6.707082, 0.7848458, 7.031309, 0.0632031, 0.0498209, 9.748526
780688823283473, -6.7022963, 0.7609176, 7.076773, 0.06389356, 0.006878853, 9.776317
780688832923473, -6.710671, 0.75493556, 7.1629148, 0.0882678, -0.04092312, 9.843826
780688842563473, -6.7238317, 0.7286145, 7.198807, 0.07485509, -0.07084942, 9.876892
780688852203577, -6.748956, 0.68195444, 7.2083783, 0.029295683, -0.08955145, 9.897741
780688861843577, -6.768099, 0.7106683, 7.2059855, 0.03858018, -0.054906845, 9.911303
780688871483577, -6.754938, 0.73459655, 7.135397, 0.0344882, -0.005130291, 9.852995
780688881123577, -6.7118673, 0.75493556, 7.0576305, 0.041472673, 0.028954983, 9.768658
780688890763577, -6.678368, 0.75613195, 7.0205417, 0.04203391, 0.033383846, 9.718923
780688900403682, -6.6891356, 0.75613195, 7.0205417, 0.03699398, 0.039499283, 9.726322
780688910043682, -6.73101, 0.7190432, 7.015756, -0.014533997, 0.041991234, 9.748968
780688919683682, -6.8111696, 0.66759753, 7.042077, -0.08131361, 0.038701534, 9.819391
780688929323682, -6.875776, 0.6149554, 7.0695944, -0.14328814, 0.024564266, 9.879904
780688938963786, -6.8949184, 0.5838487, 7.0731835, -0.17205524, 0.013870239, 9.893478
780688948603786, -6.8985076, 0.6257231, 7.0600233, -0.14558768, 0.04940152, 9.88945
780688958243786, -6.855437, 0.67118675, 7.066005, -0.08673525, 0.052263975, 9.867405
780688967883786, -6.7525454, 0.71306115, 7.0600233, -0.0050354004, 0.026313782, 9.795333
780688977523786, -6.658029, 0.7322037, 7.092326, 0.06996083, -0.02791977, 9.755044
780688987163890, -6.6424756, 0.7286145, 7.149754, 0.099915266, -0.06878281, 9.785582
780688996803890, -6.6556363, 0.7393822, 7.1772714, 0.11098647, -0.06878805, 9.815312
780689006443890, -6.7429743, 0.6759724, 7.1688967, 0.012703896, -0.05878234, 9.864792
780689016083890, -6.8099732, 0.67118675, 7.204789, -0.010461092, -0.047528982, 9.936441
780689025723994, -6.835098, 0.68195444, 7.190432, -0.02112794, -0.018134356, 9.944102
780689035363994, -6.8219376, 0.7046863, 7.133004, -0.02123022, 0.022778988, 9.895161
780689045003994, -6.8135624, 0.6831509, 7.1138616, -0.040872097, 0.015590906, 9.874029
780689054643994, -6.8075805, 0.70588267, 7.119844, -0.017710924, 0.022970676, 9.875868
780689064283994, -6.7669024, 0.7082755, 7.085148, -0.0077371597, 0.021348476, 9.823006
780689073924098, -6.7094746, 0.6795616, 7.1018977, 0.008407354, -0.040313244, 9.793575
780689083564098, -6.6795645, 0.67118675, 7.146165, 0.0341959, -0.08659434, 9.804391
780689093204098, -6.652047, 0.7118647, 7.094719, 0.06021309, -0.048312187, 9.751183
780689102844098, -6.6017976, 0.7788638, 6.983453, 0.096655846, 0.027965069, 9.640999
780689112484202, -6.556334, 0.802792, 6.927222, 0.117510796, 0.05008459, 9.570793
780689122124202, -6.5886374, 0.8422736, 6.937989, 0.14782596, 0.08392596, 9.6034565
780689131764202, -6.6448684, 0.86261255, 6.8422766, 0.09962058, 0.18170953, 9.57456
780689141404202, -6.6927247, 0.86859465, 6.91765, 0.12545991, 0.1639018, 9.66221
780689151044202, -6.6975107, 0.84825563, 7.1342006, 0.23849893, 0.018668175, 9.819155
780689160684307, -6.7118673, 0.7848458, 7.3172517, 0.28414392, -0.124853134, 9.95545
780689170324307, -6.7908306, 0.6652047, 7.3902326, 0.2105627, -0.2019434, 10.054268
780689179964307, -6.8542404, 0.5886344, 7.4273214, 0.15907979, -0.23580217, 10.119846
780689189604307, -6.9116683, 0.5479564, 7.4141607, 0.10568476, -0.22188187, 10.147946
780689199244411, -6.954739, 0.49292147, 7.243074, -0.021634579, -0.13300323, 10.052628
780689208884411, -6.9583282, 0.41994038, 6.9044895, -0.21667528, 0.01927948, 9.809147
780689218524411, -6.948757, 0.4546363, 6.6041903, -0.30774212, 0.20859146, 9.590048
780689228164411, -6.8985076, 0.4989035, 6.452246, -0.3108189, 0.29570508, 9.449114
780689237804411, -6.863812, 0.54675996, 6.4127645, -0.27247286, 0.3292756, 9.399561
780689247444515, -6.826723, 0.5407779, 6.4701924, -0.22763562, 0.2614565, 9.414871
780689257084515, -6.8195443, 0.5084748, 6.65444, -0.16356206, 0.1275425, 9.539564
780689266724515, -6.853044, 0.47856453, 6.882954, -0.110295296, -0.0045654774, 9.723997
780689276364515, -6.8925257, 0.45583272, 7.079166, -0.0543108, -0.111754894, 9.890088
780689286004619, -6.942775, 0.44985065, 7.2502527, -0.0027160645, -0.18462038, 10.04672
780689295644619, -7.031309, 0.41994038, 7.203593, -0.08200264, -0.12633443, 10.073963
780689305284619, -7.082755, 0.44745782, 7.179664, -0.09424114, -0.058874607, 10.094597
780689314924619, -7.068398, 0.44147578, 7.1509504, -0.10367942, -0.054109097, 10.063775
780689324564619, -7.036095, 0.50368917, 7.097112, -0.06840634, 0.0038433075, 10.006231
780689334204723, -6.9858456, 0.567099, 6.9822564, -0.04150176, 0.08239508, 9.892778
780689343844723, -6.8985076, 0.5599205, 6.957132, -0.017513275, 0.044896126, 9.813374
780689353484723, -6.8339014, 0.573081, 7.0193453, 0.048013926, -0.020036697, 9.813211
780689363124723, -6.799206, 0.59342, 7.0145597, 0.07998037, -0.02608776, 9.78664
780689372764723, -6.786045, 0.587438, 7.051648, 0.098507166, -0.06063938, 9.803461
780689382404827, -6.806384, 0.5946164, 7.024131, 0.086276054, -0.032227993, 9.798489
780689392044827, -6.8243303, 0.567099, 6.9738817, 0.03487611, -0.01175499, 9.773779
780689401684827, -6.863812, 0.5383851, 6.9332037, -0.024812222, 0.014796734, 9.770887
780689411324827, -6.859026, 0.57906306, 6.873383, -0.014678717, 0.071863174, 9.727259
780689420964827, -6.849455, 0.5778667, 6.806384, -0.039527178, 0.1045692, 9.672814
780689430604932, -6.8482585, 0.58624154, 6.8446693, -0.018225193, 0.08468604, 9.699707
780689440244932, -6.856633, 0.55752766, 6.890133, -0.024028301, 0.043598413, 9.736309
780689449884932, -6.9056864, 0.55034924, 6.943971, -0.026440144, 0.03272438, 9.808585
780689459524932, -6.923632, 0.5587241, 7.0025954, 0.001060009, 0.0119524, 9.863319
780689469164932, -6.9296145, 0.5491528, 7.0612197, 0.01405406, -0.0246706, 9.90864
780689478805036, -6.914061, 0.55752766, 7.0636125, 0.033591986, -0.030860424, 9.899879
780689488445036, -6.8865438, 0.567099, 7.071987, 0.06063342, -0.04510355, 9.887032
780689498085036, -6.8709903, 0.5240282, 7.056434, 0.030262709, -0.07142687, 9.862675
780689507725036, -6.8853474, 0.5419743, 6.9320073, -0.011805296, 0.01950264, 9.785395
780689517365036, -6.876972, 0.5694918, 6.9116683, 0.009691477, 0.041528225, 9.766598
780689527005140, -6.8374906, 0.56590253, 6.8865438, 0.01520443, 0.032652378, 9.7208395
780689536645140, -6.7872415, 0.61016977, 6.91765, 0.08847046, 0.012385845, 9.710038
780689546285140, -6.77767, 0.6197411, 6.8889365, 0.09259343, 0.028830051, 9.683435
780689555925140, -6.7908306, 0.6149554, 6.916454, 0.10328984, 0.013520718, 9.711851
780689565565244, -6.8374906, 0.573081, 6.95115, 0.062800646, -0.008088827, 9.766994
780689575205244, -6.8889365, 0.5419743, 6.920043, 0.010556936, 0.01741004, 9.779456
780689584845244, -6.9583282, 0.4941179, 6.930811, -0.055226088, 0.017693996, 9.833375
780689594485244, -6.971489, 0.4977071, 6.9523463, -0.035998583, 0.012608528, 9.858147
780689604125244, -6.95115, 0.465404, 6.95115, -0.05193162, -0.017551422, 9.8412695
780689613765244, -6.9009004, 0.45104706, 6.9224358, -0.04074478, -0.0399158, 9.784821
780689623405348, -6.8949184, 0.47856453, 6.903293, -0.024555922, -0.01464963, 9.768498
780689633045348, -6.9152575, 0.5192425, 6.8410797, -0.026358843, 0.058205128, 9.740982
780689642685348, -6.9320073, 0.51086766, 6.7704916, -0.07131386, 0.104144335, 9.702439
780689652325348, -6.9128647, 0.50368917, 6.806384, -0.05512619, 0.069651365, 9.713927
780689661965348, -6.926025, 0.4953143, 6.782456, -0.07726145, 0.085113525, 9.705856
780689671605348, -6.9355965, 0.47138608, 6.7968125, -0.09186983, 0.06711745, 9.721544
780689681245452, -6.9415784, 0.46061835, 6.875776, -0.06348705, 0.015104771, 9.78109
780689690885452, -6.928418, 0.4426722, 6.969096, -0.03398037, -0.05757594, 9.836807
780689700525452, -6.910472, 0.45702913, 6.954739, -0.017542839, -0.049984455, 9.814737
780689710165452, -6.910472, 0.50488555, 6.8985076, -0.0014429092, 0.013291359, 9.777463
780689719805452, -6.906883, 0.5192425, 6.8889365, 0.0032875538, 0.02975154, 9.768888
780689729445557, -6.910472, 0.52283174, 6.923632, 0.018344402, 0.01391387, 9.796128
780689739085557, -6.906883, 0.53599226, 6.9116683, 0.023298025, 0.028818369, 9.785811
780689748725557, -6.927222, 0.5312066, 6.937989, 0.020700932, 0.022512913, 9.818521
780689758365557, -6.91765, 0.5479564, 7.0061846, 0.07092905, -0.011256218, 9.860811
780689768005557, -6.9056864, 0.5288138, 7.0396843, 0.07538676, -0.048989058, 9.875082
780689777645557, -6.862615, 0.49651068, 7.0576305, 0.0799253, -0.10241318, 9.855723
780689787285661, -6.8506513, 0.51445687, 7.0432734, 0.09462738, -0.08859038, 9.8380375
780689796925661, -6.8578296, 0.5192425, 6.99781, 0.07438111, -0.052094936, 9.811245
780689806565661, -6.8315086, 0.5455636, 6.948757, 0.08700585, -0.021646023, 9.759321
780689816205661, -6.832705, 0.5407779, 6.884151, 0.054379463, 0.014181852, 9.714252
780689825845661, -6.8805614, 0.54436713, 6.875776, 0.03294182, 0.046907187, 9.74225
780689835485661, -6.9056864, 0.56111693, 6.875776, 0.038265467, 0.06930733, 9.760807
780689845125765, -6.954739, 0.1471586, 6.818348, -0.33333087, -0.12001467, 9.734188
780689854765765, -6.79442, 1.1521441, 6.8781686, 0.57181907, 0.3676095, 9.7128105
780689864405765, -6.9355965, -0.23090738, 6.847062, -0.6005571, -0.3907311, 9.7223835
780689874045765, -6.73101, 1.4213367, 7.0097737, 0.8760843, 0.43376303, 9.772818
780689883685765, -6.8709903, -0.2428715, 6.9056864, -0.53415346, -0.46485972, 9.71888
780689893325765, -6.8303123, 1.134198, 7.04447, 0.61194324, 0.28869677, 9.854254
780689902965765, -6.923632, 0.041874398, 6.9344, -0.2965231, -0.2892027, 9.790443
780689912605869, -7.0265236, 0.52283174, 7.0097737, 0.05935836, 0.035588264, 9.938688
780689922245869, -6.9882383, 0.50129634, 6.960721, 0.038959265, 0.031223297, 9.876028
780689931885869, -7.159325, -0.06460621, 6.8745794, -0.5102093, -0.20070243, 9.910567
780689941525869, -6.9391856, 1.0420742, 6.863812, 0.44448233, 0.4081788, 9.797244
780689951165869, -7.1270223, -0.45822555, 6.7812595, -0.8348522, -0.40191102, 9.804664
780689960805869, -6.9355965, 1.2119647, 6.906883, 0.5999012, 0.49400234, 9.832216
780689970445869, -7.1342006, -0.51565325, 6.7238317, -0.90847754, -0.40855265, 9.766287
780689980085973, -7.055238, 1.026521, 6.882954, 0.40171576, 0.4494083, 9.891504
780689989725973, -7.0779696, -0.14476576, 6.823134, -0.54126716, -0.25600648, 9.814034
780689999365973, -7.0337024, 0.5300102, 6.923632, 0.056403637, 0.092568636, 9.883259
780690009005973, -6.897311, 0.44865423, 6.843473, 0.023339272, 0.015041351, 9.72659
780690018645973, -7.0468626, -0.015553347, 6.856633, -0.395226, -0.21911955, 9.821799
780690028285973, -6.8805614, 1.0420742, 6.9344, 0.52169895, 0.33875823, 9.80444
780690037925973, -7.079166, -0.36490545, 6.8925257, -0.6537502, -0.44697, 9.855328
780690047565973, -6.873383, 1.308874, 6.9595246, 0.7423992, 0.48134756, 9.828972
780690057206077, -7.018149, -0.42711884, 6.7609205, -0.75084186, -0.43963814, 9.715445
780690066846077, -6.882954, 1.1772687, 6.906883, 0.5957258, 0.44936037, 9.793326
780690076486077, -6.890133, -0.078963146, 6.7322063, -0.41934252, -0.26935697, 9.620518
780690086126077, -6.879365, 0.7716853, 6.802795, 0.24779916, 0.2335782, 9.699652
780690095766077, -6.8039913, 0.5371887, 6.6963143, 0.06506443, 0.10696006, 9.560744
780690105406077, -6.9966135, 0.13040884, 6.745367, -0.3208487, -0.086835146, 9.713861
780690115046077, -6.849455, 1.0169497, 6.875776, 0.48419237, 0.33343148, 9.740631
780690124686077, -7.0863442, -0.33020952, 6.826723, -0.68021154, -0.37917256, 9.814428
780690134326077, -6.946364, 1.2777673, 7.01097, 0.7050717, 0.49105072, 9.91464
780690143966182, -7.1222367, -0.4941179, 6.971489, -0.7509837, -0.5350218, 9.935886
780690153606182, -6.9451675, 1.1246266, 7.133004, 0.64007044, 0.30137873, 9.993967
780690163246182, -7.0061846, -0.17826529, 7.0061846, -0.44490385, -0.42018485, 9.890932
780690172886182, -6.9906316, 0.7573284, 7.088737, 0.32720447, 0.1276958, 9.978441
780690182526182, -6.897311, 0.3684947, 6.975078, 0.023054838, -0.107078075, 9.8157215
780690192166182, -7.0600233, 0.11844472, 6.923632, -0.27319598, -0.15533161, 9.884123
780690201806182, -6.920043, 0.9343972, 6.8339014, 0.38277578, 0.34373903, 9.756927
780690211446182, -7.1425757, -0.35294133, 6.6687965, -0.78268695, -0.25707078, 9.743465
780690221086182, -6.927222, 1.2191432, 6.789634, 0.5781753, 0.547884, 9.743582
780690230726182, -7.0779696, -0.48454657, 6.5982084, -0.87708235, -0.3437817, 9.642685
780690240366286, -6.876972, 1.1928221, 6.6329045, 0.513211, 0.5898545, 9.596858
780690250006286, -6.9296145, -0.21655045, 6.519245, -0.6308329, -0.21239424, 9.493364
780690259646286, -6.876972, 0.8207382, 6.7381887, 0.27944803, 0.28572774, 9.654523
780690269286286, -6.792027, 0.34576288, 6.719046, -0.05229783, -0.045654774, 9.559913
780690278926286, -6.8985076, 0.32422748, 6.836294, -0.067795515, -0.07126188, 9.716984
780690288566286, -6.762117, 0.9212367, 6.98106, 0.5193057, 0.1676147, 9.747426
780690298206286, -7.012167, -0.24765715, 7.071987, -0.46145058, -0.5058403, 9.938612
780690307846286, -6.8817577, 1.2729816, 7.196414, 0.8258753, 0.34250355, 9.998404
780690317486286, -7.1042905, -0.47976094, 7.018149, -0.71573997, -0.566643, 9.956012
780690327126286, -6.9894347, 1.1820544, 7.0815587, 0.6561384, 0.40564728, 9.990137
780690336766286, -7.117451, -0.32542387, 6.920043, -0.6343844, -0.39568973, 9.90414
780690346406390, -7.09113, 0.8709874, 7.0540414, 0.3431363, 0.27237797, 10.03047
780690356046390, -7.0325055, 0.2620141, 6.9296145, -0.14216208, -0.06769848, 9.8752
780690365686390, -7.0636125, 0.29312077, 6.9702926, -0.118929625, -0.060440302, 9.927121
780690375326390, -6.823134, 0.81954175, 6.975078, 0.4019208, 0.14945316, 9.782364
780690384966390, -6.9966135, -0.2440679, 6.95115, -0.50500274, -0.429919, 9.843311
780690394606390, -6.873383, 1.1832508, 6.984649, 0.6569674, 0.39667487, 9.840725
780690404246390, -7.129415, -0.5491528, 6.7764735, -0.8655577, -0.47382307, 9.801889
780690413886390, -6.9726853, 1.1736795, 6.8685975, 0.54693365, 0.50820136, 9.8293495
780690423526390, -7.076773, -0.38285163, 6.6915283, -0.7585695, -0.33201027, 9.711756
780690433166390, -6.9559355, 0.8961121, 6.771688, 0.29694676, 0.3759067, 9.737265
780690442806390, -6.8446693, 0.19142582, 6.650851, -0.24001694, -0.0696013, 9.542404
780690452446390, -6.879365, 0.4211368, 6.7740808, -0.027021885, 0.025473833, 9.663839
780690462086390, -6.7669024, 0.8470592, 6.806384, 0.3678546, 0.22338247, 9.625494
780690471726390, -6.9894347, -0.16031912, 6.8374906, -0.50241804, -0.3302176, 9.760517
780690481366390, -6.8913293, 1.1880364, 7.066005, 0.6803155, 0.34498453, 9.912035
780690491006494, -7.1820574, -0.5024927, 7.045666, -0.75349927, -0.56746817, 10.029263
780690500646494, -7.076773, 1.1880364, 7.204789, 0.6500325, 0.38411903, 10.140565
780690510286494, -7.2346992, -0.51206404, 7.143772, -0.7534702, -0.58965516, 10.135145
780690519926494, -7.170093, 0.81834537, 7.2825556, 0.32733822, 0.14324284, 10.246359
780690529566494, -7.186843, -0.023928227, 7.1007013, -0.40360594, -0.2846501, 10.090953
780690539206494, -7.2119675, 0.30388847, 7.055238, -0.21320081, -0.032563686, 10.091318
780690548846494, -7.025327, 0.5814559, 6.9523463, 0.02683568, 0.10311031, 9.900358
780690558486494, -7.1545396, -0.19381863, 6.835098, -0.7050123, -0.26121402, 9.868044
780690568126494, -6.9128647, 1.1210374, 6.820741, 0.41879082, 0.45668626, 9.756176
780690577766494, -7.058827, -0.40677986, 6.6628146, -0.9078183, -0.349535, 9.6664
780690587406494, -6.771688, 1.430908, 6.6795645, 0.61496115, 0.6588073, 9.57641
780690597046494, -6.7704916, -0.05383851, 6.471389, -0.6149392, -0.1632545, 9.344332
780690606686494, -6.5312095, 1.4811572, 6.6771717, 0.74733615, 0.5680609, 9.410311
780690616326494, -6.442675, 0.57547385, 6.7645097, 0.12098932, -0.11666322, 9.357861
780690625966494, -6.442675, 1.0695918, 6.983453, 0.59985995, 0.06867933, 9.5423355
780690635606494, -6.320641, 1.2047862, 7.0348988, 0.7839868, 0.06615901, 9.501201
780690645246494, -6.5407805, 0.43788654, 7.146165, 0.14579678, -0.37954664, 9.688959
780690654886494, -6.4845495, 1.544567, 7.298109, 1.0948404, 0.20748234, 9.821188
780690664526494, -6.832705, -0.049052864, 7.153343, -0.35346746, -0.5359845, 9.871492
780690674166494, -6.708278, 1.6761723, 7.245467, 1.0756598, 0.44942856, 9.947277
780690683806494, -6.855437, -0.034695927, 6.9738817, -0.4247632, -0.41109228, 9.761343
780690693446494, -6.6711893, 1.4536397, 7.0061846, 0.8233135, 0.4187889, 9.73916
780690703086494, -6.6305118, 0.39601216, 6.8614187, -0.030915737, -0.19380403, 9.547831
780690712726494, -6.6041903, 0.96789676, 6.954739, 0.4635501, 0.10023856, 9.627857
780690722366494, -6.5276203, 0.9056834, 6.8685975, 0.41457534, 0.08001065, 9.50944
780690732006494, -6.7561345, 0.22971097, 6.8422766, -0.2174952, -0.22527266, 9.613367
780690741646494, -6.6687965, 1.2526426, 6.942775, 0.6479051, 0.34715223, 9.680072
780690751286494, -6.9678993, -0.2883351, 6.8339014, -0.70618844, -0.43586016, 9.728735
780690760926494, -6.8518476, 1.3399807, 6.95115, 0.6559572, 0.4995134, 9.817436
780690770566598, -7.066005, -0.37328035, 6.771688, -0.812866, -0.40933156, 9.751678
780690780206494, -6.984649, 1.1509477, 6.8662047, 0.43516374, 0.49041438, 9.839964
780690789846494, -7.0612197, -0.03708875, 6.843473, -0.5132687, -0.23190165, 9.817236
780690799486598, -7.1162543, 0.6125626, 7.0097737, 0.03999257, 0.13327694, 10.006692
780690809126598, -7.04447, 0.42592242, 6.8614187, -0.12585878, 0.059491634, 9.842035
780690818766598, -7.198807, -0.02632105, 6.8853474, -0.5346141, -0.16651416, 9.945751
780690828406598, -6.9858456, 0.991825, 6.946364, 0.37960696, 0.34719038, 9.888027
780690838046598, -7.1653075, -0.40677986, 6.8315086, -0.8246424, -0.3989141, 9.865974
780690847686598, -6.897311, 1.288535, 6.940382, 0.6307075, 0.51435995, 9.835637
780690857326598, -7.0133634, -0.42592242, 6.8303123, -0.7614951, -0.49233055, 9.757027
780690866966598, -6.829116, 1.18684, 7.01097, 0.6194463, 0.37257886, 9.832425
780690876606598, -6.893722, -0.1160519, 6.937989, -0.42623115, -0.4030645, 9.763628
780690886246598, -6.9344, 0.72023964, 7.0803623, 0.24905324, 0.083308935, 9.933136
780690895886598, -6.890133, 0.47976094, 6.99781, 0.058438778, -0.04801655, 9.831974
780690905526598, -7.0492554, 0.14356937, 6.995417, -0.27265525, -0.18750978, 9.92668
780690915166598, -6.906883, 1.0037891, 7.0540414, 0.47736216, 0.26344323, 9.908322
780690924806598, -7.1748786, -0.31585258, 6.963114, -0.6935108, -0.402987, 9.97097
780690934446598, -6.954739, 1.3100704, 7.062416, 0.68644166, 0.4895339, 9.962507
780690944086598, -7.051648, -0.47018966, 6.890133, -0.783828, -0.5230417, 9.825111
780690953726598, -6.869794, 1.2047862, 6.9906316, 0.6129484, 0.41874528, 9.847002
780690963366598, -6.926025, -0.16271193, 6.7932234, -0.53540254, -0.33091664, 9.682355
780690973006598, -6.8853474, 0.83389866, 6.940382, 0.30056262, 0.21375775, 9.804911
780690982646598, -6.815955, 0.42711884, 6.897311, 0.009671211, -0.06416321, 9.706099
780690992286598, -6.9248285, 0.30269206, 6.9212394, -0.12830377, -0.10417724, 9.793934
780691001926598, -6.7501526, 1.0707881, 6.9248285, 0.5456152, 0.2948215, 9.709778
780691011566598, -6.98106, -0.15672988, 6.9056864, -0.5153518, -0.35894632, 9.800706
780691021206598, -6.7812595, 1.4273187, 7.0636125, 0.85798407, 0.46820688, 9.846928
780691030846598, -6.9858456, -0.34217364, 6.9152575, -0.64744425, -0.49058652, 9.802044
780691040486598, -6.875776, 1.3244274, 7.0229344, 0.7042942, 0.4917612, 9.879988
780691050126598, -6.991828, -0.19501504, 6.914061, -0.5293107, -0.40114522, 9.812586
780691059766598, -6.9966135, 0.86979103, 7.0396843, 0.32515478, 0.23250389, 9.955226
780691069406598, -6.95115, 0.3290131, 6.8949184, -0.12659788, -0.064848185, 9.795223
780691079046598, -7.0337024, 0.3062813, 6.8578296, -0.20092058, -0.021255255, 9.826281
780691088686598, -6.8410797, 0.9343972, 6.812366, 0.33494186, 0.33084583, 9.688145
780691098326494, -6.977471, -0.13160525, 6.778867, -0.53426194, -0.3014381, 9.709745
780691107966598, -6.6795645, 1.402194, 6.8279195, 0.7590816, 0.56046796, 9.607961
780691117606494, -6.798009, -0.33738798, 6.626922, -0.6739197, -0.44914556, 9.46504
780691127246494, -6.634101, 1.3627125, 6.68435, 0.6894584, 0.581429, 9.4728775
780691136886494, -6.802795, -0.14955142, 6.5288167, -0.5777395, -0.27359843, 9.408358
780691146526494, -6.843473, 1.0301101, 6.7369924, 0.361557, 0.43603683, 9.641602
780691156166494, -6.8781686, 0.30867413, 6.838687, -0.14331985, -0.081026316, 9.702835
780691165806494, -7.0229344, 0.3696911, 7.031309, -0.08444643, -0.068653345, 9.944132
780691175446494, -6.8805614, 0.8757731, 7.082755, 0.3895321, 0.17964125, 9.904066
780691185086494, -7.04447, -0.10767702, 7.166504, -0.38744164, -0.4339471, 10.032774
780691194726494, -6.786045, 1.2610176, 7.2957163, 0.82406616, 0.26519012, 10.005931
780691204366494, -6.9475603, -0.5168497, 7.103094, -0.6724982, -0.707119, 9.901384
780691214006494, -6.789634, 1.2191432, 7.0875406, 0.7146869, 0.35384154, 9.8581295
780691223646494, -6.9296145, -0.34576288, 6.820741, -0.6624105, -0.43171382, 9.697239
780691233286494, -6.890133, 0.9810573, 6.9332037, 0.41760826, 0.34274673, 9.8088665
780691242926494, -6.88774, 0.21655045, 6.8578296, -0.20693135, -0.10897803, 9.719208
780691252566494, -6.9906316, 0.5288138, 6.946364, 0.028225422, 0.09806919, 9.868645
780691262206494, -6.8889365, 0.910469, 6.9619174, 0.37295008, 0.28653955, 9.825148
780691271846494, -7.0863442, 0.013160525, 7.0839515, -0.35689974, -0.26085377, 10.010165
780691281486494, -6.8578296, 1.3806586, 7.2957163, 0.8914449, 0.37856102, 10.06109
780691291126494, -6.9930243, -0.23090738, 7.198807, -0.44014597, -0.52865005, 10.015255
780691300765661, -6.7011, 1.4991034, 7.281359, 1.0534875, 0.36049175, 9.946379
780691310406494, -6.769295, -0.19142582, 7.105487, -0.3513689, -0.56458616, 9.793148
780691320046494, -6.6819572, 1.1330016, 7.259824, 0.78038216, 0.1195879, 9.900202
780691329686494, -6.762117, 0.17228323, 7.021738, -0.10267806, -0.29026842, 9.745047
780691339326494, -6.8602223, 0.46301118, 6.9619174, 0.0529449, -0.024445057, 9.7847805
780691348966494, -6.788438, 0.613759, 6.7932234, 0.14094615, 0.13069701, 9.621357
780691358606494, -6.987042, -0.19621146, 6.6711893, -0.6354325, -0.20232153, 9.639363
780691368246494, -6.8243303, 1.0839486, 6.6460648, 0.4251294, 0.5287554, 9.563278
780691377886494, -7.0372915, -0.48454657, 6.5407805, -0.9313197, -0.30146766, 9.5698395
780691387526494, -6.829116, 1.2634103, 6.6915283, 0.57227707, 0.6254871, 9.606812
780691397166494, -7.003792, -0.4103691, 6.5659056, -0.8396294, -0.30098748, 9.567499
780691406806494, -6.9475603, 1.0480564, 6.7848487, 0.38040662, 0.5098963, 9.746614
780691416446494, -7.0289164, -0.0071784677, 6.820741, -0.4344561, -0.14862204, 9.783527
780691426086494, -7.070791, 0.44506502, 7.070791, 0.009967089, 0.02494073, 10.009472
780691435726494, -6.9990063, 0.4941179, 7.172486, 0.12611175, -0.037630558, 10.032821
780691445366494, -7.153343, -0.14356937, 7.243074, -0.40736485, -0.40052438, 10.164973
780691455006494, -6.937989, 1.0660025, 7.304091, 0.655565, 0.21889734, 10.106638
780691464646494, -7.094719, -0.42711884, 7.1377897, -0.6526041, -0.54511905, 10.037054
780691474286494, -6.8422766, 1.3052847, 7.196414, 0.8319118, 0.3828745, 9.973476
780691483926494, -6.9499536, -0.4031906, 6.8985076, -0.67506814, -0.46254277, 9.766481
780691493566494, -6.862615, 1.1330016, 6.9212394, 0.55985427, 0.4456916, 9.786249
780691503206494, -6.9116683, -0.0071784677, 6.795616, -0.3937664, -0.18428922, 9.683108
780691512846494, -6.960721, 0.63888365, 6.954739, 0.14374566, 0.16247225, 9.858049
780691522486494, -6.8255267, 0.567099, 6.9212394, 0.14095259, 0.06507206, 9.735956
780691532126494, -6.975078, 0.058624156, 6.926025, -0.3103032, -0.19957232, 9.822874
780691541766494, -6.74776, 1.1509477, 7.0169525, 0.6628635, 0.34781218, 9.774161
780691551406494, -6.9044895, -0.24047868, 7.0133634, -0.45686865, -0.48017693, 9.822311
780691561046494, -6.695118, 1.4249259, 7.099505, 0.91823626, 0.46481466, 9.808098
780691570686494, -6.8889365, -0.29790643, 6.8482585, -0.5755427, -0.44171023, 9.6911545
780691580326494, -6.8195443, 1.2442678, 6.903293, 0.63492584, 0.5118911, 9.749086
780691589966494, -6.923632, -0.020338992, 6.873383, -0.37531066, -0.2524073, 9.745558
780691599606494, -6.9152575, 0.71425754, 6.948757, 0.21484685, 0.18622589, 9.825239
780691609246494, -6.7932234, 0.5168497, 6.855437, 0.08775544, 0.04057336, 9.664507
780691618886494, -6.876972, 0.11724831, 6.9344, -0.21706128, -0.2238307, 9.761926
780691628526494, -6.65444, 1.0899308, 7.0337024, 0.6699884, 0.249475, 9.717581
780691638166390, -6.863812, -0.2955136, 6.9595246, -0.52826905, -0.5030863, 9.7520275
780691647806390, -6.660422, 1.4009976, 7.103094, 0.9278586, 0.4017353, 9.7854805
780691657446390, -6.8949184, -0.33499518, 6.9786673, -0.5650022, -0.50556016, 9.786678
780691667086390, -6.789634, 1.282553, 7.1078796, 0.7880163, 0.3922143, 9.873763
780691676726390, -6.88774, -0.061016977, 6.954739, -0.35496354, -0.32230186, 9.776667
780691686366390, -6.9116683, 0.76570326, 7.0432734, 0.3149283, 0.16366386, 9.891369
780691696006390, -6.8781686, 0.4139583, 6.9535427, 0.0184896, -0.021465302, 9.789358
780691705646390, -7.0731835, 0.09332009, 6.897311, -0.34806418, -0.09006214, 9.873312
780691715286390, -6.9332037, 0.8805587, 6.838687, 0.31255198, 0.3680017, 9.76623
780691724926390, -7.1581287, -0.42711884, 6.650851, -0.8868282, -0.24580312, 9.73695
780691734566390, -6.9451675, 1.1641082, 6.710671, 0.47816968, 0.62753606, 9.695419
780691744206390, -7.1102724, -0.552742, 6.5958157, -0.98190475, -0.32181883, 9.659121
780691753846390, -6.9248285, 1.1653047, 6.7764735, 0.52057886, 0.56371856, 9.728463
780691763486390, -6.9499536, -0.20937198, 6.7381887, -0.57709336, -0.27041602, 9.661404
780691773126390, -6.8410797, 0.8243274, 6.9296145, 0.35003877, 0.22530365, 9.76351
780691782766390, -6.7848487, 0.3278167, 6.9009004, -0.018656492, -0.09823084, 9.682667
780691792406390, -6.9391856, 0.17706887, 7.012167, -0.16161036, -0.17146826, 9.864007
780691802046390, -6.8614187, 0.8566305, 7.056434, 0.42811966, 0.18767166, 9.868519
780691811686390, -7.1162543, -0.36729828, 6.977471, -0.6762192, -0.38355255, 9.942671
780691821326390, -6.9798636, 1.1712867, 7.045666, 0.6268513, 0.4684124, 9.955877
780691830966390, -7.1677003, -0.53599226, 6.8506513, -0.8752682, -0.41433406, 9.882149
780691840606390, -6.943971, 1.1928221, 6.9523463, 0.6067691, 0.51556087, 9.866241
780691850246390, -6.96431, -0.2727818, 6.800402, -0.6065538, -0.3156805, 9.713596
780691859886390, -6.849455, 0.91884387, 6.897311, 0.40799975, 0.3270297, 9.749811
780691869526390, -6.739385, 0.35294133, 6.7908306, -0.032327652, -0.030871868, 9.57378
780691879166390, -6.7836523, 0.37208393, 6.869794, -0.0052850246, -0.039590597, 9.661721
780691888806390, -6.6484575, 0.8985049, 6.963114, 0.5039048, 0.17954302, 9.654435
780691898446390, -6.9188466, -0.22492532, 6.9523463, -0.48665595, -0.39232135, 9.791088
780691908086390, -6.8315086, 1.180858, 7.0815587, 0.6858115, 0.38858676, 9.878819
780691917726390, -7.0935225, -0.57427746, 7.0337024, -0.8039055, -0.54497194, 9.958794
780691927366390, -6.960721, 1.1102697, 7.1880393, 0.64065194, 0.36292744, 10.040423
780691937006390, -7.062416, -0.42831525, 6.948757, -0.70655227, -0.43031573, 9.882409
780691946646390, -6.9499536, 0.8171489, 7.038488, 0.3450153, 0.25644207, 9.915901
780691956286390, -6.867401, 0.078963146, 6.9044895, -0.24352121, -0.1796434, 9.7338505
780691965926390, -6.8985076, 0.22851457, 6.923632, -0.13768625, -0.07945943, 9.775124
780691975566390, -6.7429743, 0.6687939, 6.8446693, 0.23783684, 0.17383957, 9.626925
780691985206390, -6.960721, -0.27756742, 6.789634, -0.6099286, -0.29598975, 9.704029
780691994846390, -6.835098, 1.0971092, 6.984649, 0.5742643, 0.42662597, 9.807943
780692004486390, -7.038488, -0.53240305, 6.9152575, -0.776217, -0.48542023, 9.839024
780692014126390, -6.8853474, 1.1760724, 7.051648, 0.64423704, 0.46725965, 9.89361
780692023766390, -6.995417, -0.4019942, 6.9966135, -0.6286881, -0.46543598, 9.871077
780692033406390, -6.896115, 0.9415757, 7.1485577, 0.5054989, 0.2727952, 9.960669
780692043046390, -6.8817577, 0.13399807, 7.0492554, -0.14258003, -0.20132494, 9.849248
780692052686390, -6.88774, 0.4642076, 7.1617184, 0.15275717, -0.046672583, 9.945912
780692062326390, -6.7322063, 0.76689965, 7.1138616, 0.4322734, 0.11079717, 9.814206
780692071966390, -6.875776, -0.11844472, 7.0935225, -0.3179288, -0.38301706, 9.867148
780692081606390, -6.708278, 1.1736795, 7.2119675, 0.7961149, 0.31789804, 9.8821125
780692091246390, -6.957132, -0.44506502, 7.055238, -0.6299701, -0.5263903, 9.884442
780692100886494, -6.788438, 1.2765709, 7.1449685, 0.81602097, 0.4610281, 9.893667
780692110526494, -6.926025, -0.43788654, 6.946364, -0.6580007, -0.4675448, 9.785805
780692120166494, -6.856633, 0.9272188, 7.062416, 0.4804206, 0.2932191, 9.870871
780692129806494, -6.8853474, -0.02871387, 6.8219376, -0.36861348, -0.16496372, 9.684245
780692139446494, -6.9296145, 0.3804588, 6.778867, -0.09645271, 0.14705944, 9.699814
780692149086494, -6.8279195, 0.55393845, 6.734599, 0.06472421, 0.22675848, 9.603466
780692158726494, -6.9930243, -0.12921242, 6.7238317, -0.5465448, -0.112700224, 9.685947
780692168366494, -6.7848487, 1.0947163, 6.8458657, 0.5541251, 0.49189377, 9.672094
780692178006494, -6.963114, -0.4833502, 6.853044, -0.7420614, -0.43728447, 9.743765
780692187646494, -6.7585278, 1.1952149, 7.1018977, 0.7569957, 0.41709495, 9.838505
780692197286494, -6.896115, -0.46779683, 7.0695944, -0.5931208, -0.56939864, 9.852837
780692206926494, -6.8578296, 0.98584294, 7.2155566, 0.61444473, 0.2589922, 9.98105
780692216566494, -6.9355965, -0.09810573, 7.173682, -0.28807807, -0.36561298, 9.967808
780692226206494, -6.9702926, 0.465404, 7.233503, 0.16465616, -0.019020557, 10.054734
780692235846494, -6.820741, 0.4941179, 7.1007013, 0.19712615, -0.003567934, 9.856356
780692245486494, -6.975078, -0.09212367, 7.031309, -0.36027336, -0.25115705, 9.894778
780692255126494, -6.8075805, 1.018146, 7.0504518, 0.590106, 0.35337543, 9.829322
780692264766494, -7.038488, -0.4941179, 6.9188466, -0.7521436, -0.4123683, 9.844751
780692274406494, -6.863812, 1.2095718, 7.0372915, 0.7157209, 0.5095234, 9.865424
780692284046494, -7.0528445, -0.5168497, 6.8398833, -0.801945, -0.38040066, 9.798262
780692293686494, -6.943971, 0.9415757, 6.9559355, 0.4424765, 0.42960143, 9.854441
780692303326494, -6.9762745, -0.2644069, 6.8458657, -0.5546038, -0.26893473, 9.758293
780692312966494, -7.004988, 0.38404804, 6.910472, -0.043745995, 0.12754083, 9.846512
780692322606494, -6.9344, 0.27158538, 6.8303123, -0.11985397, 0.065919876, 9.736227
780692332246494, -7.0695944, -0.19740787, 6.7633133, -0.57352805, -0.124247074, 9.768121
780692341886494, -6.8709903, 0.8386843, 6.847062, 0.35899353, 0.3794675, 9.722308
780692351526494, -7.0265236, -0.52283174, 6.8578296, -0.7715757, -0.39744592, 9.793975
780692361166494, -6.762117, 1.1988041, 7.038488, 0.7820039, 0.43961, 9.792798
780692370806598, -6.916454, -0.51565325, 6.91765, -0.6936314, -0.48102522, 9.759335
780692380446598, -6.775277, 1.0755738, 7.18445, 0.7442827, 0.28383875, 9.901669
780692390086598, -6.8482585, -0.2009971, 7.1880393, -0.2976539, -0.4612732, 9.914918
780692399726598, -6.862615, 0.60777694, 7.3268228, 0.39357948, -0.028377533, 10.049453
780692409366598, -6.8458657, 0.3505485, 7.1820574, 0.13206649, -0.120345354, 9.92667
780692419006598, -7.01097, 0.038285162, 7.1617184, -0.19802427, -0.20900702, 10.018108
780692428646598, -6.8482585, 0.9164511, 7.179664, 0.5729499, 0.23810959, 9.944905
780692438286598, -7.0133634, -0.4235296, 7.1138616, -0.5770843, -0.4653895, 9.971161
780692447926598, -6.775277, 1.2466606, 7.194021, 0.86543083, 0.388659, 9.915264
780692457566598, -6.9355965, -0.51445687, 6.9990063, -0.6489966, -0.51406884, 9.831978
780692467206598, -6.8015985, 1.1365907, 7.103094, 0.71554184, 0.4005189, 9.865856
780692476846598, -6.908079, -0.27876383, 6.903293, -0.49910402, -0.3247459, 9.75193
780692486486598, -6.9248285, 0.6580262, 6.9930243, 0.2545328, 0.22383523, 9.857675
780692496126598, -6.8781686, 0.25842485, 6.8398833, -0.10275793, 0.023544073, 9.703034
780692505766598, -6.9619174, 0.034695927, 6.771688, -0.34321404, -0.037569284, 9.70598
780692515406598, -6.754938, 0.8315059, 6.771688, 0.36079454, 0.3695686, 9.586948
780692525046598, -6.9188466, -0.41874397, 6.7334027, -0.6863668, -0.33942652, 9.633183
780692534686702, -6.7501526, 1.1760724, 6.855437, 0.6559334, 0.5431192, 9.655025
780692544326702, -6.9762745, -0.60059845, 6.7405815, -0.85564446, -0.42006826, 9.672434
780692553966702, -6.8410797, 1.0755738, 6.908079, 0.569823, 0.48149014, 9.753064
780692563606702, -6.937989, -0.3804588, 6.782456, -0.6331613, -0.32003117, 9.683947
780692573246702, -6.937989, 0.6735796, 6.9702926, 0.27190566, 0.251132, 9.850756
780692582886702, -6.8925257, 0.148355, 6.926025, -0.13278079, -0.07961249, 9.771118
780692592526702, -7.02772, 0.08135597, 6.9822564, -0.22892213, -0.08136296, 9.903957
780692602166702, -6.903293, 0.6999006, 7.02772, 0.33691263, 0.21607304, 9.867825
780692611806702, -7.152147, -0.44985065, 7.0301127, -0.6783931, -0.36029673, 10.009397
780692621446702, -6.957132, 1.0480564, 7.2155566, 0.6565707, 0.35728836, 10.050156
780692631086702, -7.143772, -0.6999006, 7.146165, -0.809567, -0.5920749, 10.078941
780692640726702, -6.9798636, 1.0420742, 7.2993054, 0.6899257, 0.32522726, 10.124352
780692650366702, -7.079166, -0.43669012, 7.1389866, -0.58261037, -0.45802426, 10.035995
780692660006807, -7.031309, 0.7429714, 7.2323065, 0.40631175, 0.20588112, 10.103966
780692669646807, -6.9702926, 0.12203395, 7.099505, -0.11650419, -0.1495831, 9.94821
780692679286807, -7.007381, 0.22013968, 7.076773, -0.06994963, -0.054385662, 9.961161
780692688926807, -6.820741, 0.715454, 7.025327, 0.38208318, 0.18106794, 9.808713
780692698566807, -6.971489, -0.32183465, 6.95115, -0.5321722, -0.34458518, 9.829638
780692708206807, -6.7812595, 1.1413764, 6.984649, 0.7071376, 0.43394375, 9.766535
780692717846807, -6.977471, -0.54317075, 6.8578296, -0.7681501, -0.43714118, 9.758525
780692727486807, -6.789634, 1.2251252, 6.977471, 0.7547393, 0.48847032, 9.771231
780692737126807, -6.8865438, -0.33379877, 6.745367, -0.6018133, -0.29783702, 9.62211
780692746766807, -6.7968125, 0.9607183, 6.8542404, 0.49290228, 0.40323687, 9.679604
780692756406807, -6.808777, 0.2009971, 6.8135624, -0.1298294, -0.057142973, 9.633501
780692766046911, -6.873383, 0.39720857, 6.8709903, 0.016101599, 0.06788492, 9.7266035
780692775686911, -6.725028, 0.79441714, 6.8303123, 0.3761642, 0.26426983, 9.607234
780692785326911, -6.9044895, -0.12921242, 6.8542404, -0.40873504, -0.24899483, 9.718037
780692794966911, -6.6999035, 1.2502499, 7.0528445, 0.8302045, 0.40119958, 9.764437
780692804606911, -6.893722, -0.4223332, 6.896115, -0.6113868, -0.46866632, 9.72958
780692814246911, -6.698707, 1.3268201, 7.0025954, 0.8645866, 0.4836445, 9.730779
780692823886911, -6.835098, -0.26799613, 6.806384, -0.5144627, -0.3461206, 9.6297865
780692833526911, -6.8015985, 0.65324056, 6.9092755, 0.25046968, 0.16427684, 9.712715
780692843166911, -6.859026, 0.38883367, 6.8578296, -0.0012638569, 0.05560255, 9.706913
780692852807015, -6.9092755, 0.47736812, 6.9044895, 0.05953145, 0.110105515, 9.778664
780692862447015, -6.9224358, 0.3792624, 6.9224358, -0.012187719, 0.042886257, 9.797045
780692872087015, -6.890133, 0.38763726, 7.001399, 0.043168306, -0.013053894, 9.830654
780692881727015, -6.873383, 0.35533416, 7.0337024, 0.0434258, -0.060986996, 9.840582
780692891367015, -6.8913293, 0.3684947, 7.0229344, 0.041553974, -0.03644228, 9.846054
780692901007015, -6.8925257, 0.35174492, 6.9798636, 0.009647369, -0.022031307, 9.815731
780692910647015, -6.8913293, 0.32662028, 6.9344, -0.02847004, -0.011497259, 9.781721
780692920287015, -6.9320073, 0.35174492, 6.893722, -0.045956373, 0.05206752, 9.782383
780692929927119, -6.9188466, 0.33499518, 6.8602223, -0.06700063, 0.053565502, 9.748741
780692939567119, -6.96431, 0.33499518, 6.8865438, -0.0767591, 0.06424713, 9.799404
780692949207119, -6.9786673, 0.33140594, 6.8709903, -0.09205294, 0.07863426, 9.79834
780692958847119, -6.975078, 0.31944183, 6.8853474, -0.09300661, 0.06072402, 9.805581
780692968487119, -6.926025, 0.33140594, 6.9320073, -0.040682554, 0.014173508, 9.804619
780692978127119, -6.916454, 0.34337005, 6.954739, -0.017286777, 0.0038294792, 9.8144455
780692987767119, -6.8985076, 0.38404804, 6.969096, 0.029107332, 0.01177454, 9.813471
780692997407223, -6.8662047, 0.40917268, 7.0193453, 0.08250904, -0.01671648, 9.827323
780693007047223, -6.843473, 0.41754755, 7.0504518, 0.11042333, -0.040483236, 9.833744
780693016687223, -6.812366, 0.4127619, 7.012167, 0.10326266, -0.03766799, 9.784534
780693026327223, -6.8171515, 0.39840496, 6.995417, 0.08163428, -0.03298211, 9.775499
780693035967223, -6.843473, 0.39361933, 6.963114, 0.052323103, -0.003499031, 9.770889
780693045607223, -6.926025, 0.3900301, 6.969096, 0.0140759945, 0.037400723, 9.833039
780693055247223, -6.957132, 0.39601216, 6.995417, 0.015576601, 0.044662, 9.87381
780693064887327, -6.937989, 0.39720857, 6.9499536, 0.008155584, 0.0614357, 9.828096
780693074527327, -6.916454, 0.37806597, 6.908079, -0.011684656, 0.06086397, 9.782536
780693084167327, -6.8889365, 0.3505485, 6.954739, -0.0011820793, 0.001648426, 9.7953415
780693093807327, -6.876972, 0.34217364, 6.9224358, -0.0155107975, 0.008691311, 9.763691
780693103447327, -6.8865438, 0.31345975, 6.8949184, -0.052829266, 0.013196707, 9.749855
780693113087327, -6.9056864, 0.27996024, 6.8721867, -0.09767461, 0.019784927, 9.74597
780693122727327, -6.9344, 0.31345975, 6.910472, -0.068075895, 0.03607464, 9.794531
780693132367432, -6.957132, 0.33140594, 6.923632, -0.058181286, 0.05222559, 9.820494
780693142007432, -6.9224358, 0.3505485, 6.9535427, -0.015158892, 0.027909279, 9.81803
780693151647432, -6.862615, 0.37088752, 7.0145597, 0.05359292, -0.028026104, 9.820053
780693161287432, -6.847062, 0.36370903, 7.0875406, 0.085771084, -0.08170104, 9.860718
780693170927432, -6.869794, 0.35174492, 7.155736, 0.09389973, -0.114040375, 9.924743
780693180567432, -6.906883, 0.34456646, 7.1784678, 0.08083439, -0.10617542, 9.966762
780693190207536, -6.927222, 0.34337005, 7.153343, 0.061021805, -0.08088207, 9.96315
780693199847536, -6.946364, 0.3397808, 7.1210403, 0.034446, -0.049534798, 9.953542
780693209487536, -6.946364, 0.35294133, 7.09113, 0.032550573, -0.024417877, 9.932724
780693219127536, -6.943971, 0.37447673, 6.9798636, 0.0027241707, 0.05151868, 9.852655
780693228767536, -6.928418, 0.4031906, 6.9619174, 0.023719788, 0.06964636, 9.829976
780693238407536, -6.896115, 0.3912265, 6.9128647, 0.009685516, 0.07253814, 9.77199
780693248047640, -6.8458657, 0.3900301, 6.8709903, 0.0116865635, 0.06509757, 9.706912
780693257687640, -6.808777, 0.3684947, 6.823134, -0.008585215, 0.059084177, 9.646079
780693267327640, -6.8219376, 0.37686956, 6.7525454, -0.03682542, 0.109945774, 9.60543
780693276967640, -6.800402, 0.32063824, 6.74776, -0.07352924, 0.06537056, 9.58493
780693286607640, -6.8219376, 0.3278167, 6.77767, -0.06529212, 0.06454682, 9.621574
780693296247640, -6.856633, 0.3278167, 6.7561345, -0.08864188, 0.0988121, 9.6306095
780693305887744, -6.899704, 0.31106696, 6.8075805, -0.101264715, 0.08190489, 9.696848
780693315527744, -6.926025, 0.31345975, 6.9415784, -0.052803278, 0.025221586, 9.810717
780693325167744, -6.9009004, 0.30867413, 7.066005, 0.0075867176, -0.06022191, 9.88142
780693334807744, -6.9391856, 0.2883351, 7.1820574, 0.02210474, -0.11782384, 9.990147
780693344447744, -6.966703, 0.3062813, 7.2861447, 0.06762695, -0.14743042, 10.084166
780693354087744, -7.0061846, 0.317049, 7.292127, 0.060114384, -0.11567354, 10.116585
780693363727848, -6.9942207, 0.317049, 7.2969127, 0.06743646, -0.12501955, 10.111599
780693373367848, -6.9942207, 0.33499518, 7.268199, 0.0649147, -0.09274387, 10.091841
780693383007848, -6.9702926, 0.33260235, 7.216753, 0.05273199, -0.078091145, 10.038339
780693392647848, -6.91765, 0.34576288, 7.1545396, 0.054403305, -0.062141895, 9.957613
780693402287848, -6.893722, 0.37686956, 7.0528445, 0.044532537, 0.001162529, 9.8694515
780693411927952, -6.847062, 0.41994038, 6.9786673, 0.066464186, 0.041885376, 9.78541
780693421567952, -6.8279195, 0.43070808, 6.899704, 0.05228114, 0.082680464, 9.716087
780693431207952, -6.8075805, 0.43429732, 6.8195443, 0.026932478, 0.11481309, 9.644897
780693440847952, -6.7645097, 0.4019942, 6.832705, 0.024773836, 0.061271667, 9.622976
780693450487952, -6.734599, 0.39960137, 6.882954, 0.055751562, 0.013051271, 9.637753
780693460128057, -6.7525454, 0.40558344, 6.875776, 0.049164772, 0.030099154, 9.6454315
780693469768057, -6.7633133, 0.39361933, 6.893722, 0.041603565, 0.018445492, 9.665333
780693479408057, -6.7848487, 0.38883367, 6.9212394, 0.03917384, 0.0115942955, 9.699858
780693489048057, -6.829116, 0.37686956, 6.9726853, 0.030044794, 0.0012278557, 9.767103
780693498688057, -6.8745794, 0.3792624, 6.971489, 0.011710405, 0.029438972, 9.798179
780693508328057, -6.920043, 0.37567315, 6.995417, -0.00202322, 0.03865719, 9.846952
780693517968161, -6.9344, 0.36610186, 7.112665, 0.03446889, -0.025520325, 9.940226
780693527608161, -6.9499536, 0.37806597, 7.1629148, 0.05778289, -0.037726402, 9.98736
780693537248161, -6.9128647, 0.36370903, 7.1712894, 0.06804323, -0.071587086, 9.966826
780693546888161, -6.890133, 0.37088752, 7.1820574, 0.08910251, -0.08434582, 9.958834
780693556528265, -6.869794, 0.36729828, 7.146165, 0.07918143, -0.07628083, 9.9189
780693566168265, -6.8685975, 0.36251262, 7.109076, 0.058352232, -0.05812788, 9.891472
780693575808265, -6.8781686, 0.35413775, 7.066005, 0.028675795, -0.033110857, 9.867174
780693585448265, -6.908079, 0.33499518, 7.003792, -0.025455475, 0.007147312, 9.843079
780693595088265, -6.9152575, 0.32303107, 6.9224358, -0.07047582, 0.049422026, 9.7896805
780693604728369, -6.8949184, 0.3074777, 6.863812, -0.09507823, 0.06071639, 9.73312
780693614368369, -6.9056864, 0.30029923, 6.853044, -0.10774112, 0.066658735, 9.732771
780693624008369, -6.914061, 0.31944183, 6.862615, -0.09066725, 0.0750978, 9.746174
780693633648369, -6.903293, 0.36370903, 6.8650084, -0.04727626, 0.09266424, 9.741932
780693643288369, -6.8518476, 0.38524446, 6.884151, 0.0026464462, 0.062180758, 9.720283
780693652928473, -6.800402, 0.3900301, 6.937989, 0.0516572, 0.0044136047, 9.722685
780693662568473, -6.7908306, 0.37208393, 6.971489, 0.05497384, -0.031176805, 9.739172
780693672208473, -6.838687, 0.3589234, 7.004988, 0.03702283, -0.03177452, 9.79612
780693681848473, -6.875776, 0.3290131, 6.9906316, -0.0059256554, -0.020115852, 9.8108635
780693691488577, -6.9056864, 0.317049, 6.983453, -0.029741764, -0.0062680244, 9.826326
780693701128577, -6.954739, 0.28953153, 6.9678993, -0.08009982, 0.012789011, 9.848719
780693710768577, -6.9595246, 0.29790643, 6.943971, -0.08357382, 0.03482151, 9.83536
780693720408577, -6.9786673, 0.32542387, 6.9248285, -0.073542595, 0.07179737, 9.836178
780693730048577, -6.960721, 0.3505485, 6.9415784, -0.03682518, 0.06632304, 9.836376
780693739688682, -6.940382, 0.34217364, 6.9930243, -0.011751652, 0.019440174, 9.858391
780693749328682, -6.936793, 0.33260235, 7.031309, -4.4226646E-4, -0.010878086, 9.882755
780693758968682, -6.96431, 0.30987054, 7.0731835, -0.012244701, -0.03430748, 9.931074
780693768608682, -6.942775, 0.2943172, 7.092326, -0.006923914, -0.06654978, 9.929016
780693778248682, -6.9248285, 0.317049, 7.07438, 0.013063669, -0.05326414, 9.904425
780693787888786, -6.8817577, 0.3290131, 7.048059, 0.031728983, -0.055065155, 9.855858
780693797528786, -6.836294, 0.35653058, 6.9858456, 0.047225475, -0.028974533, 9.780645
