timestamp_acc,device_acc_x,device_acc_y,device_acc_z,earth_acc_x,earth_acc_y,earth_acc_z
780590664091124, 0.4941179, 5.9246287, 7.941778, -0.016262054, -0.008046627, 9.920528
780590673731228, 0.51445687, 5.928218, 7.978867, 0.009161472, -0.017866135, 9.953407
780590683371228, 0.4953143, 5.933004, 7.9573317, -0.01369369, -0.008464813, 9.9380455
780590693011332, 0.5072784, 5.9210396, 7.9238324, -0.005102873, 0.00646019, 9.9047
780590702651332, 0.51445687, 5.9413786, 7.9393854, -0.0014336109, 0.01611948, 9.929665
780590712291332, 0.5455636, 5.956932, 7.9346, 0.021401525, 0.043090343, 9.936712
780590721931436, 0.5347959, 5.9557357, 7.9298143, 0.010484219, 0.040540695, 9.931616
780590731571436, 0.51086766, 5.962914, 7.9310107, -0.0135195255, 0.036338806, 9.935632
780590741211436, 0.5240282, 5.960521, 7.9680996, 0.0052685738, 0.017439365, 9.964572
780590750851541, 0.5180461, 5.9353967, 7.9238324, -6.3705444E-4, 0.02167368, 9.913827
780590760491541, 0.5084748, 5.9114685, 7.911868, -0.0048383474, 0.006980896, 9.889469
780590770131541, 0.526421, 5.9174504, 7.952546, 0.01703322, -0.005694866, 9.92653
780590779771645, 0.4989035, 5.9377894, 7.948957, -0.016364098, 0.002090931, 9.934379
780590789411645, 0.46899325, 5.9270215, 7.908279, -0.048025608, 0.0064868927, 9.89384
780590799051645, 0.49651068, 5.9437714, 7.9393854, -0.022541046, 0.011358738, 9.930163
780590808691749, 0.51565325, 5.9617176, 7.9429746, -0.010149717, 0.02976942, 9.94474
780590818331749, 0.53240305, 5.9413786, 7.9226356, 0.00783062, 0.03233242, 9.917181
780590827971853, 0.53599226, 5.9724855, 7.962117, 0.007241726, 0.03366375, 9.967548
780590837611853, 0.5084748, 5.95095, 7.9716887, -0.009815097, 0.0018863678, 9.96093
780590847251853, 0.5024927, 5.9353967, 7.9836526, -0.008311868, -0.01855135, 9.960911
780590856891957, 0.5204389, 5.95095, 7.975278, 0.002381444, 0.004568577, 9.964422
780590866531957, 0.47856453, 5.9377894, 7.952546, -0.036605716, -0.006652355, 9.936195
780590876171957, 0.49172506, 5.9042897, 7.926225, -0.018397808, -0.011704922, 9.895807
780590885812061, 0.5419743, 5.910272, 7.9190464, 0.025772333, 0.015558243, 9.896233
780590895452061, 0.5024927, 5.899504, 7.952546, -0.0023921728, -0.025280952, 9.914585
780590905092061, 0.49172506, 5.910272, 7.9334035, -0.019355297, -0.009608269, 9.905128
780590914732166, 0.53359944, 5.9581285, 7.90469, 0.0010737181, 0.05850792, 9.912855
780590924372166, 0.50129634, 5.9581285, 7.921439, -0.026160598, 0.037285328, 9.924601
780590934012270, 0.5072784, 5.9712887, 7.944171, -0.02104187, 0.03590393, 9.950967
780590943652270, 0.5084748, 5.962914, 7.9298143, -0.019744754, 0.03835106, 9.934536
780590953292270, 0.526421, 5.9712887, 7.944171, -0.004198432, 0.042000294, 9.951959
780590962932374, 0.5072784, 5.9545393, 8.013563, -0.0052298307, -0.017252445, 9.996536
780590972572374, 0.50009996, 5.918647, 8.002795, -0.0023241043, -0.04013014, 9.966124
780590982212374, 0.50368917, 5.8935223, 7.958528, 0.0010026693, -0.031586647, 9.915871
780590991852478, 0.51565325, 5.9413786, 7.948957, -0.0047894716, 0.014577866, 9.937382
780591001492478, 0.5383851, 5.925825, 7.8903327, 0.011327267, 0.04472494, 9.882331
780591011132478, 0.51086766, 5.9234324, 7.9130645, -0.00978744, 0.019519806, 9.897686
780591020772582, 0.53359944, 5.9497533, 7.954939, 0.010655522, 0.022907257, 9.9481
780591030412582, 0.51565325, 5.940182, 7.9561353, -0.0034575462, 0.008929729, 9.942417
780591040052582, 0.50129634, 5.9497533, 7.958528, -0.019483447, 0.009663582, 9.949299
780591049692686, 0.5084748, 5.966503, 7.946564, -0.019963026, 0.0317297, 9.950085
780591059332686, 0.50368917, 5.9760747, 7.9501534, -0.02552247, 0.035902977, 9.958423
780591068972791, 0.5072784, 5.9521465, 7.98126, -0.008653522, 0.0016665459, 9.969242
780591078612791, 0.49292147, 5.9353967, 7.9657063, -0.018930554, -0.0066099167, 9.946053
780591088252791, 0.5072784, 5.9437714, 7.8963146, -0.020093799, 0.04447317, 9.896219
780591097892895, 0.5312066, 5.9270215, 7.926225, 0.013220429, 0.022742748, 9.911413
780591107532895, 0.5300102, 5.912665, 7.9716887, 0.02508533, -0.01391983, 9.93919
780591117172895, 0.51565325, 5.901897, 7.944171, 0.009646416, -0.010605812, 9.909992
780591126812999, 0.51565325, 5.9138613, 7.908279, -6.042719E-4, 0.018657684, 9.888388
780591136452999, 0.4869394, 5.9246287, 7.9154572, -0.02997303, 0.013433933, 9.899076
780591146092999, 0.47856453, 5.936593, 7.9226356, -0.040453076, 0.0151257515, 9.911531
780591155733103, 0.4869394, 5.948557, 7.958528, -0.030015707, 0.0064783096, 9.947848
780591165373103, 0.5024927, 5.9557357, 7.9908314, -0.011843085, -4.5871735E-4, 9.978805
780591175013103, 0.50009996, 5.986842, 7.9776707, -0.02599144, 0.029744625, 9.986694
780591184653207, 0.50368917, 5.9700923, 7.9657063, -0.019323468, 0.025642872, 9.967304
780591194293207, 0.53359944, 5.9676995, 7.946564, 0.006790757, 0.045701027, 9.95208
780591203933207, 0.5407779, 5.9760747, 7.8903327, 5.710125E-4, 0.08596325, 9.91241
780591213573311, 0.53240305, 5.9318075, 7.893922, 0.007638216, 0.048300743, 9.888448
780591223213311, 0.53359944, 5.9114685, 7.941778, 0.023309708, 0.004304886, 9.914709
780591232853416, 0.5180461, 5.901897, 7.9764743, 0.017600179, -0.027933598, 9.935986
780591242493416, 0.4953143, 5.875576, 7.9597244, 0.0018122196, -0.04590273, 9.905698
780591252133416, 0.51445687, 5.9114685, 7.948957, 0.00643003, -0.0056710243, 9.919475
780591261773520, 0.51565325, 5.9437714, 7.940582, -0.0037736893, 0.024637222, 9.932096
780591271413520, 0.46899325, 5.930611, 7.938189, -0.04356277, 2.861023E-6, 9.919932
780591281053520, 0.49052864, 5.9473605, 7.946564, -0.02677834, 0.015098572, 9.93774
780591290693624, 0.4977071, 5.9676995, 7.9884386, -0.018439293, 0.0089998245, 9.983781
780591300333624, 0.48933223, 5.953343, 8.035098, -0.013186097, -0.031044483, 10.012161
780591309973624, 0.54317075, 5.9413786, 8.001599, 0.03531623, -0.0012860298, 9.980949
780591319613728, 0.51565325, 5.933004, 7.9393854, 0.0018793344, 0.018670082, 9.924712
780591329253728, 0.5240282, 5.907879, 7.881958, 0.007407069, 0.0353899, 9.864157
780591338893728, 0.52163535, 5.9473605, 7.88794, -0.006101012, 0.059120655, 9.892385
780591348533832, 0.49052864, 5.9377894, 7.853244, -0.037550807, 0.05843067, 9.857311
780591358173832, 0.51445687, 5.9413786, 7.897511, -0.008658409, 0.04429531, 9.896125
780591367813832, 0.5180461, 5.918647, 7.941778, 0.010337114, 0.0027952194, 9.91819
780591377453936, 0.48095736, 5.9270215, 7.9513497, -0.024838567, -0.010199547, 9.928955
780591387093936, 0.4869394, 5.919843, 7.8903327, -0.027153254, 0.021742344, 9.8761215
780591396733936, 0.5180461, 5.9150577, 7.905886, 0.005551338, 0.020256042, 9.88731
780591406374041, 0.51445687, 5.936593, 7.960921, 0.0041395426, 0.00364542, 9.944044
780591416014041, 0.4881358, 5.922236, 7.9501534, -0.018238544, -0.009590149, 9.925507
780591425654041, 0.53599226, 5.942575, 8.042277, 0.03613758, -0.028927803, 10.01387
780591435294145, 0.5276174, 5.9964137, 8.066205, 0.015473127, -0.005217552, 10.064727
780591444934145, 0.46301118, 5.953343, 7.972885, -0.04659915, -0.00750494, 9.960992
780591454574145, 0.47377887, 5.956932, 7.9429746, -0.04164803, 0.015933037, 9.939735
780591464214249, 0.53359944, 5.985646, 7.9094753, -0.0012747049, 0.077700615, 9.933098
780591473854249, 0.51565325, 5.9521465, 7.879565, -0.011576414, 0.06269121, 9.8882475
780591483494249, 0.51445687, 5.9174504, 7.873583, -0.0024057627, 0.036629677, 9.8626995
780591493134353, 0.5300102, 5.916254, 7.914261, 0.019413233, 0.017443657, 9.895344
780591502774353, 0.5168497, 5.925825, 7.9346, 0.0077005625, 0.008119106, 9.916666
780591512414353, 0.4941179, 5.907879, 7.908279, -0.013190627, 0.0012774467, 9.8837185
780591522054353, 0.4977071, 5.946164, 7.925029, -0.019772887, 0.02117014, 9.920173
780591531694457, 0.49172506, 5.946164, 7.9477606, -0.021825194, 0.0054597855, 9.938062
780591541334457, 0.4977071, 5.938986, 7.954939, -0.012310743, -0.0024180412, 9.939827
780591550974457, 0.506082, 5.9473605, 7.9537425, -0.0075131655, 0.0075650215, 9.944302
780591560614561, 0.4953143, 5.9473605, 7.9429746, -0.017846465, 0.008634567, 9.935133
780591570254561, 0.49052864, 5.9449677, 7.9477606, -0.020622015, 0.002339363, 9.93729
780591579894561, 0.4989035, 5.959325, 7.9477606, -0.015399218, 0.01545763, 9.9463005
780591589534666, 0.4977071, 5.953343, 7.90469, -0.021416545, 0.035089016, 9.908201
780591599174666, 0.5072784, 5.928218, 7.9154572, -0.0018991232, 0.01368475, 9.90229
780591608814666, 0.51086766, 5.9246287, 7.9094753, 0.0015900135, 0.015659332, 9.895543
780591618454770, 0.5276174, 5.9174504, 7.9238324, 0.02216947, 0.008239269, 9.903594
780591628094770, 0.506082, 5.912665, 7.8987074, -4.143715E-4, 0.01091814, 9.879534
780591637734770, 0.4989035, 5.9030933, 7.905886, -0.002669692, -0.0029520988, 9.879192
780591647374874, 0.506082, 5.940182, 7.899904, -0.008772254, 0.030388355, 9.896936
780591657014874, 0.4989035, 5.953343, 7.9226356, -0.015758157, 0.024318218, 9.922627
780591666654874, 0.49292147, 5.960521, 7.960921, -0.016782403, 0.004878044, 9.957246
780591676294874, 0.4989035, 5.953343, 7.978867, -0.0057685375, -0.008813381, 9.967617
780591685934978, 0.5132605, 5.9748783, 7.9716887, -5.238056E-4, 0.016165733, 9.975479
780591695574978, 0.49651068, 5.9904313, 7.9836526, -0.018872142, 0.014855862, 9.993495
780591705214978, 0.58983076, 5.759524, 7.908279, 0.12808895, -0.07897091, 9.799911
780591714855082, 0.35174492, 6.0323057, 8.012366, -0.16189265, -0.023949623, 10.034126
780591724495082, 0.68195444, 6.068198, 7.780263, 0.0937413, 0.25602055, 9.886671
780591734135082, 0.29312077, 5.601598, 7.9968133, -0.0793581, -0.3570819, 9.761099
780591743775082, 0.6843473, 6.4438715, 7.8089767, -0.022634983, 0.5114083, 10.134589
780591753415186, 0.3481557, 5.2905307, 8.018349, 0.080979824, -0.5721493, 9.59536
780591763055186, 0.6113662, 6.6053867, 7.8520474, -0.13313448, 0.58367586, 10.261636
780591772695186, 0.4749753, 5.319245, 7.9393854, 0.18269277, -0.4664755, 9.55525
780591782335291, 0.4869394, 6.4965134, 7.962117, -0.19405818, 0.38286877, 10.278757
780591791975291, 0.6053841, 5.625526, 7.8604226, 0.18324363, -0.13995838, 9.682256
780591801615291, 0.36251262, 6.1304116, 8.036295, -0.1732645, 0.028439045, 10.112595
780591811255291, 0.6795616, 6.0287166, 7.780263, 0.10293257, 0.22205496, 9.863054
780591820895395, 0.28115666, 5.625526, 8.009974, -0.084933996, -0.35470438, 9.785307
780591830535395, 0.7190432, 6.4474607, 7.6259255, -0.02203846, 0.6259532, 9.992458
780591840175395, 0.5180461, 5.2845488, 8.132008, 0.27019203, -0.5806589, 9.690934
780591849815395, 0.3469593, 6.6364937, 8.085348, -0.34449375, 0.37037706, 10.453728
780591859455499, 0.47976094, 5.3970113, 7.789834, 0.14038038, -0.32268858, 9.482383
780591869095499, 0.6221339, 6.5575304, 7.7814593, -0.10797703, 0.58272505, 10.177825
780591878735499, 0.3804588, 5.4412785, 7.958528, 0.059303403, -0.4213953, 9.63895
780591888375603, 0.43669012, 6.1184473, 7.9968133, -0.104082584, 0.06349993, 10.07771
780591898015603, 0.8315059, 5.9270215, 7.7623167, 0.279346, 0.20831108, 9.7955675
780591907655603, 0.18664017, 5.6853466, 8.153543, -0.16900837, -0.43094635, 9.930962
780591917295603, 0.59581286, 6.4534426, 7.85444, -0.09088206, 0.45835924, 10.172304
780591926935707, 0.37088752, 5.3623157, 7.9429746, 0.07201135, -0.48237133, 9.57836
780591936575707, 0.5886344, 6.6424756, 7.818548, -0.16186023, 0.61606884, 10.256361
780591946215707, 0.4977071, 5.2869415, 7.9334035, 0.21554923, -0.48640537, 9.531804
780591955855707, 0.5910272, 6.556334, 7.8903327, -0.121080875, 0.500309, 10.262905
780591965495811, 0.5347959, 5.5369916, 7.914261, 0.16130424, -0.2720003, 9.668495
780591975135811, 0.3481557, 6.282356, 8.084151, -0.22086239, 0.09730291, 10.241313
780591984775811, 0.63888365, 5.9581285, 7.7994056, 0.09847832, 0.13802338, 9.834097
780591994415811, 0.2835495, 5.7379885, 7.969296, -0.1222837, -0.2581911, 9.82003
780592004055916, 0.72263247, 6.355337, 7.7312098, 0.029910207, 0.4942727, 10.021922
780592013695916, 0.31585258, 5.3312087, 8.021938, 0.054252863, -0.5772786, 9.619608
780592023335916, 0.62811595, 6.5611196, 7.908279, -0.08494604, 0.51227856, 10.2817335
780592032975916, 0.40079778, 5.235496, 7.982456, 0.1476351, -0.5848007, 9.535559
780592042616020, 0.49292147, 6.5491557, 7.877172, -0.2075293, 0.46425295, 10.243323
780592052256020, 0.5395815, 5.48076, 7.8903327, 0.17781663, -0.30044174, 9.6158905
780592061896020, 0.3900301, 6.29432, 8.038688, -0.19199002, 0.14824533, 10.214315
780592071536020, 0.66161543, 5.9030933, 7.85444, 0.14959097, 0.07026005, 9.846277
780592081176020, 0.2428715, 5.849255, 8.036295, -0.18804574, -0.22831869, 9.938174
780592090816124, 0.69152576, 6.385247, 7.752745, 0.0062869787, 0.49348497, 10.055401
780592100456124, 0.34456646, 5.4376893, 8.018349, 0.03943026, -0.48067045, 9.682381
780592110096124, 0.6580262, 6.600601, 7.853244, -0.083589196, 0.5794964, 10.263118
780592119736124, 0.39840496, 5.209175, 7.9274216, 0.15853119, -0.58407164, 9.474808
780592129376228, 0.5563313, 6.5551376, 7.847262, -0.16469502, 0.50939655, 10.226058
780592139016228, 0.52522457, 5.4053864, 7.830512, 0.19120204, -0.33671856, 9.521609
780592148656228, 0.37567315, 6.279963, 7.9106717, -0.2234422, 0.19566011, 10.102949
780592158296228, 0.66161543, 5.8337016, 7.8053875, 0.16861296, 0.044858456, 9.765421
780592167936228, 0.2955136, 5.8971114, 8.099705, -0.13547444, -0.21618843, 10.020149
780592177576332, 0.67836523, 6.3074803, 7.830512, 0.02933395, 0.37930298, 10.070586
780592187216332, 0.30867413, 5.4556355, 8.01117, 0.0018463135, -0.48175526, 9.6853485
780592196856332, 0.6652047, 6.6448684, 7.85444, -0.08086777, 0.6123872, 10.291136
780592206496332, 0.39720857, 5.288138, 8.014759, 0.14435089, -0.5800929, 9.591726
780592216136436, 0.53240305, 6.587441, 7.856833, -0.18524885, 0.51945496, 10.251999
780592225776436, 0.5395815, 5.3850474, 7.8903327, 0.22058988, -0.38594055, 9.557701
780592235416436, 0.4211368, 6.3589263, 7.987242, -0.18663979, 0.22647142, 10.213875
780592245056436, 0.6053841, 5.7834525, 7.7754774, 0.13440824, -2.5987625E-4, 9.708492
780592254696436, 0.29192436, 5.895915, 7.9537425, -0.15898919, -0.13774776, 9.902769
780592264336541, 0.7178468, 6.262017, 7.7419777, 0.07369554, 0.4110794, 9.9745655
780592273976541, 0.30987054, 5.4963136, 8.007581, -0.0051385164, -0.45611572, 9.706636
780592283616541, 0.654437, 6.552745, 7.7946196, -0.06772077, 0.5657325, 10.18814
780592293256541, 0.3924229, 5.2893343, 8.024331, 0.14205647, -0.57930374, 9.600269
780592302896541, 0.567099, 6.661618, 7.9357963, -0.15248859, 0.53097916, 10.361971
780592312536645, 0.4833502, 5.3742795, 7.9070826, 0.17177379, -0.4174819, 9.562148
780592322176645, 0.4139583, 6.3996043, 7.944171, -0.2139262, 0.285717, 10.20337
780592331816645, 0.634098, 5.7427745, 7.8317084, 0.18035889, -0.050417423, 9.730474
780592341456645, 0.31345975, 5.973682, 8.032705, -0.1525774, -0.12068939, 10.013473
780592351096645, 0.6520442, 6.1770716, 7.8197446, 0.053768277, 0.27678347, 9.9825
780592360736645, 0.27158538, 5.5262237, 8.053044, -0.034827948, -0.47263813, 9.75909
780592370376749, 0.6855437, 6.576673, 7.8053875, -0.050067782, 0.5860195, 10.212773
780592380016749, 0.357727, 5.302495, 7.982456, 0.10346913, -0.55967116, 9.572883
780592389656749, 0.5599205, 6.6556363, 7.895118, -0.17306781, 0.5511737, 10.32522
780592399296749, 0.4977071, 5.3647084, 7.8436728, 0.18147516, -0.3853836, 9.50629
780592408936749, 0.45822555, 6.4462643, 7.8496547, -0.20463169, 0.38443804, 10.158332
780592418576853, 0.587438, 5.6733823, 7.771888, 0.15037727, -0.08963394, 9.63867
780592428216853, 0.31345975, 6.017949, 8.019546, -0.16625583, -0.08504391, 10.029568
780592437856853, 0.6963114, 6.1399827, 7.820941, 0.11348283, 0.26009083, 9.963476
780592447496853, 0.27876383, 5.534599, 8.036295, -0.039815187, -0.4603963, 9.7507925
780592457136853, 0.6855437, 6.5001025, 7.792227, -0.021056294, 0.544045, 10.155968
780592466776957, 0.36370903, 5.334798, 8.048259, 0.11037624, -0.5731282, 9.645008
780592476416957, 0.57188463, 6.6759753, 7.9310107, -0.15956557, 0.5520325, 10.366601
780592486056957, 0.43908295, 5.339584, 7.962117, 0.1630181, -0.50004816, 9.582414
780592495696957, 0.4319045, 6.515656, 7.966903, -0.23046446, 0.36048746, 10.292173
780592505336957, 0.60777694, 5.6709895, 7.885547, 0.19778538, -0.14957476, 9.728817
780592514976957, 0.30388847, 6.096912, 8.02792, -0.1985079, -0.03328848, 10.083237
780592524617061, 0.66161543, 6.0981083, 7.745567, 0.08171284, 0.26299095, 9.876368
780592534257061, 0.31106696, 5.6171513, 7.8987074, -0.058028936, -0.30598402, 9.692354
780592543897061, 0.7106683, 6.468996, 7.735996, 0.015557766, 0.5583472, 10.093888
780592553537061, 0.32422748, 5.285745, 8.005188, 0.07281673, -0.6126776, 9.578443
780592563177061, 0.55752766, 6.6245294, 7.8687973, -0.15736139, 0.5320616, 10.286173
780592572817061, 0.4749753, 5.3072805, 7.966903, 0.19748044, -0.5107002, 9.568937
780592582457061, 0.45702913, 6.518049, 7.960921, -0.19816613, 0.37871552, 10.290161
780592592097166, 0.53599226, 5.5944195, 7.8424764, 0.14645302, -0.21188784, 9.644839
780592601737166, 0.33379877, 6.1591253, 7.9884386, -0.1922561, 0.048630238, 10.0906925
780592611377166, 0.6879365, 6.078966, 7.812566, 0.12998104, 0.21900272, 9.919598
780592621017166, 0.25842485, 5.642276, 8.021938, -0.09686935, -0.38018274, 9.803041
780592630657166, 0.6795616, 6.4235325, 7.737192, -4.0519238E-4, 0.5082369, 10.066251
780592640297166, 0.35174492, 5.346762, 7.978867, 0.07880902, -0.54112244, 9.595566
780592649937270, 0.58504516, 6.6305118, 7.87119, -0.12829912, 0.54725266, 10.292992
780592659577270, 0.40079778, 5.258228, 7.9369926, 0.14740586, -0.55469155, 9.511888
780592669217270, 0.506082, 6.5635123, 7.9357963, -0.17771125, 0.44082737, 10.299843
780592678857270, 0.5886344, 5.6099725, 7.925029, 0.2102027, -0.22461605, 9.722639
780592688497270, 0.3182454, 6.192625, 8.039884, -0.20994794, 0.03239584, 10.151081
780592698137270, 0.64606214, 6.009574, 7.804191, 0.104605556, 0.16113377, 9.869186
780592707777270, 0.2835495, 5.7451673, 8.006385, -0.101789, -0.28793383, 9.8537445
780592717417374, 0.65922266, 6.407979, 7.745567, -0.022195816, 0.49071026, 10.062271
780592727057374, 0.32063824, 5.326423, 7.9884386, 0.072428584, -0.5708909, 9.589451
780592736697374, 0.6269195, 6.5946193, 7.838887, -0.1001091, 0.56246185, 10.247136
780592746337374, 0.45104706, 5.235496, 7.9633136, 0.2194314, -0.5625429, 9.521744
780592755977374, 0.4941179, 6.5551376, 7.914261, -0.19127643, 0.4306407, 10.277521
780592765617374, 0.5706882, 5.5262237, 7.905886, 0.22091687, -0.2795763, 9.656134
780592775257374, 0.37567315, 6.270392, 8.021938, -0.18661952, 0.12703276, 10.186241
780592784897478, 0.6376872, 5.9844494, 7.8149586, 0.113012075, 0.13225937, 9.86223
780592794537478, 0.2656033, 5.8133626, 8.036295, -0.12989974, -0.26046705, 9.917814
780592804177478, 0.6723832, 6.3589263, 7.792227, 0.013454199, 0.42914963, 10.070874
780592813817478, 0.32063824, 5.386244, 8.035098, 0.056453586, -0.5549264, 9.662615
780592823457478, 0.63170516, 6.600601, 7.853244, -0.08982253, 0.5508084, 10.262992
780592833097478, 0.38644084, 5.2510495, 8.001599, 0.1468122, -0.6026945, 9.558435
780592842737478, 0.4941179, 6.5647087, 7.8927255, -0.18939984, 0.45301342, 10.266136
780592852377478, 0.5288138, 5.4412785, 7.8484583, 0.19205749, -0.33107805, 9.55714
780592862017582, 0.38883367, 6.3110695, 7.9704924, -0.19468915, 0.19175434, 10.170293
780592871657582, 0.6412765, 5.9246287, 7.780263, 0.13289535, 0.10575676, 9.798782
780592881297582, 0.27158538, 5.8540406, 7.98126, -0.15169072, -0.19563532, 9.898626
780592890937582, 0.67477596, 6.334998, 7.743174, 0.02284038, 0.44409418, 10.017312
780592900577582, 0.33738798, 5.436493, 8.038688, 0.060407996, -0.5064459, 9.69689
780592910217582, 0.6723832, 6.6125655, 7.844869, -0.06154096, 0.5795636, 10.265495
780592919857582, 0.37806597, 5.2259245, 7.9573317, 0.16080606, -0.59408927, 9.507553
780592929497686, 0.506082, 6.5778694, 7.897511, -0.19864523, 0.46738577, 10.277999
780592939137686, 0.51565325, 5.393422, 7.8963146, 0.21671307, -0.39154434, 9.565898
780592948777686, 0.39840496, 6.32423, 8.007581, -0.18987834, 0.1792736, 10.208221
780592958417686, 0.60658056, 5.8169518, 7.85444, 0.14691794, -0.022090435, 9.791579
780592968057686, 0.31226337, 5.9210396, 8.063812, -0.11862421, -0.17922115, 10.006752
780592977697686, 0.7070791, 6.334998, 7.783852, 0.05752802, 0.4325285, 10.051374
780592987337686, 0.28235307, 5.4795637, 8.025527, -0.011675954, -0.49299335, 9.709339
780592996977686, 0.63529444, 6.6017976, 7.85444, -0.08005571, 0.56422377, 10.26425
780593006617686, 0.4019942, 5.298906, 8.024331, 0.1586914, -0.5814376, 9.605553
780593016257791, 0.5419743, 6.6077795, 7.8723865, -0.1602329, 0.5148573, 10.278143
780593025897791, 0.5024927, 5.3539405, 7.8113694, 0.1915245, -0.37309885, 9.474112
780593035537791, 0.4426722, 6.390033, 7.8496547, -0.19063771, 0.3396659, 10.123923
780593045177791, 0.63529444, 5.7894344, 7.7850485, 0.16707909, 0.0049824715, 9.721121
780593054817791, 0.2632105, 5.9090757, 7.9920278, -0.1806314, -0.16599512, 9.939758
780593064457791, 0.6687939, 6.1998034, 7.773084, 0.06470096, 0.3206396, 9.959854
780593074097791, 0.28594232, 5.5226345, 8.031509, -0.03540778, -0.46496296, 9.740071
780593083737791, 0.6017949, 6.552745, 7.8017983, -0.09755278, 0.5379672, 10.191653
780593093377895, 0.3361916, 5.2570314, 7.995617, 0.086806655, -0.61514354, 9.554757
780593103017895, 0.57188463, 6.6568327, 7.9022965, -0.13762605, 0.54529047, 10.332981
780593112657895, 0.51445687, 5.3706903, 7.941778, 0.2117958, -0.43409586, 9.588928
780593122297895, 0.4139583, 6.4259253, 8.014759, -0.19508266, 0.25782347, 10.275979
780593131937895, 0.6017949, 5.7152567, 7.8556366, 0.1681161, -0.100105286, 9.731345
780593141577895, 0.33020952, 6.017949, 8.02792, -0.14711249, -0.07685661, 10.037165
780593151217895, 0.6759724, 6.2009997, 7.776674, 0.06961858, 0.329309, 9.963568
780593160857895, 0.27158538, 5.5274205, 8.025527, -0.040916443, -0.45533895, 9.737875
780593170497999, 0.7070791, 6.5371914, 7.8149586, -0.00786972, 0.5602336, 10.197769
780593180137999, 0.33738798, 5.272585, 8.025527, 0.10538471, -0.61281586, 9.588348
780593189777999, 0.55752766, 6.643672, 7.8783684, -0.16975892, 0.54490757, 10.304959
780593199417999, 0.4881358, 5.3359947, 7.877172, 0.19869733, -0.42147064, 9.515453
780593209057999, 0.41874397, 6.4558353, 7.9274216, -0.22483635, 0.33892775, 10.224077
780593218697999, 0.5838487, 5.6674004, 7.834101, 0.16796577, -0.1208787, 9.684558
780593228337999, 0.3385844, 6.058627, 8.030313, -0.14867353, -0.045113564, 10.063963
780593237977999, 0.695115, 6.1208405, 7.8053875, 0.11569488, 0.26406574, 9.939258
780593247617999, 0.3062813, 5.5860443, 8.093722, -0.013275504, -0.43534946, 9.829362
780593257258103, 0.66041905, 6.521638, 7.8436728, -0.043561578, 0.5275984, 10.208373
780593266898103, 0.33738798, 5.298906, 8.045866, 0.10378444, -0.60872793, 9.620128
780593276538103, 0.58983076, 6.6711893, 7.928618, -0.13982832, 0.5529995, 10.362928
780593286178103, 0.45702913, 5.328816, 7.952546, 0.19985712, -0.48220825, 9.56952
780593295818103, 0.44745782, 6.5144596, 7.940582, -0.225407, 0.38376856, 10.270986
780593305458103, 0.5802595, 5.6267223, 7.8317084, 0.18210387, -0.15044165, 9.657981
780593315098103, 0.3290131, 6.1100726, 7.987242, -0.18533957, 0.014361858, 10.059956
780593324738103, 0.6759724, 6.067002, 7.7742805, 0.10504484, 0.24116373, 9.881079
780593334378207, 0.29312077, 5.6063833, 7.966903, -0.05144453, -0.3543458, 9.739651
780593344018207, 0.68075806, 6.4331036, 7.752745, -0.014561534, 0.5173187, 10.083921
780593353658207, 0.32662028, 5.300102, 7.987242, 0.08079815, -0.5781276, 9.573559
780593363298207, 0.6041877, 6.6424756, 7.899904, -0.121019125, 0.5548544, 10.323444
780593372938207, 0.4546363, 5.291727, 7.995617, 0.19622898, -0.54192305, 9.581586
780593382578207, 0.46779683, 6.519245, 7.9968133, -0.18793678, 0.3600254, 10.320052
780593392218207, 0.5599205, 5.564509, 7.9298143, 0.19261312, -0.25506926, 9.698303
780593401858207, 0.3290131, 6.1495543, 8.10808, -0.17793441, -0.015119553, 10.180098
780593411498207, 0.6556334, 6.0287166, 7.8604226, 0.11815095, 0.15916109, 9.925838
780593421138311, 0.25603202, 5.697311, 8.020741, -0.116245985, -0.32121897, 9.835675
780593430778311, 0.6879365, 6.445068, 7.7754774, -0.0016510487, 0.52258635, 10.10926
780593440418311, 0.30987054, 5.35753, 8.007581, 0.03881824, -0.5496979, 9.623764
780593450058311, 0.62093747, 6.652047, 7.861619, -0.11633241, 0.5960388, 10.299105
780593459698311, 0.4331009, 5.2905307, 7.9334035, 0.1617186, -0.51251984, 9.530338
780593469338311, 0.49172506, 6.558727, 7.867601, -0.19940257, 0.47717714, 10.2416
780593478978311, 0.5599205, 5.505885, 7.7994056, 0.1868248, -0.23111582, 9.558802
780593488618311, 0.357727, 6.1794643, 7.984849, -0.18112707, 0.08259916, 10.101086
780593498258416, 0.6867401, 5.933004, 7.84128, 0.17328072, 0.11316919, 9.854694
780593507898416, 0.31226337, 5.73081, 8.066205, -0.061817527, -0.30494118, 9.894773
780593517538416, 0.69272214, 6.3744793, 7.7790666, 0.020636082, 0.4704075, 10.070056
780593527178416, 0.34217364, 5.346762, 8.056634, 0.08167124, -0.5655656, 9.65856
780593536818416, 0.6197411, 6.619744, 7.9357963, -0.096078634, 0.5421643, 10.338222
780593546458416, 0.39840496, 5.2486563, 8.068598, 0.16834486, -0.62797236, 9.611799
780593556098416, 0.46301118, 6.570691, 8.018349, -0.21639514, 0.4010811, 10.366995
780593565738416, 0.53240305, 5.495117, 7.9393854, 0.18856633, -0.3209176, 9.663076
780593575378520, 0.35653058, 6.2919273, 8.035098, -0.21732831, 0.14703846, 10.2083025
780593585018520, 0.61854464, 5.9294147, 7.826923, 0.10921097, 0.09746885, 9.837675
780593594658520, 0.2955136, 5.788238, 8.006385, -0.111855984, -0.23022985, 9.880674
780593604298520, 0.6999006, 6.3361945, 7.771888, 0.043064237, 0.45491457, 10.041448
780593613938520, 0.29312077, 5.3766723, 8.007581, 0.023775578, -0.5291891, 9.635107
780593623578520, 0.6412765, 6.5718875, 7.8113694, -0.085133314, 0.578578, 10.211585
780593633218520, 0.39720857, 5.2438707, 7.9573317, 0.15826118, -0.5653124, 9.520002
780593642858520, 0.53240305, 6.576673, 7.895118, -0.16688073, 0.49374676, 10.276056
780593652498624, 0.53359944, 5.42094, 7.880761, 0.20358968, -0.33353853, 9.572097
780593662138624, 0.37806597, 6.276374, 7.9860454, -0.19513857, 0.16833115, 10.16102
780593671778624, 0.65324056, 5.844469, 7.877172, 0.1764735, 0.017624855, 9.82868
780593681418624, 0.27876383, 5.845666, 8.109276, -0.12655449, -0.25262117, 9.996502
780593691058624, 0.6664011, 6.2931237, 7.834101, 0.027689695, 0.37716818, 10.063679
780593700698624, 0.31465617, 5.4388857, 8.075776, 0.032598615, -0.5184107, 9.7277355
780593710338624, 0.6376872, 6.5958157, 7.8317084, -0.08854079, 0.5881882, 10.241742
780593719978624, 0.3924229, 5.271388, 7.9477606, 0.13317525, -0.53967714, 9.528875
780593729618728, 0.5240282, 6.623333, 7.932207, -0.18742871, 0.5072975, 10.332986
780593739258728, 0.48454657, 5.3766723, 7.9357963, 0.1753242, -0.41386366, 9.5873995
780593748898728, 0.4031906, 6.303891, 7.995617, -0.18495703, 0.19380808, 10.186253
780593758538728, 0.64965135, 5.7990055, 7.856833, 0.17877543, 0.0010943413, 9.78511
780593768178728, 0.31944183, 5.9030933, 8.05783, -0.121317744, -0.16194105, 9.991808
780593777818728, 0.695115, 6.259624, 7.7742805, 0.05915153, 0.39971828, 9.997112
780593787458728, 0.30508488, 5.447261, 8.005188, 0.005653858, -0.46877813, 9.676207
780593797098832, 0.66999036, 6.573084, 7.838887, -0.058121324, 0.5792546, 10.235406
780593806738832, 0.36131623, 5.2546387, 8.04467, 0.13082659, -0.61714625, 9.594816
780593816378832, 0.5515456, 6.599405, 7.938189, -0.16626298, 0.5058651, 10.32413
780593826018832, 0.5204389, 5.3383875, 7.9130645, 0.2198019, -0.41102457, 9.5482235
780593835658832, 0.38524446, 6.37089, 7.9597244, -0.24215949, 0.26156712, 10.196413
780593845298832, 0.6125626, 5.7320065, 7.8113694, 0.15266562, -0.033436775, 9.706917
780593854938832, 0.31106696, 5.9497533, 8.05783, -0.15114272, -0.13070011, 10.019234
780593864578936, 0.6963114, 6.209375, 7.806584, 0.07499635, 0.35004997, 9.9927845
780593874218936, 0.30149564, 5.5166526, 8.047063, -0.01935327, -0.44126606, 9.751126
780593883858936, 0.70229346, 6.5659056, 7.867601, -0.01951003, 0.5821285, 10.254961
780593893498936, 0.38165522, 5.2630134, 8.067402, 0.1314106, -0.61562157, 9.619339
780593903138936, 0.5395815, 6.623333, 7.946564, -0.18615401, 0.5192361, 10.344241
780593912778936, 0.45583272, 5.3096733, 7.921439, 0.16422296, -0.46757793, 9.534361
780593922418936, 0.40797627, 6.3960147, 7.995617, -0.22068882, 0.2661934, 10.241377
780593932059041, 0.5982057, 5.682954, 7.884351, 0.16767752, -0.11138964, 9.7353115
780593941699041, 0.32183465, 5.9820566, 8.084151, -0.1467278, -0.112895966, 10.060207
780593951339041, 0.70348984, 6.142376, 7.8017983, 0.098459125, 0.30972147, 9.949177
780593960979041, 0.31465617, 5.5453663, 8.020741, -0.016970277, -0.3961482, 9.748087
780593970619041, 0.695115, 6.5072813, 7.8113694, -0.03508711, 0.5712247, 10.174374
780593980259041, 0.3589234, 5.2701917, 8.032705, 0.11330223, -0.58484983, 9.59548
780593989899145, 0.58983076, 6.6257257, 7.948957, -0.13956606, 0.530386, 10.35052
780593999539145, 0.45224348, 5.3204412, 8.007581, 0.17735004, -0.5055399, 9.609679
780594009179145, 0.43788654, 6.45105, 7.9944205, -0.20979333, 0.3229251, 10.274736
780594018819145, 0.57427746, 5.629115, 7.880761, 0.16347623, -0.15296364, 9.699123
780594028459145, 0.32662028, 6.0550375, 8.030313, -0.17394269, -0.024702072, 10.061075
780594038099145, 0.6735796, 6.07418, 7.776674, 0.09221542, 0.2654109, 9.886712
780594047739249, 0.31226337, 5.5968122, 8.049456, -0.03636372, -0.3735242, 9.801771
780594057379249, 0.71425754, 6.478567, 7.856833, 0.011633396, 0.5279412, 10.194752
780594067019249, 0.31585258, 5.2689953, 8.084151, 0.07785809, -0.6371279, 9.633462
780594076659249, 0.57906306, 6.611369, 7.9130645, -0.14658237, 0.5523672, 10.311913
780594086299249, 0.4438686, 5.279763, 7.925029, 0.16934776, -0.4889984, 9.518993
780594095939249, 0.45942193, 6.48096, 7.9190464, -0.20987022, 0.40874958, 10.23299
780594105579353, 0.5599205, 5.5573306, 7.8197446, 0.16848409, -0.18027925, 9.606505
780594115219353, 0.32542387, 6.088537, 8.033902, -0.18633342, 0.0023503304, 10.083901
780594124859353, 0.6867401, 6.050252, 7.8257265, 0.12350929, 0.22830105, 9.912203
780594134499353, 0.30987054, 5.6685967, 8.084151, -0.050973535, -0.33954334, 9.872417
780594144139353, 0.6891329, 6.410372, 7.8927255, 0.01715064, 0.4516716, 10.181286
780594153779353, 0.3481557, 5.298906, 8.124829, 0.10523796, -0.62332535, 9.685704
780594163419457, 0.59581286, 6.6077795, 7.9334035, -0.12181294, 0.5376911, 10.327279
780594173059457, 0.4223332, 5.259424, 7.9537425, 0.15429425, -0.5174365, 9.529447
780594182699457, 0.46301118, 6.532406, 7.925029, -0.22658801, 0.43706703, 10.268905
780594192339457, 0.552742, 5.556134, 7.8867435, 0.16535902, -0.21417618, 9.659383
780594201979457, 0.35653058, 6.172286, 8.048259, -0.18638146, 0.06991291, 10.146875
780594211619457, 0.6687939, 5.994021, 7.8556366, 0.12605262, 0.16469288, 9.901697
780594221259561, 0.30029923, 5.6757755, 8.072187, -0.0666399, -0.33002615, 9.866685
780594230899561, 0.7118647, 6.3996043, 7.8149586, 0.03073442, 0.5036049, 10.113394
780594240539561, 0.35174492, 5.3359947, 8.032705, 0.082932115, -0.53357553, 9.634798
780594250179561, 0.61734825, 6.599405, 7.853244, -0.11219883, 0.58554745, 10.259205
780594259819561, 0.40917268, 5.221139, 7.958528, 0.15178359, -0.55566454, 9.509683
780594269459666, 0.4953143, 6.524031, 7.920243, -0.18721795, 0.44677496, 10.261769
780594279099666, 0.54317075, 5.4843497, 7.90469, 0.1841029, -0.28102636, 9.630388
780594288739666, 0.35294133, 6.196214, 8.085348, -0.190611, 0.068645, 10.190654
780594298379666, 0.6436693, 5.9234324, 7.8831544, 0.13376427, 0.08559942, 9.880297
780594308019666, 0.2727818, 5.761917, 8.118847, -0.11985111, -0.30014992, 9.954161
780594317659770, 0.65682983, 6.3517475, 7.8628154, 0.0052028894, 0.41754055, 10.120555
780594327299770, 0.30149564, 5.3647084, 8.088937, 0.028910518, -0.56273794, 9.694553
780594336939770, 0.6448657, 6.6364937, 7.9106717, -0.087263346, 0.6011529, 10.328052
780594346579770, 0.43788654, 5.2402816, 8.024331, 0.180938, -0.56788397, 9.575332
780594356219770, 0.4977071, 6.519245, 7.932207, -0.18338716, 0.44881678, 10.268062
780594365859874, 0.57906306, 5.4341, 7.880761, 0.22942638, -0.29928398, 9.582743
780594375499874, 0.41156548, 6.2715883, 7.993224, -0.17866349, 0.19530153, 10.164831
780594385139874, 0.62931234, 5.8432727, 7.8017983, 0.13101399, 0.067522526, 9.766586
780594394779874, 0.2955136, 5.812166, 7.999206, -0.13390326, -0.19182682, 9.889447
780594404419874, 0.6975078, 6.344569, 7.745567, 0.02295208, 0.49532366, 10.02437
780594414059978, 0.31345975, 5.38744, 8.036295, 0.025885344, -0.5146084, 9.666402
780594423699978, 0.64606214, 6.573084, 7.90469, -0.06813049, 0.545599, 10.286138
780594433339978, 0.4103691, 5.2438707, 8.096115, 0.168751, -0.6186819, 9.633402
780594442979978, 0.5407779, 6.5850477, 7.9944205, -0.15154624, 0.46536064, 10.359854
780594452619978, 0.50129634, 5.4029937, 7.9860454, 0.17953253, -0.4055314, 9.644888
780594462260082, 0.35413775, 6.323034, 8.054241, -0.23340619, 0.17292547, 10.241708
780594471900082, 0.61734825, 5.8277197, 7.850851, 0.1288445, 0.024560928, 9.796024
780594481540082, 0.29072794, 5.877969, 8.055437, -0.15265179, -0.17516184, 9.973522
780594491180082, 0.6628119, 6.279963, 7.7886376, 0.020310998, 0.4095006, 10.018585
780594500820186, 0.29072794, 5.4341, 8.050652, -0.008000135, -0.50409174, 9.704266
780594510460186, 0.66161543, 6.5611196, 7.893922, -0.0544405, 0.5486021, 10.271129
780594520100186, 0.38763726, 5.2223353, 8.0614195, 0.15797102, -0.63085866, 9.590965
780594529740186, 0.55393845, 6.59103, 7.8891363, -0.16129792, 0.532835, 10.279937
780594539380186, 0.5563313, 5.3790655, 7.8197446, 0.21576488, -0.31822538, 9.499707
780594549020291, 0.42831525, 6.3565335, 7.911868, -0.19651365, 0.3024702, 10.151676
780594558660291, 0.60777694, 5.7631135, 7.800602, 0.13370824, -0.0023608208, 9.716707
780594568300291, 0.29671, 5.9342003, 8.042277, -0.17145169, -0.12746525, 9.996767
780594577940291, 0.70588267, 6.2213387, 7.8281193, 0.08458316, 0.34981918, 10.017647
780594587580395, 0.28594232, 5.4520464, 8.103293, -0.02230239, -0.5281868, 9.75656
780594597220395, 0.6305088, 6.558727, 7.921439, -0.06982374, 0.5154886, 10.290435
780594606860395, 0.36131623, 5.2606206, 8.110473, 0.10733998, -0.63955355, 9.652144
780594616500395, 0.55034924, 6.6017976, 7.9836526, -0.15377855, 0.49282694, 10.361409
780594626140395, 0.48095736, 5.3276196, 7.984849, 0.18401968, -0.47211027, 9.597704
780594635780499, 0.4103691, 6.4067826, 8.02792, -0.21398485, 0.27332497, 10.273376
780594645420499, 0.63529444, 5.729614, 7.897511, 0.19105339, -0.072562695, 9.77553
780594655060499, 0.31944183, 5.983253, 8.02792, -0.1632886, -0.07435465, 10.015819
780594664700499, 0.67477596, 6.166304, 7.733603, 0.056806803, 0.35782242, 9.9073715
780594674340603, 0.31944183, 5.5633125, 8.015956, -0.02755189, -0.37657213, 9.75528
780594683980603, 0.6161518, 6.108876, 7.88794, 0.04303646, 0.20075321, 9.993772
780594693620603, 0.43908295, 5.9007006, 7.9680996, -0.034483075, -0.06301737, 9.924541
780594703260603, 0.48454657, 5.9473605, 7.9130645, -0.018381476, 0.021028042, 9.9106865
780594712900707, 0.5024927, 5.9342003, 7.938189, 0.007280946, 0.0038180351, 9.923812
780594722540707, 0.49052864, 5.9521465, 7.9477606, -0.0076161623, 0.0068659782, 9.941603
780594732180707, 0.4546363, 5.9557357, 8.005188, -0.030440211, -0.036259174, 9.987907
780594741820707, 0.52163535, 5.9521465, 7.9860454, 0.029168129, -0.0029511452, 9.973776
780594751460811, 0.51206404, 5.942575, 7.9968133, 0.026317477, -0.019377708, 9.976191
780594761100811, 0.47377887, 5.9210396, 7.9980097, -0.002012968, -0.05070114, 9.962368
780594770740811, 0.485743, 5.9700923, 7.9884386, -0.0076972246, -0.0044345856, 9.984639
780594780380916, 0.5084748, 5.9784675, 7.958528, 0.006831169, 0.026601791, 9.966847
780594790020916, 0.4761717, 5.95095, 7.9310107, -0.019773722, 0.010552406, 9.926782
780594799660916, 0.4869394, 5.953343, 7.920243, -0.011048913, 0.021758556, 9.920134
780594809300916, 0.50129634, 5.9521465, 7.9369926, 0.005693078, 0.016454697, 9.933524
780594818941020, 0.5084748, 5.9557357, 7.9274216, 0.009683967, 0.027005672, 9.928369
780594828581020, 0.4989035, 5.9294147, 7.9106717, 0.006378174, 0.012894154, 9.898756
780594838221020, 0.47018966, 5.930611, 7.8723865, -0.02769363, 0.024965286, 9.867436
780594847861020, 0.49172506, 5.9497533, 7.864012, -0.015203834, 0.05120039, 9.873257
780594857501124, 0.5132605, 5.966503, 7.9094753, 0.007216096, 0.044924736, 9.920704
780594867141124, 0.4941179, 5.9413786, 7.9573317, 0.0063335896, -0.008451939, 9.942993
780594876781124, 0.46899325, 5.942575, 8.003992, -0.009370446, -0.04311371, 9.979784
780594886421124, 0.5084748, 5.983253, 8.009974, 0.015444636, -0.0018687248, 10.010859
780594896061228, 0.485743, 5.959325, 7.9597244, -0.006960511, 2.8944016E-4, 9.955233
780594905701228, 0.47856453, 5.956932, 7.9274216, -0.018461227, 0.013903141, 9.927616
780594915341228, 0.5180461, 5.946164, 7.9537425, 0.026402354, 0.003962517, 9.94417
780594924981332, 0.48095736, 5.9581285, 7.9657063, -0.010625124, -0.0069408417, 9.959063
780594934621332, 0.4761717, 5.95095, 7.972885, -0.011831164, -0.017971039, 9.960269
780594944261332, 0.49172506, 5.9653068, 7.9657063, -0.002739668, 0.0023121834, 9.963892
780594953901332, 0.49052864, 5.9545393, 7.9501534, -0.0031574965, 0.0026655197, 9.944954
780594963541436, 0.5072784, 6.000003, 7.914261, -0.0071023703, 0.06283474, 9.94429
780594973181436, 0.5084748, 5.985646, 7.891529, -0.004351139, 0.06529856, 9.9175825
780594982821436, 0.48095736, 5.9377894, 7.897511, -0.014798403, 0.016913414, 9.892364
780594992461541, 0.51565325, 5.9377894, 7.9501534, 0.026657581, -0.0017251968, 9.936171
780595002101541, 0.52163535, 5.948557, 7.982456, 0.033628106, -0.009285927, 9.968742
780595011741541, 0.45822555, 5.919843, 7.944171, -0.023434877, -0.03065443, 9.917807
780595021381541, 0.46301118, 5.9377894, 7.920243, -0.027739406, -0.0026288033, 9.909653
780595031021645, 0.48454657, 5.9617176, 7.9429746, -0.010338187, 0.009075165, 9.943213
780595040661645, 0.47377887, 5.9473605, 7.9597244, -0.013002396, -0.014987946, 9.947481
780595050301645, 0.47138608, 5.9545393, 7.9920278, -0.011134982, -0.029682636, 9.977488
780595059941749, 0.5180461, 5.9700923, 7.98126, 0.025413036, 0.0049114227, 9.980492
780595069581749, 0.50368917, 5.9557357, 7.962117, 0.013509393, 4.4822693E-4, 9.955883
780595079221749, 0.49292147, 5.9581285, 7.962117, 0.0022460222, -0.002122879, 9.956786
780595088861853, 0.49052864, 5.977271, 8.000402, 3.490448E-4, -0.010818005, 9.998737
780595098501853, 0.51565325, 6.005985, 7.975278, 0.009765148, 0.03414297, 9.997077
780595108141853, 0.4833502, 5.966503, 7.962117, -0.009429336, 8.8739395E-4, 9.961326
780595117781853, 0.49292147, 5.953343, 7.8867435, -0.009908199, 0.036753178, 9.8936615
780595127421957, 0.5024927, 5.960521, 7.8903327, -0.0014384985, 0.04108572, 9.901313
780595137061957, 0.485743, 5.9413786, 7.905886, -0.0075833797, 0.010962486, 9.901453
780595146701957, 0.47736812, 5.9497533, 7.8963146, -0.019056559, 0.019433975, 9.898409
780595156342061, 0.48095736, 5.9545393, 7.921439, -0.011790156, 0.009672165, 9.921534
780595165982061, 0.46779683, 5.9270215, 7.9070826, -0.017823577, -0.0071077347, 9.892927
780595175622061, 0.48215377, 5.928218, 7.9190464, -0.0014417171, -0.008294582, 9.903912
780595185262166, 0.47377887, 5.9653068, 7.9597244, -0.013672948, -0.0074896812, 9.958229
780595194902166, 0.49292147, 5.9820566, 7.946564, -0.003552556, 0.019297123, 9.958689
780595204542166, 0.47377887, 5.9760747, 7.9369926, -0.021096587, 0.013423443, 9.946516
780595214182270, 0.50009996, 5.9916277, 7.999206, 0.009069681, -0.0017490387, 10.006844
780595223822270, 0.51086766, 6.009574, 8.006385, 0.014110208, 0.011054516, 10.023866
780595233462270, 0.49651068, 5.9784675, 7.9310107, -0.0027301311, 0.026104927, 9.944287
780595243102374, 0.48215377, 5.959325, 7.91785, -0.012396097, 0.014307022, 9.921595
780595252742374, 0.48933223, 5.9724855, 7.925029, -0.006818056, 0.021818638, 9.935573
780595262382374, 0.4749753, 5.922236, 7.899904, -0.008651733, -0.005879879, 9.884678
780595272022478, 0.4989035, 5.9449677, 7.9166536, 0.010288835, 0.009719372, 9.912858
780595281662478, 0.50488555, 5.9497533, 7.895118, 0.0107934475, 0.028101444, 9.89881
780595291302478, 0.49292147, 5.9545393, 7.893922, -0.0021989346, 0.027993202, 9.900137
780595300942478, 0.47736812, 5.966503, 7.905886, -0.019158006, 0.023792744, 9.916105
780595310582582, 0.47736812, 5.9641104, 7.941778, -0.014155984, 1.9598007E-4, 9.943348
780595320222582, 0.50009996, 5.9617176, 7.9334035, 0.0062841177, 0.01142025, 9.936343
780595329862582, 0.5024927, 5.968896, 7.920243, 0.0027620792, 0.02486372, 9.930249
780595339502686, 0.47856453, 5.9748783, 7.9346, -0.020031571, 0.012204647, 9.9441185
780595349142686, 0.47976094, 5.977271, 7.926225, -0.022115707, 0.019600391, 9.938919
780595358782686, 0.5072784, 5.9748783, 7.9393854, 0.006531, 0.020257473, 9.949366
780595368422791, 0.485743, 5.977271, 7.962117, -0.009011269, 0.0021805763, 9.967896
780595378062791, 0.4833502, 5.9712887, 7.9561353, -0.00927794, 6.3562393E-4, 9.959414
780595387702791, 0.4941179, 5.9653068, 7.899904, -0.0065358877, 0.032708645, 9.911427
780595397342895, 0.50009996, 5.9760747, 7.9106717, -0.0021215677, 0.036665916, 9.926779
780595406982895, 0.46899325, 5.962914, 7.8783684, -0.029666185, 0.03579855, 9.891554
780595416622999, 0.46660042, 5.9581285, 7.9130645, -0.022594571, 0.013363361, 9.916295
780595426262999, 0.46061835, 5.9617176, 7.9393854, -0.023293376, 0.0011167526, 9.939192
780595435902999, 0.44626144, 5.946164, 7.90469, -0.03629327, 0.0069127083, 9.901453
780595445543103, 0.4546363, 5.946164, 7.9022965, -0.027086139, 0.013515949, 9.899946
780595455183103, 0.45702913, 5.9413786, 7.8903327, -0.025498152, 0.017707348, 9.88763
780595464823103, 0.4534399, 5.9066825, 7.879565, -0.018545032, -7.953644E-4, 9.858078
780595474463207, 0.48454657, 5.879165, 7.9154572, 0.024650574, -0.028333187, 9.871799
780595484103207, 0.50368917, 5.9114685, 8.013563, 0.05047238, -0.053382874, 9.970505
780595493743207, 0.526421, 5.922236, 8.039884, 0.06960857, -0.05211544, 9.999107
780595503383311, 0.5587241, 5.9318075, 8.04108, 0.09069216, -0.03391218, 10.007403
780595513023311, 0.5395815, 5.9820566, 8.0614195, 0.05812359, -0.0160532, 10.05281
780595522663311, 0.5347959, 6.013163, 8.033902, 0.038259268, 0.020476818, 10.0491705
780595532303416, 0.4977071, 5.9988065, 7.954939, -0.005701542, 0.041395187, 9.975605
780595541943416, 0.46779683, 5.99761, 7.9298143, -0.037112594, 0.043908596, 9.953333
780595551583416, 0.41635114, 5.9712887, 7.938189, -0.07519519, 9.951591E-4, 9.941772
780595561223520, 0.41635114, 5.9724855, 7.9106717, -0.08038497, 0.018062115, 9.920479
780595570863520, 0.46301118, 5.98086, 7.90469, -0.040279627, 0.04295492, 9.922989
780595580503520, 0.46660042, 5.968896, 7.9130645, -0.03191054, 0.030413628, 9.922706
780595590143624, 0.465404, 5.936593, 7.873583, -0.030333757, 0.026923656, 9.871748
780595599783624, 0.50488555, 5.940182, 7.8723865, 0.0046947002, 0.042131424, 9.874886
780595609423624, 0.5096712, 5.9342003, 7.897511, 0.0154351, 0.02439928, 9.89163
780595619063728, 0.4941179, 5.9066825, 7.940582, 0.016717792, -0.026156425, 9.90883
780595628703728, 0.47856453, 5.875576, 7.9776707, 0.01822424, -0.07549286, 9.919104
780595638343832, 0.4833502, 5.9138613, 7.960921, 0.008344531, -0.03480673, 9.928866
780595647983832, 0.5204389, 5.9353967, 7.9597244, 0.0358994, -0.003045082, 9.942621
780595657623832, 0.46181476, 5.938986, 7.9764743, -0.01646924, -0.030448914, 9.95529