timestamp_acc,device_acc_x,device_acc_y,device_acc_z,earth_acc_x,earth_acc_y,earth_acc_z
269506550234508, 0.3493521, 5.10748, 8.610572, 0.010517597, -0.022804797, 10.017471
269506559874404, 0.37328035, 5.1086764, 8.63809, 0.016578674, 0.0011607409, 10.042622
269506569514404, 0.37447673, 5.0596237, 8.644072, 0.060646057, 0.011700928, 10.022783
269506579154404, 0.44985065, 5.046463, 8.682357, 0.075751305, 0.08943558, 10.051802
269506588794300, 0.49172506, 5.06082, 8.657232, 0.041738987, 0.12620842, 10.039109
269506598434300, 0.4749753, 5.052445, 8.610572, 0.028952599, 0.10967362, 9.994093
269506608074300, 0.42951167, 5.0572305, 8.496913, -0.023038864, 0.055832088, 9.897168
269506617714196, 0.3900301, 5.081159, 8.432307, -0.06501675, 0.010546625, 9.8524
269506627354196, 0.3924229, 5.1003013, 8.421539, -0.08411503, 0.011957169, 9.853029
269506636994196, 0.34097722, 5.09073, 8.428718, -0.05963564, -0.032121956, 9.852436
269506646634091, 0.35653058, 5.1254263, 8.487342, -0.06093979, -0.016673088, 9.921093
269506656274091, 0.2847459, 5.1003013, 8.505288, -0.016022682, -0.07771063, 9.921078
269506665914091, 0.24765715, 5.0943193, 8.52802, 0.009345531, -0.10863823, 9.936232
269506675554091, 0.29790643, 5.1146584, 8.56152, -0.0034651756, -0.057515144, 9.977213
269506685193987, 0.31944183, 5.1158547, 8.548359, -0.016348362, -0.03756416, 9.967286
269506694833987, 0.28953153, 5.0943193, 8.559127, 0.01188755, -0.061083555, 9.964472
269506704473987, 0.30269206, 5.111069, 8.583055, 0.0060372353, -0.04969102, 9.994046
269506714113883, 0.31465617, 5.1146584, 8.603394, 0.008513451, -0.037063777, 10.013775
269506723753883, 0.33020952, 5.117051, 8.675179, 0.03762102, -0.016831875, 10.077217
269506733393883, 0.36131623, 5.096712, 8.705089, 0.05875683, 0.018722296, 10.093651
269506743033779, 0.34337005, 5.083552, 8.709874, 0.076037884, 0.0029335022, 10.090418
269506752673779, 0.3278167, 5.081159, 8.709874, 0.07968521, -0.012668848, 10.088659
269506762313779, 0.3361916, 5.0847483, 8.627322, 0.03356695, -0.0078036785, 10.019841
269506771953675, 0.31585258, 5.0859447, 8.555537, 9.560585E-4, -0.033456326, 9.958048
269506781593675, 0.33738798, 5.0823555, 8.462217, -0.0462389, -0.018861234, 9.876781
269506791233675, 0.38285163, 5.1062837, 8.416754, -0.09543371, 0.013148129, 9.851557
269506800873675, 0.40677986, 5.10748, 8.429914, -0.09404373, 0.031912684, 9.864351
269506810513571, 0.42831525, 5.093123, 8.489735, -0.055859566, 0.055248797, 9.909227
269506820153571, 0.4223332, 5.078766, 8.535198, -0.020926476, 0.04888332, 9.940776
269506829793571, 0.4319045, 5.046463, 8.599805, 0.03636694, 0.06345296, 9.980211
269506839433466, 0.44626144, 5.0213385, 8.616554, 0.06311941, 0.0833956, 9.982337
269506849073466, 0.45942193, 5.028517, 8.5938225, 0.045778275, 0.085656345, 9.967016
269506858713466, 0.4235296, 5.0368915, 8.571091, 0.035685062, 0.04667157, 9.950367
269506868353362, 0.39361933, 5.06082, 8.465807, -0.028788567, 0.0072256923, 9.870959
269506877993362, 0.3900301, 5.0943193, 8.38804, -0.09175205, -0.004062742, 9.82115
269506887633362, 0.37328035, 5.1003013, 8.344969, -0.11569023, -0.02454245, 9.786569
269506897273258, 0.3493521, 5.0979085, 8.396415, -0.080037594, -0.04243779, 9.828646
269506906913258, 0.33260235, 5.1266227, 8.451449, -0.07146168, -0.059193134, 9.889957
269506916553258, 0.3589234, 5.10748, 8.525627, -0.022912025, -0.02446115, 9.944868
269506926193258, 0.3589234, 5.099105, 8.618947, 0.030032635, -0.016706109, 10.020716
269506935833154, 0.35653058, 5.10748, 8.709874, 0.0677824, -0.01558584, 10.102998
269506945473154, 0.3493521, 5.0943193, 8.73141, 0.08929777, -0.020806074, 10.114508
269506955113154, 0.34097722, 5.1122656, 8.690732, 0.054249763, -0.03575158, 10.088416
269506964753050, 0.32662028, 5.1086764, 8.612965, 0.022167683, -0.052984655, 10.0192375
269506974393050, 0.36011982, 5.1146584, 8.5112705, -0.04131031, -0.027951479, 9.93623
269506984033050, 0.37567315, 5.1003013, 8.441878, -0.06608248, -0.012592971, 9.869903
269506993672946, 0.4019942, 5.0739803, 8.440681, -0.04791212, 0.018832415, 9.856436
269507003312946, 0.4426722, 5.0572305, 8.478967, -0.021663666, 0.06377411, 9.882301
269507012952946, 0.42711884, 5.0440702, 8.510074, 0.006568432, 0.050913423, 9.901707
269507022592841, 0.4031906, 5.0333023, 8.569894, 0.050331593, 0.033239186, 9.946664
269507032232841, 0.38883367, 5.0620165, 8.60459, 0.045312405, 0.016264617, 9.990587
269507041872841, 0.37686956, 5.09073, 8.59143, 0.016136646, -0.001249969, 9.993496
269507051512737, 0.38285163, 5.113462, 8.555537, -0.021977901, -0.0011590719, 9.974508
269507061152737, 0.39481574, 5.111069, 8.513663, -0.040297985, 0.010463059, 9.937788
269507070792737, 0.40438703, 5.1254263, 8.446664, -0.08825207, 0.012453139, 9.887958
269507080432633, 0.4019942, 5.083552, 8.414361, -0.06696129, 0.015854657, 9.838741
269507090072633, 0.38524446, 5.0440702, 8.425129, -0.024255753, 0.0061897635, 9.827167
269507099712633, 0.39481574, 5.0572305, 8.483752, -0.009527206, 0.016272008, 9.88459
269507109352633, 0.39481574, 5.072784, 8.553144, 0.010404587, 0.017645657, 9.952129
269507118992529, 0.39840496, 5.0751767, 8.569894, 0.013980389, 0.022643864, 9.9678755
269507128632529, 0.34576288, 5.0979085, 8.611769, 0.026543617, -0.03035158, 10.013449
269507138272529, 0.2943172, 5.148158, 8.610572, -0.0077295303, -0.08889419, 10.036141
269507147912425, 0.2835495, 5.143372, 8.569894, -0.022266388, -0.09518564, 9.99841
269507157552425, 0.28594232, 5.1361938, 8.535198, -0.033256054, -0.09094453, 9.965063
269507167192425, 0.3696911, 5.1122656, 8.474181, -0.059851646, -0.006992638, 9.903536
269507176832321, 0.38644084, 5.0751767, 8.449057, -0.04464197, 0.013668537, 9.8636265
269507186472321, 0.4223332, 5.035695, 8.5112705, 0.01333046, 0.060749948, 9.898205
269507196112321, 0.43788654, 5.0392847, 8.598608, 0.051267624, 0.07882762, 9.975638
269507205752216, 0.4235296, 5.020142, 8.59143, 0.06267309, 0.066031754, 9.959196
269507215392216, 0.43669012, 5.0309095, 8.605786, 0.054561615, 0.07319152, 9.977572
269507225032216, 0.41515473, 5.070391, 8.60459, 0.02428627, 0.043425083, 9.995886
269507234672112, 0.3696911, 5.076373, 8.595019, 0.023237228, -0.0028695464, 9.9889965
269507244312112, 0.34576288, 5.09073, 8.592627, 0.014370441, -0.027867377, 9.993364
269507253952112, 0.33260235, 5.130212, 8.610572, -0.0072903633, -0.046797216, 10.02843
269507263592008, 0.2955136, 5.1673007, 8.62134, -0.02681923, -0.08726227, 10.055222
269507273232008, 0.21415763, 5.1720862, 8.581859, -0.03506899, -0.16830605, 10.020733
269507282872008, 0.19262223, 5.1493545, 8.519645, -0.044993877, -0.185633, 9.954941
269507292511904, 0.22971097, 5.1218367, 8.428718, -0.06818485, -0.14361662, 9.864279
269507302151904, 0.2883351, 5.1026945, 8.356933, -0.09572363, -0.08541021, 9.795025
269507311791904, 0.37567315, 5.0799623, 8.35454, -0.09202194, 0.004155457, 9.784531
269507321431800, 0.4223332, 5.0368915, 8.410771, -0.034214497, 0.059591234, 9.812492
269507331071800, 0.42831525, 5.020142, 8.488539, 0.01790762, 0.07091254, 9.87093
269507340711800, 0.47018966, 5.0213385, 8.52443, 0.024676323, 0.10819659, 9.903965
269507350351696, 0.53240305, 5.0536413, 8.541181, -0.006720066, 0.16298696, 9.937198
269507359991696, 0.4941179, 5.0620165, 8.551949, -0.003481865, 0.12371737, 9.949305
269507369631696, 0.4426722, 5.089534, 8.550752, -0.01981163, 0.0690676, 9.960398
269507379271591, 0.42951167, 5.1158547, 8.544769, -0.042660236, 0.051547796, 9.968202
269507388911591, 0.4223332, 5.1182475, 8.544769, -0.045002937, 0.044892013, 9.969146
269507398551591, 0.41994038, 5.1026945, 8.569894, -0.019750595, 0.04653868, 9.982705
269507408191487, 0.37088752, 5.0751767, 8.612965, 0.032408237, 0.0037908256, 10.003854
269507417831487, 0.3361916, 5.038088, 8.653643, 0.08916664, -0.023941875, 10.0186
269507427471487, 0.30388847, 5.046463, 8.678768, 0.0989027, -0.055363715, 10.043272
269507437111383, 0.30029923, 5.042874, 8.689535, 0.10821295, -0.05493599, 10.050575
269507446751383, 0.28235307, 5.0416775, 8.629715, 0.08225918, -0.07619184, 9.997883
269507456391279, 0.28953153, 5.069195, 8.545966, 0.017762661, -0.072707295, 9.940247
269507466031279, 0.29671, 5.0823555, 8.476574, -0.02764225, -0.06924945, 9.887623
269507475671279, 0.29192436, 5.117051, 8.414361, -0.08730936, -0.08480853, 9.851704
269507485311175, 0.32063824, 5.1421757, 8.391629, -0.123687744, -0.060565412, 9.846079
269507494951175, 0.37328035, 5.1529436, 8.409575, -0.13225555, -0.009351015, 9.868919
269507504591175, 0.37567315, 5.178068, 8.469396, -0.12282944, -0.008157194, 9.933229
269507514231071, 0.40917268, 5.1720862, 8.523234, -0.09882116, 0.026583016, 9.977624
269507523871071, 0.3900301, 5.1146584, 8.622537, 0.0033307076, 0.025572777, 10.032913
269507533511071, 0.3481557, 5.069195, 8.68475, 0.07914734, -0.006810248, 10.061637
269507543150966, 0.3481557, 5.028517, 8.626125, 0.08356428, -0.0028133392, 9.990509
269507552790966, 0.37686956, 4.9974103, 8.589037, 0.08474922, 0.027218103, 9.943832
269507562430966, 0.39361933, 4.968696, 8.535198, 0.07929134, 0.04460603, 9.883531
269507572070862, 0.45224348, 4.981857, 8.49452, 0.03657627, 0.09796387, 9.857452
269507581710862, 0.5168497, 5.0416775, 8.443074, -0.05142784, 0.14692223, 9.846163
269507591350862, 0.50368917, 5.174479, 8.422736, -0.17020178, 0.10614681, 9.896019
269507600990758, 0.48095736, 5.0333023, 8.463413, -0.023148537, 0.113847375, 9.858059
269507610630758, 0.34456646, 4.948357, 8.426325, 0.05571556, -0.006742358, 9.777769
269507620270654, 0.4426722, 5.4999027, 8.537591, -0.37278843, -0.014290392, 10.158552
269507629910654, 0.18305093, 4.5655055, 8.433503, 0.41497612, -0.088712394, 9.58234
269507639550654, 0.37328035, 5.834898, 8.673982, -0.57477427, -0.14264214, 10.443785
269507649190550, 0.09571291, 4.308277, 8.508878, 0.67761207, -0.11865759, 9.513052
269507658830550, 0.3696911, 5.7954164, 8.693125, -0.53565884, -0.13584661, 10.439757
269507668470550, 0.26799613, 4.5044885, 8.536395, 0.49613905, 0.013488114, 9.642922
269507678110446, 0.39840496, 5.4759746, 8.623733, -0.29917288, -0.049791098, 10.218699
269507687750446, 0.4426722, 4.912465, 8.559127, 0.12196779, 0.105890214, 9.877289
269507697390341, 0.34456646, 4.9806604, 8.474181, 0.049734592, -0.00751245, 9.835392
269507707030341, 0.53359944, 5.4113684, 8.519645, -0.3291502, 0.089603126, 10.101269
269507716670341, 0.2739782, 4.4949174, 8.368897, 0.42213488, 0.021996856, 9.494162
269507726310237, 0.4989035, 5.7391853, 8.5938225, -0.55109453, -0.017026544, 10.331357
269507735950237, 0.24526432, 4.2963133, 8.41795, 0.6112306, 0.041428268, 9.434247
269507745590237, 0.4941179, 5.7954164, 8.592627, -0.5974541, -0.032814324, 10.358871
269507755230133, 0.3684947, 4.4482574, 8.506484, 0.4962802, 0.12954807, 9.592705
269507764870133, 0.44506502, 5.5405807, 8.708678, -0.32038403, -0.020439804, 10.32638
269507774510029, 0.37447673, 4.8789654, 8.72782, 0.252038, 0.054762125, 10.002643
269507784150029, 0.2883351, 5.058427, 8.681161, 0.09584761, -0.068376064, 10.050847
269507793789925, 0.42592242, 5.3946185, 8.662018, -0.22465038, -0.0039463043, 10.210944
269507803429925, 0.20817557, 4.5619164, 8.411968, 0.40205407, -0.05434686, 9.563003
269507813069925, 0.4331009, 5.7690954, 8.489735, -0.61523724, -0.07757497, 10.254808
269507822709821, 0.16630118, 4.3238306, 8.219346, 0.52082014, -0.055684507, 9.273969
269507832349821, 0.4426722, 5.825327, 8.37129, -0.71473503, -0.08505696, 10.182868
269507841989821, 0.29072794, 4.4339004, 8.276773, 0.4221413, 0.03931451, 9.3845215
269507851629716, 0.424726, 5.5944195, 8.566305, -0.42169523, -0.037751257, 10.2313385
269507861269716, 0.38165522, 4.843073, 8.678768, 0.26420116, 0.06452584, 9.942238
269507870909612, 0.3361916, 5.1182475, 8.758927, 0.07659578, -0.029122233, 10.149955
269507880549612, 0.5024927, 5.3300123, 8.793623, -0.11640501, 0.09578794, 10.294009
269507890189508, 0.27756742, 4.5966125, 8.605786, 0.451581, 0.011923194, 9.749942
269507899829508, 0.5024927, 5.7260246, 8.693125, -0.49925852, 0.017248213, 10.409645
269507909469508, 0.2644069, 4.334598, 8.353344, 0.54299474, 0.038532436, 9.398972
269507919109404, 0.47138608, 5.808577, 8.397611, -0.7015295, -0.064077854, 10.197324
269507928749404, 0.28594232, 4.35733, 8.169097, 0.44358754, 0.06097889, 9.252122
269507938389300, 0.41156548, 5.572884, 8.382058, -0.4861269, -0.07477647, 10.061978
269507948029300, 0.357727, 4.738985, 8.457432, 0.24549246, 0.070892334, 9.697877
269507957669300, 0.3469593, 5.1326046, 8.610572, 0.0044341087, -0.02013117, 10.030231
269507967309196, 0.44865423, 5.276174, 8.760123, -0.07797384, 0.05125904, 10.235739
269507976949196, 0.21296121, 4.6839504, 8.68475, 0.43275166, -0.046761274, 9.860027
269507986589091, 0.39361933, 5.741578, 8.822337, -0.42619705, -0.09695274, 10.524412
269507996229091, 0.12203395, 4.4434714, 8.556734, 0.5839155, -0.09025389, 9.624341
269508005868987, 0.4103691, 5.9090757, 8.60459, -0.6680603, -0.13339686, 10.424032
269508015508987, 0.20697916, 4.4374895, 8.26481, 0.42556143, -0.030002296, 9.373325
269508025148987, 0.35653058, 5.6961145, 8.346166, -0.60285854, -0.15884125, 10.091713
269508034788883, 0.2955136, 4.712664, 8.246863, 0.17614317, -0.0016014576, 9.501381
269508044428883, 0.33260235, 5.178068, 8.322237, -0.17508173, -0.062244654, 9.805513
269508054068779, 0.51206404, 5.1625147, 8.413164, -0.1620655, 0.12213862, 9.882
269508063708779, 0.41994038, 4.651647, 8.405986, 0.2795992, 0.15195447, 9.6111145
269508073348675, 0.6903293, 5.5716877, 8.665607, -0.43017483, 0.20608926, 10.314334
269508082988675, 0.39840496, 4.28076, 8.639286, 0.6993687, 0.2298572, 9.621796
269508092628571, 0.567099, 5.770292, 8.912068, -0.4356351, 0.06035793, 10.62306
269508102268571, 0.2656033, 4.3058844, 8.690732, 0.7321222, 0.09272462, 9.674473
269508111908571, 0.35294133, 5.656633, 8.788837, -0.3705268, -0.12633646, 10.450478
269508121548466, 0.25244278, 4.6612186, 8.648857, 0.40922666, -0.005463481, 9.819671
269508131188466, 0.24526432, 5.3216376, 8.623733, -0.14229059, -0.15957946, 10.134251
269508140828362, 0.29671, 5.2223353, 8.493324, -0.13896179, -0.09892768, 9.97338
269508150468362, 0.20219351, 4.8394837, 8.293523, 0.10718298, -0.11641085, 9.60307
269508160108258, 0.4211368, 5.706882, 8.439486, -0.5894456, -0.09063959, 10.179152
269508169748258, 0.19621146, 4.4578285, 8.347362, 0.45397782, -0.037372947, 9.454189
269508179388154, 0.4235296, 5.85763, 8.660822, -0.5979557, -0.08727056, 10.446812
269508189028154, 0.19262223, 4.3405805, 8.534002, 0.6440687, -0.007202387, 9.554688
269508198668050, 0.4223332, 5.7224355, 8.708678, -0.463449, -0.061544478, 10.418597
269508208308050, 0.3278167, 4.584648, 8.590233, 0.44462395, 0.0697763, 9.732214
269508217948050, 0.35653058, 5.2929235, 8.635697, -0.12983513, -0.044150352, 10.134033
269508227587946, 0.42592242, 5.050052, 8.592627, 0.030744553, 0.07270914, 9.975542
269508237227946, 0.3469593, 4.776074, 8.409575, 0.19033241, 0.041627288, 9.675446
269508246867841, 0.5922236, 5.5310097, 8.474181, -0.45998478, 0.12125301, 10.125625
269508256507841, 0.36251262, 4.398008, 8.30788, 0.4517393, 0.14119214, 9.395254
269508266147737, 0.567099, 5.81097, 8.532805, -0.65503216, 0.027192235, 10.318329
269508275787737, 0.3182454, 4.3154554, 8.348558, 0.55107474, 0.1243372, 9.386358
269508285427633, 0.47258246, 5.7726846, 8.56152, -0.575757, -0.055210114, 10.320479
269508295067633, 0.3074777, 4.5882373, 8.508878, 0.405344, 0.057147622, 9.663328
269508304707529, 0.32662028, 5.4185467, 8.6548395, -0.21500444, -0.11128396, 10.21347
269508314347529, 0.34576288, 5.040481, 8.647661, 0.093783855, -0.004177153, 10.014952
269508323987425, 0.23808585, 4.8909297, 8.549556, 0.1956687, -0.08206308, 9.850266
269508333627425, 0.45104706, 5.5274205, 8.622537, -0.3477993, -0.011897981, 10.246115
269508343267321, 0.23808585, 4.4446683, 8.386844, 0.4921317, 0.017195463, 9.482005
269508352907321, 0.45942193, 5.804988, 8.539984, -0.61118746, -0.06486893, 10.318068
269508362547216, 0.21655045, 4.3154554, 8.29472, 0.55264616, 0.01637417, 9.336313
269508372187216, 0.38883367, 5.788238, 8.471788, -0.61114025, -0.12153894, 10.248796
269508381827112, 0.25004998, 4.5020957, 8.414361, 0.44912863, 0.01749438, 9.535767
269508391467112, 0.3900301, 5.4759746, 8.635697, -0.274889, -0.036586046, 10.229212
269508401107008, 0.4235296, 5.009374, 8.702696, 0.12988377, 0.085630655, 10.049176
269508410747008, 0.3481557, 4.948357, 8.669196, 0.17593288, 0.01823783, 9.9865465
269508420386904, 0.5515456, 5.4676, 8.770891, -0.25380993, 0.11032033, 10.346537
269508430026904, 0.32303107, 4.4721856, 8.596215, 0.5466392, 0.080457985, 9.679587
269508439666800, 0.57547385, 5.7726846, 8.730213, -0.52635574, 0.06765628, 10.468528
269508449306800, 0.22612174, 4.2568316, 8.4502535, 0.66842294, 0.034780145, 9.440897
269508458946696, 0.36729828, 5.753542, 8.469396, -0.5813618, -0.16380268, 10.22761
269508468586696, 0.20578274, 4.465007, 8.2145605, 0.40184736, -0.025285125, 9.343207
269508478226591, 0.33020952, 5.5130634, 8.282756, -0.46070004, -0.1470992, 9.943494
269508487866591, 0.38285163, 4.9459643, 8.29472, -0.0053915977, 0.039967597, 9.664881
269508497506487, 0.34097722, 5.0620165, 8.370093, -0.047118664, -0.021686196, 9.787546
269508507146487, 0.506082, 5.454439, 8.550752, -0.32778168, 0.05338347, 10.1494875
269508516786487, 0.25842485, 4.5284166, 8.583055, 0.5110259, 0.042292178, 9.694288
269508526426383, 0.47138608, 5.7631135, 8.8905325, -0.40651894, -0.043126464, 10.597649
269508536066279, 0.23090738, 4.28076, 8.712267, 0.7740054, 0.09507471, 9.678517
269508545706279, 0.48933223, 5.7834525, 8.809176, -0.47391748, -0.038006723, 10.538658
269508555346175, 0.32542387, 4.418347, 8.526823, 0.5402534, 0.12624025, 9.593049
269508564986175, 0.41635114, 5.5429735, 8.539984, -0.3875122, -0.07249075, 10.182035
269508574626071, 0.36490545, 4.8729835, 8.356933, 0.07959032, 0.037340105, 9.680378
269508584266071, 0.30508488, 5.069195, 8.263613, -0.10044193, -0.076107025, 9.698517
269508593905966, 0.45942193, 5.3682976, 8.334201, -0.35317516, -0.0010980964, 9.917856
269508603545966, 0.22971097, 4.5427737, 8.333005, 0.3875816, -0.017022073, 9.485676
269508613185862, 0.4881358, 5.7140603, 8.702696, -0.47146225, -0.015770078, 10.411684
269508622825862, 0.24526432, 4.321438, 8.700303, 0.73937106, 0.082636654, 9.689001
269508632465758, 0.47138608, 5.8420763, 8.945567, -0.44664335, -0.04490149, 10.685209
269508642105758, 0.24526432, 4.4745784, 8.7577305, 0.6326015, 0.0329535, 9.817259
269508651745654, 0.2835495, 5.682954, 8.772088, -0.3619032, -0.20320582, 10.447662
269508661385654, 0.20937198, 4.910072, 8.541181, 0.17295694, -0.11917102, 9.851918
269508671025550, 0.20578274, 5.2103715, 8.318648, -0.17368412, -0.19049424, 9.814468
269508680665550, 0.39361933, 5.373083, 8.176275, -0.4233184, -0.053823948, 9.78235
269508690305446, 0.27876383, 4.625326, 8.023134, 0.16101241, -0.014049232, 9.263689
269508699945446, 0.57547385, 5.6506505, 8.327023, -0.61127234, 0.07067609, 10.0609
269508709585341, 0.37447673, 4.2257247, 8.334201, 0.6263392, 0.18546253, 9.328944
269508719225341, 0.6556334, 5.716453, 8.702696, -0.50886154, 0.13761312, 10.419537
269508728865237, 0.46899325, 4.290331, 8.611769, 0.6748545, 0.28686136, 9.604776
269508738505237, 0.5814559, 5.56092, 8.809176, -0.31626987, 0.10078889, 10.428485
269508748145133, 0.46899325, 4.759324, 8.723035, 0.33678198, 0.18026626, 9.94065
269508757785133, 0.36610186, 5.229514, 8.673982, -0.052983284, -0.03563547, 10.134878
269508767425029, 0.36490545, 5.3096733, 8.595019, -0.15581894, -0.05831313, 10.108042
269508777065029, 0.12562318, 4.7018967, 8.374879, 0.29779124, -0.16119301, 9.599353
269508786704925, 0.36490545, 5.7140603, 8.529217, -0.51797485, -0.15819943, 10.258551
269508796344925, 0.148355, 4.3908296, 8.410771, 0.5633042, -0.06433737, 9.472116
269508805984821, 0.39840496, 5.8480587, 8.689535, -0.55633926, -0.12212205, 10.466236
269508815624716, 0.22253251, 4.382455, 8.537591, 0.61389804, 0.020199299, 9.579596
269508825264716, 0.39720857, 5.6997037, 8.739784, -0.41854334, -0.10174924, 10.43277
269508834904612, 0.29790643, 4.7246284, 8.669196, 0.37695646, 0.024911582, 9.870315
269508844544612, 0.34576288, 5.271388, 8.656036, -0.08905506, -0.05757755, 10.140159
269508854184508, 0.4354937, 5.215157, 8.553144, -0.11528683, 0.032864332, 10.026437
269508863824508, 0.32542387, 4.770092, 8.355737, 0.18619633, 0.0077546835, 9.625139
269508873464404, 0.5347959, 5.6685967, 8.451449, -0.5556817, 0.018733919, 10.175308
269508883104404, 0.26081768, 4.3740797, 8.29472, 0.5039828, 0.029023826, 9.367398
269508892744300, 0.5204389, 5.8480587, 8.5423765, -0.6527953, -0.026867867, 10.344853
269508902384300, 0.31465617, 4.35733, 8.398808, 0.5705061, 0.07988989, 9.449522
269508912024196, 0.51086766, 5.6889358, 8.632108, -0.46282053, 0.012133658, 10.340404
269508921664196, 0.39481574, 4.619344, 8.596215, 0.42395282, 0.11591822, 9.756842
269508931304091, 0.3912265, 5.2809596, 8.645268, -0.10069466, -0.026806295, 10.137623
269508940944091, 0.4833502, 5.1182475, 8.566305, -0.021270752, 0.0923605, 9.990129
269508950583987, 0.3589234, 4.7712884, 8.389236, 0.20730305, 0.028944552, 9.655541
269508960223987, 0.54317075, 5.6075797, 8.444271, -0.5035157, 0.040299952, 10.138568
269508969863883, 0.2739782, 4.4171505, 8.258827, 0.45320296, 0.015100777, 9.358894
269508979503779, 0.47138608, 5.8731833, 8.495717, -0.6815095, -0.08288908, 10.316122
269508989143779, 0.22731815, 4.3609195, 8.350951, 0.56632686, 0.0036669374, 9.406749
269508998783675, 0.47018966, 5.7810597, 8.56152, -0.56101704, -0.06572652, 10.325808
269509008423675, 0.357727, 4.6002016, 8.53161, 0.41639018, 0.08744919, 9.690054
269509018063571, 0.38524446, 5.349155, 8.682357, -0.12732506, -0.043510675, 10.2042675
269509027703571, 0.4127619, 5.0679984, 8.729017, 0.11152172, 0.05216998, 10.101267
269509037343466, 0.2440679, 4.837091, 8.650054, 0.30280304, -0.062006593, 9.908831
269509046983466, 0.43788654, 5.5501523, 8.723035, -0.29806423, -0.033263505, 10.343952
269509056623362, 0.1698904, 4.459025, 8.538788, 0.5747895, -0.053303063, 9.617143
269509066263362, 0.47856453, 5.8432727, 8.672786, -0.57051086, -0.06673592, 10.452757
269509075903258, 0.2943172, 4.3609195, 8.43111, 0.5714247, 0.08330214, 9.4791565
269509085543258, 0.48454657, 5.8396835, 8.566305, -0.61825943, -0.06846577, 10.360084
269509095183154, 0.30269206, 4.6097727, 8.428718, 0.36437988, 0.029657066, 9.6047535
269509104823154, 0.33499518, 5.4424753, 8.553144, -0.26029968, -0.12230027, 10.139345
269509114463050, 0.39960137, 5.0309095, 8.518449, 0.044439793, 0.025969625, 9.901064
269509124102946, 0.3385844, 4.883751, 8.465807, 0.15422821, -0.0053787827, 9.778126
269509133742946, 0.5778667, 5.4628143, 8.567501, -0.33225012, 0.10591072, 10.171369
269509143382841, 0.39481574, 4.4135613, 8.419147, 0.51338387, 0.14077336, 9.499161
269509153022841, 0.62811595, 5.757131, 8.5938225, -0.5734525, 0.1056636, 10.346637
269509162662737, 0.31226337, 4.3034916, 8.355737, 0.58538055, 0.0761947, 9.38549
269509172302737, 0.47018966, 5.7930236, 8.482556, -0.614172, -0.07398951, 10.264075
269509181942633, 0.27158538, 4.5475593, 8.366505, 0.39757228, -0.0037651658, 9.518108
269509191582633, 0.34097722, 5.5453663, 8.52802, -0.35508394, -0.14161962, 10.170957
269509201222529, 0.3361916, 5.029713, 8.599805, 0.10412073, -0.022849202, 9.967764
269509210862529, 0.25004998, 4.995017, 8.623733, 0.15993881, -0.100275934, 9.96724
269509220502425, 0.44626144, 5.465207, 8.754142, -0.21267128, -9.024143E-5, 10.327507
269509230142425, 0.2644069, 4.4949174, 8.63809, 0.5768814, 0.0215953, 9.72407
269509239782321, 0.50368917, 5.7834525, 8.793623, -0.4657874, -0.015910268, 10.526758
269509249422321, 0.27876383, 4.3034916, 8.505288, 0.6718142, 0.07385814, 9.512144
269509259062216, 0.526421, 5.845666, 8.555537, -0.6488724, -0.024008691, 10.354928
269509268702216, 0.3792624, 4.4817567, 8.3377905, 0.42010355, 0.112764716, 9.463591
269509278342112, 0.47736812, 5.541777, 8.449057, -0.43277454, -0.0144917965, 10.106346
269509287982112, 0.38285163, 4.895715, 8.446664, 0.1238966, 0.034741998, 9.769553
269509297622008, 0.2835495, 5.0189457, 8.439486, 0.049568653, -0.091383755, 9.822643
269509307261904, 0.4761717, 5.4113684, 8.537591, -0.2770548, 0.010717332, 10.115495
269509316901904, 0.29192436, 4.5619164, 8.4705925, 0.43509912, 0.019740999, 9.615485
269509326541800, 0.46899325, 5.771488, 8.700303, -0.4987979, -0.06448549, 10.438982
269509336181800, 0.19621146, 4.3740797, 8.506484, 0.6265824, -0.025716603, 9.546627
269509345821696, 0.4319045, 5.8935223, 8.639286, -0.6136813, -0.12764806, 10.448183
269509355461696, 0.23569304, 4.49731, 8.386844, 0.46412897, -0.019785166, 9.508138
269509365101591, 0.38165522, 5.613562, 8.496913, -0.4444313, -0.12907475, 10.180428
269509374741591, 0.38883367, 4.8885365, 8.449057, 0.13593102, 0.04788798, 9.768049
269509384381487, 0.32183465, 5.0679984, 8.420342, -0.010363102, -0.060405374, 9.832935
269509394021487, 0.5024927, 5.3132625, 8.483752, -0.22913408, 0.0627467, 10.020023
269509403661383, 0.38404804, 4.537988, 8.40479, 0.4032557, 0.113875926, 9.550169
269509413301383, 0.64965135, 5.682954, 8.653643, -0.492805, 0.13320881, 10.360643
269509422941279, 0.3792624, 4.3070807, 8.556734, 0.66453266, 0.18045932, 9.56234
269509432581279, 0.5587241, 5.8157554, 8.784052, -0.52537966, 0.008670449, 10.536539
269509442221175, 0.3290131, 4.409972, 8.5938225, 0.59913135, 0.10089487, 9.645764
269509451861175, 0.40797627, 5.595616, 8.76132, -0.30917454, -0.08366662, 10.398824
269509461501071, 0.32063824, 4.7916274, 8.73141, 0.35141325, 0.01794523, 9.958725
269509471141071, 0.3182454, 5.1828537, 8.675179, 0.006799221, -0.075327754, 10.110205
269509480780966, 0.4534399, 5.343173, 8.567501, -0.21577644, 0.009867668, 10.104977
269509490420966, 0.2416751, 4.692325, 8.362915, 0.28373528, -0.055033445, 9.588073
269509500060862, 0.41515473, 5.782256, 8.492127, -0.5991688, -0.123568594, 10.263956
269509509700862, 0.111266255, 4.402794, 8.288737, 0.5239625, -0.12617552, 9.370681
269509519340758, 0.35174492, 5.9353967, 8.437093, -0.72674656, -0.2262224, 10.293584
269509528980758, 0.19381863, 4.4434714, 8.238488, 0.43706512, -0.05490303, 9.352039
269509538620654, 0.4331009, 5.663811, 8.474181, -0.51431847, -0.084133744, 10.188547
269509548260654, 0.465404, 4.7365923, 8.543573, 0.2852335, 0.16345191, 9.774277
269509557900550, 0.47018966, 5.1756754, 8.700303, -0.00590086, 0.079102874, 10.1339855
269509567540550, 0.5694918, 5.2008, 8.737391, -0.031087399, 0.17402059, 10.182505
269509577180446, 0.3589234, 4.62413, 8.573483, 0.41562796, 0.08674252, 9.738365
269509586820446, 0.55034924, 5.6410794, 8.657232, -0.43599224, 0.051573753, 10.338259
269509596460341, 0.276371, 4.3525443, 8.453842, 0.6032052, 0.066177666, 9.493168
269509606100341, 0.52283174, 5.8468623, 8.581859, -0.6287861, -0.026041806, 10.37841
269509615740237, 0.26919255, 4.351348, 8.365308, 0.5524976, 0.04295659, 9.416899
269509625380237, 0.40079778, 5.7080784, 8.548359, -0.5128641, -0.12204939, 10.273232
269509635020133, 0.30388847, 4.7007003, 8.517252, 0.32816505, 0.021264136, 9.727506
269509644660133, 0.33738798, 5.2749777, 8.615358, -0.098463535, -0.0768463, 10.106831
269509654300029, 0.46660042, 5.2235317, 8.650054, -0.08001137, 0.05987847, 10.11516
269509663940029, 0.32662028, 4.779663, 8.562716, 0.27965307, 0.021214485, 9.807819
269509673579925, 0.5419743, 5.631508, 8.693125, -0.41557693, 0.040738583, 10.363573
269509683219925, 0.2632105, 4.368098, 8.506484, 0.61324096, 0.044877946, 9.546295
269509692859821, 0.52283174, 5.8360944, 8.646464, -0.60345316, -0.032520473, 10.427343
269509702499821, 0.30867413, 4.3034916, 8.374879, 0.5806658, 0.09437019, 9.402545
269509712139716, 0.4749753, 5.706882, 8.496913, -0.5484896, -0.059647143, 10.231678
269509721779716, 0.34576288, 4.6025944, 8.415557, 0.35397458, 0.06514847, 9.591429
269509731419612, 0.317049, 5.3216376, 8.536395, -0.1813178, -0.121130705, 10.061951
269509741059612, 0.3792624, 5.157729, 8.583055, -0.034488678, -0.01977706, 10.020641
269509750699508, 0.23090738, 4.8263235, 8.493324, 0.22955418, -0.10040486, 9.768342
269509760339508, 0.47258246, 5.619544, 8.659625, -0.40627527, -0.021236777, 10.325996
269509769979404, 0.2428715, 4.4578285, 8.518449, 0.5478802, -0.0034486651, 9.601823
269509779619404, 0.4953143, 5.8743796, 8.702696, -0.5946183, -0.04940331, 10.494502
269509789259300, 0.26799613, 4.339384, 8.472985, 0.60941815, 0.036097407, 9.503727
269509798899300, 0.44027936, 5.7391853, 8.62134, -0.5220051, -0.070385695, 10.352882
269509808539196, 0.32063824, 4.5655055, 8.488539, 0.42517352, 0.04205507, 9.634283
269509818179196, 0.38644084, 5.3515477, 8.585447, -0.19520664, -0.05129391, 10.122133
269509827819091, 0.4833502, 5.0368915, 8.559127, 0.026285648, 0.105603576, 9.94237
269509837459091, 0.34576288, 4.8323054, 8.493324, 0.1940999, 0.007856071, 9.775969
269509847098987, 0.573081, 5.528617, 8.618947, -0.37682533, 0.09150767, 10.248409
269509856738987, 0.2943172, 4.4446683, 8.518449, 0.54400253, 0.037965238, 9.597307
269509866378883, 0.5419743, 5.825327, 8.71466, -0.5708637, 0.004547298, 10.480818
269509876018883, 0.276371, 4.322634, 8.493324, 0.6288614, 0.045476913, 9.513178
269509885658779, 0.45942193, 5.8037915, 8.590233, -0.5973935, -0.078457475, 10.359736
269509895298779, 0.31465617, 4.5619164, 8.437093, 0.39344335, 0.022303343, 9.588502
269509904938675, 0.38165522, 5.4496536, 8.525627, -0.30700207, -0.08526212, 10.120731
269509914578675, 0.41874397, 5.011767, 8.513663, 0.03823948, 0.03760284, 9.888012
269509924218675, 0.34337005, 4.932804, 8.502895, 0.11801958, -0.01944244, 9.835415
269509933858571, 0.5240282, 5.465207, 8.626125, -0.30609226, 0.049651563, 10.220421
269509943498571, 0.2943172, 4.4135613, 8.475378, 0.5451875, 0.046896994, 9.544568
269509953138466, 0.5455636, 5.7786665, 8.678768, -0.5388222, 0.0010478497, 10.42695
269509962778466, 0.28594232, 4.3130627, 8.433503, 0.6066356, 0.06655151, 9.457052
269509972418362, 0.5180461, 5.7966127, 8.519645, -0.6236863, -0.05855477, 10.2985935
269509982058362, 0.38524446, 4.5128636, 8.365308, 0.3800037, 0.118804276, 9.504431
269509991698258, 0.41874397, 5.5166526, 8.493324, -0.37974072, -0.08792704, 10.1288395
269510001338258, 0.37686956, 4.932804, 8.544769, 0.13166475, 0.023541987, 9.872678
269510010978154, 0.2428715, 4.9375896, 8.56152, 0.16532469, -0.10789794, 9.884302
269510020618154, 0.39601216, 5.419743, 8.717052, -0.19349241, -0.060326815, 10.270168
269510030258154, 0.22372891, 4.537988, 8.629715, 0.5303161, -0.02325201, 9.738254
269510039898050, 0.48933223, 5.845666, 8.851051, -0.511497, -0.061704636, 10.605986
269510049538050, 0.20578274, 4.3800616, 8.606983, 0.6586256, -0.010142744, 9.637094
269510059177946, 0.43070808, 5.8935223, 8.709874, -0.60642433, -0.12998843, 10.506969
269510068817946, 0.23449662, 4.487739, 8.446664, 0.47368622, -0.016422927, 9.555954
269510078457841, 0.36251262, 5.5501523, 8.440681, -0.43192482, -0.13640815, 10.098294
269510088097841, 0.41156548, 4.8705907, 8.3377905, 0.06591225, 0.06053585, 9.664512
269510097737737, 0.3900301, 5.0177493, 8.301898, -0.059726715, 0.00295192, 9.708135
269510107377737, 0.59940207, 5.349155, 8.429914, -0.32258844, 0.13927305, 9.995637
269510117017633, 0.4019942, 4.5008993, 8.422736, 0.4262936, 0.12894183, 9.547976
269510126657633, 0.587438, 5.710471, 8.742178, -0.47035837, 0.06465477, 10.447719
269510136297633, 0.33738798, 4.2664027, 8.595019, 0.71867394, 0.1305126, 9.573759
269510145937529, 0.5563313, 5.7870417, 8.760123, -0.51145697, 0.014055133, 10.501302
269510155577529, 0.3684947, 4.406383, 8.56152, 0.5678556, 0.11540854, 9.618515
269510165217425, 0.4749753, 5.5776696, 8.681161, -0.36242104, -0.023081124, 10.323113
269510174857425, 0.40438703, 4.855037, 8.602198, 0.21271276, 0.065209985, 9.883482
269510184497321, 0.30149564, 5.1158547, 8.544769, -0.012097836, -0.09486914, 9.963273
269510194137321, 0.4031906, 5.35753, 8.551949, -0.23322344, -0.048148155, 10.096771
269510203777321, 0.2009971, 4.633701, 8.420342, 0.34807563, -0.10087639, 9.606374
269510213417216, 0.43669012, 5.7583275, 8.663215, -0.51692677, -0.07717037, 10.39842
269510223057216, 0.22253251, 4.339384, 8.53161, 0.64916253, -0.023705125, 9.552286
269510232697112, 0.4953143, 5.8396835, 8.742178, -0.5556259, -0.03703004, 10.510131
269510242337112, 0.3278167, 4.3968115, 8.584251, 0.60529184, 0.06459576, 9.631108
269510251977112, 0.48095736, 5.631508, 8.702696, -0.39999294, -0.01687771, 10.369274
269510261617008, 0.4031906, 4.7653065, 8.586644, 0.27444458, 0.06622052, 9.824533
269510271257008, 0.34456646, 5.1493545, 8.548359, -0.044619083, -0.06716168, 9.985115
269510280896904, 0.44985065, 5.2893343, 8.518449, -0.19710112, 0.012871265, 10.035158
269510290536904, 0.2632105, 4.686343, 8.353344, 0.26919746, -0.048003614, 9.577823
269510300176800, 0.4977071, 5.7391853, 8.535198, -0.5719552, -0.03665495, 10.281395
269510309816800, 0.24885355, 4.3872404, 8.362915, 0.5222597, 0.008442402, 9.432673
269510319456800, 0.5024927, 5.869594, 8.550752, -0.6624918, -0.071964085, 10.362235
269510329096696, 0.28115666, 4.3609195, 8.386844, 0.5561917, 0.049898148, 9.440549
269510338736696, 0.45702913, 5.6386867, 8.615358, -0.42692423, -0.069743514, 10.297618
269510348376591, 0.4354937, 4.692325, 8.596215, 0.3428855, 0.13817686, 9.796215
269510358016591, 0.49052864, 5.2079782, 8.6141615, -0.08757448, 0.063531935, 10.077486
269510367656591, 0.59581286, 5.1936216, 8.586644, -0.1225934, 0.16252774, 10.050757
269510377296487, 0.40797627, 4.666004, 8.452646, 0.29799914, 0.10103941, 9.658482
269510386936487, 0.5491528, 5.6171513, 8.617751, -0.43914747, 0.016972005, 10.292058
269510396576383, 0.2440679, 4.347759, 8.4705925, 0.60828686, 0.018464804, 9.504901
269510406216383, 0.4881358, 5.8277197, 8.658429, -0.57398653, -0.07828182, 10.432325
269510415856383, 0.23090738, 4.341777, 8.41795, 0.5870836, 0.0012979507, 9.456297
269510425496279, 0.4127619, 5.7391853, 8.579466, -0.5241761, -0.13125575, 10.316195
269510435136279, 0.3278167, 4.7282176, 8.499306, 0.28851628, 0.017919898, 9.727185
269510444776279, 0.35294133, 5.346762, 8.581859, -0.19504595, -0.10304654, 10.114943
269510454416175, 0.43788654, 5.206782, 8.645268, -0.06882048, 0.018459022, 10.101381
269510464056175, 0.2955136, 4.8011985, 8.590233, 0.27443743, -0.0282619, 9.841485
269510473696071, 0.4989035, 5.605187, 8.72782, -0.372602, -0.014707267, 10.377998
269510483336071, 0.2727818, 4.3334017, 8.559127, 0.64574885, 0.057695746, 9.575546
269510492976071, 0.5240282, 5.8037915, 8.7015, -0.5654497, -0.027880967, 10.457254
269510502615966, 0.30508488, 4.3154554, 8.3581295, 0.5495546, 0.07158172, 9.395075
269510512255966, 0.4426722, 5.6997037, 8.409575, -0.5975394, -0.08931142, 10.150789
269510521895966, 0.30149564, 4.5678983, 8.310273, 0.32554555, 0.0142682195, 9.482143
269510531535862, 0.36370903, 5.355137, 8.459825, -0.2677436, -0.08756012, 10.014941
269510541175862, 0.40917268, 5.1254263, 8.530413, -0.060853958, 0.013500214, 9.959993
269510550815758, 0.2835495, 4.82752, 8.519645, 0.21049643, -0.047248304, 9.794037
269510560455758, 0.53599226, 5.568098, 8.768498, -0.3503127, 0.05078107, 10.394819
269510570095758, 0.32662028, 4.5738807, 8.723035, 0.5029869, 0.0674389, 9.841792
269510579735654, 0.46779683, 5.1732826, 8.861818, 0.03531742, 0.077508986, 10.271624
269510589375654, 0.39840496, 5.0177493, 8.779266, 0.14018059, 0.039907098, 10.118835
269510599015654, 0.41156548, 5.058427, 8.68475, 0.056354046, 0.033139765, 10.058711
269510608655550, 0.37088752, 5.06082, 8.58784, 0.019163609, -0.010112762, 9.974969
269510618295550, 0.3481557, 5.0943193, 8.505288, -0.0423398, -0.042674482, 9.920162
269510627935550, 0.31106696, 5.1026945, 8.455039, -0.0635314, -0.08211076, 9.879835
269510637575446, 0.33020952, 5.1086764, 8.429914, -0.085826874, -0.06650829, 9.862013
269510647215446, 0.34576288, 5.1062837, 8.514859, -0.043169975, -0.0425359, 9.934427
269510656855446, 0.424726, 5.1421757, 8.562716, -0.06505442, 0.029446363, 9.996868
269510666495341, 0.37567315, 5.089534, 8.553144, -0.01609087, -0.009804189, 9.95994
269510676135341, 0.37328035, 5.038088, 8.575876, 0.039100647, -0.0027970076, 9.953179
269510685775341, 0.35533416, 5.048856, 8.599805, 0.045786858, -0.022776008, 9.9785385
269510695415237, 0.35533416, 5.032106, 8.583055, 0.052036762, -0.021210909, 9.955604
269510705055237, 0.39960137, 5.046463, 8.519645, 0.0026211739, 0.018350244, 9.910121
269510714695237, 0.43070808, 5.072784, 8.462217, -0.055490017, 0.038383424, 9.875383
269510724335133, 0.45583272, 5.0919266, 8.402397, -0.10443735, 0.056990266, 9.834715
269510733975133, 0.4761717, 5.066802, 8.384451, -0.09404421, 0.08314031, 9.807268
269510743615133, 0.43429732, 5.070391, 8.425129, -0.06657982, 0.045215547, 9.842449
269510753255029, 0.36011982, 5.0452666, 8.581859, 0.04717207, -0.011529267, 9.961441
269510762895029, 0.33140594, 5.0572305, 8.699107, 0.098804, -0.033678174, 10.067223
269510772535029, 0.35174492, 5.078766, 8.787642, 0.11482382, -0.014585853, 10.15514
269510782174925, 0.3290131, 5.12423, 8.846265, 0.105956554, -0.046042025, 10.227856
269510791814925, 0.30867413, 5.1349974, 8.839087, 0.09283972, -0.07224208, 10.226391
269510801454925, 0.2656033, 5.12423, 8.758927, 0.069526196, -0.116695285, 10.150303
269510811094821, 0.30867413, 5.1026945, 8.6345005, 0.021862984, -0.07063657, 10.034037
269510820734821, 0.37686956, 5.1026945, 8.518449, -0.04598379, -0.007554531, 9.936867
269510830374821, 0.4127619, 5.0823555, 8.40479, -0.09335852, 0.025082052, 9.830151
269510840014716, 0.42951167, 5.029713, 8.383254, -0.05535221, 0.055007875, 9.785467
269510849654716, 0.50488555, 5.0715876, 8.400003, -0.094974995, 0.123462886, 9.824038
269510859294716, 0.36490545, 5.1529436, 8.382058, -0.14732409, -0.031769574, 9.844907
269510868934612, 0.30269206, 5.046463, 8.413164, -0.029884338, -0.08072138, 9.814905
269510878574612, 0.34097722, 5.032106, 8.458628, -0.0019602776, -0.03762698, 9.848113
269510888214612, 0.37567315, 5.1014977, 8.633304, 0.018928528, -0.0072448254, 10.034936
269510897854612, 0.39481574, 5.0883374, 8.632108, 0.022211552, 0.010358334, 10.027948
269510907494508, 0.3924229, 5.029713, 8.580662, 0.045770645, 0.015692174, 9.953764
269510917134508, 0.41994038, 5.093123, 8.569894, -0.018296242, 0.029996336, 9.9778805
269510926774508, 0.45822555, 5.1062837, 8.59143, -0.025518417, 0.066450626, 10.004585
269510936414404, 0.44626144, 5.0847483, 8.559127, -0.021995068, 0.056728452, 9.965378
269510946054404, 0.38165522, 5.072784, 8.5938225, 0.017271996, -0.0026663542, 9.986605
269510955694404, 0.30867413, 5.0823555, 8.639286, 0.04433632, -0.072986186, 10.027741
269510965334300, 0.2847459, 5.089534, 8.633304, 0.03718376, -0.09779337, 10.025338
269510974974300, 0.30987054, 5.099105, 8.623733, 0.018723965, -0.07460746, 10.022959
269510984614300, 0.36251262, 5.111069, 8.640483, 0.007367134, -0.024320334, 10.045484
269510994254300, 0.41635114, 5.10748, 8.645268, 0.0042300224, 0.026589423, 10.049859
269511003894196, 0.4139583, 5.096712, 8.648857, 0.016075611, 0.02426356, 10.047373
269511013534196, 0.3912265, 5.0452666, 8.639286, 0.05879259, 0.010228902, 10.012067
269511023174196, 0.37088752, 5.066802, 8.595019, 0.022983074, -0.017534792, 9.984167
269511032814196, 0.35533416, 5.0739803, 8.567501, 0.0062799454, -0.036735237, 9.963543
269511042454091, 0.34576288, 5.078766, 8.518449, -0.019178867, -0.05018878, 9.923431
269511052094091, 0.37686956, 5.0979085, 8.46102, -0.06901693, -0.026635945, 9.885045
269511061734091, 0.42592242, 5.0883374, 8.441878, -0.07842636, 0.021310627, 9.865663
269511071373987, 0.43788654, 5.072784, 8.463413, -0.054309845, 0.03430444, 9.876745
269511081013987, 0.44865423, 5.046463, 8.496913, -0.016790867, 0.051941365, 9.892555
269511090653987, 0.47138608, 5.0620165, 8.534002, -0.016308308, 0.07108545, 9.933283
269511100293987, 0.47018966, 5.035695, 8.554341, 0.01487875, 0.07199231, 9.937336
269511109933883, 0.4833502, 5.0620165, 8.5220375, -0.027254105, 0.07746485, 9.92351
269511119573883, 0.45104706, 5.0656056, 8.5112705, -0.029428005, 0.04443091, 9.914772
269511129213883, 0.41994038, 5.0416775, 8.508878, -0.00517416, 0.019823551, 9.899265
269511138853883, 0.41754755, 5.0644093, 8.500503, -0.02783823, 0.012036145, 9.903545
269511148493779, 0.424726, 5.063213, 8.504091, -0.027730465, 0.020470083, 9.906306
269511158133779, 0.41635114, 5.009374, 8.530413, 0.028299809, 0.026352704, 9.901194
269511167773779, 0.3900301, 4.9902315, 8.60459, 0.087557316, 0.010421693, 9.954182
269511177413779, 0.41994038, 5.040481, 8.683554, 0.074855804, 0.03507471, 10.048885
269511187053675, 0.40438703, 5.0715876, 8.713464, 0.063343525, 0.014278591, 10.089836
269511196693675, 0.39481574, 5.0979085, 8.695518, 0.031388283, -0.0035313964, 10.087397
269511206333675, 0.3493521, 5.143372, 8.696713, 0.0011076927, -0.05814475, 10.109687
269511215973675, 0.30149564, 5.1361938, 8.658429, -0.0048732758, -0.106268406, 10.071171
269511225613571, 0.27158538, 5.1218367, 8.630911, -0.0010814667, -0.13321662, 10.039016
269511235253571, 0.27756742, 5.1158547, 8.577073, -0.023411274, -0.12771904, 9.989912
269511244893571, 0.2847459, 5.0919266, 8.563912, -0.008003235, -0.115391254, 9.966744
269511254533571, 0.32303107, 5.0799623, 8.510074, -0.032737255, -0.07931572, 9.915863
269511264173466, 0.38883367, 5.0620165, 8.526823, -0.021108627, -0.012111127, 9.923776
269511273813466, 0.45702913, 5.06082, 8.556734, -0.016919613, 0.050136566, 9.951667
269511283453466, 0.47976094, 5.029713, 8.581859, 0.016753674, 0.08020407, 9.958403
269511293093466, 0.48215377, 5.0476594, 8.606983, 0.014424324, 0.07717812, 9.98926
269511302733466, 0.44626144, 5.040481, 8.595019, 0.021978855, 0.038225174, 9.973866
269511312373362, 0.44147578, 5.038088, 8.517252, -0.014341354, 0.028733492, 9.905542
269511322013362, 0.46181476, 5.0644093, 8.459825, -0.06885576, 0.039419472, 9.870352
269511331653362, 0.47018966, 5.0679984, 8.428718, -0.0862484, 0.044615626, 9.845788
269511341293258, 0.46899325, 5.0620165, 8.457432, -0.066617966, 0.04627055, 9.867397
269511350933258, 0.44745782, 5.0536413, 8.532805, -0.016610622, 0.030852377, 9.927088
269511360573258, 0.40558344, 5.050052, 8.610572, 0.03340292, -0.0055758953, 9.990412
269511370213258, 0.38644084, 5.0392847, 8.648857, 0.06350279, -0.020615876, 10.017085
269511379853258, 0.3589234, 5.0596237, 8.629715, 0.041100502, -0.051495075, 10.009808
269511389493154, 0.3361916, 5.0679984, 8.599805, 0.02354145, -0.07539028, 9.987393
269511399133154, 0.3589234, 5.1062837, 8.578269, -0.024400711, -0.060825408, 9.989262
269511408773154, 0.3900301, 5.111069, 8.571091, -0.037864685, -0.031793654, 9.986805
269511418413154, 0.41515473, 5.1122656, 8.580662, -0.03916073, -0.0075591207, 9.996688
269511428053154, 0.42951167, 5.0859447, 8.627322, 0.0035099983, 0.01493758, 10.024059
269511437693050, 0.45583272, 5.063213, 8.644072, 0.025690079, 0.04486364, 10.028021
269511447333050, 0.45942193, 5.0344987, 8.648857, 0.051339626, 0.053000033, 10.017712
269511456973050, 0.465404, 5.0141597, 8.616554, 0.053011894, 0.056785345, 9.979849
269511466613050, 0.506082, 5.0572305, 8.543573, -0.026636124, 0.08408794, 9.940653
269511476252946, 0.51206404, 5.070391, 8.480164, -0.068890095, 0.08349159, 9.893055
269511485892946, 0.4953143, 5.0416775, 8.416754, -0.071609974, 0.06681958, 9.823238
269511495532946, 0.4331009, 5.0165524, 8.395218, -0.048012257, 0.0059515834, 9.789317
269511505172946, 0.40917268, 5.0009995, 8.421539, -0.017615318, -0.01348722, 9.803022
269511514812946, 0.3792624, 5.011767, 8.477771, 0.0043559074, -0.042109072, 9.855581
269511524452841, 0.39481574, 5.032106, 8.53161, 0.009536266, -0.027641475, 9.912894
269511534092841, 0.4103691, 5.048856, 8.648857, 0.0525198, -0.008987397, 10.022936
269511543732841, 0.4211368, 5.087141, 8.751749, 0.06798792, 0.0010939837, 10.13138
