timestamp_acc,device_acc_x,device_acc_y,device_acc_z,earth_acc_x,earth_acc_y,earth_acc_z
177988292435417, -0.29192436, 7.4620175, 6.4462643, -0.06261933, -0.002664566, 9.864954
177988302075105, -0.23449662, 7.499106, 6.501299, -0.0013676882, 0.0014762878, 9.927661
177988311714688, -0.17108682, 7.5314093, 6.5144596, 0.054623604, 0.040289402, 9.959166
177988321354271, -0.17587246, 7.5182486, 6.533602, 0.05826342, 0.017357826, 9.961889
177988330993959, -0.22612174, 7.446464, 6.485746, 0.012586951, -0.009702206, 9.877531
177988340633542, -0.29192436, 7.375876, 6.4869423, -0.03227222, -0.07478523, 9.826624
177988350273126, -0.31226337, 7.3663044, 6.445068, -0.057947516, -0.04463291, 9.792522
177988359912813, -0.34456646, 7.396215, 6.448657, -0.09395039, -0.040136337, 9.818222
177988369552396, -0.3278167, 7.379465, 6.570691, -0.037919402, -0.11091995, 9.885557
177988379191980, -0.2883351, 7.408179, 6.6388865, 0.012532353, -0.12621832, 9.951029
177988388831667, -0.26081768, 7.442875, 6.6855464, 0.043059826, -0.11961079, 10.007237
177988398471251, -0.20219351, 7.4620175, 6.641279, 0.0784564, -0.046521664, 9.991041
177988408110938, -0.19262223, 7.489535, 6.524031, 0.0477978, 0.056488514, 9.934171
177988417750521, -0.17108682, 7.5050883, 6.4354963, 0.040162206, 0.13539219, 9.886926
177988427390105, -0.13399807, 7.5146594, 6.3684974, 0.05480659, 0.1895957, 9.849205
177988437029792, -0.14955142, 7.4919276, 6.2309103, 0.007208824, 0.2662797, 9.7418995
177988446669376, -0.20458634, 7.4715886, 6.2105713, -0.04582572, 0.2387557, 9.714865
177988456308959, -0.18424734, 7.4213395, 6.2380886, -0.0094919205, 0.17960787, 9.694929
177988465948646, -0.19860429, 7.4380894, 6.2416778, -0.02586019, 0.18139601, 9.710283
177988475588230, -0.18185452, 7.475178, 6.3481584, 0.009341955, 0.13596106, 9.807745
177988485227813, -0.22971097, 7.4476604, 6.448657, -0.0020290613, 0.031693935, 9.854166
177988494867501, -0.29072794, 7.399804, 6.502496, -0.032800555, -0.057645798, 9.854931
177988504507084, -0.34337005, 7.3950186, 6.5946193, -0.058077574, -0.14607573, 9.913046
177988514146667, -0.32183465, 7.4010005, 6.613762, -0.034431815, -0.14776611, 9.929613
177988523786355, -0.32542387, 7.408179, 6.5551376, -0.063103676, -0.11600113, 9.896433
177988533425938, -0.29671, 7.4273214, 6.483353, -0.060272098, -0.043544292, 9.863137
177988543065626, -0.23569304, 7.457232, 6.410372, -0.03343618, 0.036150455, 9.836478
177988552705209, -0.24646074, 7.4823565, 6.4211397, -0.057180166, 0.009608269, 9.862762
177988562344792, -0.12562318, 7.476374, 6.330212, 0.029440403, 0.09722233, 9.796593
177988571984480, -0.12203395, 7.476374, 6.1471615, -0.015651107, 0.22840357, 9.677099
177988581624063, -0.08015956, 7.496713, 6.078966, -0.0030653477, 0.29113865, 9.6476
177988591263646, -0.07058827, 7.459625, 6.047859, -0.006758094, 0.2687726, 9.599754
177988600903334, -0.02632105, 7.524231, 6.235696, 0.07104695, 0.1898179, 9.770239
177988610542917, 0.061016977, 7.496713, 6.2309103, 0.15063405, 0.19249725, 9.7452
177988620182501, -0.0047856453, 7.5182486, 6.300302, 0.08809626, 0.117468834, 9.807972
177988629822188, -0.049052864, 7.5385876, 6.323034, 0.048121333, 0.09886789, 9.838769
177988639461771, -0.06460621, 7.530213, 6.3074803, 0.02590704, 0.09469986, 9.822574
177988649101355, -0.09810573, 7.5182486, 6.381658, 0.01175034, 0.019962788, 9.861982
177988658741042, -0.09930214, 7.5314093, 6.4701924, 0.027911186, -0.03731394, 9.929411
177988668380626, -0.1363909, 7.5230346, 6.539584, 0.009418726, -0.10537672, 9.968431
177988678020313, -0.14117654, 7.536195, 6.652047, 0.028410196, -0.17775345, 10.051441
177988687659896, -0.104087785, 7.556534, 6.7645097, 0.08268428, -0.22478199, 10.139689
177988697299480, -0.11844472, 7.57448, 6.7011, 0.047953725, -0.17391491, 10.11232
177988706939167, -0.16031912, 7.560123, 6.7094746, 0.009806752, -0.19694996, 10.107389
177988716578751, -0.15314065, 7.5349984, 6.6484575, 0.0050058365, -0.16651535, 10.048578
177988726218334, -0.104087785, 7.5661054, 6.5647087, 0.020818114, -0.06847143, 10.01734
177988735858021, -0.12083755, 7.5409803, 6.5539412, 0.0072197914, -0.0804019, 9.991427
177988745497605, -0.15553348, 7.5062847, 6.5515485, -0.017264247, -0.1116333, 9.963861
177988755137188, -0.20578274, 7.4584284, 6.5635123, -0.047973037, -0.166708, 9.935799
177988764776876, -0.21655045, 7.4548388, 6.562316, -0.05577779, -0.17246056, 9.932404
177988774416459, -0.19142582, 7.463214, 6.4642105, -0.060041428, -0.08882618, 9.874753
177988784056042, -0.21415763, 7.432107, 6.323034, -0.10955858, -0.022835732, 9.759628
177988793695730, -0.2009971, 7.409375, 6.216553, -0.12257755, 0.04309988, 9.673052
177988803335313, -0.15553348, 7.4010005, 6.1734824, -0.086872935, 0.07656288, 9.638333
177988812975001, -0.12323037, 7.448857, 6.181857, -0.06531632, 0.11143732, 9.67984
177988822614584, -0.11724831, 7.448857, 6.1974106, -0.055673957, 0.100495815, 9.689888
177988832254167, -0.17108682, 7.416554, 6.3541408, -0.05532193, -0.05042267, 9.767501
177988841893855, -0.20817557, 7.4141607, 6.4773707, -0.055048227, -0.15212059, 9.845978
177988851533438, -0.19740787, 7.4273214, 6.5204415, -0.037144065, -0.17065477, 9.883812
177988861173021, -0.1794617, 7.4344997, 6.5491557, -0.015661359, -0.18040895, 9.907706
177988870812709, -0.1268196, 7.493124, 6.4941206, 0.0014872551, -0.08745289, 9.916096
177988880452292, -0.07298109, 7.5661054, 6.393622, 0.00417912, 0.047923088, 9.905926
177988890091876, -0.05742774, 7.6103725, 6.323034, -0.012971163, 0.13105965, 9.893658
177988899731563, -0.0741775, 7.6019974, 6.3457656, -0.020895362, 0.1043663, 9.902185
177988909371146, -0.09571291, 7.578069, 6.448657, -0.007574916, 0.010184288, 9.950945
177988919010730, -0.11724831, 7.5349984, 6.474978, -0.011532664, -0.04033041, 9.93547
177988928650417, -0.13040884, 7.515856, 6.4965134, -0.015224457, -0.067131996, 9.93504
177988938290001, -0.086141616, 7.470392, 6.4677997, 0.027016044, -0.059086323, 9.881417
177988947929584, -0.05742774, 7.456035, 6.4366927, 0.048527718, -0.035400867, 9.850033
177988957569271, -0.049052864, 7.4452677, 6.384051, 0.040213704, -0.00800848, 9.807592
177988967208855, -0.06699903, 7.476374, 6.32423, -0.0019403696, 0.044710636, 9.792577
177988976848438, -0.05383851, 7.4907312, 6.314659, 0.0025342703, 0.06403303, 9.797184
177988986488126, -0.062213387, 7.513463, 6.3541408, -8.9883804E-4, 0.04697752, 9.840168
177988996127709, -0.059820566, 7.5290165, 6.4067826, 0.011194706, 0.020748615, 9.88615
177989005767292, -0.05503492, 7.5469627, 6.4642105, 0.025827646, -0.006641388, 9.937052
177989015406980, -0.062213387, 7.520642, 6.5204415, 0.03895724, -0.06522465, 9.953608
177989025046563, -0.06580263, 7.524231, 6.5228343, 0.033920288, -0.066494465, 9.95792
177989034686146, -0.08015956, 7.517052, 6.4737816, 0.008390307, -0.041260242, 9.920713
177989044325834, -0.111266255, 7.500303, 6.3972116, -0.038602114, -0.008681297, 9.858482
177989053965417, -0.104087785, 7.501499, 6.393622, -0.033405185, -0.0042123795, 9.857008
177989063605001, -0.111266255, 7.5385876, 6.363712, -0.05611193, 0.03748274, 9.865848
177989073244688, -0.11006984, 7.520642, 6.4235325, -0.03583944, -0.015296936, 9.891028
177989082884271, -0.078963146, 7.517052, 6.5108705, 0.01660049, -0.069710255, 9.9447775
177989092523855, -0.0849452, 7.5146594, 6.445068, -0.0070319176, -0.027324677, 9.900274
177989102163542, -0.10289137, 7.4883385, 6.3625154, -0.041061044, 0.0074710846, 9.826783
177989111803126, -0.083748795, 7.479964, 6.3361945, -0.028754354, 0.024122715, 9.8032055
177989121442709, -0.03589234, 7.500303, 6.2919273, -1.03235245E-4, 0.08035278, 9.789675
177989131082396, 0.010767702, 7.52782, 6.2787666, 0.03306055, 0.1189518, 9.80183
177989140721980, 0.02751746, 7.5517483, 6.3134627, 0.050281286, 0.108585835, 9.842518
177989150361563, 0.02871387, 7.548159, 6.3218374, 0.055014253, 0.1005497, 9.845203
177989160001251, -0.010767702, 7.5314093, 6.3338017, 0.023884058, 0.06681156, 9.84044
177989169640834, -0.040677983, 7.501499, 6.3996043, 0.018367171, -0.0086603165, 9.86046
177989179280417, -0.06460621, 7.5110703, 6.3589263, -0.017174244, 0.019273758, 9.841526
177989188920105, -0.050249275, 7.503892, 6.3565335, -0.0028303862, 0.021500587, 9.834429
177989198559688, -0.049052864, 7.509874, 6.375676, 0.0020848513, 0.012376785, 9.851381
177989208199271, -0.049052864, 7.537391, 6.393622, -1.692772E-5, 0.016726017, 9.883968
177989217838855, -0.047856454, 7.542177, 6.439086, 0.0105832815, -0.011080742, 9.917072
177989227478542, -0.014356935, 7.5673018, 6.4642105, 0.042343974, -7.472038E-4, 9.952311
177989237118126, -0.029910283, 7.5996046, 6.4414787, 0.014188528, 0.029428005, 9.962252
177989246757709, -0.029910283, 7.585248, 6.454639, 0.01956439, 0.008104801, 9.959859
177989256397396, -0.07178468, 7.5613194, 6.4618177, -0.012118578, -0.02645731, 9.946503
177989266036980, -0.07178468, 7.5230346, 6.401997, -0.019200921, -0.010141373, 9.878578
177989275676563, -0.047856454, 7.556534, 6.3972116, -0.0046321154, 0.022312164, 9.900873
177989285316251, -0.0011964113, 7.539784, 6.375676, 0.038240075, 0.044019222, 9.873915
177989294955834, 0.0, 7.5385876, 6.401997, 0.04664111, 0.024920464, 9.89005
177989304595417, -0.025124637, 7.5026956, 6.361319, 0.021628737, 0.023418427, 9.836486
177989314235001, -0.03708875, 7.5110703, 6.2715883, -0.0136835575, 0.087931156, 9.784807
177989323874688, -0.08135597, 7.5182486, 6.2321067, -0.06620872, 0.10337782, 9.764978
177989333514271, -0.08015956, 7.524231, 6.296713, -0.048725367, 0.05847931, 9.811384
177989343153855, -0.059820566, 7.1007013, 6.2524457, 0.048612595, -0.16213226, 9.459806
177989352793542, 0.03589234, 8.206185, 6.4402823, -0.055500865, 0.4098549, 10.423481
177989362433126, -0.062213387, 6.9152575, 6.1495543, 0.06715238, -0.20719004, 9.251717
177989372072709, 0.016749758, 8.013563, 6.4067826, -0.04532373, 0.30156088, 10.25531
177989381712292, 0.0071784677, 7.2562346, 6.2488565, 0.07865131, -0.042639256, 9.575657
177989391351980, -0.09930214, 7.460821, 6.3014984, -0.052692294, 0.0013613701, 9.76626
177989400991563, -0.0023928226, 7.7706914, 6.3421764, -0.027187467, 0.20027113, 10.028262
177989410631146, -0.21774685, 6.9391856, 6.2691956, -0.038630724, -0.32678366, 9.34849
177989420270834, -0.021535404, 8.16431, 6.6460648, -0.05556345, 0.22822237, 10.524799
177989429910417, -0.25603202, 6.680761, 6.3361945, 0.013354659, -0.5346813, 9.195621
177989439550001, -0.051445685, 8.297112, 6.6831536, -0.10434365, 0.27955818, 10.649896
177989449189584, -0.19501504, 6.808777, 6.3768725, 0.036352873, -0.45431232, 9.319565
177989458829271, -0.07537391, 8.053044, 6.734599, -0.048501015, 0.08217907, 10.497757
177989468468855, -0.05503492, 7.2526455, 6.5491557, 0.10873449, -0.25999117, 9.768108
177989478108438, -0.11964113, 7.570891, 6.602994, -0.013387322, -0.13108301, 10.045639
177989487748021, 0.039481573, 7.798209, 6.5204415, 0.0550431, 0.12535715, 10.164206
177989497387709, -0.14476576, 7.0301127, 6.3361945, 0.018434286, -0.28145456, 9.461039
177989507027292, 0.08255238, 8.219346, 6.5084777, -0.011480689, 0.39881706, 10.476907
177989516666876, -0.17108682, 6.7238317, 6.1268225, 0.0047079325, -0.32688522, 9.092319
177989526306459, 0.033499517, 8.281559, 6.439086, -0.0876658, 0.45941257, 10.479906
177989535946146, -0.10887343, 6.74776, 6.046663, 0.03926611, -0.24386024, 9.057882
177989545585730, -0.009571291, 8.075776, 6.4055862, -0.07559514, 0.3448062, 10.30171
177989555225313, -0.07178468, 7.176075, 6.215357, 0.020123005, -0.08754158, 9.493357
177989564865001, -0.13160525, 7.5828547, 6.290731, -0.10716736, 0.07903576, 9.852541
177989574504584, 0.046660043, 7.7180495, 6.276374, 0.025443673, 0.23522377, 9.945217
177989584144167, -0.09571291, 7.0935225, 6.2201424, 0.015869021, -0.15580606, 9.433604
177989593783751, 0.15433706, 8.232507, 6.5515485, 0.088145256, 0.3843794, 10.515003
177989603423438, -0.09571291, 6.8171515, 6.2919273, 0.09542608, -0.38164806, 9.269104
177989613063021, 0.078963146, 8.331808, 6.634101, 0.009053826, 0.3544941, 10.644754
177989622702605, -0.15792629, 6.7118673, 6.2321067, 0.05494988, -0.41946054, 9.150646
177989632342188, -0.08973085, 8.075776, 6.512067, -0.12915754, 0.22054291, 10.371494
177989641981771, -0.11006984, 7.092326, 6.2715883, 0.018642426, -0.20278788, 9.465969
177989651621459, -0.10767702, 7.6869426, 6.40439, -0.082811356, 0.05607748, 10.005343
177989661261042, 0.02751746, 7.692925, 6.279963, 0.0030412674, 0.20153713, 9.928703
177989670900626, -0.1591227, 7.125826, 6.1842504, -0.05664003, -0.14578629, 9.435212
177989680540209, 0.023928227, 8.132008, 6.552745, -0.019940257, 0.26813078, 10.44013
177989690179896, -0.22971097, 6.7704916, 6.3158555, 0.0034257174, -0.4753189, 9.24967
177989699819480, -0.014356935, 8.309076, 6.647261, -0.067546725, 0.29735184, 10.63645
177989709459063, -0.18424734, 6.704689, 6.2715883, 0.046018958, -0.4610176, 9.170876
177989719098646, -0.022731815, 8.146365, 6.5718875, -0.06163013, 0.26243687, 10.463308
177989728738230, -0.07058827, 7.0863442, 6.3182483, 0.071105, -0.22180462, 9.491429
177989738377917, -0.07298109, 7.746763, 6.5072813, -0.03487599, 0.040902138, 10.117285
177989748017501, 0.034695927, 7.658229, 6.390033, 0.050065756, 0.1102643, 9.973341
177989757657084, -0.11844472, 7.2550383, 6.235696, -0.038870215, -0.08443546, 9.566864
177989767296667, 0.11006984, 8.179864, 6.4343, 0.009544015, 0.41697836, 10.39945
177989776936355, -0.09810573, 6.867401, 6.1639113, 0.054141045, -0.26852512, 9.224401
177989786575938, 0.18903299, 8.413164, 6.530013, 0.057684064, 0.50988007, 10.639307
177989796215521, 0.02632105, 6.806384, 6.088537, 0.15757489, -0.20486403, 9.128585
177989805855105, 0.1794617, 8.289934, 6.431907, 0.045168996, 0.49133444, 10.482422
177989815494688, 0.062213387, 7.0815587, 6.1974106, 0.15428185, -0.11105251, 9.408724
177989825134376, 0.031106694, 7.834101, 6.390033, 0.006375909, 0.18484783, 10.108038
177989834773959, 0.049052864, 7.584051, 6.3014984, 0.054166913, 0.10574198, 9.859768
177989844413542, -0.124426775, 7.26102, 6.262017, -0.043765306, -0.12650204, 9.588161
177989854053126, 0.062213387, 8.090134, 6.5048885, 0.007391572, 0.2672844, 10.377678
177989863692709, -0.15433706, 6.8721867, 6.398408, 0.053601503, -0.46678877, 9.379214
177989873332396, 0.062213387, 8.37129, 6.6939216, -0.0044463873, 0.30084944, 10.714496
177989882971980, -0.19980069, 6.7226353, 6.216553, -7.2956085E-5, -0.4470644, 9.147646
177989892611563, -0.061016977, 8.184649, 6.4965134, -0.13140285, 0.28260326, 10.445084
177989902251146, -0.18903299, 6.943971, 6.202196, -0.036738873, -0.2954607, 9.307687
177989911890730, -0.16390835, 7.813762, 6.4366927, -0.14868474, 0.06478214, 10.12356
177989921530417, -0.05623133, 7.4548388, 6.346962, 0.012117863, -0.04333639, 9.790796
177989931170001, -0.18544376, 7.2418776, 6.2584276, -0.08131826, -0.15687513, 9.571619
177989940809584, -0.009571291, 7.952546, 6.407979, -0.043245316, 0.22921276, 10.210333
177989950449167, -0.2416751, 6.829116, 6.1938214, -0.05326593, -0.37793446, 9.214825
177989960088751, -0.010767702, 8.273184, 6.489335, -0.09352219, 0.35676432, 10.508144
177989969728438, -0.19381863, 6.6448684, 6.105287, 0.014882922, -0.41161537, 9.016468
177989979368021, 0.022731815, 8.242078, 6.3589263, -0.0889312, 0.4435811, 10.400174
177989989007605, -0.09212367, 6.95115, 6.0107703, 0.012072206, -0.12571478, 9.189144
177989998647188, -0.08973085, 7.9022965, 6.3158555, -0.12297499, 0.22516584, 10.113288
177990008286771, -0.039481573, 7.452446, 6.265606, 0.016670585, 0.011048317, 9.736422
177990017926355, -0.10289137, 7.3950186, 6.323034, -0.013106585, -0.086983204, 9.729849
177990027566042, 0.09571291, 7.969296, 6.5001025, 0.082999825, 0.20987606, 10.281984
177990037205626, -0.1794617, 6.896115, 6.3122663, 0.024827123, -0.40652847, 9.341703
177990046845209, -0.0035892338, 8.299505, 6.5659056, -0.06769323, 0.32727146, 10.577393
177990056484792, -0.22851457, 6.725028, 6.151947, -0.025845528, -0.40734148, 9.108131
177990066124376, 0.022731815, 8.303095, 6.458228, -0.070521116, 0.41437006, 10.510658
177990075763959, -0.02751746, 6.9344, 6.135197, 0.10340369, -0.20788717, 9.255992
177990085403646, 0.059820566, 8.015956, 6.411568, 0.021268249, 0.2828517, 10.260941
177990095043230, 0.034695927, 7.4213395, 6.3326054, 0.106790066, -0.028125763, 9.755367
177990104682813, -0.13040884, 7.4476604, 6.3421764, -0.053254604, -0.077582836, 9.782587
177990114322396, -0.009571291, 7.899904, 6.4127645, -0.02267909, 0.19071388, 10.173261
177990123961980, -0.2739782, 6.903293, 6.3397837, -0.067970514, -0.45239735, 9.36558
177990133601563, 0.0035892338, 8.252846, 6.7609205, 0.007404566, 0.16407585, 10.66736
177990143241251, -0.14476576, 6.7728844, 6.355337, 0.08733344, -0.49914646, 9.275045
177990152880834, 0.09212367, 8.353344, 6.5635123, 0.011788726, 0.3960414, 10.616474
177990162520417, -0.06460621, 6.8865438, 6.114858, 0.07522905, -0.23222303, 9.206552
177990172160001, -0.03589234, 8.023134, 6.344569, -0.09819257, 0.29732084, 10.223871
177990181799584, -0.06460621, 7.30768, 6.186643, -0.0023316145, -0.025877953, 9.57498
177990191439167, -0.15672988, 7.476374, 6.2931237, -0.094842434, -0.03816557, 9.773111
177990201078751, -0.0071784677, 7.853244, 6.384051, -0.018332839, 0.18197823, 10.119097
177990210718438, -0.19860429, 6.9559355, 6.2691956, -0.01582098, -0.34594154, 9.35988
177990220358021, 0.047856454, 8.208578, 6.649654, 0.02597487, 0.22432041, 10.561722
177990229997605, -0.15433706, 6.719046, 6.330212, 0.09544015, -0.5232761, 9.21727
177990239637188, 0.06460621, 8.350951, 6.5491557, -0.024873257, 0.37981224, 10.60609
177990249276771, -0.096909314, 6.88774, 6.157929, 0.050409794, -0.27497482, 9.235384
177990258916355, -0.0059820567, 8.105687, 6.4438715, -0.064533114, 0.27874756, 10.351028
177990268555938, -0.010767702, 7.350751, 6.2261243, 0.045678854, -0.028943539, 9.633034
177990278195626, -0.05503492, 7.618747, 6.3086767, -0.033395052, 0.05765629, 9.891577
177990287835209, 0.11844472, 7.850851, 6.279963, 0.06592977, 0.27816725, 10.0501795
177990297474792, -0.07776674, 7.085148, 6.1639113, 0.031744123, -0.16917992, 9.389864
177990307114376, 0.12083755, 8.2348995, 6.448657, 0.017745137, 0.38526058, 10.452972
177990316753959, -0.18305093, 6.7130637, 6.1591253, 0.020989895, -0.43532705, 9.101847
177990326393542, -0.008374879, 8.301898, 6.5754766, -0.077293396, 0.28947687, 10.58625
177990336033126, -0.16031912, 6.826723, 6.2309103, 0.03364122, -0.40360975, 9.235262
177990345672709, -0.014356935, 8.188239, 6.5479593, -0.06308627, 0.23929262, 10.481508
177990355312396, -0.02632105, 7.3375907, 6.3218374, 0.0625757, -0.11936617, 9.684441
177990364951980, -0.013160525, 7.752745, 6.3397837, -0.017905831, 0.12076664, 10.014149
177990374591563, 0.11485548, 7.847262, 6.2871413, 0.06608629, 0.2549348, 10.052437
177990384231146, -0.06699903, 7.1342006, 6.175875, 0.02965045, -0.16485882, 9.434758
177990393870730, 0.1471586, 8.184649, 6.4163537, 0.05614853, 0.37128782, 10.394168
177990403510313, -0.096909314, 6.734599, 6.1196437, 0.07818484, -0.37350893, 9.09223
177990413149896, 0.08853444, 8.305488, 6.530013, 0.0031961203, 0.34392595, 10.559913
177990422789480, -0.124426775, 6.800402, 6.151947, 0.046784878, -0.36896467, 9.163465
177990432429167, -0.096909314, 8.177471, 6.4941206, -0.1492219, 0.21944904, 10.439522
177990442068751, -0.1698904, 7.1772714, 6.300302, -0.04213345, -0.25870514, 9.548153
177990451708334, -0.19740787, 7.7144604, 6.4402823, -0.14672184, -0.050766945, 10.050125
177990461347917, -0.021535404, 7.7120676, 6.393622, 0.0060328245, 0.046259403, 10.017618
177990470987501, -0.1160519, 7.1473613, 6.2033925, -0.0021586418, -0.192173, 9.462737
177990480627084, 0.11844472, 8.149954, 6.4594245, 0.05324602, 0.3105445, 10.395226
177990490266667, -0.15074782, 6.7573314, 6.1998034, 0.05855012, -0.4357171, 9.161253
177990499906251, -0.0023928226, 8.304291, 6.478567, -0.090388894, 0.3367772, 10.526706
177990509545938, -0.26919255, 6.704689, 6.0861444, -0.06544888, -0.43028712, 9.048594
177990519185521, -0.11365908, 8.17149, 6.4331036, -0.1718111, 0.2510152, 10.39608
177990528825105, -0.09810573, 7.1270223, 6.2608204, 0.049181104, -0.24783945, 9.483571
177990538464688, -0.04426722, 7.793423, 6.384051, -0.02767086, 0.08020115, 10.074142
177990548104271, 0.0849452, 7.655836, 6.145965, 0.05660987, 0.21300316, 9.815465
177990557743855, -0.10049855, 7.213164, 5.994021, -0.055042624, -0.012969017, 9.378962
177990567383438, 0.046660043, 8.097312, 6.2668023, -0.052090883, 0.3780961, 10.232096
177990577023021, -0.22253251, 6.8219376, 6.195018, -0.014525056, -0.4305954, 9.207658
177990586662605, -0.0035892338, 8.382058, 6.73101, -0.027225733, 0.1984458, 10.74827
177990596302292, -0.148355, 6.8219376, 6.3864436, 0.116773725, -0.5266781, 9.330407
177990605941876, 0.019142581, 8.300702, 6.6771717, -0.007277131, 0.20837307, 10.650972
177990615581459, 0.0, 7.1342006, 6.2727847, 0.13654459, -0.21348572, 9.496338
177990625221042, 0.032303106, 7.897511, 6.326623, -0.0030454397, 0.2106657, 10.116991
177990634860626, 0.15672988, 7.6809607, 6.108876, 0.096755624, 0.28459883, 9.810696
177990644500209, -0.011964113, 7.348358, 5.985646, -0.011317134, 0.10371494, 9.477109
177990654139792, 0.15074782, 8.1679, 6.262017, 0.029666543, 0.45036173, 10.28331
177990663779376, -0.1268196, 6.927222, 6.216553, 0.04613924, -0.3581848, 9.301485
177990673418959, 0.09092726, 8.407183, 6.7166533, 0.046970844, 0.25002956, 10.758146
177990683058542, -0.14356937, 6.800402, 6.270392, 0.07324684, -0.4751444, 9.238657
177990692698230, -0.031106694, 8.273184, 6.491728, -0.09988189, 0.28213644, 10.511873
177990702337813, -0.13998012, 6.9786673, 6.122037, -0.007252693, -0.25861073, 9.280828
177990711977396, -0.08015956, 7.853244, 6.2584276, -0.10890818, 0.18405294, 10.040022
177990721616980, 0.015553347, 7.5254273, 6.1028943, 0.011245966, 0.13175726, 9.688145
177990731256563, -0.09212367, 7.3256264, 6.04427, -0.05717981, 0.0137114525, 9.497528
177990740896146, 0.083748795, 8.042277, 6.2309103, -0.0033681393, 0.3725438, 10.167138
177990750535730, -0.22851457, 6.8614187, 6.105287, -0.055005908, -0.35458016, 9.180254
177990760175313, -0.014356935, 8.282756, 6.5982084, -0.047296405, 0.22742462, 10.587097
177990769814896, -0.22372891, 6.7094746, 6.2871413, 0.04143977, -0.5654342, 9.180077
177990779454480, -0.03589234, 8.322237, 6.586244, -0.08055377, 0.25129414, 10.609896
177990789094167, -0.1052842, 7.01097, 6.262017, 0.07168555, -0.31237411, 9.395475
177990798733751, -0.07178468, 7.962117, 6.518049, -0.05098927, 0.084340096, 10.289595
177990808373334, -0.020338992, 7.501499, 6.3565335, 0.060110927, -0.05471325, 9.832184
177990818012917, -0.11485548, 7.4392858, 6.3182483, -0.023845077, -0.1038003, 9.760385
177990827652501, 0.083748795, 8.038688, 6.3960147, 0.038128376, 0.27285385, 10.2694025
177990837292084, -0.16510476, 6.916454, 6.204589, 0.019484997, -0.35288095, 9.286367
177990846931667, 0.031106694, 8.279166, 6.5635123, -0.01405561, 0.28085613, 10.561544
177990856571251, -0.21415763, 6.707082, 6.2488565, 0.03234458, -0.5263574, 9.154285
177990866210834, -0.05383851, 8.275578, 6.5814586, -0.08794844, 0.24247932, 10.57058
177990875850521, -0.19980069, 6.920043, 6.2464633, -5.694628E-4, -0.38748264, 9.316387
177990885490105, -0.1160519, 7.9884386, 6.5635123, -0.08222008, 0.05896616, 10.339153
177990895129688, -0.02632105, 7.440482, 6.381658, 0.07843661, -0.103928566, 9.801535
177990904769271, -0.058624156, 7.495517, 6.276374, 0.004499793, -0.014202118, 9.7764435
177990914408855, 0.13519448, 7.9908314, 6.2584276, 0.06437147, 0.3614564, 10.144199
177990924048438, -0.11365908, 7.001399, 6.087341, 0.013370752, -0.19907951, 9.276229
177990933688021, 0.062213387, 8.34138, 6.468996, -0.030952454, 0.39082956, 10.548778
177990943327605, -0.18783657, 6.7645097, 6.1124654, 0.015128136, -0.39264107, 9.110527
177990952967188, -0.02751746, 8.313862, 6.3996043, -0.11727083, 0.38637257, 10.483936
177990962606771, -0.17706887, 6.88774, 6.0358953, -0.033735514, -0.25456905, 9.156332
177990972246355, -0.061016977, 8.014759, 6.381658, -0.08416247, 0.20617056, 10.242855
177990981886042, -0.0071784677, 7.314859, 6.1603217, 0.062455297, -0.041101456, 9.563011
177990991525626, -0.046660043, 7.521838, 6.1064835, -0.03720641, 0.10638428, 9.687965
177991001165209, 0.111266255, 7.877172, 6.099305, 0.017555475, 0.37290144, 9.956123
177991010804792, -0.09930214, 6.9786673, 6.005985, 0.0065488815, -0.17298174, 9.206169
177991020444376, 0.13280165, 8.306684, 6.3960147, 0.02568674, 0.4202814, 10.476179
177991030083959, -0.1268196, 6.8374906, 6.087341, 0.028390288, -0.3332939, 9.149381
177991039723542, 0.03589234, 8.385647, 6.4606214, -0.06608927, 0.38138247, 10.57876
177991049363126, -0.16630118, 6.8506513, 6.1292152, -0.0062212944, -0.36171436, 9.186702
177991059002709, -0.09212367, 8.087741, 6.530013, -0.1063, 0.12499523, 10.39395
177991068642396, -0.05742774, 7.3100734, 6.4965134, 0.091962814, -0.30445004, 9.774662
177991078281980, -0.09930214, 7.588837, 6.6388865, 0.023861885, -0.25583553, 10.080133
177991087921563, -0.0011964113, 7.818548, 6.546763, 0.033144712, -0.010915279, 10.197481
177991097561146, -0.22013968, 7.0408807, 6.29432, -0.06259096, -0.37456894, 9.439105
177991107200730, 0.013160525, 8.232507, 6.556334, -0.049214482, 0.22908926, 10.521641
177991116840313, -0.12562318, 6.8303123, 6.2584276, 0.056825995, -0.45293713, 9.253566
177991126479896, 0.22731815, 8.5112705, 6.5515485, 0.07777202, 0.46873903, 10.73268
177991136119480, 0.11006984, 7.01097, 6.087341, 0.18432748, -0.14031696, 9.282665
177991145759063, 0.2105684, 8.273184, 6.3684974, 0.0699172, 0.45077705, 10.432621
177991155398646, 0.08973085, 7.3172517, 6.1914287, 0.12208378, -0.03628683, 9.584768
177991165038334, -0.07776674, 7.647461, 6.257231, -0.09144902, 0.05211115, 9.88087
177991174677917, -0.020338992, 7.713264, 6.326623, -0.033423543, 0.06227827, 9.975771
177991184317501, -0.2105684, 7.0672016, 6.3744793, -0.052855372, -0.4263692, 9.509947
177991193957084, 0.086141616, 8.210971, 6.634101, 0.037677526, 0.17476416, 10.554941
177991203596667, -0.106480606, 6.8339014, 6.235696, 0.058665514, -0.4348364, 9.241479
177991213236251, 0.14955142, 8.402397, 6.391229, -0.012194037, 0.4843378, 10.546835
177991222875834, -0.019142581, 6.8721867, 5.832505, 0.022939086, -0.088871, 9.013159
177991232515417, 0.101694964, 8.221739, 6.1304116, -0.091641545, 0.53380775, 10.241872
177991242155001, -0.011964113, 7.210771, 6.0215383, 0.0061513186, -0.03679371, 9.394301
177991251794688, -0.10289137, 7.6941214, 6.355337, -0.097688675, -0.0149207115, 9.979512
177991261434271, 0.0, 7.664211, 6.4618177, 0.034769297, -0.07309866, 10.024405
177991271073855, -0.19621146, 7.1018977, 6.3828545, -0.048387885, -0.41366243, 9.5416355
177991280713438, 0.01794617, 8.116454, 6.5982084, -0.015170336, 0.1200099, 10.459393
177991290353021, -0.17228323, 6.7537417, 6.2787666, 0.019771695, -0.5334492, 9.207642
177991299992605, 0.08135597, 8.364112, 6.546763, -0.029672623, 0.33135605, 10.616705
177991309632188, -0.12323037, 6.789634, 6.122037, 0.0133827925, -0.37856293, 9.135107
177991319271771, -0.0059820567, 8.228917, 6.431907, -0.10726988, 0.29654503, 10.439593
177991328911355, -0.05742774, 7.135397, 6.265606, 0.03668976, -0.25253344, 9.492621
177991338551042, -0.06580263, 7.7946196, 6.4797635, -0.057115316, -0.018030643, 10.13628
177991348190626, 0.051445685, 7.702496, 6.282356, 0.020482183, 0.105185986, 9.939196
177991357830209, -0.09092726, 7.2155566, 6.148358, -0.038661122, -0.14411402, 9.479061
177991367469792, 0.16510476, 8.149954, 6.300302, 0.02870071, 0.39599276, 10.29491
177991377109376, -0.04426722, 6.8685975, 6.01436, 0.0453279, -0.2413516, 9.126435
177991386748959, 0.18903299, 8.474181, 6.390033, -0.0067003965, 0.5356598, 10.601559
177991396388542, -0.008374879, 6.875776, 6.053841, 0.08909798, -0.24658775, 9.157327
177991406028126, 0.104087785, 8.309076, 6.4737816, -0.02998364, 0.34370184, 10.528172
177991415667709, 0.031106694, 7.097112, 6.209375, 0.111542344, -0.21878004, 9.426877
177991425307396, 0.03708875, 7.884351, 6.3601227, -0.022165298, 0.14428759, 10.128881
177991434946980, 0.1471586, 7.6749787, 6.302695, 0.10842383, 0.109359264, 9.931122
177991444586563, -0.0059820567, 7.3172517, 6.283552, 0.045291305, -0.14811468, 9.643717
177991454226146, 0.13160525, 8.139186, 6.4737816, 0.026651382, 0.25601053, 10.397465
177991463865730, -0.101694964, 6.903293, 6.2955165, 0.060201287, -0.43356514, 9.333153
177991473505313, 0.09451649, 8.408379, 6.5611196, -0.048030496, 0.33778143, 10.660284
177991483144896, -0.11006984, 6.7669024, 6.1567326, 0.043012857, -0.41668105, 9.139637
177991492784480, 0.08015956, 8.258827, 6.4594245, -0.05213356, 0.322608, 10.480078
177991502424167, -0.033499517, 7.045666, 6.134001, 0.04187119, -0.20702505, 9.339374
177991512063751, -0.0047856453, 7.867601, 6.4031935, -0.050323844, 0.092577934, 10.143419
177991521703334, 0.020338992, 7.530213, 6.285945, 0.018394351, -0.012946129, 9.809032
177991531342917, -0.1052842, 7.318448, 6.2309103, -0.06476641, -0.14802694, 9.610874
177991540982501, 0.12083755, 8.043473, 6.367301, 0.016894937, 0.2678933, 10.255854
177991550622084, -0.11365908, 6.91765, 6.2213387, 0.018781304, -0.38055754, 9.296595
177991560261667, 0.10767702, 8.3784685, 6.5850477, -0.014118433, 0.30576324, 10.652676
177991569901355, -0.12203395, 6.7645097, 6.1734824, 0.040453434, -0.43820024, 9.148318
177991579540938, 0.0035892338, 8.286345, 6.503692, -0.114268064, 0.27572823, 10.529598
177991589180521, -0.106480606, 6.987042, 6.263213, 0.026560307, -0.35568857, 9.377138
177991598820105, -0.029910283, 7.966903, 6.5575304, -0.054301858, 0.039974213, 10.318385
177991608459688, 0.031106694, 7.507481, 6.375676, 0.059491634, -0.07838249, 9.848999
177991618099271, -0.0849452, 7.442875, 6.317052, -0.049272418, -0.12017059, 9.761757
177991627738855, 0.12562318, 8.026724, 6.355337, 0.020805359, 0.27429676, 10.235171
177991637378542, -0.078963146, 6.9248285, 6.070591, 0.010614991, -0.25923157, 9.205665
177991647018126, 0.17108682, 8.340183, 6.2811594, -0.015760183, 0.52663517, 10.428965
177991656657709, -0.09451649, 6.7501526, 5.9114685, -0.00845778, -0.25955462, 8.969477
177991666297292, 0.0741775, 8.300702, 6.3421764, -0.09059715, 0.41520977, 10.4379
177991675936876, -0.06460621, 6.9009004, 6.058627, 0.024054646, -0.25974464, 9.179625
177991685576459, 0.008374879, 8.007581, 6.364908, -0.080738544, 0.20555067, 10.226666
177991695216042, 0.041874398, 7.4392858, 6.2512493, 0.05132985, -0.040275574, 9.716924
177991704855730, -0.05503492, 7.4380894, 6.2811594, -0.032830358, -0.09403944, 9.735052
177991714495313, 0.15792629, 7.9657063, 6.352944, 0.065006256, 0.24529457, 10.186899
177991724134896, -0.051445685, 7.0025954, 6.2416778, 0.06319988, -0.3184228, 9.375082
177991733774480, 0.13160525, 8.348558, 6.6329045, 0.026896358, 0.26963282, 10.660101
177991743414063, -0.11844472, 6.7908306, 6.2919273, 0.051526427, -0.49766016, 9.244861
177991753053646, 0.06580263, 8.356933, 6.647261, -0.037964225, 0.25960445, 10.675201
177991762693230, -0.076570325, 6.930811, 6.3696938, 0.074471354, -0.44689894, 9.402647
177991772332917, -0.0011964113, 8.090134, 6.6329045, -0.04593575, 0.08512545, 10.461184
177991781972501, 0.016749758, 7.399804, 6.3278193, 0.045919895, -0.10827398, 9.735752
177991791612084, -0.047856454, 7.5469627, 6.2715883, -0.062089443, -0.0030694008, 9.812639
177991801251667, 0.11006984, 7.90469, 6.224928, -0.0064589977, 0.300838, 10.057606
177991810891251, -0.078963146, 7.0432734, 6.0454664, -0.03521526, -0.15794706, 9.280916
177991820530834, 0.16869399, 8.313862, 6.390033, 0.005106449, 0.44658804, 10.477682
177991830170521, -0.069391854, 6.7740808, 6.1208405, 0.048295736, -0.36738014, 9.122522
177991839810105, 0.12562318, 8.331808, 6.4881387, -0.009682894, 0.37562418, 10.554127
177991849449688, -0.05623133, 6.836294, 6.1698933, 0.05458653, -0.36291552, 9.201683
177991859089271, 0.046660043, 8.090134, 6.5647087, -0.014365196, 0.14886427, 10.417556
177991868728855, 0.019142581, 7.344769, 6.3517475, 0.06807697, -0.15963888, 9.70879
177991878368438, -0.040677983, 7.6366935, 6.326623, -0.05981624, 0.014358044, 9.916811
177991888008126, 0.09212367, 7.879565, 6.265606, -0.009540796, 0.24880552, 10.064386
177991897647709, -0.106480606, 7.1066833, 6.1435723, -0.048674345, -0.19687653, 9.392479
177991907287292, 0.16151553, 8.321041, 6.498906, 0.010985255, 0.37227392, 10.55286
177991916926876, -0.083748795, 6.8243303, 6.242874, 0.07541871, -0.42543745, 9.239333
177991926566459, 0.08255238, 8.38804, 6.623333, -0.044036984, 0.29390907, 10.683926
177991936206146, -0.10767702, 6.7968125, 6.235696, 0.05544901, -0.45220923, 9.213284
177991945845730, -0.02632105, 8.086544, 6.4606214, -0.11529529, 0.18843651, 10.348127
177991955485313, -0.0071784677, 7.233503, 6.1603217, 0.024297714, -0.101697445, 9.500644
177991965124896, -0.043070808, 7.6390862, 6.1998034, -0.09466672, 0.09799194, 9.837503
177991974764480, 0.10887343, 7.7587276, 6.1040907, -0.0109837055, 0.29213428, 9.8683405
177991984404167, -0.08853444, 7.1138616, 6.0753765, -0.046685934, -0.1434722, 9.354265
177991994043751, 0.11485548, 8.242078, 6.4534426, -0.024584174, 0.3344798, 10.4632435
177992003683334, -0.16271193, 6.7812595, 6.222535, 0.011836529, -0.47130013, 9.192912
177992013322917, 0.022731815, 8.335398, 6.570691, -0.09379196, 0.27973318, 10.609727
177992022962501, -0.13878371, 6.775277, 6.192625, 0.022262335, -0.43874955, 9.169476
177992032602084, 0.034695927, 8.165507, 6.5048885, -0.062931895, 0.23584366, 10.436989
177992042241771, 0.051445685, 7.196414, 6.262017, 0.11497247, -0.16133356, 9.537539
177992051881355, 0.0071784677, 7.751549, 6.398408, -0.02160263, 0.05669403, 10.050996
177992061520938, 0.11246266, 7.7503524, 6.3338017, 0.057783723, 0.14101458, 10.008719
177992071160521, -0.06699903, 7.164111, 6.196214, -0.009069085, -0.18007374, 9.470457
177992080800105, 0.13160525, 8.170293, 6.474978, 0.016655445, 0.29342508, 10.42161
177992090439792, -0.11246266, 6.8135624, 6.256035, 0.054210544, -0.44505548, 9.239819
177992100079376, 0.13758731, 8.4012, 6.5838513, -0.00909698, 0.35314035, 10.668713
177992109718959, -0.025124637, 6.832705, 6.1651077, 0.10090792, -0.33730507, 9.196254
177992119358542, 0.14356937, 8.286345, 6.556334, 0.012315989, 0.30916977, 10.562857
177992128998126, 0.076570325, 7.23111, 6.3541408, 0.14758396, -0.1908474, 9.623498
177992138637813, 0.011964113, 7.8424764, 6.535995, -0.011517644, 0.011502743, 10.208993
177992148277396, 0.11964113, 7.735996, 6.3792653, 0.06801069, 0.10440922, 10.026937
177992157916980, -0.07178468, 7.2382884, 6.2440705, -0.023927689, -0.16930962, 9.558094
177992167556563, 0.09332009, 8.149954, 6.4474607, -0.03569424, 0.28982258, 10.388211
177992177196251, -0.16630118, 6.792027, 6.1531434, -0.024954438, -0.4098661, 9.1570635
177992186835834, 0.11365908, 8.349754, 6.431907, -0.0691638, 0.4269395, 10.531557
177992196475417, -0.069391854, 6.7573314, 6.0358953, 0.039105892, -0.3117621, 9.0553665
177992206115001, 0.10049855, 8.257631, 6.3972116, -0.06431866, 0.38501263, 10.438894
177992215754584, 0.021535404, 7.075577, 6.141179, 0.07446575, -0.16363907, 9.367285
177992225394271, -0.022731815, 7.8149586, 6.363712, -0.08075166, 0.10534954, 10.077366
177992235033855, 0.03589234, 7.59123, 6.2679987, 0.0010460615, 0.06250715, 9.844387
177992244673438, -0.13160525, 7.2658057, 6.2524457, -0.0839901, -0.18116665, 9.584492
177992254313021, 0.038285162, 8.043473, 6.5001025, -0.0366261, 0.17112255, 10.340195
177992263952709, -0.19142582, 6.7740808, 6.2464633, -0.029157639, -0.49066138, 9.203342
177992273592292, 0.05623133, 8.29113, 6.521638, -0.0684042, 0.30894852, 10.54408
177992283231876, -0.14596218, 6.680761, 6.09093, -0.007849693, -0.41048932, 9.032429
177992292871459, 0.062213387, 8.228917, 6.4354963, -0.070632696, 0.34090185, 10.440947
177992302511042, 0.0011964113, 7.02772, 6.2237315, 0.089631915, -0.2416873, 9.383882
177992312150730, 0.011964113, 7.8903327, 6.5252275, -0.02349794, 0.05720377, 10.238762
177992321790313, -0.019142581, 7.298109, 6.290731, 0.020792484, -0.14075851, 9.634096
177992331429896, -0.051445685, 7.6606216, 6.2955165, -0.09639931, 0.054491997, 9.915091
177992341069480, -0.050249275, 7.5589266, 6.3134627, -0.06668842, -0.019238472, 9.8485985
177992350709167, 0.021535404, 7.6534433, 6.3744793, -0.006942749, 0.022598267, 9.960377
177992360348751, 0.08135597, 7.6223364, 6.344569, 0.047181487, 0.04806757, 9.917442
177992369988334, 0.09451649, 7.6402826, 6.334998, 0.04975021, 0.077512264, 9.925047
177992379627917, 0.04546363, 7.5409803, 6.2787666, 0.012815714, 0.039664745, 9.812726
177992389267605, 0.008374879, 7.503892, 6.256035, -0.019701004, 0.023543358, 9.769621
177992398907188, -0.01794617, 7.507481, 6.346962, -0.020066738, -0.045009613, 9.830771
177992408546771, -0.0059820567, 7.5433736, 6.4666033, 0.012552381, -0.10236263, 9.935232
177992418186355, 0.07776674, 7.580462, 6.445068, 0.074809074, -0.032465458, 9.949959
177992427826042, 0.111266255, 7.618747, 6.3720865, 0.072891355, 0.058354855, 9.932395
177992437465626, 0.12562318, 7.641479, 6.3361945, 0.06981158, 0.10186815, 9.926737
177992447105209, 0.10767702, 7.6546397, 6.326623, 0.047151566, 0.10844755, 9.930623
177992456744792, 0.096909314, 7.615158, 6.364908, 0.054826856, 0.051726818, 9.925039
177992466384480, 0.09451649, 7.598408, 6.4031935, 0.06626141, 0.013356686, 9.936853
177992476024063, 0.0526421, 7.5613194, 6.3326054, 0.015103579, 0.02536726, 9.862927
177992485663646, 0.03589234, 7.5792656, 6.2679987, -0.02197802, 0.076016426, 9.835046
177992495303230, 0.043070808, 7.584051, 6.2715883, -0.014963031, 0.07844734, 9.841043
177992504942917, 0.083748795, 7.5864444, 6.2931237, 0.028292537, 0.07807636, 9.856858
177992514582501, 0.041874398, 7.5828547, 6.296713, -0.0107142925, 0.06101656, 9.856277
177992524222084, 0.032303106, 7.5589266, 6.375676, 0.0058311224, -0.013603687, 9.888754
177992533861667, 0.010767702, 7.5385876, 6.437889, 0.006703615, -0.0765748, 9.91317
177992543501355, -0.047856454, 7.521838, 6.4354963, -0.04488778, -0.10392952, 9.8986435
177992553140938, -0.05742774, 7.48116, 6.4163537, -0.04775381, -0.111501694, 9.855249
177992562780521, -0.08853444, 7.469196, 6.4151573, -0.07243872, -0.1261096, 9.845293
177992572420209, -0.07776674, 7.4679995, 6.4821568, -0.04330504, -0.17047596, 9.887592
177992582059792, -0.05623133, 7.509874, 6.4977098, -0.028894901, -0.1458211, 9.929726
177992591699376, -0.04546363, 7.550552, 6.4402823, -0.045381427, -0.074958324, 9.923834
177992601338959, -0.029910283, 7.5230346, 6.4067826, -0.033765912, -0.062633514, 9.881231
177992610978646, 0.015553347, 7.5290165, 6.364908, -0.0051608086, -0.017838478, 9.858907
177992620618230, 0.020338992, 7.5589266, 6.363712, -0.009453535, -5.850792E-4, 9.88102
177992630257813, 0.05503492, 7.5792656, 6.3768725, 0.020709038, 0.011192799, 9.905163
177992639897396, 0.07537391, 7.605587, 6.3397837, 0.023631096, 0.060730934, 9.901478
177992649537084, 0.104087785, 7.5996046, 6.320641, 0.045179725, 0.07804966, 9.884695
177992659176667, 0.11724831, 7.617551, 6.282356, 0.041541934, 0.11788225, 9.873865
177992668816251, 0.09571291, 7.609176, 6.236892, 0.011438966, 0.13756037, 9.838116
177992678455938, 0.09332009, 7.5864444, 6.2727847, 0.02433753, 0.09798241, 9.843805
177992688095521, 0.076570325, 7.55773, 6.364908, 0.038776755, 0.009300232, 9.881074
177992697735105, 0.040677983, 7.5517483, 6.3744793, 0.007742405, -0.012801647, 9.882526
177992707374688, 0.0023928226, 7.524231, 6.3996043, -0.015582323, -0.06035137, 9.877505
177992717014376, -0.011964113, 7.517052, 6.4295144, -0.020409107, -0.09010029, 9.891224
177992726653959, 0.010767702, 7.54457, 6.4295144, -0.0074311495, -0.06409073, 9.912373
177992736293542, 0.04426722, 7.5816584, 6.4642105, 0.023496628, -0.054610252, 9.96323
177992745933230, 0.06819545, 7.623533, 6.4594245, 0.035041332, -0.01756668, 9.992271
177992755572813, 0.06819545, 7.5996046, 6.3744793, 0.01713407, 0.02863264, 9.9192505
177992765212396, 0.04426722, 7.588837, 6.334998, -0.013411999, 0.04136324, 9.88548
177992774851980, 0.041874398, 7.560123, 6.317052, -0.012503862, 0.033905506, 9.851956
177992784491667, 0.013160525, 7.554141, 6.3086767, -0.039982438, 0.026596546, 9.841866
177992794131251, -0.0011964113, 7.5110703, 6.334998, -0.03662026, -0.024783134, 9.825804
177992803770834, 0.02632105, 7.5314093, 6.3517475, -0.0108914375, -0.017704964, 9.8522625
177992813410521, 0.05503492, 7.5290165, 6.3421764, 0.013981819, -0.0021734238, 9.844395
177992823050105, 0.05383851, 7.5182486, 6.3541408, 0.01803863, -0.018464565, 9.843849
177992832689688, 0.047856454, 7.560123, 6.3421764, -0.0021708012, 0.011936188, 9.868171
177992842329376, 0.08973085, 7.5924263, 6.4067826, 0.046583533, -0.0011897087, 9.934672
177992851968959, 0.13040884, 7.587641, 6.3565335, 0.07179272, 0.046390057, 9.898866
177992861608542, 0.06699903, 7.6426754, 6.3194447, -0.011744738, 0.08036804, 9.916843
177992871248230, 0.02632105, 7.584051, 6.3290157, -0.03362429, 0.02078724, 9.877926
177992880887813, 0.05503492, 7.580462, 6.344569, -0.0012102127, 0.015729427, 9.885329
177992890527396, 0.09212367, 7.5996046, 6.3361945, 0.026694775, 0.046497345, 9.894794
177992900167084, 0.09332009, 7.609176, 6.3290157, 0.02439189, 0.059615135, 9.897504
177992909806667, 0.039481573, 7.5924263, 6.442675, 0.007567048, -0.044229984, 9.957537
177992919446251, 0.019142581, 7.5589266, 6.576673, 0.030623198, -0.1633668, 10.01812
177992929085834, -0.01794617, 7.5457664, 6.599405, 0.005712986, -0.19627857, 10.022598
177992938725521, -0.07298109, 7.5469627, 6.519245, -0.065211535, -0.15588951, 9.971659
177992948365105, -0.05383851, 7.501499, 6.468996, -0.048395276, -0.14196253, 9.904585
177992958004688, -0.015553347, 7.520642, 6.3661046, -0.043009877, -0.045726776, 9.853106
177992967644376, 0.040677983, 7.570891, 6.2344995, -0.03665328, 0.0954442, 9.807068
177992977283959, 0.1160519, 7.570891, 6.161518, 0.016422391, 0.17177343, 9.76045
177992986923542, 0.12323037, 7.5637126, 6.15434, 0.024740338, 0.17347002, 9.750391
177992996563230, 0.09332009, 7.5637126, 6.2057858, 0.010125279, 0.12609577, 9.783366
177993006202813, 0.06460621, 7.5673018, 6.289534, 0.006161809, 0.060894966, 9.839852
177993015842396, -0.0071784677, 7.5349984, 6.3744793, -0.031601667, -0.044452667, 9.869512
177993025482084, -0.050249275, 7.513463, 6.458228, -0.045784473, -0.13000631, 9.906784
177993035121667, -0.061016977, 7.5349984, 6.465407, -0.059603214, -0.123790264, 9.927868
177993044761251, -0.011964113, 7.5529447, 6.391229, -0.035377383, -0.04340124, 9.894029
177993054400938, 0.059820566, 7.5960155, 6.309873, 0.0013896227, 0.058640957, 9.874922
177993064040521, 0.083748795, 7.59123, 6.239285, 0.005650997, 0.10884905, 9.826015
177993073680105, 0.101694964, 7.578069, 6.2141604, 0.01892662, 0.12516165, 9.799859
177993083319792, 0.13519448, 7.5936227, 6.236892, 0.051818848, 0.12440157, 9.8266
177993092959376, 0.12203395, 7.624729, 6.250053, 0.03491366, 0.12586403, 9.858879
177993102598959, 0.09810573, 7.6271224, 6.3122663, 0.026575565, 0.07276106, 9.900572
177993112238646, 0.086141616, 7.6366935, 6.422336, 0.04038453, -0.005180359, 9.9785385
177993121878230, 0.049052864, 7.6163545, 6.4666033, 0.020563483, -0.05990362, 9.991206
177993131517813, 0.038285162, 7.609176, 6.48096, 0.014595509, -0.07035637, 9.994936
177993141157501, -0.0023928226, 7.5673018, 6.4474607, -0.02225995, -0.08264065, 9.941151
177993150797084, 0.01794617, 7.548159, 6.495317, 0.0140686035, -0.12171841, 9.957367
177993160436667, 0.011964113, 7.542177, 6.501299, 0.011411071, -0.13166952, 9.956606
177993170076355, 0.019142581, 7.542177, 6.393622, -0.010185719, -0.05311823, 9.887379
177993179715938, 0.058624156, 7.533802, 6.2919273, 0.0033051968, 0.025578499, 9.815767
177993189355521, 0.09930214, 7.578069, 6.2261243, 0.016763806, 0.1090312, 9.807621
177993198995209, 0.08973085, 7.5792656, 6.2608204, 0.016215563, 0.07690382, 9.830819
177993208634792, 0.08973085, 7.594819, 6.2644095, 0.013629317, 0.07951784, 9.845083
177993218274480, 0.062213387, 7.59123, 6.2524457, -0.014196277, 0.07436466, 9.834531
177993227914063, 0.047856454, 7.5720873, 6.2237315, -0.02873063, 0.07458973, 9.801388
177993237553646, -0.0047856453, 7.5349984, 6.24766, -0.064035416, 0.015889645, 9.78801
177993247193334, -0.015553347, 7.537391, 6.2715883, -0.06826258, -0.0050086975, 9.805134
177993256832917, 0.039481573, 7.57448, 6.2955165, -0.017802358, 0.01670599, 9.849224
177993266472501, 0.019142581, 7.578069, 6.3074803, -0.035749793, 0.0030174255, 9.859539
177993276112188, 0.03708875, 7.5469627, 6.363712, 0.001770258, -0.050795555, 9.871792
177993285751771, 0.011964113, 7.5625157, 6.3948183, -0.019008279, -0.06902552, 9.903554
177993295391355, 0.0, 7.5900335, 6.411568, -0.032031298, -0.06744146, 9.935352
