timestamp_acc,device_acc_x,device_acc_y,device_acc_z,earth_acc_x,earth_acc_y,earth_acc_z
178147619585817, 6.2679987, -0.8757731, 7.5720873, 0.5211139, -0.095820904, 9.854468
178147629225713, 6.2416778, -0.79441714, 7.702496, 0.4892106, -0.21008444, 9.931497
178147638865609, 6.7633133, -0.46660042, 7.5589266, -0.03163171, 0.14935255, 10.152546
178147648505504, 6.991828, -0.29790643, 7.2897344, -0.3487233, 0.467793, 10.08832
178147658145400, 6.661618, -0.31585258, 7.207182, -0.25581825, 0.36483288, 9.809275
178147667785296, 6.141179, -0.35174492, 7.4416785, -0.0062832832, -0.015645027, 9.654849
178147677425192, 5.9748783, -0.22612174, 7.6139617, -0.028797984, -0.28417873, 9.676835
178147687065088, 6.1435723, -0.07058827, 7.600801, -0.2427615, -0.13262701, 9.76955
178147696704984, 6.256035, -0.096909314, 7.6199436, -0.2501706, -0.054282665, 9.8562355
178147706344879, 6.2679987, -0.10289137, 7.745567, -0.22067642, -0.09596014, 9.961639
178147715984775, 6.2464633, -0.1794617, 7.969296, -0.088489175, -0.21108866, 10.124615
178147725624671, 6.2524457, -0.30388847, 8.109276, 0.062434673, -0.24093342, 10.2412815
178147735264463, 6.259624, -0.39601216, 8.117651, 0.15056038, -0.20494318, 10.255306
178147744904359, 6.3014984, -0.44985065, 7.945368, 0.14878595, -0.053596497, 10.149637
178147754544254, 6.3493547, -0.4211368, 7.8496547, 0.08860028, 0.026257038, 10.104464
178147764184150, 6.35773, -0.39960137, 7.8520474, 0.07077873, 0.024992466, 10.110856
178147773824046, 6.314659, -0.44626144, 7.8831544, 0.13448822, 0.007888317, 10.109404
178147783463942, 6.344569, -0.3397808, 7.8927255, 0.022970676, -0.0073742867, 10.132302
178147793103838, 6.378069, -0.25962126, 7.978867, -0.062742114, -0.031771183, 10.217855
178147802743734, 6.344569, -0.34217364, 8.096115, 0.052958727, -0.08602238, 10.291139
178147812383629, 6.381658, -0.33499518, 8.04108, -0.008669138, 0.010239601, 10.271152
178147822023525, 6.532406, -0.42592242, 7.8257265, -0.050965905, 0.29840565, 10.198238
178147831663317, 6.3625154, -0.4642076, 7.3770723, -0.07114029, 0.4505663, 9.7421875
178147841303213, 5.9581285, -0.43429732, 7.219146, -0.015281558, 0.24896622, 9.367057
178147850943109, 5.831309, -0.29192436, 7.469196, -0.045945525, -0.051629543, 9.480163
178147860583004, 6.1292152, -0.25962126, 5.7631135, -0.60097206, 1.1101432, 8.321934
178147870222900, 6.735796, -0.88414794, 6.707082, -0.034971714, 1.2233558, 9.467829
178147879862796, 6.3696938, -1.1653047, 8.331808, 0.74903846, 0.1664567, 10.524315
178147889502692, 6.279963, -0.5072784, 8.226524, 0.17400682, -0.17381382, 10.3590765
178147899142588, 5.922236, -0.12083755, 8.380861, 0.012503624, -0.70757914, 10.238431
178147908782484, 6.064609, 0.26679972, 8.286345, -0.3999741, -0.73670864, 10.237747
178147918422379, 6.2847486, 0.45942193, 8.076973, -0.6992967, -0.52372026, 10.207025
178147928062275, 6.4235325, 0.2117648, 8.036295, -0.5356816, -0.2713375, 10.272686
178147937702067, 6.2847486, -0.16749759, 8.151151, -0.12376475, -0.24579239, 10.290367
178147947341963, 6.117251, -0.15074782, 8.2014, -0.07961345, -0.38081264, 10.225218
178147956981859, 6.2608204, -0.21296121, 8.276773, -0.073295, -0.29100323, 10.375843
178147966621754, 6.2751775, -0.16869399, 8.279166, -0.124017954, -0.31685257, 10.38437
178147976261650, 6.2213387, -0.04426722, 8.132008, -0.24614704, -0.3315692, 10.230642
178147985901546, 6.1639113, 0.047856454, 8.069795, -0.32032347, -0.37787437, 10.142597
178147995541442, 6.111269, 0.022731815, 7.9908314, -0.28384626, -0.3681569, 10.049149
178148005181338, 6.189036, -0.22492532, 7.826923, -0.12752724, -0.112826824, 9.979303
178148014821234, 6.2117677, -0.2620141, 7.8089767, -0.107412934, -0.07024002, 9.9809
178148024461129, 6.242874, -0.33499518, 7.7419777, -0.07725692, 0.013440609, 9.9507675
178148034100921, 6.3314085, -0.4127619, 7.7312098, -0.041287422, 0.11603403, 10.000677
178148043740817, 6.4031935, -0.3924229, 7.685746, -0.10023594, 0.16005087, 10.009491
178148053380713, 6.38764, -0.4642076, 7.655836, -0.036451817, 0.18971443, 9.979575
178148063020609, 6.4055862, -0.32422748, 7.719246, -0.1528964, 0.10471678, 10.034394
178148072660504, 6.3948183, -0.39601216, 7.5756764, -0.11911297, 0.21443987, 9.918732
178148082300400, 6.2955165, -0.4881358, 7.585248, 0.0010843277, 0.17953444, 9.867906
178148091940296, 6.141179, -0.39840496, 7.7910304, 0.024478436, -0.07619476, 9.92807
178148101580192, 6.122037, -0.35294133, 7.8831544, 0.0146791935, -0.16230631, 9.986064
178148111220088, 6.1627145, -0.29312077, 7.926225, -0.046569824, -0.16381979, 10.042959
178148120859984, 6.1639113, -0.31106696, 7.9346, -0.030060887, -0.15939331, 10.050977
178148130499879, 6.1734824, -0.4019942, 7.932207, 0.043449283, -0.087463856, 10.059019
178148140139671, 6.1160545, -0.45104706, 8.031509, 0.13333368, -0.16187239, 10.103006
178148149779567, 6.10768, -0.42951167, 8.009974, 0.10355914, -0.1486063, 10.080432
178148159419463, 6.1531434, -0.49172506, 7.8867435, 0.108106375, -0.013454914, 10.014581
178148169059359, 6.142376, -0.5240282, 7.8699937, 0.13658404, 0.0031180382, 9.996075
178148178699254, 6.1627145, -0.5694918, 7.856833, 0.16422105, 0.040857792, 10.000229
178148188339150, 6.1806607, -0.44506502, 7.9537425, 0.06743324, -0.07618666, 10.082178
178148197979046, 6.181857, -0.3469593, 8.048259, 0.005019188, -0.17332506, 10.15284
178148207618942, 6.2033925, -0.3062813, 8.018349, -0.044897795, -0.16789722, 10.1409855
178148217258838, 6.2404814, -0.34576288, 7.9561353, -0.035784483, -0.09071159, 10.117002
178148226898734, 6.3014984, -0.36251262, 7.874779, -0.062220335, 0.010538101, 10.091999
178148236538629, 6.2584276, -0.40917268, 7.844869, -0.011829138, 0.020623684, 10.043741
178148246178421, 6.1806607, -0.357727, 7.861619, -0.022648335, -0.06415653, 10.006446
178148255818317, 6.2727847, -0.37208393, 7.804191, -0.06091404, 0.03847742, 10.019306
178148265458213, 6.300302, -0.41874397, 7.7682986, -0.04008937, 0.09663916, 10.010228
178148275098109, 6.282356, -0.3792624, 7.861619, -0.04393685, 0.008903027, 10.070497
178148284738004, 6.2955165, -0.37567315, 7.893922, -0.044204235, -0.0049643517, 10.103796
178148294377900, 6.2883377, -0.33260235, 7.897511, -0.08078945, -0.030807972, 10.1003475
178148304017796, 6.265606, -0.32422748, 7.844869, -0.09288418, -0.019984722, 10.044695
178148313657692, 6.2644095, -0.36131623, 7.8604226, -0.057353735, -0.009684563, 10.057646
178148323297588, 6.2644095, -0.3493521, 7.850851, -0.07168591, -0.007411957, 10.049654
178148332937484, 6.2117677, -0.3397808, 7.8400836, -0.06364465, -0.041924477, 10.008127
178148342577275, 6.206982, -0.39361933, 7.7742805, -0.028079152, 0.018345833, 9.955896
178148352217171, 6.2644095, -0.41156548, 7.8113694, -0.024188638, 0.04460287, 10.021334
178148361857067, 6.215357, -0.3924229, 7.85444, -0.010848761, -0.023469925, 10.023783
178148371496963, 6.1974106, -0.40558344, 7.885547, 0.016068697, -0.04924822, 10.03751
178148381136859, 6.202196, -0.36729828, 7.891529, -0.020384312, -0.063005924, 10.043604
178148390776754, 6.239285, -0.3912265, 7.812566, -0.033090234, 0.019870758, 10.005819
178148400416650, 6.24766, -0.42951167, 7.8484583, 0.005927205, 0.020216942, 10.040698
178148410056546, 6.204589, -0.43070808, 7.844869, 0.021945596, -0.0069561005, 10.011188
178148419696442, 6.2201424, -0.36729828, 7.812566, -0.049043775, -0.008389473, 9.992935
178148429336338, 6.2727847, -0.26679972, 7.7814593, -0.16336095, 5.311966E-4, 9.997171
178148438976234, 6.276374, -0.25722843, 7.820941, -0.16388714, -0.022965431, 10.029894
178148448616025, 6.1842504, -0.3385844, 7.830512, -0.046172023, -0.04890871, 9.983585
178148458255921, 6.2201424, -0.40438703, 7.8221374, -0.0025714636, 0.009911537, 10.001972
178148467895817, 6.250053, -0.44985065, 7.8400836, 0.0311867, 0.050734997, 10.036378
178148477535713, 6.198607, -0.5491528, 7.8113694, 0.13144171, 0.082825184, 9.985874
178148487175609, 6.198607, -0.45942193, 7.8233337, 0.05093503, 0.044256687, 9.991687
178148496815504, 6.24766, -0.35174492, 7.9011, -0.0497123, -0.009712696, 10.078779
178148506455400, 6.2811594, -0.33260235, 7.9393854, -0.07169354, -0.017172337, 10.128771
178148516095296, 6.2285175, -0.30867413, 7.9764743, -0.06464815, -0.08621359, 10.124338
178148525735192, 6.1806607, -0.33499518, 7.952546, -0.027406454, -0.09340525, 10.077019
178148535374984, 6.1675005, -0.38524446, 7.920243, 0.011054754, -0.048262596, 10.045609
178148545014879, 6.148358, -0.45104706, 7.881958, 0.06487632, -0.0030059814, 10.006338
178148554654775, 6.1710896, -0.50009996, 7.899904, 0.10122657, 0.032773018, 10.036414
178148564294671, 6.1854467, -0.46660042, 7.8759756, 0.055901885, 0.047430992, 10.025122
178148573934567, 6.2057858, -0.44147578, 7.8317084, 0.010492086, 0.082071304, 10.001776
178148583574463, 6.209375, -0.50129634, 7.836494, 0.059714675, 0.11682224, 10.010047
178148593214359, 6.0897336, -0.50368917, 7.879565, 0.11827421, 0.012294769, 9.970553
178148602854254, 6.0047884, -0.41874397, 7.9369926, 0.0848304, -0.10603094, 9.960434
178148612494150, 6.038288, -0.38524446, 7.905886, 0.034229755, -0.076664925, 9.955166
178148622134046, 6.0693946, -0.30388847, 7.960921, -0.035677195, -0.123046875, 10.014478
178148631773838, 6.1064835, -0.2620141, 7.9740815, -0.07924795, -0.11975527, 10.046052
178148641413734, 6.108876, -0.29072794, 7.9501534, -0.058980107, -0.0878067, 10.029788
178148651053629, 6.0837517, -0.41515473, 7.9561353, 0.062852025, -0.05322361, 10.023856
178148660693525, 6.046663, -0.4354937, 7.9477606, 0.09314382, -0.06178522, 9.995309
178148670333421, 6.0897336, -0.4139583, 7.8891363, 0.04347825, -0.0027060509, 9.974607
178148679973317, 6.131608, -0.51565325, 7.820941, 0.10305083, 0.11468458, 9.950168
178148689613213, 6.1028943, -0.24646074, 7.914261, -0.10369623, -0.07170105, 9.9962845
178148699253109, 6.0514483, -0.66759753, 7.9011, 0.29516125, 0.09513521, 9.969801
178148708893004, 6.1914287, 0.2416751, 7.9944205, -0.55554533, -0.24622726, 10.096222
178148718532900, 5.98086, -0.95832545, 7.763513, 0.5480715, 0.2518587, 9.828398
178148728172692, 6.212964, 0.37328035, 7.879565, -0.7011703, -0.21661186, 10.014451
178148737812588, 6.005985, -1.1138589, 7.743174, 0.6840279, 0.39217758, 9.83095
178148747452484, 6.178268, 0.20338993, 8.013563, -0.48574328, -0.23480654, 10.106358
178148757092379, 6.1100726, -0.72741807, 8.036295, 0.3734913, 0.112314224, 10.113954
178148766732275, 6.236892, -0.08255238, 8.120044, -0.2162242, -0.12078524, 10.236182
178148776372171, 6.1471615, -0.09332009, 8.029117, -0.19027257, -0.10417271, 10.110191
178148786012067, 6.125626, -0.4354937, 7.884351, 0.08991432, 0.11079931, 9.992778
178148795651963, 6.2033925, 0.4749753, 8.126026, -0.6846552, -0.35648155, 10.205106
178148805291859, 6.017949, -0.70947194, 8.07458, 0.4449016, 0.07983112, 10.085316
178148814931754, 6.2979093, 0.7106683, 8.252846, -0.8984088, -0.42844915, 10.357965
178148824571546, 6.094519, -0.80757767, 8.147561, 0.53411806, 0.1556325, 10.191595
178148834211442, 6.2871413, 0.46899325, 8.29472, -0.6335039, -0.37284946, 10.392794
178148843851338, 6.099305, -0.7118647, 8.182257, 0.44366622, 0.10960293, 10.220017
178148853491234, 6.222535, -0.03708875, 8.286345, -0.1626656, -0.16705036, 10.360042
178148863131129, 6.1268225, -0.1902294, 8.263613, -0.00857234, -0.14637184, 10.287855
178148872771025, 6.047859, -0.56590253, 8.149954, 0.32478094, 0.03288746, 10.159332
178148882410921, 6.13759, 0.18424734, 8.287541, -0.34683442, -0.31872225, 10.303661
178148892050817, 5.9210396, -0.99661064, 8.158329, 0.7524328, 0.15484524, 10.100503
178148901690713, 6.1567326, 0.38644084, 8.257631, -0.53730917, -0.37783575, 10.286482
178148911330504, 5.9700923, -1.0432707, 7.944171, 0.71520615, 0.30712843, 9.961647
178148920970400, 6.145965, 0.4953143, 8.023134, -0.6986468, -0.3165412, 10.089627
178148930610296, 6.009574, -0.66400826, 7.884351, 0.34921014, 0.16448879, 9.928235
178148940250192, 6.1794643, 0.08973085, 7.9106717, -0.38472247, -0.08855343, 10.030787
178148949890088, 6.141179, -0.2428715, 7.8592257, -0.09015179, 0.06378317, 9.976386
178148959529984, 6.105287, -0.4642076, 7.7347994, 0.093994856, 0.20136023, 9.862442
178148969169879, 6.263213, 0.17826529, 7.8628154, -0.49649906, -0.08629513, 10.041391
178148978809775, 6.088537, -0.971486, 7.8496547, 0.5823188, 0.340199, 9.958731
178148988449671, 6.285945, 0.4019942, 8.155936, -0.61155605, -0.34193468, 10.2812
178148998089567, 6.108876, -1.099502, 8.025527, 0.76066434, 0.29988527, 10.112755
178149007729359, 6.3517475, 0.34456646, 8.062616, -0.61212564, -0.22581148, 10.249074
178149017369254, 6.070591, -0.8350951, 7.820941, 0.4898758, 0.25736427, 9.920199
178149027009150, 6.0777693, 0.13878371, 7.88794, -0.37608123, -0.21702337, 9.949351
178149036649046, 6.0514483, -0.25962126, 7.8113694, -0.020950437, -0.026673794, 9.8845215
178149046288942, 6.0658054, -0.47377887, 7.798209, 0.16429615, 0.07342625, 9.889294
178149055928838, 6.128019, 0.06460621, 7.958528, -0.30120897, -0.22572756, 10.037593
178149065568734, 6.0227346, -0.9523434, 7.91785, 0.64443207, 0.18011045, 9.971204
178149075208629, 6.273981, 0.4223332, 8.068598, -0.6371634, -0.3496542, 10.203688
178149084848525, 6.067002, -1.0648061, 7.676175, 0.6672641, 0.37776232, 9.812138
178149094488317, 6.3182483, 0.46779683, 7.706085, -0.78235435, -0.15626097, 9.944161
178149104128213, 6.134001, -0.8255238, 7.5661054, 0.4199865, 0.3676014, 9.759195
178149113768109, 6.2691956, 0.09930214, 7.722835, -0.41915047, -0.06537533, 9.938557
178149123408004, 6.195018, -0.45942193, 7.676175, 0.095279455, 0.16158915, 9.873083
178149133047900, 6.212964, -0.5084748, 7.643872, 0.13068879, 0.20204496, 9.860545
178149142687796, 6.2440705, -0.010767702, 7.6773715, -0.32046187, -0.022211075, 9.890773
178149152327692, 6.0897336, -0.97866446, 7.479964, 0.56064785, 0.3994608, 9.670502
178149161967588, 6.285945, 0.30388847, 7.7407813, -0.59683204, -0.17617178, 9.956802
178149171607379, 6.058627, -1.0743774, 7.6737823, 0.6981232, 0.30487108, 9.806521
178149181247275, 6.202196, 0.47377887, 7.8604226, -0.7002754, -0.37388992, 9.992386
178149190887171, 5.9748783, -0.95712906, 7.756335, 0.63277197, 0.17545414, 9.81554
178149200527067, 6.111269, -0.014356935, 8.008778, -0.1858561, -0.28200293, 10.068479
178149210166963, 5.9473605, -0.6843473, 8.080562, 0.47172546, -0.11330223, 10.044878
178149219806859, 5.922236, -0.526421, 7.9968133, 0.3022983, -0.123407364, 9.959538
178149229446754, 5.994021, -0.19980069, 7.966903, -0.022339106, -0.20846462, 9.969745
178149239086650, 5.938986, -1.1617154, 7.9716887, 0.8345486, 0.21195221, 9.971337
178149248726546, 6.257231, -0.104087785, 8.601001, -0.06380534, -0.39658785, 10.629189
178149258366442, 6.111269, -1.6331015, 8.883354, 1.4020575, 0.03475046, 10.814881
178149268006234, 6.2679987, -0.025124637, 9.109476, -0.054423332, -0.6814308, 11.036471
178149277646129, 5.948557, -1.1820544, 8.550752, 0.9635377, -0.055790424, 10.438698
178149287286025, 5.9988065, 0.27996024, 7.9597244, -0.50572705, -0.34337234, 9.952267
178149296925921, 5.8911295, -0.19860429, 7.3770723, -0.19011414, 0.12366915, 9.440054
178149306565817, 6.0598235, 0.058624156, 7.2299137, -0.50850475, 0.15002823, 9.418889
178149316205713, 6.1902323, 0.15553348, 7.411768, -0.5826217, 0.05752325, 9.6402645
178149325845609, 6.204589, -0.7429714, 7.457232, 0.21610272, 0.4648571, 9.715782
178149335485504, 6.5084777, 0.26919255, 7.8460655, -0.6693704, -0.06422043, 10.175525
178149345125400, 6.2668023, -1.1234303, 7.7886376, 0.64301324, 0.44809103, 10.029134
178149354765296, 6.381658, 0.5515456, 7.893922, -0.8425846, -0.2728095, 10.127161
178149364405088, 6.1842504, -0.7716853, 7.500303, 0.32271695, 0.43841505, 9.73646
178149374044984, 6.3601227, 0.48095736, 7.7216387, -0.81744015, -0.061935425, 9.98169
178149383684879, 6.215357, -0.37208393, 7.928618, 0.060094118, 0.07426214, 10.080821
178149393324775, 6.2871413, -0.09332009, 8.193025, -0.15715349, -0.13952684, 10.325615
178149402964671, 6.3565335, 0.1052842, 8.299505, -0.3323661, -0.23007774, 10.44677
178149412604567, 6.3290157, -0.5383851, 7.987242, 0.19800079, 0.19313908, 10.201266
178149422244463, 6.5312095, 0.552742, 8.001599, -0.8630159, -0.11786032, 10.306753
178149431884359, 6.2033925, -0.8865408, 7.698907, 0.49717546, 0.40837717, 9.905921
178149441524254, 6.3385873, 0.54317075, 7.7240314, -0.82370377, -0.118971825, 9.971997
178149451164150, 6.0861444, -0.9164511, 7.452446, 0.51738214, 0.47144556, 9.640022
178149460803942, 6.296713, 0.42831525, 7.5864444, -0.7283056, -0.04820776, 9.8414135
178149470443838, 6.181857, -0.46899325, 7.59123, 0.12991905, 0.24580383, 9.797183
178149480083734, 6.2512493, -0.08255238, 7.698907, -0.21707165, 0.0740633, 9.914913
178149489723629, 6.3014984, -0.18305093, 7.8293157, -0.1121403, 0.076438904, 10.050978
178149499363525, 6.178268, -0.71306115, 7.853244, 0.42816675, 0.20273685, 10.006422
178149509003421, 6.24766, 0.34097722, 8.111669, -0.49193037, -0.3097787, 10.227939
178149518643317, 6.064609, -0.8889336, 7.9477606, 0.65217066, 0.15883493, 10.014291
178149528283213, 6.35773, 0.6975078, 8.12124, -0.82774377, -0.37695837, 10.297308
178149537923109, 6.068198, -0.73340017, 7.9537425, 0.5398377, 0.1106267, 10.015951
178149547563004, 6.2321067, 0.613759, 8.023134, -0.7160423, -0.3849411, 10.145227
178149557202796, 6.131608, -0.4235296, 7.8424764, 0.21157444, 0.08880663, 9.961315
178149566842692, 6.2512493, 0.124426775, 7.856833, -0.31808674, -0.08063507, 10.035723
178149576482588, 6.222535, -0.031106694, 7.880761, -0.161008, -0.050065517, 10.0398655
178149586122484, 6.1507506, -0.5096712, 7.783852, 0.2759416, 0.14660549, 9.928858
178149595762379, 6.3014984, 0.33140594, 7.9166536, -0.5118748, -0.16398382, 10.109561
178149605402275, 6.1567326, -0.90089774, 7.77787, 0.63009787, 0.31095982, 9.9357195
178149615042171, 6.381658, 0.5814559, 7.999206, -0.7524636, -0.23042583, 10.219181
178149624682067, 6.10768, -0.971486, 7.813762, 0.7172173, 0.3166542, 9.93417
178149634321963, 6.32423, 0.4426722, 7.9561353, -0.61609375, -0.17261696, 10.152958
178149643961859, 6.178268, -0.6364908, 7.9022965, 0.41414428, 0.19224358, 10.040615
178149653601754, 6.289534, 0.078963146, 8.043473, -0.24225342, -0.09202337, 10.207584
178149663241650, 6.229714, -0.12921242, 8.042277, -0.03272164, -0.048031807, 10.173538
178149672881442, 6.1902323, -0.44626144, 7.8592257, 0.22426999, 0.1700635, 10.010313
178149682521338, 6.3158555, 0.3684947, 7.982456, -0.5288398, -0.15020895, 10.170703
178149692161234, 6.134001, -0.84825563, 7.865208, 0.60177267, 0.30560255, 9.987566
178149701801129, 6.306284, 0.52522457, 8.090134, -0.65682125, -0.26644087, 10.246607
178149711441025, 6.047859, -1.0348958, 7.9310107, 0.8093035, 0.291759, 9.990418
178149721080921, 6.2201424, 0.40677986, 8.084151, -0.5189452, -0.2807727, 10.191223
178149730720817, 6.023931, -0.73818576, 8.018349, 0.5652374, 0.1003952, 10.039771
178149740360713, 6.1627145, 0.12562318, 8.070991, -0.25684178, -0.1862936, 10.150619
178149750000609, 6.141179, -0.14596218, 7.999206, -0.019670844, -0.049452305, 10.085627
178149759640504, 6.135197, -0.37088752, 7.8604226, 0.15380895, 0.12433195, 9.976237
178149769280400, 6.175875, 0.24885355, 7.9501534, -0.4028803, -0.15308475, 10.060942
178149778920296, 5.9641104, -0.8985049, 7.8520474, 0.6874144, 0.23325014, 9.874494
178149788560088, 6.15434, 0.5347959, 8.069795, -0.6245421, -0.35543728, 10.137411
178149798199984, 5.9641104, -0.9667004, 7.8604226, 0.75461626, 0.25163746, 9.8822365
178149807839879, 6.196214, 0.506082, 7.98126, -0.65022135, -0.2527709, 10.092722
178149817479775, 6.0191455, -0.7680961, 7.87119, 0.5563917, 0.20895863, 9.920811
178149827119671, 6.175875, 0.15672988, 8.118847, -0.29589415, -0.18504572, 10.196072
178149836759567, 6.0933228, -0.25722843, 8.141579, 0.1162709, -0.094463825, 10.1714115
178149846399463, 6.067002, -0.41156548, 8.037491, 0.2418803, 0.03552723, 10.075683
178149856039359, 6.1830535, 0.18544376, 8.154739, -0.3197595, -0.1823659, 10.228823
178149865679254, 6.0514483, -0.79920274, 8.006385, 0.59549963, 0.21350145, 10.047922
178149875319150, 6.198607, 0.5371887, 8.161918, -0.6565968, -0.29036665, 10.237811
178149884959046, 5.936593, -0.95353985, 7.9657063, 0.7559726, 0.21327782, 9.9492655
178149894598942, 6.1710896, 0.587438, 8.087741, -0.7079457, -0.29719162, 10.161175
178149904238838, 6.003592, -0.77407813, 7.8592257, 0.5457932, 0.24609232, 9.902086
178149913878734, 6.1471615, 0.2416751, 8.043473, -0.38665426, -0.15940475, 10.117735
178149923518629, 6.0693946, -0.22612174, 8.039884, 0.06780815, -0.027493477, 10.075865
178149933158525, 6.145965, -0.20697916, 7.911868, 0.004850149, 0.09030485, 10.02024
178149942798317, 6.2524457, 0.2883351, 7.999206, -0.46132827, -0.085057735, 10.146106
178149952438213, 6.1028943, -0.62931234, 7.9334035, 0.4066701, 0.22407055, 10.018217
178149962078109, 6.306284, 0.64965135, 8.146365, -0.7657349, -0.29164743, 10.289953
178149971718004, 6.1435723, -0.8255238, 7.8867435, 0.57408917, 0.374125, 10.007805
178149981357900, 6.326623, 0.72741807, 8.002795, -0.8632047, -0.22908545, 10.188348
178149990997796, 6.1268225, -0.6125626, 7.826923, 0.36061394, 0.30368376, 9.947444
178150000637692, 6.283552, 0.43908295, 7.940582, -0.5972606, -0.09890318, 10.117419
178150010277588, 6.1603217, -0.18664017, 7.920243, -2.7382374E-4, 0.08655882, 10.035296
178150019917484, 6.151947, -0.014356935, 7.8867435, -0.15338945, 0.025967121, 10.00116
178150029557379, 6.2201424, 0.317049, 7.891529, -0.47970307, -0.06287956, 10.041556
178150039197275, 6.1232333, -0.6197411, 7.737192, 0.3757416, 0.33928108, 9.873495
178150048837171, 6.2691956, 0.56590253, 8.023134, -0.6895684, -0.19536495, 10.172516
178150058477067, 6.003592, -0.89730847, 7.920243, 0.7112812, 0.2685752, 9.949898
178150068116963, 6.227321, 0.58504516, 8.062616, -0.6836027, -0.2508402, 10.17828
178150077756859, 6.0119667, -0.84107715, 7.830512, 0.6333686, 0.30514193, 9.883006
178150087396754, 6.181857, 0.37208393, 7.972885, -0.5041275, -0.16249847, 10.081675
178150097036650, 6.0191455, -0.3900301, 7.993224, 0.24631298, 0.03622961, 10.010589
178150106676546, 6.07418, -0.15553348, 7.9908314, 0.020211339, -0.017848969, 10.038552
178150116316442, 6.1363935, 0.010767702, 7.908279, -0.17955112, 0.007463932, 10.008198
178150125956338, 6.038288, -0.70588267, 7.8173513, 0.4713744, 0.30496502, 9.887112
178150135596234, 6.168697, 0.41994038, 8.078169, -0.53476715, -0.23806143, 10.155951
178150145236129, 5.907879, -1.0193424, 7.9740815, 0.84337676, 0.23921967, 9.937784
178150154876025, 6.195018, 0.51445687, 8.166703, -0.61278474, -0.31314182, 10.240332
178150164515921, 6.040681, -0.8913264, 7.891529, 0.6619278, 0.317276, 9.950964
178150174155817, 6.1734824, 0.3900301, 8.033902, -0.53061545, -0.19212961, 10.12369
178150183795713, 6.0287166, -0.43908295, 7.9884386, 0.27311456, 0.06472206, 10.01372
178150193435609, 6.06102, -0.07178468, 8.017152, -0.07241011, -0.07389259, 10.050132
178150203075504, 6.081359, 0.07776674, 7.995617, -0.22291899, -0.10014486, 10.042865
178150212715400, 5.9904313, -0.6376872, 7.8293157, 0.42633283, 0.22425747, 9.867019
178150222355296, 6.1028943, 0.38763726, 8.072187, -0.48368812, -0.2602973, 10.112076
178150231995192, 5.9174504, -0.89491564, 8.002795, 0.7161951, 0.19331932, 9.965517
178150241635088, 6.1675005, 0.6329016, 8.187042, -0.6978333, -0.37392378, 10.239116
178150251274984, 5.9521465, -0.8709874, 7.945368, 0.6622311, 0.25296354, 9.940472
178150260914879, 6.151947, 0.38285163, 8.063812, -0.49841905, -0.20328283, 10.1355
178150270554775, 5.9748783, -0.5706882, 8.031509, 0.4078982, 0.103283405, 10.017632
178150280194671, 6.0215383, -0.040677983, 8.088937, -0.07350659, -0.11755657, 10.083266
178150289834567, 6.067002, -0.0526421, 8.059027, -0.093318224, -0.06562948, 10.086931
178150299474463, 5.9952173, -0.55752766, 7.96451, 0.36717153, 0.1560278, 9.976358
178150309114359, 6.1328044, 0.40438703, 8.099705, -0.5096121, -0.24732447, 10.151807
178150318754254, 5.9449677, -0.951147, 7.9501534, 0.73221266, 0.3171382, 9.9406
178150328394150, 6.1770716, 0.5814559, 8.129615, -0.6894369, -0.30656767, 10.198807
178150338034046, 5.889933, -0.94755775, 7.873583, 0.72800446, 0.32168627, 9.846268
178150347673942, 6.050252, 0.3924229, 8.023134, -0.4869504, -0.25164318, 10.041404
178150357313838, 5.892326, -0.63170516, 8.017152, 0.46891618, 0.108968735, 9.957989
178150366953734, 5.989235, -0.015553347, 8.124829, -0.07836819, -0.15538788, 10.092261
178150376593629, 6.0083776, -0.11365908, 8.142776, -7.586479E-4, -0.105858326, 10.119639
178150386233525, 5.9270215, -0.48215377, 8.066205, 0.34767902, 0.042286873, 10.015141
178150395873421, 6.0490556, 0.3924229, 8.232507, -0.44942987, -0.32472086, 10.208418
178150405513317, 5.892326, -0.8243274, 8.145168, 0.6873627, 0.11617899, 10.062645
178150415153213, 6.117251, 0.6664011, 8.403593, -0.6766131, -0.47353363, 10.382832
178150424793109, 5.8935223, -0.863809, 8.19781, 0.75835204, 0.13044548, 10.104046
178150434433004, 6.1292152, 0.60658056, 8.364112, -0.6158948, -0.4122467, 10.36071
178150444072900, 5.994021, -0.4953143, 8.207381, 0.3850056, 0.030340672, 10.16787
178150453712796, 6.1292152, 0.23569304, 8.22772, -0.30863464, -0.17223692, 10.256378
178150463352692, 6.094519, 0.033499517, 8.203793, -0.12514901, -0.09878111, 10.218662
178150472992588, 6.0622163, -0.2847459, 8.002795, 0.13366616, 0.11821365, 10.042133
178150482632484, 6.222535, 0.4546363, 8.050652, -0.58506465, -0.10874176, 10.167866
178150492272379, 6.1064835, -0.6687939, 7.885547, 0.43366277, 0.36797, 9.979721
178150501912275, 6.3074803, 0.7537391, 8.039884, -0.880013, -0.16773987, 10.207331
178150511552171, 6.128019, -0.7704889, 7.743174, 0.5008323, 0.47223568, 9.880747
178150521192171, 6.378069, 0.6987042, 7.8376904, -0.894392, -0.04322529, 10.089376
178150530832067, 6.209375, -0.50368917, 7.7383885, 0.21122134, 0.41000795, 9.923708
178150540471963, 6.2584276, 0.24765715, 7.8699937, -0.44412684, 0.031634808, 10.048274
178150550111859, 6.1770716, -0.15074782, 7.850851, -0.06349015, 0.15758991, 9.98929
178150559751754, 6.1531434, -0.35533416, 7.7072816, 0.09202266, 0.31189394, 9.863259
178150569391650, 6.216553, 0.27996024, 7.853244, -0.46974766, -0.0032601357, 10.00883
178150579031546, 5.977271, -0.86859465, 7.9034934, 0.6633234, 0.29527473, 9.920699
178150588671442, 6.1005015, 0.47138608, 8.27797, -0.50434494, -0.39645958, 10.27383
178150598311338, 5.879165, -1.0360922, 8.055437, 0.8797525, 0.21353674, 9.985419
178150607951234, 6.0394845, 0.45702913, 8.195417, -0.51057875, -0.36531162, 10.171283
178150617591129, 5.852844, -0.8219346, 8.136793, 0.7088009, 0.08225536, 10.03143
178150627231025, 5.9353967, 0.15074782, 8.3377905, -0.17098081, -0.3871684, 10.226988
178150636870921, 5.9042897, -0.2739782, 8.312666, 0.22611237, -0.22103167, 10.194908
178150646510921, 5.960521, -0.31226337, 8.191829, 0.21698773, -0.09100628, 10.132918
178150656150817, 6.0370917, 0.2536392, 8.213364, -0.3216889, -0.29123354, 10.187338
178150665790713, 5.9066825, -0.7728817, 7.9884386, 0.5953971, 0.17894125, 9.945596
178150675430609, 6.122037, 0.6125626, 8.122437, -0.7012645, -0.33585167, 10.15992
178150685070504, 5.928218, -0.8673982, 7.8352976, 0.64946496, 0.31239653, 9.837105
178150694710400, 6.216553, 0.65084773, 7.90469, -0.817181, -0.1714015, 10.042713
178150704350296, 6.040681, -0.6903293, 7.719246, 0.41726017, 0.36684465, 9.810427
178150713990192, 6.218946, 0.3385844, 7.9070826, -0.5265801, -0.05454731, 10.051449
178150723630088, 6.1232333, -0.21655045, 7.8699937, 8.3673E-4, 0.13345242, 9.972957
178150733269984, 6.1591253, -0.18664017, 7.813762, -0.046303034, 0.17852831, 9.949397
178150742909984, 6.2105713, 0.21655045, 7.884351, -0.41435146, 0.0067648888, 10.030421
178150752549879, 6.0418773, -0.7704889, 7.765906, 0.50740194, 0.367023, 9.849623
178150762189775, 6.2404814, 0.46301118, 8.065009, -0.59879446, -0.18047333, 10.188779
178150771829671, 5.985646, -1.0588241, 7.940582, 0.82953537, 0.36299992, 9.959016
178150781469567, 6.131608, 0.40677986, 8.120044, -0.50329876, -0.25476837, 10.167544
178150791109463, 5.895915, -0.98943216, 8.012366, 0.80065584, 0.2454853, 9.961802
178150800749359, 6.0191455, 0.11246266, 8.255239, -0.19133687, -0.2783494, 10.211643
178150810389254, 5.861219, -0.54675996, 8.250452, 0.45735347, -0.1105504, 10.124299
178150820029254, 5.885147, -0.34337005, 8.242078, 0.26500022, -0.16473722, 10.128542
178150829669150, 5.9641104, 0.02871387, 8.26122, -0.10364807, -0.2701187, 10.185062
178150839309046, 5.814559, -0.77647096, 8.153543, 0.6523359, 0.02844572, 10.023269
178150848948942, 5.966503, 0.43070808, 8.386844, -0.44626176, -0.4908595, 10.280257
178150858588838, 5.8097734, -0.9954142, 8.183454, 0.8610867, 0.09419203, 10.048029
178150868228734, 6.0837517, 0.573081, 8.246863, -0.65112627, -0.37612963, 10.236493
178150877868629, 5.8887367, -0.7968099, 7.9800634, 0.60503316, 0.18590069, 9.929397
178150887508629, 6.084948, 0.46779683, 8.090134, -0.58626974, -0.25760555, 10.113635
178150897148525, 5.994021, -0.30149564, 8.012366, 0.1188761, 0.032532215, 10.010096
178150906788421, 6.0837517, -0.049052864, 7.9334035, -0.14798105, 0.035802364, 9.996508
178150916428317, 6.1531434, 0.111266255, 7.8927255, -0.32635212, 0.036967754, 10.00304
178150926068213, 6.058627, -0.5240282, 7.793423, 0.26019585, 0.2929268, 9.877525
178150935708109, 6.2464633, 0.58265233, 7.9836526, -0.7490064, -0.15660429, 10.124771
178150945348109, 6.076573, -0.89013004, 7.8520474, 0.621287, 0.42601871, 9.940031
178150954988004, 6.2751775, 0.6879365, 8.103293, -0.80418944, -0.2650981, 10.237064
178150964627900, 6.053841, -0.7286145, 7.9501534, 0.49905634, 0.28393698, 10.002756
178150974267796, 6.263213, 0.5479564, 8.143971, -0.6572399, -0.22270823, 10.265028
178150983907692, 6.151947, -0.3589234, 8.070991, 0.18474853, 0.13852167, 10.151988
178150993547692, 6.174679, 0.09212367, 8.178668, -0.2038598, -0.1031456, 10.24566
178151003187588, 6.1914287, 0.14117654, 8.12124, -0.26902413, -0.078856945, 10.209291
178151012827484, 6.113662, -0.5371887, 7.944171, 0.321339, 0.26299286, 10.030098
178151022467379, 6.2679987, 0.43669012, 8.112865, -0.5700898, -0.16236877, 10.244303
178151032107275, 6.0753765, -0.95473623, 7.9501534, 0.7155967, 0.4009428, 10.017676
178151041747171, 6.2751775, 0.5778667, 8.084151, -0.71675193, -0.19632673, 10.223161
178151051387171, 6.0717874, -0.86261255, 7.8352976, 0.6065303, 0.3879714, 9.923921
178151061027067, 6.2811594, 0.526421, 7.9860454, -0.6838968, -0.11426926, 10.150183
178151070666963, 6.0933228, -0.4438686, 7.958528, 0.25025058, 0.1508956, 10.028877
178151080306859, 6.1304116, 0.038285162, 8.014759, -0.1802162, -0.043504715, 10.088875
178151089946859, 6.1196437, -0.0023928226, 7.9944205, -0.15137386, -0.022033215, 10.066649
178151099586754, 6.0323057, -0.47138608, 7.893922, 0.28035808, 0.16280699, 9.940816
178151109226650, 6.117251, 0.39840496, 8.045866, -0.5228468, -0.20579243, 10.099492
178151118866546, 5.85763, -0.9236295, 7.925029, 0.7486025, 0.19289207, 9.867796
178151128506442, 6.0574307, 0.5024927, 8.09133, -0.5816717, -0.31873512, 10.098249
178151138146442, 5.820541, -1.0660025, 7.891529, 0.8600186, 0.27053642, 9.822346
178151147786338, 5.992824, 0.31585258, 8.097312, -0.397722, -0.2936201, 10.066567
178151157426234, 5.8337016, -0.7585248, 7.9920278, 0.5913776, 0.09081602, 9.905653
178151167066129, 5.9700923, -0.11246266, 8.0817585, -0.025436401, -0.12177086, 10.047586
178151176706129, 5.9473605, -0.18424734, 8.118847, 0.05910194, -0.12782478, 10.064836
178151186346025, 5.9138613, -0.5288138, 8.060223, 0.37216282, 0.020134926, 10.004084
178151195985921, 6.047859, 0.33020952, 8.208578, -0.425838, -0.3048191, 10.187841
178151205625817, 5.892326, -0.9212367, 8.060223, 0.7374506, 0.16751766, 9.998173
178151215265817, 6.134001, 0.54317075, 8.293523, -0.6185254, -0.36749363, 10.304655
178151224905713, 5.9174504, -0.96550393, 8.045866, 0.7728759, 0.24604988, 10.001324
178151234545609, 6.168697, 0.46899325, 8.10808, -0.6031221, -0.20127869, 10.178873
178151244185504, 6.0311093, -0.5886344, 8.0614195, 0.38721442, 0.15348577, 10.076397
178151253825504, 6.166304, 0.23928227, 8.169097, -0.37399745, -0.14677906, 10.230019
178151263465400, 6.1507506, 0.0023928226, 8.106883, -0.1695888, -0.03170204, 10.17465
178151273105296, 6.1507506, -0.25603202, 7.948957, 0.042366385, 0.16046572, 10.052645
178151282745192, 6.2847486, 0.47976094, 8.033902, -0.6546751, -0.09520817, 10.189904
178151292385192, 6.076573, -0.65324056, 7.925029, 0.42241943, 0.27510452, 9.995171
178151302025088, 6.259624, 0.7645068, 8.1344, -0.8777362, -0.27688122, 10.251281
178151311664984, 6.0693946, -0.80757767, 7.899904, 0.5593473, 0.34366798, 9.973326
178151321304984, 6.2679987, 0.62931234, 8.030313, -0.769855, -0.18011999, 10.175688
178151330944879, 6.0346985, -0.64247286, 7.895118, 0.42192137, 0.25216722, 9.945937
178151340584775, 6.1435723, 0.16510476, 8.029117, -0.30330002, -0.08394718, 10.106356
178151350224671, 6.0933228, -0.24047868, 8.017152, 0.06798327, 0.06139946, 10.072376
178151359864671, 6.029913, -0.38404804, 7.948957, 0.20114493, 0.11864233, 9.981919
178151369504567, 6.1232333, 0.19621146, 8.023134, -0.3369162, -0.112785816, 10.088456
178151379144463, 5.986842, -0.9020941, 7.9346, 0.6763264, 0.31660414, 9.9527025
178151388784463, 6.1651077, 0.50009996, 8.178668, -0.5890641, -0.29800034, 10.232961
178151398424359, 5.907879, -0.94396853, 8.048259, 0.76303005, 0.18766832, 9.997556
178151408064254, 6.1399827, 0.5455636, 8.210971, -0.6413307, -0.34928656, 10.241278
178151417704254, 5.919843, -0.7573284, 8.032705, 0.5790508, 0.12626886, 9.989555
178151427344150, 6.06102, 0.21655045, 8.123632, -0.33941162, -0.21833992, 10.129826
178151436984046, 5.9497533, -0.29192436, 8.066205, 0.14629841, -0.058670044, 10.026146
178151446624046, 5.925825, -0.31944183, 7.978867, 0.15513086, -0.006055355, 9.942619
178151456263942, 6.01436, 0.17826529, 8.030313, -0.31807077, -0.17035389, 10.027964
178151465903838, 5.936593, -0.86979103, 7.8987074, 0.6345166, 0.27853727, 9.894901
178151475543838, 6.157929, 0.38883367, 8.143971, -0.54454494, -0.21345377, 10.200661
178151485183734, 5.898308, -1.0636097, 7.9740815, 0.83927786, 0.28168344, 9.935972
178151494823629, 6.1651077, 0.46301118, 8.062616, -0.62396467, -0.1949954, 10.139101
178151504463629, 5.983253, -0.89013004, 7.8580294, 0.6216805, 0.32789946, 9.8917265
178151514103525, 6.0933228, 0.18185452, 8.036295, -0.37192214, -0.11478329, 10.079295
178151523743421, 6.0107703, -0.42831525, 7.9908314, 0.20706642, 0.08675766, 10.005789
178151533383421, 6.067002, -0.37686956, 7.911868, 0.1307013, 0.15544415, 9.975317
178151543023317, 6.067002, 0.010767702, 7.984849, -0.21214652, -0.0355978, 10.025974
178151552663213, 5.9007006, -0.8063812, 7.925029, 0.57752085, 0.20343447, 9.894426
178151562303213, 6.078966, 0.47976094, 8.226524, -0.5913961, -0.35926342, 10.216697
178151571943109, 5.8935223, -0.96550393, 8.136793, 0.77722037, 0.165586, 10.061895
178151581583004, 6.088537, 0.552742, 8.283952, -0.641341, -0.41861582, 10.267089
178151591223004, 5.8600225, -0.8255238, 8.115258, 0.65694225, 0.097574234, 10.02186
178151600862900, 6.076573, 0.35174492, 8.257631, -0.4537195, -0.31176233, 10.243724
178151610502796, 5.9952173, -0.31345975, 8.219346, 0.1597315, -0.067483425, 10.17686
178151620142796, 6.0287166, -0.09092726, 8.177471, -0.05629468, -0.104533195, 10.159263
178151629782692, 6.076573, 0.16869399, 8.135597, -0.31729472, -0.15398407, 10.149715
178151639422692, 6.0011992, -0.60777694, 7.9860454, 0.3771243, 0.20096874, 9.998903
178151649062588, 6.2033925, 0.3505485, 8.110473, -0.5215156, -0.14164877, 10.202581
178151658702484, 6.1363935, -0.27756742, 8.05783, 0.055348396, 0.11372709, 10.131387
178151668342484, 6.206982, -0.08973085, 7.962117, -0.1494577, 0.13530874, 10.094027
178151677982379, 6.178268, -0.12323037, 7.9561353, -0.10970616, 0.12807512, 10.072626
178151687622379, 6.166304, -0.06460621, 7.948957, -0.1577996, 0.09496117, 10.058801
178151697262275, 6.1399827, -0.09332009, 7.978867, -0.11433458, 0.07348251, 10.067369
178151706902171, 6.087341, -0.11485548, 8.014759, -0.07089651, 0.024620056, 10.064772
178151716542171, 6.070591, -0.15433706, 8.007581, -0.030950546, 0.033609867, 10.049635
178151726182067, 6.056234, -0.19621146, 8.038688, 0.017774701, 0.023810863, 10.066582
178151735822067, 6.0311093, -0.15314065, 8.076973, -0.0043792725, -0.0351367, 10.081368
178151745461963, 6.029913, -0.11844472, 8.066205, -0.03824675, -0.04812336, 10.071434
178151755101859, 6.0777693, -0.12323037, 8.031509, -0.058382988, 0.003914356, 10.072547
178151764741859, 6.076573, -0.13758731, 8.033902, -0.04228735, 0.00504303, 10.073998
178151774381754, 6.040681, -0.15314065, 8.059027, -0.0068404675, -0.030601978, 10.072746
178151784021754, 6.047859, -0.17587246, 8.043473, 0.010017753, -0.00684309, 10.065032
178151793661650, 6.047859, -0.24526432, 8.0614195, 0.077230215, 0.012824535, 10.080532
178151803301546, 6.0454664, -0.2548356, 8.080562, 0.091980934, 0.0055241585, 10.094534
178151812941546, 6.0227346, -0.24646074, 8.07458, 0.08820093, -0.009626865, 10.075964
178151822581442, 6.0167527, -0.21296121, 8.079366, 0.060519338, -0.030094624, 10.075626
178151832221442, 6.0155563, -0.20937198, 8.12124, 0.06389475, -0.055037975, 10.108323
178151841861338, 5.962914, -0.16869399, 8.17149, 0.05441594, -0.137362, 10.116137
178151851501338, 5.9784675, -0.18305093, 8.127222, 0.05334425, -0.0951643, 10.0903635
178151861141234, 5.968896, -0.18065812, 8.076973, 0.041792274, -0.07348013, 10.0444355
178151870781234, 5.973682, -0.15553348, 8.020741, 0.0014299154, -0.050632954, 10.001939
178151880421129, 6.023931, -0.15194423, 7.944171, -0.036001205, 0.02698803, 9.97089
178151890061129, 6.0729837, -0.16151553, 7.969296, -0.03529167, 0.04528427, 10.0206585
178151899701025, 6.078966, -0.22612174, 8.017152, 0.033005834, 0.049821854, 10.063603
178151909341025, 6.101698, -0.26081768, 7.9908314, 0.05749631, 0.091058254, 10.056866
178151918980921, 6.111269, -0.22612174, 8.014759, 0.028275013, 0.07044554, 10.081139
178151928620817, 6.087341, -0.19621146, 7.9740815, 5.0997734E-4, 0.064707756, 10.033745
178151938260817, 6.0693946, -0.16869399, 7.9884386, -0.014454842, 0.035149574, 10.033928
178151947900713, 6.0634127, -0.148355, 7.9884386, -0.027264237, 0.022675514, 10.03
178151957540713, 6.053841, -0.09092726, 7.946564, -0.081619024, 0.012732983, 9.989911
178151967180609, 6.058627, -0.07178468, 7.9908314, -0.09021902, -0.015854836, 10.027818
178151976820609, 6.0897336, -0.049052864, 8.054241, -0.09948194, -0.04182148, 10.096853
178151986460504, 6.0717874, -0.062213387, 8.07458, -0.063165784, -0.06087494, 10.102555
178151996100504, 6.078966, -0.1160519, 8.063812, -0.019153476, -0.0274477, 10.099071
178152005740400, 6.078966, -0.12562318, 8.056634, -0.011686683, -0.008564949, 10.0935
178152015380400, 6.1028943, -0.148355, 8.070991, 0.004358411, 0.010201454, 10.119687
178152025020296, 6.099305, -0.15194423, 8.067402, 0.0046670437, 0.015130043, 10.11471
178152034660296, 6.1124654, -0.18903299, 8.067402, 0.029896617, 0.039278984, 10.123166
178152044300192, 6.1244297, -0.18185452, 8.066205, 0.018359423, 0.046156406, 10.129309
178152053940192, 6.0634127, -0.18783657, 8.01117, 0.029735088, 0.031160831, 10.048744
178152063580088, 6.0454664, -0.1698904, 7.9070826, -0.0057139397, 0.06866789, 9.954583
178152073220088, 6.026324, -0.22731815, 7.8687973, 0.042918563, 0.09958458, 9.913348
178152082859984, 6.047859, -0.27756742, 7.8831544, 0.08257353, 0.12816334, 9.938538
178152092499984, 6.0323057, -0.2536392, 7.954939, 0.07866669, 0.06707907, 9.986162
178152102139879, 6.0394845, -0.27158538, 7.8699937, 0.068030834, 0.13091326, 9.922912
178152111779879, 6.017949, -0.29671, 7.8484583, 0.08915985, 0.14093208, 9.893141
178152121419775, 6.0598235, -0.29671, 8.005188, 0.11261177, 0.084711075, 10.043539
178152131059775, 6.005985, -0.25962126, 8.031509, 0.099960566, 0.019264698, 10.031651
178152140699775, 5.9676995, -0.20219351, 8.051848, 0.064278126, -0.037544727, 10.024024
178152150339671, 5.9988065, -0.13998012, 8.160722, 0.022081852, -0.088154316, 10.128891
178152159979671, 5.9090757, -0.083748795, 8.1020975, -0.012092829, -0.13581085, 10.027443
178152169619567, 5.898308, -0.031106694, 8.117651, -0.05160582, -0.16596222, 10.032799
178152179259567, 5.968896, -0.08255238, 8.244471, 0.0011973381, -0.1621952, 10.1774025
178152188899463, 5.9318075, -0.12203395, 8.40479, 0.09134889, -0.2503605, 10.284489
178152198539463, 5.899504, -0.15433706, 8.451449, 0.14218879, -0.264287, 10.303635
178152208179359, 5.9114685, -0.11006984, 8.329415, 0.06523013, -0.19701052, 10.212427
178152217819359, 5.901897, -0.104087785, 8.155936, 0.020196319, -0.1126132, 10.0672455
178152227459254, 5.895915, -0.06460621, 8.085348, -0.030464292, -0.08895731, 10.006498
178152237099254, 5.930611, -0.05623133, 8.184649, -0.023947239, -0.12242079, 10.106842
178152246739254, 6.0083776, -0.11246266, 8.356933, 0.04388833, -0.14161015, 10.292211
178152256379150, 6.040681, -0.17706887, 8.438289, 0.11088538, -0.13461876, 10.377644
178152266019150, 6.0358953, -0.22372891, 8.455039, 0.15620148, -0.11728525, 10.389013
178152275659046, 6.000003, -0.18185452, 8.301898, 0.094218135, -0.0769887, 10.244013
178152285299046, 5.9724855, -0.076570325, 8.148758, -0.027348518, -0.04745722, 10.1032505
178152294938942, 6.017949, -0.023928227, 8.158329, -0.08883977, -0.040017128, 10.137312
178152304578942, 6.0323057, 0.015553347, 8.183454, -0.12305069, -0.064554214, 10.165557
178152314218942, 6.0753765, -0.021535404, 8.163115, -0.107795954, -0.016313553, 10.175226
178152323858838, 6.1292152, -0.07298109, 8.155936, -0.080578804, 0.038276672, 10.202154
178152333498838, 6.101698, -0.10767702, 8.17149, -0.03758359, 0.016192436, 10.19872
178152343138734, 6.0598235, -0.11006984, 8.110473, -0.03701651, 0.016539097, 10.124805
178152352778734, 6.040681, -0.09810573, 8.003992, -0.068456054, 0.056948185, 10.027731
178152362418629, 6.067002, -0.07298109, 7.8867435, -0.13096416, 0.12838697, 9.9489155
178152372058629, 6.088537, -0.021535404, 7.877172, -0.1870997, 0.1279831, 9.953351
178152381698629, 6.1184473, -0.0047856453, 7.921439, -0.20193994, 0.096464634, 10.006725
178152391338525, 6.15434, -0.0023928226, 8.008778, -0.1961019, 0.071685314, 10.098159
178152400978525, 6.1651077, -0.022731815, 8.006385, -0.17902374, 0.07115698, 10.103176
178152410618421, 6.1567326, -0.023928227, 7.9154572, -0.19606745, 0.11259079, 10.025431
178152420258421, 6.108876, 0.01794617, 7.8592257, -0.2292763, 0.094913006, 9.951107
178152429898421, 6.0753765, 0.0071784677, 7.885547, -0.20207214, 0.05722809, 9.952286
178152439538317, 6.0622163, 0.0047856453, 7.834101, -0.20925379, 0.07311487, 9.903256
178152449178317, 6.033502, -0.010767702, 7.8628154, -0.18184125, 0.040506363, 9.909209
178152458818317, 6.000003, 0.013160525, 7.795816, -0.2156527, 0.039736748, 9.834983
178152468458213, 5.973682, -0.02632105, 7.648658, -0.20500684, 0.117846966, 9.702145
178152478098213, 6.117251, -0.23569304, 7.82453, -0.024748564, 0.20704126, 9.932579
178152487738109, 6.4259253, -0.60059845, 8.660822, 0.38888586, 0.103609085, 10.793568
178152497378109, 6.34098, -0.7968099, 9.165708, 0.7129638, -0.14513254, 11.150056
178152507018109, 6.111269, -0.71425754, 8.946764, 0.65674853, -0.21080828, 10.836354
178152516658004, 6.0287166, -0.31944183, 8.484949, 0.20780885, -0.15284157, 10.410346
178152526298004, 5.7894344, 0.02871387, 7.84128, -0.18405747, -0.09743166, 9.744778
178152535937900, 5.6674004, 0.10289137, 7.52782, -0.28901577, -0.07184076, 9.418568
178152545577900, 5.7224355, -0.10887343, 7.5936227, -0.110993624, -0.017702103, 9.508344
178152555217900, 5.779863, -0.4354937, 7.8149586, 0.21802032, 0.034799576, 9.727347
178152564857796, 5.851648, -0.62093747, 8.090134, 0.3912748, -0.043619633, 9.996131
178152574497796, 5.8564334, -0.66041905, 8.097312, 0.4207859, -0.024934769, 10.006135
178152584137796, 5.770292, -0.5288138, 7.820941, 0.27049184, 0.030605316, 9.729795
178152593777692, 5.8863435, -0.317049, 7.5469627, -0.016699672, 0.20441532, 9.57414
178152603417692, 5.98086, -0.1471586, 7.4823565, -0.20965648, 0.25119495, 9.574495
178152613057692, 5.9952173, -0.14117654, 7.6869426, -0.16819978, 0.14302444, 9.746942
178152622697588, 6.038288, -0.2620141, 7.9944205, -0.0015493631, 0.044077873, 10.021894
