timestamp_acc,device_acc_x,device_acc_y,device_acc_z,earth_acc_x,earth_acc_y,earth_acc_z
517235091299084, 5.139783, 0.13758731, 8.5938225, -0.013499342, -0.0039567947, 10.014483
517235100938667, 5.035695, 0.096909314, 8.518449, 0.023198321, -0.056394577, 9.89585
517235110578146, 5.0859447, 0.06580263, 8.56152, 0.056098685, -0.038544178, 9.9582205
517235120217730, 5.163711, 0.062213387, 8.598608, 0.061717734, 0.007666111, 10.029955
517235129857313, 5.157729, 0.07537391, 8.6141615, 0.046042815, -0.0074505806, 10.040392
517235139496896, 5.160122, 0.12801601, 8.572288, -0.007754788, 0.01639843, 10.00635
517235149136480, 5.1529436, 0.15194423, 8.487342, -0.033039063, 0.054424763, 9.930098
517235158776063, 5.1828537, 0.1268196, 8.518449, -0.013005793, 0.059610367, 9.971874
517235168415646, 5.1792645, 0.11844472, 8.659625, -0.011715904, -0.018311977, 10.090959
517235178055230, 5.1469617, 0.08733802, 8.745767, 0.01532726, -0.0921402, 10.147835
517235187694813, 5.1876397, 0.05503492, 8.703893, 0.048822477, -0.035469532, 10.132559
517235197334292, 5.2163534, 0.076570325, 8.608179, 0.02937778, 0.048662663, 10.065472
517235206973875, 5.21755, 0.11485548, 8.56152, -0.008396231, 0.076939106, 10.026448
517235216613459, 5.178068, 0.08853444, 8.525627, 0.016962051, 0.06053114, 9.975099
517235226253042, 5.150551, 0.076570325, 8.523234, 0.026397645, 0.04095888, 9.9587755
517235235892625, 5.1182475, 0.07776674, 8.544769, 0.02188205, 0.0063180923, 9.960675
517235245532209, 5.0656056, 0.083748795, 8.615358, 0.013554379, -0.07492542, 9.994297
517235255171792, 5.081159, 0.13160525, 8.688339, -0.038958915, -0.08018494, 10.065525
517235264811375, 5.103891, 0.15792629, 8.642876, -0.06441059, -0.036073208, 10.038351
517235274450855, 5.099105, 0.16271193, 8.618947, -0.07035871, -0.013964176, 10.015413
517235284090438, 5.1385865, 0.15672988, 8.702696, -0.06501329, -0.010845661, 10.1075325
517235293730021, 5.131408, 0.12801601, 8.762517, -0.04200968, -0.031184673, 10.155131
517235303369605, 5.1649075, 0.104087785, 8.69791, -0.01568342, 0.029217243, 10.116306
517235313009188, 5.144569, 0.124426775, 8.636893, -0.04046806, 0.05023861, 10.053548
517235322648771, 5.157729, 0.09451649, 8.618947, -0.020393744, 0.07078934, 10.044498
517235332288355, 5.157729, 0.05383851, 8.681161, 0.014080048, 0.031772137, 10.097843
517235341927938, 5.1086764, 0.0011964113, 8.658429, 0.0605378, -0.005918503, 10.053022
517235351567417, 5.0476594, -0.033499517, 8.656036, 0.08922591, -0.060691833, 10.019747
517235361207000, 5.06082, -0.058624156, 8.566305, 0.11065724, -0.0041947365, 9.949103
517235370846584, 5.023731, -0.06819545, 8.493324, 0.11992664, -7.581711E-5, 9.867355
517235380486167, 5.028517, -0.038285162, 8.598608, 0.08343737, -0.048792362, 9.960631
517235390125750, 5.089534, -0.02751746, 8.682357, 0.06189549, -0.03842306, 10.0639
517235399765334, 5.123033, 0.0035892338, 8.699107, 0.03162621, -0.017074108, 10.095476
517235409404917, 5.239085, 0.11246266, 8.797213, -0.083711766, 0.03870964, 10.239294
517235419044500, 5.2893343, 0.10887343, 8.845069, -0.07852614, 0.058239937, 10.306048
517235428683980, 5.2307105, -0.0047856453, 8.874979, 0.030677438, -0.017958164, 10.301667
517235438323563, 5.09073, -0.11964113, 8.866604, 0.13966128, -0.1394844, 10.222894
517235447963146, 4.974678, -0.086141616, 8.892925, 0.100267306, -0.25638342, 10.186421
517235457602730, 5.046463, 0.029910283, 8.745767, -0.011107653, -0.12250614, 10.096583
517235467242313, 5.052445, 0.016749758, 8.452646, 0.012840971, 0.0053162575, 9.847566
517235476881896, 5.1218367, 0.083748795, 8.331808, -0.04811626, 0.11513567, 9.779758
517235486521480, 5.1589255, 0.11365908, 8.400003, -0.07767966, 0.11326313, 9.857414
517235496160959, 5.24746, 0.18903299, 8.4813595, -0.15080439, 0.14103031, 9.9730835
517235505800542, 5.221139, 0.16031912, 8.537591, -0.12397149, 0.08736801, 10.00767
517235515440125, 5.168497, 0.16151553, 8.411968, -0.12548198, 0.1143589, 9.872784
517235525079709, 5.148158, 0.12323037, 8.315059, -0.085492745, 0.14546299, 9.779083
517235534719292, 5.1218367, 0.0634098, 8.432307, -0.03168513, 0.06267834, 9.865906
517235544358875, 5.052445, -0.038285162, 8.673982, 0.055240005, -0.12837505, 10.037285
517235553998459, 5.1122656, -0.031106694, 8.742178, 0.044444457, -0.11456156, 10.126538
517235563638042, 5.258228, 0.04546363, 8.670393, -0.029943734, 0.049720287, 10.140186
517235573277521, 5.3132625, 0.043070808, 8.645268, -0.028092608, 0.10589743, 10.146984
517235582917105, 5.237889, -0.0071784677, 8.610572, 0.017036274, 0.04864502, 10.078434
517235592556688, 5.163711, -0.08733802, 8.565108, 0.09388073, -0.0035486221, 10.001189
517235602196271, 5.1936216, -0.17347965, 8.596215, 0.17122647, -0.009251118, 10.043372
517235611835855, 5.1924253, -0.11724831, 8.539984, 0.1072588, 0.017189503, 9.994726
517235621475438, 5.1326046, 0.04426722, 8.459825, -0.058615666, 0.0025725365, 9.894987
517235631115021, 5.176872, 0.24526432, 8.5016985, -0.25834435, 0.011914253, 9.953501
517235640754500, 5.3443694, 0.28594232, 9.300901, -0.3049391, -0.25932312, 10.723368
517235650394084, 5.3383875, 0.07537391, 9.994821, -0.072114, -0.64225674, 11.312949
517235660033667, 5.5202417, 0.23569304, 9.487542, -0.21399277, -0.22096014, 10.974855
517235669673250, 5.302495, 0.21774685, 4.395615, -0.18356568, 2.243157, 6.5130525
517235679312834, 5.7523456, 0.29312077, 7.82453, -0.24420783, 0.81828356, 9.678297
517235688952417, 5.308477, 0.17587246, 9.018549, -0.1689135, -0.2930627, 10.460911
517235698592000, 5.1529436, -0.19501504, 9.156136, 0.13789096, -0.72056675, 10.482719
517235708231480, 4.900501, -0.485743, 8.608179, 0.43520236, -0.6479845, 9.886471
517235717871063, 5.5393844, -0.2847459, 8.8701935, 0.23386356, -0.32174063, 10.454089
517235727510646, 5.697311, -0.13280165, 8.739784, 0.06622943, -0.18697214, 10.431753
517235737150230, 5.5657053, -0.31226337, 8.336594, 0.251236, -0.09081745, 10.02507
517235746789813, 5.5704913, -0.39960137, 8.212168, 0.34482294, -0.023297787, 9.925236
517235756429396, 5.581259, -0.43788654, 8.169097, 0.38146475, 0.01492691, 9.895988
517235766068875, 5.613562, -0.39481574, 8.098508, 0.33981392, 0.098508835, 9.855385
517235775708459, 5.584848, -0.33020952, 8.048259, 0.27214015, 0.12651443, 9.797141
517235785348042, 5.6063833, -0.16749759, 7.9429746, 0.11353171, 0.23565197, 9.720185
517235794987625, 5.7320065, 0.04426722, 8.105687, -0.10465336, 0.28850222, 9.922996
517235804627209, 5.7583275, 0.1363909, 8.487342, -0.22082192, 0.11716509, 10.254239
517235814266792, 5.704489, 0.16151553, 8.662018, -0.2654484, -0.027936935, 10.369502
517235823906375, 5.6327047, 0.17587246, 8.748159, -0.29411948, -0.15444183, 10.400876
517235833545855, 5.6243296, 0.15553348, 8.711071, -0.27894908, -0.19826937, 10.364503
517235843185438, 5.568098, 0.029910283, 8.492127, -0.14759174, -0.15750074, 10.152548
517235852825021, 5.5573306, -0.11365908, 8.239685, 0.0027443767, -0.053590298, 9.939133
517235862464605, 5.6147585, -0.18664017, 8.097312, 0.07691082, 0.056010723, 9.854835
517235872104188, 5.5704913, -0.2656033, 8.099705, 0.14193457, 0.004691601, 9.832904
517235881743771, 5.65424, -0.28235307, 8.1344, 0.16092801, 0.05364132, 9.9090805
517235891383355, 5.7607207, -0.28594232, 8.105687, 0.1437152, 0.16122389, 9.946014
517235901022834, 5.7152567, -0.2847459, 8.193025, 0.12614426, 0.08282614, 9.992404
517235910662417, 5.5669017, -0.30508488, 8.257631, 0.13804209, -0.0772419, 9.962275
517235920302000, 5.5704913, -0.30149564, 8.202596, 0.12912029, -0.028866768, 9.91899
517235929941584, 5.6327047, -0.30029923, 8.142776, 0.12750998, 0.07625198, 9.904558
517235939581167, 5.721239, -0.26919255, 8.22772, 0.08821422, 0.1401062, 10.023623
517235949220750, 5.7894344, -0.14596218, 8.414361, -0.040731966, 0.10009098, 10.21414
517235958860230, 5.709275, -0.0741775, 8.658429, -0.1322465, -0.0941968, 10.370311
517235968499813, 5.576473, -0.106480606, 8.7577305, -0.11999971, -0.26259995, 10.3789625
517235978139396, 5.639883, -0.14356937, 8.662018, -0.07422823, -0.15965414, 10.335785
517235987778980, 5.6781683, -0.18424734, 8.457432, -0.024015069, -0.012051582, 10.188374
517235997418563, 5.6470613, -0.25722843, 8.297112, 0.04966554, 0.04561615, 10.039572
517236007058146, 5.495117, -0.28594232, 8.397611, 0.06464517, -0.13856268, 10.038653
517236016697625, 5.4616175, -0.31226337, 8.334201, 0.090649724, -0.1543355, 9.96763
517236026337209, 5.625526, -0.276371, 8.183454, 0.07294446, 0.06218958, 9.933914
517236035976792, 5.8097734, -0.20817557, 8.066205, 0.021971941, 0.28509283, 9.938748
517236045616375, 5.948557, -0.18305093, 8.103293, 0.002755642, 0.38313246, 10.04666
517236055255959, 5.6674004, -0.24526432, 8.249256, 0.043649495, 0.07191849, 10.01113
517236064895542, 5.5633125, -0.17228323, 8.152347, -0.028413236, 0.04600954, 9.871066
517236074535021, 5.6997037, -0.13998012, 8.003992, -0.037649333, 0.25534344, 9.82362
517236084174605, 5.7762737, -0.104087785, 8.124829, -0.075880945, 0.26277542, 9.9656515
517236093814188, 5.6877394, -0.09571291, 8.382058, -0.10830593, 0.047614574, 10.129386
517236103453771, 5.5896335, -0.13519448, 8.435896, -0.08035898, -0.07109833, 10.120036
517236113093355, 5.6147585, -0.09810573, 8.372486, -0.11417925, -0.023910522, 10.080677
517236122732938, 5.505885, -0.09332009, 8.475378, -0.14276707, -0.18661594, 10.104469
517236132372521, 5.383851, -0.2620141, 8.629715, -0.015295267, -0.41408062, 10.166355
517236142012000, 5.593223, 0.18305093, 8.562716, -0.4312327, -0.153584, 10.219011
517236151651584, 5.4795637, -0.22253251, 8.71466, -0.06134677, -0.39610195, 10.288818
517236161291167, 5.672186, -0.28115666, 8.397611, 0.055728972, -0.09059572, 10.137125
517236170930750, 5.6063833, 0.18065812, 8.400003, -0.40713948, -0.07395506, 10.092225
517236180570334, 5.7487564, -0.6556334, 7.952546, 0.49293447, 0.1636815, 9.820961
517236190209813, 5.877969, 0.54436713, 7.995617, -0.6903468, 0.41822767, 9.905819
517236199849396, 5.6685967, -0.91525465, 8.002795, 0.72737294, 0.046531677, 9.822635
517236209488980, 5.919843, 0.59700924, 7.958528, -0.75452745, 0.46901035, 9.896962
517236219128563, 5.5501523, -0.802792, 8.139186, 0.5925874, -0.08361578, 9.865945
517236228768146, 5.828916, 0.19381863, 8.276773, -0.38508725, 0.14721727, 10.116761
517236238407730, 5.584848, -0.64008003, 8.52802, 0.4064667, -0.2558694, 10.202779
517236248047209, 5.706882, -0.5587241, 8.360522, 0.33566165, -0.060936928, 10.1322565
517236257686792, 5.6075797, -0.22851457, 8.400003, -0.0026843548, -0.13650608, 10.101416
517236267326375, 5.6733823, -1.0504491, 8.112865, 0.8332987, 0.003967762, 9.920428
517236276965959, 5.6985073, 0.2548356, 8.340183, -0.4811014, 0.022717476, 10.0928
517236286605542, 5.4185467, -1.1162517, 8.325827, 0.84400976, -0.38068867, 9.953329
517236296245125, 5.6997037, 0.5240282, 8.258827, -0.76642424, 0.086182594, 10.018713
517236305884605, 5.56092, -0.8554341, 8.199007, 0.5969479, -0.15455103, 9.92467
517236315524188, 5.9246287, 0.43788654, 8.152347, -0.6391529, 0.31721878, 10.0620365
517236325163771, 5.584848, -0.33020952, 8.313862, 0.07694131, -0.15012312, 10.019551
517236334803355, 5.818148, -0.0849452, 8.070991, -0.12605798, 0.20625067, 9.946886
517236344442938, 5.7224355, 0.106480606, 8.17149, -0.33423617, 0.10415602, 9.970371
517236354082521, 5.7260246, -0.72382885, 7.9477606, 0.5104473, 0.13344526, 9.80815
517236363722000, 5.837291, 0.36251262, 8.270791, -0.58735746, 0.17086935, 10.11124
517236373361584, 5.643472, -1.0935199, 8.325827, 0.82946485, -0.17484808, 10.081934
517236383001167, 5.851648, 0.44985065, 8.437093, -0.7052312, 0.11172247, 10.2527485
517236392640750, 5.6374903, -1.0731809, 8.483752, 0.78545237, -0.2683916, 10.208727
517236402280334, 5.9114685, 0.27876383, 8.40479, -0.5326662, 0.17206192, 10.26403
517236411919813, 5.631508, -0.567099, 8.52443, 0.28394377, -0.21857548, 10.226095
517236421559396, 5.7894344, -0.23330021, 8.440681, -0.029289544, -8.406639E-4, 10.23798
517236431198980, 5.5202417, -0.11844472, 8.562716, -0.16618502, -0.28426266, 10.18326
517236440838563, 5.639883, -0.7848458, 8.157132, 0.53500944, -0.032946587, 9.933568
517236450478146, 5.7080784, 0.30508488, 8.185846, -0.5358267, 0.13216686, 9.968888
517236460117730, 5.5298133, -1.0444671, 8.023134, 0.81159246, -0.06845522, 9.766117
517236469757209, 5.6374903, 0.6017949, 8.020741, -0.82897854, 0.20833206, 9.784944
517236479396792, 5.3706903, -0.8877372, 8.106883, 0.62599653, -0.2147851, 9.74248
517236489036375, 5.77747, 0.5180461, 8.120044, -0.72810006, 0.2813363, 9.948535
517236498675959, 5.508278, -0.42951167, 8.394022, 0.17266726, -0.13908625, 10.046694
517236508315542, 5.79422, -0.008374879, 8.300702, -0.2183015, 0.19225407, 10.118799
517236517955021, 5.7547383, -0.062213387, 8.488539, -0.18014205, 0.087862015, 10.253585
517236527594605, 5.8600225, -0.6999006, 8.329415, 0.4907078, 0.20670652, 10.194378
517236537234188, 5.686543, 0.23330021, 8.712267, -0.4820527, -0.03984642, 10.395231
517236546873771, 5.4125648, -1.1772687, 8.572288, 0.9022582, -0.36321115, 10.15972
517236556513355, 5.625526, 0.35174492, 8.523234, -0.58071995, 0.023031235, 10.201864
517236566152938, 5.298906, -1.1294123, 8.331808, 0.8658973, -0.3213377, 9.895452
517236575792417, 5.656633, 0.40558344, 8.22772, -0.6090895, 0.2048459, 9.972183
517236585432000, 5.4676, -0.6161518, 8.283952, 0.36906195, -0.10268831, 9.937374
517236595071584, 5.7451673, -0.047856454, 8.142776, -0.15157527, 0.26514482, 9.960962
517236604711167, 5.432904, -0.1052842, 8.365308, -0.14705557, -0.13183212, 9.97331
517236614350750, 5.568098, -0.49052864, 8.163115, 0.26496625, 0.041517258, 9.889836
517236623990230, 5.6674004, 0.55513483, 8.410771, -0.7860277, 0.1356926, 10.125829
517236633629813, 5.5130634, -0.8458628, 8.2456665, 0.6031281, -0.08286905, 9.936283
517236643269396, 5.7080784, 0.6041877, 8.347362, -0.8158984, 0.2305417, 10.094891
517236652908980, 5.4412785, -1.026521, 8.29472, 0.7918007, -0.18433666, 9.939955
517236662548563, 5.733203, 0.37447673, 8.300702, -0.57369256, 0.2702737, 10.075184
517236672188146, 5.3946185, -0.7920243, 8.463413, 0.5430958, -0.25128078, 10.049899
517236681827625, 5.697311, -0.1160519, 8.305488, -0.089042604, 0.18995905, 10.0702505
517236691467209, 5.532206, -0.23449662, 8.49452, -0.004970491, -0.065256596, 10.139669
517236701106792, 5.608776, -0.54436713, 8.275578, 0.33174556, 0.0825181, 10.006149
517236710746375, 5.564509, 0.24526432, 8.415557, -0.47009516, 0.08281374, 10.080559
517236720385959, 5.410172, -0.9810573, 8.303095, 0.7512917, -0.13301897, 9.929335
517236730025438, 5.5393844, 0.5982057, 8.519645, -0.83635604, 0.0408926, 10.145235
517236739665021, 5.259424, -0.96550393, 8.595019, 0.6898665, -0.4029069, 10.091077
517236749304605, 5.613562, 0.5347959, 8.63809, -0.7622315, 0.036349297, 10.287487
517236758944188, 5.334798, -0.57547385, 8.611769, 0.30858964, -0.29513645, 10.137627
517236768583771, 5.6183476, 0.14117654, 8.3581295, -0.34386218, 0.18244696, 10.064421
517236778223355, 5.430511, -0.1471586, 8.360522, -0.07260549, -0.008180141, 9.970211
517236787862834, 5.5944195, -0.45583272, 8.148758, 0.27432966, 0.21061993, 9.888779
517236797502417, 5.5800624, 0.32542387, 8.379665, -0.5184821, 0.1524477, 10.058315
517236807142000, 5.493921, -0.8757731, 8.292327, 0.6864872, 0.0070929527, 9.962003
517236816781584, 5.6374903, 0.5383851, 8.386844, -0.72982335, 0.18989706, 10.091661
517236826421167, 5.365905, -1.0731809, 8.263613, 0.88289493, -0.09749937, 9.871319
517236836060646, 5.6207404, 0.38763726, 8.353344, -0.5649811, 0.17611456, 10.058385
517236845700230, 5.3515477, -0.83389866, 8.456235, 0.6271888, -0.20215225, 10.020385
517236855339813, 5.5896335, -0.03589234, 8.400003, -0.16029632, 0.098826885, 10.088106
517236864979396, 5.345566, -0.30149564, 8.554341, 0.07855129, -0.21314716, 10.089159
517236874618980, 5.5046883, -0.4331009, 8.380861, 0.23257291, 0.0015540123, 10.033639
517236884258563, 5.501099, 0.37447673, 8.526823, -0.58159584, 3.466606E-4, 10.137592
517236893898042, 5.4496536, -0.7609176, 8.437093, 0.5477473, -0.10245037, 10.057421
517236903537625, 5.5980086, 0.695115, 8.543573, -0.88649637, 0.094394684, 10.198957
517236913177209, 5.349155, -0.8985049, 8.360522, 0.7098057, -0.14411354, 9.939544
517236922816792, 5.611169, 0.60658056, 8.407183, -0.7889276, 0.16666794, 10.093746
517236932456375, 5.2977095, -0.762114, 8.377272, 0.5629616, -0.17481756, 9.923594
517236942095855, 5.6183476, 0.13998012, 8.280363, -0.31079543, 0.21475124, 10.000357
517236951735438, 5.406583, -0.32303107, 8.411968, 0.13163888, -0.0694747, 10.003727
517236961375021, 5.5369916, -0.46779683, 8.35454, 0.286299, 0.057098866, 10.029468
517236971014605, 5.501099, 0.18185452, 8.602198, -0.38525838, -0.049489975, 10.205004
517236980654188, 5.487939, -0.83030945, 8.420342, 0.64086425, -0.052337646, 10.064571
517236990293771, 5.581259, 0.6053841, 8.52802, -0.79629797, 0.11937046, 10.178199
517236999933250, 5.3336015, -0.9523434, 8.383254, 0.7396757, -0.19457102, 9.952298
517237009572834, 5.5740805, 0.60059845, 8.37129, -0.77733606, 0.19053459, 10.043358
517237019212417, 5.3132625, -0.74177504, 8.409575, 0.54197913, -0.21123457, 9.958091
517237028852000, 5.645865, 0.29671, 8.451449, -0.47206375, 0.16613388, 10.155807
517237038491584, 5.3886366, -0.29790643, 8.456235, 0.10593933, -0.11735058, 10.030407
517237048131167, 5.5872407, -0.34576288, 8.249256, 0.18360579, 0.15896034, 9.966348
517237057770646, 5.45085, 0.11365908, 8.409575, -0.2953708, 0.009845257, 10.0178995
517237067410230, 5.3910294, -0.8422736, 8.362915, 0.65397596, -0.12594414, 9.9633045
517237077049813, 5.5022955, 0.4953143, 8.534002, -0.69157696, 0.01979971, 10.14254
517237086689396, 5.363512, -1.0313065, 8.409575, 0.8327507, -0.1938982, 9.991034
517237096328980, 5.662615, 0.6257231, 8.463413, -0.79118323, 0.21791077, 10.169201
517237105968459, 5.3611193, -0.75493556, 8.441878, 0.5547202, -0.1769681, 10.011884
517237115608042, 5.5872407, 0.2943172, 8.456235, -0.46854222, 0.12556362, 10.128006
517237125247625, 5.377869, -0.3385844, 8.484949, 0.12962955, -0.13482475, 10.04965
517237134887209, 5.6004014, -0.2117648, 8.383254, 0.04122132, 0.11741924, 10.083294
517237144526792, 5.493921, 0.16869399, 8.530413, -0.3579803, -0.027629375, 10.141531
517237154166375, 5.4927244, -0.7573284, 8.405986, 0.57770085, -0.07857704, 10.053072
517237163805855, 5.584848, 0.4833502, 8.544769, -0.6569724, 0.06826353, 10.198088
517237173445438, 5.3886366, -0.9774681, 8.353344, 0.7807938, -0.17438984, 9.956464
517237183085021, 5.5980086, 0.56111693, 8.376076, -0.73045206, 0.15903187, 10.062423
517237192724605, 5.3814583, -0.8219346, 8.301898, 0.641405, -0.15116787, 9.905703
517237202364188, 5.6554365, 0.3493521, 8.271988, -0.51134646, 0.21895361, 10.011112
517237212003771, 5.3647084, -0.38883367, 8.335398, 0.19847482, -0.12721539, 9.917387
517237221643355, 5.6039906, -0.1471586, 8.315059, -0.012831509, 0.1218338, 10.027541
517237231282834, 5.474778, 0.06580263, 8.452646, -0.24289805, -0.03127384, 10.0680065
517237240922417, 5.5190454, -0.73100734, 8.297112, 0.56360006, 0.019501686, 9.975885
517237250562000, 5.558527, 0.44865423, 8.565108, -0.61779606, 0.017437935, 10.201845
517237260201584, 5.4149575, -1.0025927, 8.475378, 0.8172182, -0.16920853, 10.072861
517237269841167, 5.721239, 0.6448657, 8.512466, -0.7983904, 0.20072985, 10.24367
517237279480750, 5.4257255, -0.82911307, 8.422736, 0.65612113, -0.12639284, 10.03105
517237289120230, 5.6685967, 0.3912265, 8.4909315, -0.5453776, 0.15563822, 10.200996
517237298759813, 5.302495, -0.4642076, 8.440681, 0.2733755, -0.21433783, 9.972782
517237308399396, 5.4999027, -0.12562318, 8.336594, -0.035601795, 0.022500515, 9.988081
517237318038980, 5.413761, 0.058624156, 8.38804, -0.23212671, -0.06310606, 9.98066
517237327678563, 5.4903316, -0.61854464, 8.210971, 0.46153766, 0.013277054, 9.886009
517237337318146, 5.5597234, 0.526421, 8.409575, -0.68001294, 0.093776226, 10.071613
517237346957730, 5.4592247, -0.91405827, 8.344969, 0.7542341, -0.10787296, 9.984819
517237356597209, 5.6877394, 0.6472585, 8.46102, -0.7843495, 0.20148468, 10.183436
517237366236792, 5.400601, -0.93559366, 8.400003, 0.77169853, -0.17510939, 9.998786
517237375876375, 5.682954, 0.37447673, 8.415557, -0.5083845, 0.19386244, 10.147007
517237385515959, 5.3814583, -0.56470615, 8.400003, 0.40404308, -0.1323309, 9.9829
517237395155542, 5.613562, -0.038285162, 8.289934, -0.10319701, 0.17420053, 10.009773
517237404795125, 5.416154, 0.033499517, 8.43111, -0.19461448, -0.06381464, 10.018858
517237414434709, 5.4676, -0.54675996, 8.297112, 0.39561248, 0.006096363, 9.943798
517237424074188, 5.4795637, 0.51565325, 8.566305, -0.6813725, -0.039807796, 10.159097
517237433713771, 5.3706903, -0.9056834, 8.4909315, 0.7340139, -0.20934486, 10.058722
517237443353355, 5.5860443, 0.60059845, 8.595019, -0.76101863, 0.038825035, 10.240034
517237452992938, 5.332405, -0.9607183, 8.487342, 0.795639, -0.25663948, 10.034619
517237462632521, 5.6817575, 0.45583272, 8.478967, -0.5876241, 0.17779016, 10.19834
517237472272105, 5.383851, -0.5706882, 8.414361, 0.4128862, -0.138412, 9.996169
517237481911688, 5.697311, 0.031106694, 8.309076, -0.15073705, 0.2425499, 10.070726
517237491551271, 5.4723854, -0.02632105, 8.382058, -0.12521619, 0.009881496, 10.009537
517237501190750, 5.5872407, -0.48095736, 8.250452, 0.3481968, 0.120541096, 9.969091
517237510830334, 5.6327047, 0.4869394, 8.415557, -0.6194062, 0.15807486, 10.118173
517237520469917, 5.4628143, -0.83988076, 8.327023, 0.68997467, -0.06783533, 9.970276
517237530109500, 5.5716877, 0.65682983, 8.529217, -0.7933792, 0.038749695, 10.178001
517237539749084, 5.308477, -0.92243314, 8.397611, 0.7756555, -0.2542138, 9.944063
517237549388667, 5.5716877, 0.52283174, 8.425129, -0.6590611, 0.0740428, 10.092571
517237559028250, 5.326423, -0.57906306, 8.385647, 0.4230095, -0.20533514, 9.940024
517237568667834, 5.6123657, 0.12203395, 8.353344, -0.24536234, 0.12165642, 10.060661
517237578307313, 5.4759746, -0.03589234, 8.395218, -0.09217018, -0.02191782, 10.022889
517237587946896, 5.6578293, -0.43070808, 8.318648, 0.31810087, 0.13572311, 10.063641
517237597586480, 5.5597234, 0.3469593, 8.590233, -0.4752088, -0.02300787, 10.227251
517237607226063, 5.4125648, -0.94396853, 8.488539, 0.81566143, -0.19894409, 10.076574
517237616865646, 5.5573306, 0.54675996, 8.567501, -0.6659523, 9.274483E-4, 10.204971
517237626505230, 5.3814583, -0.9798609, 8.361719, 0.8544928, -0.16213417, 9.954001
517237636144813, 5.7343993, 0.6113662, 8.4705925, -0.7145668, 0.20856571, 10.220272
517237645784396, 5.3647084, -0.6017949, 8.518449, 0.45620874, -0.22170496, 10.072187
517237655423980, 5.6123657, 0.16271193, 8.476574, -0.27425957, 0.060254097, 10.16359
517237665063563, 5.395815, -0.1268196, 8.426325, 0.007701367, -0.11865759, 10.005984
517237674703042, 5.532206, -0.2883351, 8.2049885, 0.1918993, 0.10209322, 9.897629
517237684342625, 5.474778, 0.42831525, 8.268398, -0.5284811, 0.08670664, 9.91142
517237693982209, 5.4436717, -0.7585248, 8.136793, 0.6559191, 0.0072464943, 9.797246
517237703621792, 5.619544, 0.72263247, 8.342576, -0.82276857, 0.199193, 10.049051
517237713261375, 5.3994045, -0.8769695, 8.37129, 0.75674546, -0.18011618, 9.969756
517237722900959, 5.7080784, 0.65084773, 8.586644, -0.7623915, 0.14489746, 10.302135
517237732540542, 5.38744, -0.67836523, 8.553144, 0.5296489, -0.26247025, 10.113929
517237742180125, 5.71765, 0.19740787, 8.516056, -0.29986337, 0.14481306, 10.253918
517237751819709, 5.4460645, -0.23688944, 8.538788, 0.1094414, -0.15343428, 10.128727
517237761459292, 5.568098, -0.39361933, 8.37129, 0.28974825, 0.022061825, 10.057471
517237771098875, 5.4999027, 0.23330021, 8.441878, -0.34646088, -0.023985863, 10.072144
517237780738459, 5.4388857, -0.8207382, 8.306684, 0.7071197, -0.092903614, 9.937176
517237790377938, 5.558527, 0.6855437, 8.413164, -0.78356314, 0.08266449, 10.076097
517237800017521, 5.38744, -0.83389866, 8.274381, 0.7244741, -0.12995672, 9.8814745
517237809657105, 5.6410794, 0.6963114, 8.394022, -0.8006145, 0.16616726, 10.104339
517237819296688, 5.3407803, -0.6723832, 8.394022, 0.539749, -0.21406364, 9.9548235
517237828936271, 5.703293, 0.3385844, 8.422736, -0.42988786, 0.16870928, 10.167173
517237838575855, 5.4352965, -0.20578274, 8.443074, 0.08380151, -0.10446119, 10.042528
517237848215438, 5.584848, -0.2847459, 8.329415, 0.18537122, 0.07698393, 10.030478
517237857855021, 5.4999027, 0.21774685, 8.429914, -0.328672, 0.014541149, 10.062384
517237867494605, 5.5429735, -0.73818576, 8.299505, 0.6354841, 0.03103304, 9.987314
517237877134188, 5.7343993, 0.64247286, 8.525627, -0.74895513, 0.19900465, 10.265567
517237886773771, 5.4867425, -0.9020941, 8.525627, 0.7829357, -0.18028593, 10.146869
517237896413355, 5.6853466, 0.59581286, 8.646464, -0.6979859, 0.08101416, 10.341459
517237906052938, 5.337191, -0.7585248, 8.518449, 0.61708534, -0.3026867, 10.05746
517237915692521, 5.6039906, 0.3684947, 8.43111, -0.46881703, 0.06601143, 10.119286
517237925332105, 5.279763, -0.24646074, 8.298309, 0.12524748, -0.20074654, 9.835781
517237934971688, 5.49751, -0.17706887, 8.114061, 0.09343174, 0.07978821, 9.801881
517237944611271, 5.477171, 0.18903299, 8.188239, -0.27739593, 0.05657673, 9.848971
517237954250855, 5.5369916, -0.70947194, 8.09133, 0.62547976, 0.063275814, 9.809996
517237963890334, 5.71765, 0.62931234, 8.441878, -0.7156817, 0.14885664, 10.189137
517237973529917, 5.5716877, -0.7716853, 8.43111, 0.656545, -0.07688618, 10.1136465
517237983169500, 5.759524, 0.77766734, 8.712267, -0.8947979, 0.08123255, 10.434235
517237992809084, 5.4341, -0.8207382, 8.663215, 0.69892097, -0.28897762, 10.23144
517238002448667, 5.68415, 0.3469593, 8.538788, -0.4499504, 0.08899641, 10.253315
517238012088250, 5.337191, -0.4235296, 8.4705925, 0.31294236, -0.22944212, 10.013258
517238021727834, 5.602794, -0.2428715, 8.26122, 0.16145995, 0.12002039, 9.982864
517238031367417, 5.523831, 0.12203395, 8.222935, -0.20521809, 0.105942726, 9.904086
517238041007000, 5.521438, -0.64247286, 8.12124, 0.561234, 0.095841885, 9.824938
517238050646584, 5.5226345, 0.6329016, 8.276773, -0.7117672, 0.09372616, 9.944327
517238060286167, 5.3982077, -0.7716853, 8.203793, 0.6750461, -0.075576305, 9.827358
517238069925750, 5.6937213, 0.7788638, 8.451449, -0.8729752, 0.15661049, 10.181625
517238079565334, 5.339584, -0.7477571, 8.458628, 0.6286179, -0.25685978, 10.007874
517238089204917, 5.6745787, 0.4761717, 8.545966, -0.56673765, 0.068421364, 10.25355
517238098844500, 5.436493, -0.39960137, 8.516056, 0.27912238, -0.16749525, 10.106057
517238108484084, 5.6685967, -0.1052842, 8.4347, 0.011033475, 0.10079384, 10.162577
517238118123667, 5.4352965, 0.013160525, 8.618947, -0.13899499, -0.17327452, 10.187223
517238127763250, 5.517849, -0.75613195, 8.46102, 0.6455245, -0.09534979, 10.108484
517238137402834, 5.6506505, 0.4869394, 8.525627, -0.5844988, 0.1086297, 10.222516
517238147042417, 5.444868, -0.91166544, 8.335398, 0.7935204, -0.106349945, 9.965721
517238156682000, 5.6386867, 0.74416786, 8.409575, -0.82865995, 0.19291306, 10.116602
517238166321584, 5.349155, -0.74536425, 8.246863, 0.63899827, -0.12554073, 9.836448
517238175961167, 5.625526, 0.5515456, 8.298309, -0.64555043, 0.20799065, 10.01762
517238185600750, 5.3132625, -0.3696911, 8.34138, 0.24679196, -0.16014004, 9.892396
517238195240334, 5.5980086, 0.06460621, 8.374879, -0.16532704, 0.10430288, 10.071856
517238204879917, 5.4580283, 0.059820566, 8.493324, -0.1752159, -0.08015108, 10.09421
517238214519500, 5.5405807, -0.5886344, 8.409575, 0.48059955, -0.008773804, 10.07643
517238224159084, 5.572884, 0.46899325, 8.589037, -0.58106476, 0.0058693886, 10.232834
517238233798667, 5.4436717, -0.9451649, 8.4502535, 0.8261608, -0.12249565, 10.061616
517238243438250, 5.6279187, 0.55393845, 8.53161, -0.675844, 0.1154747, 10.212667
517238253077938, 5.375476, -0.9200403, 8.427522, 0.776665, -0.18941498, 10.006311
517238262717521, 5.6530433, 0.53599226, 8.488539, -0.65403223, 0.17227268, 10.19029
517238272357105, 5.345566, -0.4869394, 8.4909315, 0.34052294, -0.18625736, 10.0378
517238281996688, 5.576473, 0.06819545, 8.426325, -0.1843465, 0.09887028, 10.10252
517238291636271, 5.349155, 0.013160525, 8.46102, -0.14738029, -0.11884117, 10.008329
517238301275855, 5.5070815, -0.46301118, 8.300702, 0.348346, 0.054841995, 9.965923
517238310915438, 5.515456, 0.45583272, 8.469396, -0.5798563, 0.06135702, 10.1004305
517238320555021, 5.407779, -0.8470592, 8.318648, 0.71797836, -0.07657766, 9.931774
517238330194605, 5.6171513, 0.70348984, 8.462217, -0.81275856, 0.15946579, 10.147433
517238339834188, 5.349155, -0.90089774, 8.347362, 0.762549, -0.12423611, 9.925051
517238349473771, 5.642276, 0.4869394, 8.487342, -0.6111208, 0.17126846, 10.183542
517238359113355, 5.3623157, -0.6029913, 8.457432, 0.45620465, -0.14740086, 10.020794
517238368752938, 5.6171513, 0.06580263, 8.5112705, -0.1858511, 0.09677839, 10.195809
517238378392521, 5.3647084, -0.096909314, 8.658429, -0.060278, -0.20883322, 10.183842
517238388032105, 5.4927244, -0.4881358, 8.53161, 0.347462, -0.07226753, 10.152375
517238397671688, 5.505885, 0.3792624, 8.543573, -0.5144688, 0.016839981, 10.158066
517238407311375, 5.45085, -0.8111669, 8.344969, 0.67386293, -0.026813507, 9.977647
517238416950959, 5.602794, 0.6735796, 8.516056, -0.7946705, 0.13158083, 10.184273
517238426590542, 5.367101, -0.8757731, 8.360522, 0.74585474, -0.12878513, 9.944757
517238436230125, 5.633901, 0.6329016, 8.427522, -0.7572083, 0.17678118, 10.127187
517238445869709, 5.3012986, -0.5778667, 8.3377905, 0.44880393, -0.14847612, 9.885999
517238455509292, 5.562116, 0.20338993, 8.311469, -0.31414127, 0.14187479, 9.99701
517238465148875, 5.352744, -0.13280165, 8.407183, -0.004912168, -0.109059334, 9.96686
517238474788459, 5.5980086, -0.4211368, 8.350951, 0.30452856, 0.10493517, 10.057321
517238484428042, 5.5298133, 0.32542387, 8.537591, -0.45907947, 0.01935339, 10.166813
517238494067625, 5.4783673, -0.86859465, 8.525627, 0.73612666, -0.122330666, 10.143788
517238503707209, 5.5908303, 0.5778667, 8.657232, -0.71630466, 0.032083035, 10.296837
517238513346896, 5.2977095, -0.9738788, 8.425129, 0.8246362, -0.21908903, 9.963381
517238522986480, 5.5800624, 0.52163535, 8.440681, -0.63283575, 0.14671135, 10.110998
517238532626063, 5.359923, -0.71425754, 8.29113, 0.57923955, -0.053500175, 9.881468
517238542265646, 5.741578, 0.31345975, 8.376076, -0.42405787, 0.28950262, 10.146871
517238551905230, 5.477171, -0.05503492, 8.573483, -0.07929394, -0.087044716, 10.173161
517238561544813, 5.5860443, -0.21894327, 8.46102, 0.09973782, 0.041371346, 10.140465
517238571184396, 5.535795, 0.34097722, 8.5016985, -0.46328115, 0.028233528, 10.140253
517238580823980, 5.407779, -0.7704889, 8.279166, 0.65611047, -0.079423904, 9.896744
517238590463667, 5.4699926, 0.62452674, 8.392825, -0.7450173, 0.045930386, 10.009656
517238600103250, 5.306084, -0.9667004, 8.29113, 0.84529346, -0.19625425, 9.852859
517238609742834, 5.6350975, 0.5383851, 8.475378, -0.64041185, 0.11815739, 10.171141
517238619382417, 5.3539405, -0.8003992, 8.486146, 0.6593114, -0.25984526, 10.040805
517238629022000, 5.672186, 0.19980069, 8.496913, -0.315305, 0.12707806, 10.212521
517238638661584, 5.426922, -0.30388847, 8.5220375, 0.16363919, -0.14407635, 10.105514
517238648301167, 5.6123657, -0.27996024, 8.463413, 0.16337794, 0.047673225, 10.157627
517238657940855, 5.485546, 0.29192436, 8.5423765, -0.4201957, -0.04583454, 10.147411
517238667580438, 5.4592247, -0.6903293, 8.398808, 0.56322086, -0.080886364, 10.024763
517238677220021, 5.5776696, 0.6556334, 8.4813595, -0.7740643, 0.095069885, 10.142262
517238686859605, 5.4436717, -0.802792, 8.292327, 0.6796178, -0.05492258, 9.928536
517238696499188, 5.6961145, 0.72023964, 8.383254, -0.82097244, 0.2419939, 10.124765
517238706138771, 5.3443694, -0.7573284, 8.347362, 0.6285618, -0.16462421, 9.91928
517238715778355, 5.680561, 0.3361916, 8.413164, -0.4249078, 0.17482424, 10.146528
517238725418042, 5.4113684, -0.28594232, 8.389236, 0.16645998, -0.094646454, 9.985353
517238735057625, 5.5944195, -0.17826529, 8.301898, 0.08516589, 0.11332798, 10.011529
517238744697209, 5.444868, 0.18783657, 8.439486, -0.30115563, -0.04887247, 10.040604
517238754336792, 5.4783673, -0.7537391, 8.407183, 0.63741267, -0.09438515, 10.042219
517238763976375, 5.5908303, 0.5204389, 8.572288, -0.627211, 0.030029774, 10.228298
517238773615959, 5.3970113, -0.9523434, 8.420342, 0.8246264, -0.17246151, 10.01135
517238783255646, 5.6685967, 0.654437, 8.559127, -0.7658007, 0.12713623, 10.257549
517238792895230, 5.35753, -0.77766734, 8.423932, 0.6463246, -0.19115639, 9.9908085
517238802534813, 5.7009, 0.4426722, 8.409575, -0.54102653, 0.2158413, 10.152727
517238812174396, 5.383851, -0.31226337, 8.452646, 0.18596882, -0.14073181, 10.023783
517238821814084, 5.572884, -0.09451649, 8.367701, -0.0032839775, 0.07911396, 10.0537615
517238831453667, 5.4556355, 0.19860429, 8.38804, -0.3079423, -0.0014657974, 10.003387
517238841093250, 5.5106707, -0.5910272, 8.240881, 0.49635744, 0.055860996, 9.918642
517238850732834, 5.556134, 0.5982057, 8.443074, -0.69649243, 0.09473562, 10.1004925
517238860372417, 5.4017973, -0.89730847, 8.367701, 0.7764271, -0.13096619, 9.969103
517238870012105, 5.6327047, 0.6628119, 8.526823, -0.7584349, 0.12307358, 10.211907
517238879651688, 5.3503513, -0.8602197, 8.455039, 0.73916245, -0.20905018, 10.013184
517238889291271, 5.686543, 0.39601216, 8.572288, -0.5052593, 0.137187, 10.281225
517238898930855, 5.3766723, -0.50488555, 8.519645, 0.37286684, -0.177526, 10.078558
517238908570438, 5.6063833, -0.1160519, 8.383254, 0.017040193, 0.12295866, 10.085066
517238918210125, 5.4293146, 0.12083755, 8.483752, -0.24091041, -0.06445742, 10.06995
517238927849709, 5.5477595, -0.5694918, 8.355737, 0.46694034, 0.039214134, 10.034975
517238937489292, 5.5872407, 0.58504516, 8.508878, -0.6884692, 0.0970788, 10.17237
517238947128875, 5.3886366, -0.863809, 8.334201, 0.75597, -0.1095953, 9.932722
517238956768563, 5.615955, 0.71425754, 8.411968, -0.8127982, 0.19411469, 10.105049
517238966408146, 5.339584, -0.8147561, 8.292327, 0.70660967, -0.13280678, 9.870195
517238976047730, 5.6482577, 0.5024927, 8.440681, -0.58843756, 0.17624807, 10.15003
517238985687313, 5.312066, -0.45942193, 8.495717, 0.32363218, -0.23422813, 10.022311
517238995327000, 5.5716877, -0.021535404, 8.469396, -0.07939649, 0.042894363, 10.137392
517239004966584, 5.426922, 0.015553347, 8.534002, -0.13641351, -0.09868622, 10.112001
517239014606167, 5.5046883, -0.5706882, 8.425129, 0.45954263, -0.029589653, 10.069659
517239024245750, 5.5740805, 0.4761717, 8.538788, -0.5892279, 0.0736351, 10.190948
517239033885438, 5.4436717, -0.91166544, 8.372486, 0.7937293, -0.06700754, 9.996436
517239043525021, 5.660222, 0.6939186, 8.525627, -0.8025709, 0.15292597, 10.224405
517239053164605, 5.3850474, -0.81595254, 8.402397, 0.70640856, -0.1422944, 9.987268
517239062804188, 5.676972, 0.5802595, 8.445468, -0.674829, 0.20624971, 10.1682205
517239072443875, 5.322834, -0.44865423, 8.394022, 0.32548022, -0.16169596, 9.942906
517239082083459, 5.56092, 0.1052842, 8.414361, -0.19683886, 0.07442331, 10.0842495
517239091723042, 5.3886366, 0.020338992, 8.444271, -0.12820935, -0.09028864, 10.015935
517239101362730, 5.495117, -0.5072784, 8.319844, 0.41514355, 0.017867565, 9.975008
517239111002313, 5.491528, 0.44506502, 8.549556, -0.54696333, -0.017096043, 10.156299
517239120641896, 5.5022955, -0.42831525, 8.5112705, 0.3171485, -0.073527336, 10.138759
517239130281480, 5.508278, -0.06460621, 8.506484, -0.034224123, -0.027066708, 10.134283
517239139921167, 5.501099, -0.16749759, 8.455039, 0.06567216, -0.010465145, 10.088281
517239149560750, 5.4759746, -0.16271193, 8.428718, 0.062326312, -0.01251936, 10.052462
517239159200334, 5.4903316, -0.10887343, 8.414361, 0.010418624, 0.01542902, 10.047722
517239168840021, 5.517849, -0.0634098, 8.408379, -0.032918036, 0.053200245, 10.057217
517239178479605, 5.5405807, -0.029910283, 8.344969, -0.0628514, 0.10854864, 10.016073
517239188119188, 5.517849, -0.041874398, 8.347362, -0.05057034, 0.08824015, 10.005823
517239197758875, 5.528617, -0.05623133, 8.374879, -0.036488116, 0.081477165, 10.034908
517239207398459, 5.4903316, -0.05503492, 8.439486, -0.043043137, 0.01125288, 10.0682535
517239217038042, 5.4592247, -0.076570325, 8.487342, -0.026087224, -0.046905994, 10.091635
517239226677625, 5.432904, -0.1160519, 8.471788, 0.012068152, -0.06595039, 10.064622
517239236317313, 5.4616175, -0.1363909, 8.474181, 0.034338653, -0.043593884, 10.082487
517239245956896, 5.4676, -0.12083755, 8.49452, 0.018034935, -0.048171997, 10.102648
517239255596480, 5.5070815, -0.09571291, 8.518449, -0.0074353814, -0.022385597, 10.14399
517239265236167, 5.521438, -0.104087785, 8.514859, 0.002319634, -0.009317875, 10.148886
517239274875750, 5.4592247, -0.16630118, 8.535198, 0.058431447, -0.07622576, 10.132679
517239284515334, 5.432904, -0.19262223, 8.4909315, 0.08580324, -0.075045586, 10.081491
517239294155021, 5.4687963, -0.17228323, 8.471788, 0.068813324, -0.030741692, 10.084787
517239303794605, 5.48076, -0.11844472, 8.408379, 0.017683923, 0.020091057, 10.037573
517239313434188, 5.508278, -0.05383851, 8.353344, -0.04182458, 0.07842255, 10.005723
517239323073875, 5.515456, -0.02632105, 8.350951, -0.06862369, 0.08560133, 10.007362
517239332713459, 5.5166526, -0.041874398, 8.383254, -0.053331554, 0.05852747, 10.035331
517239342353146, 5.521438, -0.029910283, 8.427522, -0.06731692, 0.039515972, 10.074929
517239351992730, 5.508278, -0.078963146, 8.411968, -0.017721027, 0.030453682, 10.055215
517239361632313, 5.503492, -0.08015956, 8.441878, -0.017692655, 0.010055065, 10.077684
517239371272000, 5.4891353, -0.13758731, 8.4705925, 0.035784423, -0.017896175, 10.094498
517239380911584, 5.473582, -0.14596218, 8.535198, 0.038218677, -0.06368828, 10.140291
517239390551167, 5.4903316, -0.15314065, 8.554341, 0.0454261, -0.06067705, 10.165541
517239400190855, 5.4580283, -0.15672988, 8.518449, 0.047984302, -0.06534481, 10.117908
517239409830438, 5.5022955, -0.12083755, 8.49811, 0.016272008, -0.014318466, 10.124587
517239419470021, 5.4891353, -0.096909314, 8.420342, -0.0034564435, 0.017569065, 10.051958
517239429109709, 5.473582, -0.06819545, 8.359326, -0.02984798, 0.03998041, 9.992027
517239438749292, 5.4664035, -0.050249275, 8.372486, -0.04833448, 0.026721, 9.99898
517239448388980, 5.5070815, -0.046660043, 8.414361, -0.050767303, 0.037754536, 10.056221
517239458028563, 5.508278, -0.05742774, 8.427522, -0.039530843, 0.033159733, 10.068012
517239467668146, 5.5106707, -0.0849452, 8.440681, -0.012495428, 0.025915146, 10.080624
517239477307834, 5.49751, -0.11724831, 8.4502535, 0.018284142, 0.011381149, 10.0817995
517239486947417, 5.511867, -0.11246266, 8.462217, 0.013079226, 0.020479202, 10.099597
517239496587105, 5.4999027, -0.1363909, 8.382058, 0.040281117, 0.05202532, 10.026072
517239506226688, 5.51426, -0.10289137, 8.397611, 0.005817473, 0.056218147, 10.046607
517239515866271, 5.511867, -0.10887343, 8.4705925, 0.00825423, 0.014177322, 10.106592
517239525505959, 5.453243, -0.12801601, 8.523234, 0.022223085, -0.07845068, 10.118949
517239535145542, 5.4484572, -0.09810573, 8.510074, -0.0074128807, -0.07329512, 10.10501
517239544785230, 5.4520464, -0.11246266, 8.441878, 0.010210395, -0.035954475, 10.049944
517239554424813, 5.456832, -0.12921242, 8.350951, 0.031649113, 0.017708778, 9.976511
517239564064396, 5.4795637, -0.078963146, 8.362915, -0.019647568, 0.038646698, 9.998416
517239573704084, 5.4987063, -0.05383851, 8.507681, -0.05041486, -0.022206783, 10.12997
517239583343667, 5.5537415, -0.096909314, 8.5016985, -0.0047338903, 0.026901245, 10.155373
517239592983355, 5.511867, -0.12083755, 8.526823, 0.015548289, -0.014575005, 10.1538925
517239602622938, 5.474778, -0.08973085, 8.4682, -0.014211208, -0.007806778, 10.084214
517239612262521, 5.5022955, -0.07178468, 8.46102, -0.030119538, 0.020626545, 10.092965
517239621902209, 5.4867425, -0.069391854, 8.391629, -0.028125703, 0.04774618, 10.026241
517239631541792, 5.4556355, -0.09451649, 8.380861, -0.0020712018, 0.024860382, 10.000555
517239641181480, 5.4412785, -0.11844472, 8.426325, 0.02054581, -0.019420624, 10.031136
517239650821063, 5.4341, -0.14476576, 8.506484, 0.04196489, -0.07146454, 10.094742
517239660460750, 5.4628143, -0.11485548, 8.504091, 0.014113247, -0.043686867, 10.108067
517239670100334, 5.491528, -0.096909314, 8.514859, -0.003430277, -0.021799564, 10.132553
517239679740021, 5.4819565, -0.0849452, 8.532805, -0.017732501, -0.0347538, 10.142302
517239689379605, 5.487939, -0.07537391, 8.518449, -0.026083231, -0.021163464, 10.1334095
517239699019188, 5.49751, -0.06819545, 8.4813595, -0.030300617, 0.008996487, 10.10741
517239708658875, 5.517849, -0.08973085, 8.3784685, -4.9197674E-4, 0.08115721, 10.032291
517239718298459, 5.4783673, -0.076570325, 8.336594, -0.012978971, 0.07307625, 9.9755535
517239727938146, 5.473582, -0.124426775, 8.338987, 0.035482556, 0.063586235, 9.97542
517239737577730, 5.49751, -0.15672988, 8.331808, 0.069779634, 0.08462906, 9.982695
517239747217417, 5.473582, -0.11964113, 8.43111, 0.02441147, 0.016305447, 10.052719
517239756857000, 5.454439, -0.11485548, 8.471788, 0.015967786, -0.021228313, 10.076438
517239766496688, 5.4376893, -0.086141616, 8.525627, -0.017650455, -0.057311058, 10.112299
517239776136271, 5.460421, -0.07058827, 8.605786, -0.037065834, -0.07461071, 10.19185
517239785775959, 5.4699926, -0.041874398, 8.580662, -0.06405276, -0.046262264, 10.175662
517239795415542, 5.471189, -0.0741775, 8.550752, -0.029502183, -0.030011654, 10.151504
517239805055230, 5.456832, -0.09571291, 8.578269, -0.008449644, -0.06007576, 10.167065
517239814694813, 5.45085, -0.09930214, 8.462217, 0.0023848414, -0.0048942566, 10.066317
517239824334500, 5.440082, -0.13160525, 8.338987, 0.041882694, 0.05020809, 9.95722
517239833974084, 5.432904, -0.13519448, 8.283952, 0.049317807, 0.07308245, 9.907109
517239843613667, 5.453243, -0.08733802, 8.361719, -5.776584E-4, 0.049093246, 9.983056
517239853253355, 5.4783673, -0.08015956, 8.422736, -0.0096202195, 0.035414696, 10.04789
517239862892938, 5.4676, -0.08853444, 8.415557, -0.0020454824, 0.03065157, 10.036092
517239872532625, 5.474778, -0.08853444, 8.5016985, -0.006443292, -0.006547928, 10.112361
517239882172209, 5.4664035, -0.061016977, 8.560323, -0.038287252, -0.0397954, 10.156838
517239891811896, 5.4424753, -0.06819545, 8.580662, -0.032613516, -0.06450224, 10.161089
517239901451480, 5.430511, -0.07058827, 8.562716, -0.02809599, -0.06168747, 10.139572
517239911091167, 5.4293146, -0.1052842, 8.529217, 0.010380447, -0.045609474, 10.111078
517239920730750, 5.4317074, -0.12323037, 8.496913, 0.032147825, -0.027199268, 10.085356
517239930370438, 5.4460645, -0.13878371, 8.4347, 0.053288758, 0.01691866, 10.040913
517239940010021, 5.4233327, -0.14955142, 8.390432, 0.06475407, 0.021068573, 9.991478
517239949649709, 5.4676, -0.09930214, 8.407183, 0.015553653, 0.048788548, 10.029089
517239959289292, 5.4676, -0.09212367, 8.408379, 0.008120656, 0.048757553, 10.030031
517239968928980, 5.447261, -0.083748795, 8.526823, -0.009540528, -0.03973341, 10.118534
517239978568563, 5.4795637, -0.02751746, 8.514859, -0.06347689, -0.0012803078, 10.125472
517239988208250, 5.4592247, -0.02751746, 8.465807, -0.060893446, 0.0076532364, 10.073233
517239997847834, 5.4903316, -0.038285162, 8.476574, -0.046482414, 0.025861263, 10.099242
517240007487521, 5.4580283, -0.078963146, 8.492127, -0.008814305, -0.013034821, 10.095161
517240017127209, 5.453243, -0.13160525, 8.439486, 0.04823348, 0.0063095093, 10.048768
517240026766792, 5.456832, -0.1052842, 8.389236, 0.026420891, 0.038466454, 10.008257
517240036406480, 5.432904, -0.08135597, 8.391629, 0.0013347268, 0.01839447, 9.9971075
517240046046063, 5.4424753, -0.10767702, 8.392825, 0.028135896, 0.023735046, 10.003513
517240055685750, 5.4783673, -0.083748795, 8.443074, 0.0023551881, 0.027597904, 10.065002
517240065325334, 5.4999027, -0.07537391, 8.517252, -0.0094380975, 0.0042648315, 10.138939
517240074965021, 5.4795637, -0.05623133, 8.543573, -0.0308353, -0.025754929, 10.149867
517240084604605, 5.4520464, -0.062213387, 8.572288, -0.027920276, -0.06723118, 10.159108
517240094244292, 5.4436717, -0.1052842, 8.551949, 0.016002625, -0.06855106, 10.137827
