timestamp_acc,device_acc_x,device_acc_y,device_acc_z,earth_acc_x,earth_acc_y,earth_acc_z
517260154455959, 5.558527, -0.01794617, 8.352147, 0.05878356, 0.011548519, 10.032563
517260164095646, 5.5669017, 0.021535404, 8.428718, 0.015295535, -0.019687176, 10.101166
517260173735438, 5.5908303, 0.031106694, 8.40479, 0.006926298, 0.016672611, 10.09448
517260183375230, 5.578866, 0.059820566, 8.421539, -0.02341479, 0.0035967827, 10.101935
517260193014917, 5.554938, 0.09571291, 8.435896, -0.061002463, -0.018006325, 10.100832
517260202654709, 5.5537415, 0.12562318, 8.428718, -0.08962461, -0.012615204, 10.094302
517260212294396, 5.564509, 0.12323037, 8.425129, -0.086319, -0.0018925667, 10.097242
517260221934188, 5.5369916, 0.07776674, 8.379665, -0.03749883, -0.006292343, 10.043987
517260231573980, 5.523831, 0.03589234, 8.364112, 0.00405702, -0.011524677, 10.023583
517260241213667, 5.5716877, 0.034695927, 8.325827, 0.009728521, 0.047961235, 10.018079
517260250853459, 5.564509, -0.008374879, 8.330612, 0.05238661, 0.036248684, 10.017928
517260260493250, 5.576473, -0.050249275, 8.415557, 0.09129062, -0.006694317, 10.095187
517260270132938, 5.601598, -0.02751746, 8.447861, 0.06762621, -0.0055594444, 10.136095
517260279772730, 5.581259, 0.0035892338, 8.419147, 0.033665657, -0.0050091743, 10.101056
517260289412417, 5.56092, 0.02632105, 8.380861, 0.011012971, 0.0024113655, 10.057994
517260299052209, 5.5465627, 0.025124637, 8.353344, 0.012471855, 0.0062127113, 10.027121
517260308692000, 5.562116, 0.086141616, 8.397611, -0.04931894, -4.4965744E-4, 10.072835
517260318331688, 5.558527, 0.12562318, 8.441878, -0.09068802, -0.024787426, 10.107893
517260327971480, 5.5262237, 0.09332009, 8.437093, -0.059663802, -0.0516057, 10.085938
517260337611271, 5.4999027, 0.076570325, 8.43111, -0.043093294, -0.071371555, 10.066354
517260347250959, 5.5429735, 0.059820566, 8.380861, -0.020072937, -0.008879185, 10.048208
517260356890750, 5.5800624, 0.043070808, 8.329415, 4.017949E-4, 0.049161434, 10.025751
517260366530438, 5.602794, 0.033499517, 8.343773, 0.010593623, 0.05912018, 10.050242
517260376170230, 5.6183476, -0.008374879, 8.331808, 0.053399384, 0.07501888, 10.048702
517260385810021, 5.6207404, -0.020338992, 8.310273, 0.06666735, 0.08693981, 10.032037
517260395449709, 5.5944195, 0.0023928226, 8.350951, 0.04088065, 0.04238844, 10.05149
517260405089500, 5.541777, 0.008374879, 8.376076, 0.029576749, -0.017678738, 10.043348
517260414729292, 5.5513487, 0.043070808, 8.373683, -0.0043265224, -0.005956173, 10.046783
517260424368980, 5.5597234, 0.08135597, 8.382058, -0.042762756, -5.259514E-4, 10.058538
517260434008771, 5.548956, 0.09332009, 8.366505, -0.05476278, 5.1403046E-4, 10.039674
517260443648459, 5.564509, 0.08135597, 8.366505, -0.041356742, 0.012804508, 10.048229
517260453288250, 5.564509, 0.104087785, 8.385647, -0.06339577, 0.0023350716, 10.064276
517260462928042, 5.5537415, 0.1052842, 8.416754, -0.06507674, -0.024158001, 10.084249
517260472567730, 5.5274205, 0.03589234, 8.456235, 0.0021018684, -0.07185125, 10.102298
517260482207521, 5.534599, -0.03708875, 8.446664, 0.07723917, -0.06071472, 10.098002
517260491847209, 5.5334024, -0.062213387, 8.414361, 0.10193469, -0.042387962, 10.070337
517260501487000, 5.5716877, -0.02871387, 8.435896, 0.06712645, -0.021160126, 10.109595
517260511126792, 5.5896335, -0.015553347, 8.411968, 0.055532426, 0.007715702, 10.09962
517260520766480, 5.601598, 0.02632105, 8.361719, 0.014295131, 0.046659946, 10.06452
517260530406271, 5.625526, 0.06580263, 8.343773, -0.024566859, 0.0765605, 10.062948
517260540046063, 5.6123657, 0.05623133, 8.311469, -0.014963448, 0.07942009, 10.028749
517260549685750, 5.5920267, 0.0849452, 8.282756, -0.04243195, 0.077167034, 9.993711
517260559325542, 5.5860443, 0.09092726, 8.283952, -0.047748536, 0.06951189, 9.991443
517260568965230, 5.582455, 0.096909314, 8.293523, -0.05182627, 0.060766697, 9.997467
517260578605021, 5.5573306, 0.083748795, 8.364112, -0.04233241, -6.6280365E-5, 10.042286
517260588244813, 5.5465627, 0.061016977, 8.46461, -0.022025958, -0.06502819, 10.11993
517260597884500, 5.5429735, 0.038285162, 8.517252, -2.7146935E-4, -0.09635496, 10.161709
517260607524292, 5.5704913, 0.02871387, 8.486146, 0.0121123195, -0.053786278, 10.151002
517260617163980, 5.576473, -0.025124637, 8.411968, 0.069921434, -0.010221481, 10.092271
517260626803771, 5.5465627, -0.013160525, 8.386844, 0.056750327, -0.024414062, 10.054842
517260636443563, 5.556134, 0.011964113, 8.335398, 0.03410405, 0.013781548, 10.017398
517260646083250, 5.558527, 0.032303106, 8.312666, 0.014224529, 0.023053646, 9.999897
517260655723042, 5.5800624, 0.020338992, 8.249256, 0.030921489, 0.07469416, 9.958976
517260665362730, 5.5836515, 0.03589234, 8.275578, 0.014183462, 0.062563896, 9.982963
517260675002521, 5.5740805, 0.03708875, 8.303095, 0.009885192, 0.037404537, 10.000582
517260684642313, 5.568098, 0.020338992, 8.364112, 0.02338782, -0.00268507, 10.047982
517260694282000, 5.611169, 0.06460621, 8.449057, -0.021897405, -0.006219864, 10.142753
517260703921792, 5.6004014, 0.09212367, 8.422736, -0.048989683, 0.0011138916, 10.114993
517260713561584, 5.5740805, 0.11964113, 8.414361, -0.07677199, -0.011041641, 10.093571
517260723201271, 5.5405807, 0.101694964, 8.458628, -0.06111768, -0.062452793, 10.111832
517260732841063, 5.5393844, 0.06699903, 8.43111, -0.023286432, -0.049884796, 10.088104
517260742480750, 5.568098, 0.05503492, 8.409575, -0.006663859, -0.013848782, 10.086004
517260752120542, 5.5716877, 0.01794617, 8.359326, 0.033659548, 0.013777256, 10.045946
517260761760334, 5.5740805, 0.014356935, 8.32463, 0.039630532, 0.03314352, 10.0183525
517260771400021, 5.5860443, 0.01794617, 8.312666, 0.036725372, 0.04377222, 10.015057
517260781039813, 5.562116, 0.011964113, 8.304291, 0.041276157, 0.024665356, 9.994808
517260790679500, 5.5573306, 0.01794617, 8.328219, 0.033665836, 0.006430149, 10.01211
517260800319292, 5.581259, 0.03708875, 8.340183, 0.015333623, 0.021640778, 10.035427
517260809958980, 5.6004014, 0.07298109, 8.322237, -0.018835992, 0.05145073, 10.031274
517260819598771, 5.578866, 0.08733802, 8.336594, -0.03501478, 0.026643753, 10.031363
517260829238563, 5.581259, 0.101694964, 8.370093, -0.049921855, 0.011501789, 10.060647
517260838878250, 5.5896335, 0.09571291, 8.4012, -0.04444155, 0.0010318756, 10.091152
517260848518042, 5.575277, 0.09571291, 8.389236, -0.044121325, -0.0042562485, 10.073242
517260858157730, 5.575277, 0.05383851, 8.328219, 5.9098005E-4, 0.027643204, 10.022228
517260867797521, 5.5465627, 0.038285162, 8.346166, 0.014434755, -0.006301403, 10.021182
517260877437313, 5.5310097, 0.01794617, 8.408379, 0.029921621, -0.055150986, 10.064258
517260887077000, 5.548956, 0.03589234, 8.43111, 0.011957049, -0.050533295, 10.093222
517260896716792, 5.556134, 0.025124637, 8.435896, 0.022885114, -0.048089504, 10.101126
517260906356480, 5.578866, 0.009571291, 8.421539, 0.039855838, -0.022393227, 10.101687
517260915996271, 5.5896335, 0.019142581, 8.353344, 0.033316076, 0.024478436, 10.050921
517260925635959, 5.6099725, 0.0849452, 8.311469, -0.028681427, 0.068954945, 10.027659
517260935275750, 5.5968122, 0.09930214, 8.300702, -0.043383658, 0.063132286, 10.011492
517260944915542, 5.5908303, 0.11365908, 8.257631, -0.056117266, 0.0832839, 9.972396
517260954555230, 5.5860443, 0.11365908, 8.273184, -0.056420237, 0.069777966, 9.982701
517260964195021, 5.576473, 0.09571291, 8.309076, -0.038674265, 0.0412035, 10.007186
517260973834709, 5.562116, 0.05383851, 8.334201, -9.569526E-5, 0.010685921, 10.019922
517260983474500, 5.572884, 0.05383851, 8.395218, -0.0019552708, -0.0098695755, 10.076681
517260993114188, 5.5776696, 0.02751746, 8.456235, 0.021470815, -0.04024601, 10.130005
517261002753980, 5.569295, 0.02751746, 8.4705925, 0.02007541, -0.05510521, 10.137323
517261012393771, 5.5716877, 0.03708875, 8.456235, 0.0113174915, -0.04250145, 10.126749
517261022033459, 5.558527, 0.02632105, 8.389236, 0.023925126, -0.016389847, 10.063616
517261031673250, 5.576473, 0.03589234, 8.336594, 0.018441677, 0.026407719, 10.02976
517261041312938, 5.5657053, 0.03708875, 8.323434, 0.017191172, 0.022962093, 10.012852
517261050952730, 5.5633125, 0.020338992, 8.30788, 0.034730464, 0.027218342, 9.998489
517261060592417, 5.5657053, 0.05742774, 8.273184, -6.3818693E-4, 0.051411152, 9.971123
517261070232209, 5.5501523, 0.061016977, 8.288737, -0.0075399876, 0.029220104, 9.975479
517261079871896, 5.5836515, 0.083748795, 8.347362, -0.031162739, 0.026719093, 10.042954
517261089511688, 5.584848, 0.09571291, 8.423932, -0.046086937, -0.013637543, 10.107423
517261099151480, 5.582455, 0.08853444, 8.455039, -0.040536046, -0.031335354, 10.131965
517261108791167, 5.5704913, 0.07537391, 8.435896, -0.027789563, -0.03148794, 10.109335
517261118430959, 5.558527, 0.04426722, 8.379665, 0.006863624, -0.011040688, 10.055735
517261128070646, 5.54417, 0.01794617, 8.356933, 0.032928556, -0.012901783, 10.028721
517261137710438, 5.564509, 0.032303106, 8.349754, 0.02063787, 0.008227348, 10.034078
517261147350125, 5.5657053, 0.031106694, 8.323434, 0.022383481, 0.02248621, 10.012821
517261156989917, 5.584848, 0.032303106, 8.316256, 0.022137493, 0.042057514, 10.017457
517261166629605, 5.5740805, 0.051445685, 8.305488, 0.0011921525, 0.042212963, 10.002618
517261176269396, 5.558527, 0.041874398, 8.313862, 0.008785903, 0.024356842, 10.00093
517261185909188, 5.5740805, 0.09571291, 8.405986, -0.048078448, -0.00961256, 10.086512
517261195548875, 5.5573306, -0.27756742, 8.403593, 0.32335776, -0.052495003, 10.073432
517261205188667, 5.6386867, 0.67477596, 8.520842, -0.63018465, 0.032012463, 10.220405
517261214828355, 5.4257255, -0.6735796, 8.353344, 0.70188725, -0.18069553, 9.957171
517261224468146, 5.697311, 0.8135597, 8.411968, -0.74564886, 0.15937996, 10.163713
517261234107834, 5.3886366, -0.62811595, 8.329415, 0.6536273, -0.20091867, 9.916828
517261243747625, 5.7140603, 0.49292147, 8.340183, -0.41903955, 0.17595959, 10.111656
517261253387313, 5.4376893, -0.24765715, 8.303095, 0.29047802, -0.11007166, 9.923443
517261263027105, 5.6877394, 0.05503492, 8.206185, 0.011046857, 0.1857872, 9.982999
517261272666792, 5.503492, 0.3074777, 8.361719, -0.2633326, -0.027523994, 10.011553
517261282306584, 5.5704913, -0.4354937, 8.316256, 0.48686552, -0.018185139, 10.007135
517261291946271, 5.636294, 0.70588267, 8.506484, -0.66236883, 0.035651207, 10.207172
517261301586063, 5.456832, -0.7393822, 8.334201, 0.7820069, -0.1490326, 9.957353
517261311225750, 5.7200427, 0.8255238, 8.425129, -0.7593354, 0.16385031, 10.187234
517261320865542, 5.3922257, -0.6089734, 8.373683, 0.624058, -0.23249388, 9.956003
517261330505230, 5.7607207, 0.6257231, 8.438289, -0.55154586, 0.18881083, 10.219701
517261340145021, 5.453243, -0.25722843, 8.38804, 0.28379422, -0.14987946, 10.003012
517261349784709, 5.710471, 0.10289137, 8.244471, -0.024183095, 0.18706656, 10.027751
517261359424500, 5.5298133, 0.2428715, 8.270791, -0.1852026, 0.040848732, 9.950269
517261369064188, 5.5465627, -0.38285163, 8.143971, 0.44986713, 0.038080692, 9.850451
517261378703980, 5.5872407, 0.6879365, 8.391629, -0.62297875, 0.08863449, 10.085336
517261388343667, 5.45085, -0.7298109, 8.356933, 0.7590737, -0.20286989, 9.973233
517261397983459, 5.6937213, 0.8147561, 8.49811, -0.75702375, 0.13622093, 10.232719
517261407623146, 5.3922257, -0.6879365, 8.410771, 0.70920163, -0.24944782, 9.986254
517261417262938, 5.7248282, 0.6113662, 8.453842, -0.538351, 0.15397501, 10.212803
517261426902625, 5.410172, -0.32542387, 8.439486, 0.3601474, -0.20638704, 10.021402
517261436542417, 5.666204, 0.17108682, 8.329415, -0.10614735, 0.11716318, 10.074191
517261446182105, 5.493921, 0.22851457, 8.364112, -0.18236534, -0.043254375, 10.007928
517261455821896, 5.5860443, -0.34217364, 8.220542, 0.40049663, 0.056904793, 9.936531
517261465461584, 5.5920267, 0.6759724, 8.355737, -0.61585164, 0.08030605, 10.057848
517261475101375, 5.4759746, -0.6580262, 8.250452, 0.71243286, -0.06759834, 9.898339
517261484741063, 5.7200427, 0.8422736, 8.394022, -0.7720408, 0.17167282, 10.161811
517261494380855, 5.410172, -0.7178468, 8.37129, 0.7653982, -0.18306541, 9.962149
517261504020542, 5.727221, 0.62452674, 8.41795, -0.5681002, 0.15624142, 10.183605
517261513660334, 5.406583, -0.3924229, 8.407183, 0.43246964, -0.18670511, 9.992195
517261523300021, 5.6913285, 0.20219351, 8.364112, -0.1456084, 0.12570667, 10.116989
517261532939813, 5.456832, 0.12801601, 8.384451, -0.08540937, -0.08704138, 10.003878
517261542579500, 5.568098, -0.30508488, 8.236095, 0.36020377, 0.04718733, 9.939722
517261552219292, 5.605187, 0.65324056, 8.384451, -0.59472644, 0.09764528, 10.088638
517261561858980, 5.474778, -0.613759, 8.267202, 0.6632925, -0.07792997, 9.91214
517261571498771, 5.6650076, 0.87936234, 8.405986, -0.8236863, 0.16044569, 10.140119
517261581138459, 5.3946185, -0.6891329, 8.323434, 0.7170665, -0.18085575, 9.915113
517261590778250, 5.7355957, 0.6975078, 8.420342, -0.6373271, 0.191185, 10.190339
517261600417938, 5.386244, -0.424726, 8.423932, 0.45948634, -0.2138009, 9.994888
517261610057730, 5.716453, 0.23928227, 8.392825, -0.17881136, 0.14831257, 10.154833
517261619697417, 5.4556355, 0.04426722, 8.423932, -0.0036520064, -0.10463762, 10.035816
517261629337105, 5.581259, -0.27517462, 8.325827, 0.32735425, 0.02920723, 10.0218525
517261638976896, 5.548956, 0.5192425, 8.486146, -0.4723654, -0.02187872, 10.141578
517261648616584, 5.4460645, -0.6652047, 8.361719, 0.70879126, -0.12967062, 9.975032
517261658256375, 5.6650076, 0.8327023, 8.445468, -0.78416795, 0.12826157, 10.172525
517261667896063, 5.383851, -0.69272214, 8.304291, 0.73570096, -0.15585613, 9.892493
517261677535855, 5.723632, 0.76331043, 8.368897, -0.7048842, 0.21275091, 10.140953
517261687175542, 5.400601, -0.40677986, 8.347362, 0.44921204, -0.15088844, 9.939106
517261696815334, 5.6877394, 0.39361933, 8.329415, -0.3259475, 0.16653204, 10.087146
517261706455021, 5.410172, 0.047856454, 8.37129, -0.010458618, -0.11587477, 9.966805
517261716094813, 5.5944195, -0.20937198, 8.23131, 0.27095288, 0.08969879, 9.950598
517261725734500, 5.5872407, 0.51206404, 8.441878, -0.46340716, 0.033014774, 10.125657
517261735374188, 5.4963136, -0.6580262, 8.367701, 0.7071358, -0.09943962, 10.007545
517261745013980, 5.6482577, 0.75254273, 8.536395, -0.70687306, 0.050866127, 10.238991
517261754653667, 5.389833, -0.75972116, 8.422736, 0.7875823, -0.2214036, 9.995031
517261764293459, 5.6745787, 0.73340017, 8.437093, -0.6698347, 0.12189293, 10.171516
517261773933146, 5.352744, -0.47736812, 8.376076, 0.5190444, -0.20381212, 9.936169
517261783572938, 5.676972, 0.4211368, 8.380861, -0.3529473, 0.13797998, 10.124257
517261793212625, 5.3994045, 0.025124637, 8.374879, 0.019878358, -0.1312995, 9.963694
517261802852313, 5.6279187, -0.08015956, 8.236095, 0.14705327, 0.12539816, 9.973757
517261812492105, 5.556134, 0.5300102, 8.422736, -0.47653335, 0.012779236, 10.092907
517261822131792, 5.5070815, -0.552742, 8.305488, 0.60336876, -0.059700966, 9.962278
517261831771584, 5.686543, 0.7956135, 8.426325, -0.7327175, 0.14290905, 10.169338
517261841411271, 5.465207, -0.7692925, 8.289934, 0.826585, -0.11421394, 9.924062
517261851050959, 5.7559347, 0.762114, 8.3784685, -0.6940881, 0.21554136, 10.167701
517261860690750, 5.428118, -0.57906306, 8.347362, 0.61931705, -0.15357876, 9.953446
517261870330438, 5.71765, 0.4031906, 8.335398, -0.33524105, 0.17796087, 10.108851
517261879970230, 5.4293146, -0.106480606, 8.367701, 0.14753836, -0.12607145, 9.973442
517261889609917, 5.636294, -0.08853444, 8.289934, 0.1537554, 0.08868122, 10.02333
517261899249709, 5.5298133, 0.424726, 8.403593, -0.37167454, -0.011968613, 10.061874
517261908889396, 5.511867, -0.52522457, 8.279166, 0.58256245, -0.048478603, 9.942806
517261918529084, 5.6386867, 0.79920274, 8.416754, -0.7412308, 0.11284256, 10.1347475
517261928168875, 5.4233327, -0.6723832, 8.286345, 0.72337914, -0.14161062, 9.898729
517261937808563, 5.716453, 0.8805587, 8.416754, -0.80493903, 0.17467642, 10.179221
517261947448355, 5.3886366, -0.4977071, 8.370093, 0.5420583, -0.20541096, 9.9502535
517261957088042, 5.736792, 0.5599205, 8.440681, -0.4943603, 0.14506674, 10.208035
517261966727730, 5.454439, -0.13399807, 8.457432, 0.17644802, -0.15803003, 10.061854
517261976367521, 5.6530433, -0.049052864, 8.313862, 0.11911175, 0.087255, 10.052751
517261986007209, 5.5310097, 0.31585258, 8.35454, -0.2589865, -0.008769989, 10.021129
517261995647000, 5.5393844, -0.5910272, 8.213364, 0.6509472, 0.015679836, 9.903002
517262005286688, 5.6685967, 0.72263247, 8.37129, -0.6647029, 0.11756086, 10.113261
517262014926375, 5.485546, -0.7262217, 8.22772, 0.77532744, -0.046996117, 9.884871
517262024566167, 5.7690954, 0.8530413, 8.348558, -0.77896154, 0.21745777, 10.151577
517262034205855, 5.413761, -0.59581286, 8.329415, 0.6471644, -0.15593147, 9.929744
517262043845542, 5.709275, 0.5515456, 8.413164, -0.48280883, 0.119906425, 10.170245
517262053485334, 5.3503513, -0.20578274, 8.441878, 0.23963627, -0.24054527, 9.990929
517262063125021, 5.6039906, 0.08733802, 8.394022, -0.032289863, 0.022681236, 10.093084
517262072764813, 5.473582, 0.32063824, 8.459825, -0.27554855, -0.10676861, 10.076915
517262082404500, 5.584848, -0.44027936, 8.32463, 0.498579, 0.008296013, 10.021735
517262092044188, 5.6674004, 0.7716853, 8.49452, -0.72089016, 0.0644536, 10.215085
517262101683980, 5.456832, -0.70348984, 8.316256, 0.74308884, -0.122724056, 9.943077
517262111323667, 5.716453, 0.78723866, 8.368897, -0.71727574, 0.17052078, 10.138662
517262120963459, 5.4460645, -0.65922266, 8.22772, 0.6987333, -0.08858299, 9.863747
517262130603146, 5.7834525, 0.5910272, 8.2660055, -0.5176025, 0.25896883, 10.089079
517262140242834, 5.4412785, -0.22731815, 8.336594, 0.26554027, -0.11685181, 9.953583
517262149882625, 5.6985073, 0.11246266, 8.285149, -0.04636711, 0.1449914, 10.055155
517262159522313, 5.4795637, 0.26919255, 8.415557, -0.2230101, -0.093691826, 10.042967
517262169162000, 5.5429735, -0.38524446, 8.361719, 0.43576437, -0.06127262, 10.0298395
517262178801792, 5.576473, 0.7106683, 8.538788, -0.6556266, -0.050048828, 10.201994
517262188441480, 5.4460645, -0.7046863, 8.383254, 0.7576714, -0.16471386, 9.991694
517262198081167, 5.656633, 0.84347, 8.452646, -0.78952587, 0.0764513, 10.17482
517262207720959, 5.395815, -0.65682983, 8.355737, 0.70795727, -0.18579721, 9.941272
517262217360646, 5.743971, 0.6376872, 8.447861, -0.5641297, 0.14612961, 10.218934
517262227000438, 5.386244, -0.32063824, 8.392825, 0.3624416, -0.18070412, 9.96945
517262236640125, 5.6997037, 0.17347965, 8.287541, -0.10645524, 0.16808748, 10.057856
517262246279813, 5.5226345, 0.22013968, 8.312666, -0.16149099, 0.008005619, 9.981093
517262255919605, 5.625526, -0.35294133, 8.147561, 0.42227632, 0.14414406, 9.897209
517262265559292, 5.649454, 0.64247286, 8.315059, -0.5812744, 0.12765789, 10.055601
517262275198980, 5.4963136, -0.7046863, 8.199007, 0.75890034, -0.026973724, 9.866767
517262284838771, 5.7020965, 0.83988076, 8.362915, -0.7667573, 0.15671873, 10.126459
517262294478459, 5.367101, -0.7178468, 8.325827, 0.76786065, -0.1984005, 9.900076
517262304118146, 5.6889358, 0.6759724, 8.469396, -0.62247896, 0.09195185, 10.2056675
517262313757938, 5.3611193, -0.3361916, 8.554341, 0.36084753, -0.3035307, 10.090046
517262323397625, 5.6889358, 0.25004998, 8.559127, -0.19843093, 0.01917696, 10.278395
517262333037417, 5.4484572, 0.13160525, 8.648857, -0.09301235, -0.24091768, 10.219542
517262342677105, 5.5669017, -0.33379877, 8.426325, 0.38462678, -0.04841757, 10.097251
517262352316792, 5.5800624, 0.61734825, 8.445468, -0.5672176, 0.016820908, 10.12532
517262361956480, 5.4843497, -0.65922266, 8.169097, 0.70977163, -0.008694649, 9.8358
517262371596271, 5.6985073, 0.8602197, 8.26122, -0.78155816, 0.238451, 10.039573
517262381235959, 5.4293146, -0.695115, 8.145168, 0.74069756, -0.06147957, 9.7852955
517262390875750, 5.791827, 0.72263247, 8.250452, -0.6343966, 0.3019657, 10.081855
517262400515438, 5.4664035, -0.3900301, 8.289934, 0.43422952, -0.0887723, 9.927753
517262410155125, 5.7607207, 0.3074777, 8.327023, -0.23104566, 0.20254517, 10.125482
517262419794917, 5.4903316, 0.096909314, 8.400003, -0.047638535, -0.08541393, 10.03512
517262429434605, 5.608776, -0.23330021, 8.328219, 0.2951932, 0.017883778, 10.039152
517262439074292, 5.554938, 0.57547385, 8.549556, -0.5294658, -0.06224394, 10.197999
517262448714084, 5.4460645, -0.66041905, 8.432307, 0.6960671, -0.21437693, 10.033401
517262458353771, 5.6578293, 0.78723866, 8.5423765, -0.72093, 0.04620886, 10.250907
517262467993459, 5.377869, -0.74895346, 8.335398, 0.799123, -0.20705557, 9.913616
517262477633250, 5.709275, 0.72741807, 8.3581295, -0.65029347, 0.17282486, 10.125737
517262487272938, 5.386244, -0.43788654, 8.321041, 0.4770897, -0.16492653, 9.909
517262496912625, 5.7056856, 0.3912265, 8.301898, -0.32688117, 0.17269659, 10.07436
517262506552417, 5.456832, 0.05742774, 8.364112, -0.0092493, -0.08916855, 9.986523
517262516192105, 5.643472, -0.16151553, 8.270791, 0.2258795, 0.10188532, 10.010966
517262525831792, 5.5896335, 0.5347959, 8.429914, -0.47680604, 0.011025429, 10.117608
517262535471584, 5.5477595, -0.6125626, 8.35454, 0.6724823, -0.043765068, 10.024823
517262545111271, 5.703293, 0.7920243, 8.529217, -0.7258529, 0.074542046, 10.264988
517262554750959, 5.4460645, -0.75493556, 8.37129, 0.7942292, -0.16758251, 9.982443
517262564390750, 5.7427745, 0.7573284, 8.400003, -0.69439316, 0.1765213, 10.178395
517262574030438, 5.3706903, -0.4833502, 8.318648, 0.5210186, -0.18084526, 9.898167
517262583670125, 5.703293, 0.42951167, 8.30788, -0.35984173, 0.17413998, 10.078348
517262593309917, 5.460421, 0.019142581, 8.312666, 0.031499624, -0.0635252, 9.945449
517262602949605, 5.645865, -0.069391854, 8.233703, 0.144521, 0.121797085, 9.981922
517262612589292, 5.576473, 0.5276174, 8.414361, -0.464383, 0.027771473, 10.097549
517262622229084, 5.5405807, -0.58504516, 8.305488, 0.6513679, -0.047873497, 9.979722
517262631868771, 5.6685967, 0.7716853, 8.480164, -0.7089039, 0.083714485, 10.204514
517262641508459, 5.407779, -0.7704889, 8.366505, 0.8108511, -0.21312284, 9.956567
517262651148250, 5.690132, 0.7513463, 8.502895, -0.691133, 0.08363247, 10.235071
517262660787938, 5.3623157, -0.59940207, 8.516056, 0.6283206, -0.31698513, 10.05692
517262670427625, 5.6877394, 0.41874397, 8.510074, -0.34928083, 0.042583942, 10.238323
517262680067417, 5.430511, -0.069391854, 8.422736, 0.11369902, -0.15735435, 10.019982
517262689707105, 5.672186, -0.02871387, 8.248059, 0.1033397, 0.14285994, 10.008692
517262699346792, 5.588437, 0.47138608, 8.350951, -0.40534842, 0.05198574, 10.051081
517262708986584, 5.5537415, -0.50488555, 8.222935, 0.57784414, 0.008477688, 9.918753
517262718626271, 5.669793, 0.8350951, 8.370093, -0.76426345, 0.14477825, 10.114215
517262728265959, 5.4412785, -0.6771688, 8.238488, 0.74095654, -0.11397982, 9.867966
517262737905750, 5.751149, 0.84347, 8.3784685, -0.7674434, 0.20821285, 10.166296
517262747545438, 5.42094, -0.59940207, 8.350951, 0.6591174, -0.17714357, 9.950802
517262757185125, 5.76431, 0.47018966, 8.408379, -0.38494414, 0.16108894, 10.196816
517262766824917, 5.4484572, -0.16749759, 8.437093, 0.22482121, -0.16217995, 10.040987
517262776464605, 5.7020965, -0.01794617, 8.313862, 0.09583038, 0.12746859, 10.080134
517262786104292, 5.5597234, 0.357727, 8.377272, -0.29487094, 0.0068793297, 10.056349
517262795744084, 5.5657053, -0.45583272, 8.2660055, 0.5257123, 0.017387867, 9.9616785
517262805383771, 5.578866, 0.7704889, 8.476574, -0.71331525, -0.005279064, 10.15189
517262815023459, 5.359923, -0.76331043, 8.356933, 0.8056905, -0.23414183, 9.921985
517262824663250, 5.672186, 0.81595254, 8.429914, -0.73672986, 0.1215868, 10.165892
517262834302938, 5.3922257, -0.58624154, 8.344969, 0.62697995, -0.18657255, 9.931283
517262843942625, 5.759524, 0.61734825, 8.427522, -0.54245186, 0.19564724, 10.209987
517262853582417, 5.447261, -0.1591227, 8.4705925, 0.19803286, -0.1720891, 10.0687685
517262863222105, 5.6889358, 0.086141616, 8.368897, -0.014067203, 0.10710716, 10.1192
517262872861792, 5.523831, 0.31345975, 8.40479, -0.25622064, -0.030911446, 10.059069
517262882501584, 5.554938, -0.485743, 8.215756, 0.55096245, 0.022418499, 9.914024
517262892141271, 5.625526, 0.69152576, 8.4012, -0.6178636, 0.09750986, 10.115022
517262901780959, 5.487939, -0.74536425, 8.286345, 0.7958884, -0.09643841, 9.934476
517262911420750, 5.761917, 0.81236327, 8.420342, -0.73183703, 0.18710566, 10.207409
517262921060438, 5.406583, -0.65682983, 8.3581295, 0.7110896, -0.18347454, 9.94895
517262930700125, 5.753542, 0.61854464, 8.425129, -0.554075, 0.15739727, 10.204747
517262940339917, 5.410172, -0.20817557, 8.403593, 0.24807045, -0.17658806, 9.992045
517262949979605, 5.65424, 0.18664017, 8.298309, -0.116968066, 0.11787081, 10.041895
517262959619292, 5.4999027, 0.32303107, 8.380861, -0.26841116, -0.04351616, 10.025877
517262969259084, 5.576473, -0.37088752, 8.263613, 0.4400391, 0.030628681, 9.9663105
517262978898771, 5.6171513, 0.70348984, 8.445468, -0.63438666, 0.05293703, 10.147315
517262988538459, 5.4436717, -0.75254273, 8.325827, 0.7994435, -0.15400314, 9.942657
517262998178250, 5.676972, 0.782453, 8.428718, -0.72037536, 0.12133312, 10.166113
517263007817938, 5.363512, -0.7573284, 8.394022, 0.8011394, -0.25855303, 9.954483
517263017457625, 5.753542, 0.6089734, 8.482556, -0.5318958, 0.1420865, 10.2530365
517263027097417, 5.424529, -0.34576288, 8.444271, 0.3797857, -0.19367981, 10.033396
517263036737105, 5.6997037, 0.17706887, 8.347362, -0.110978484, 0.13635302, 10.107697
517263046376792, 5.51426, 0.22731815, 8.370093, -0.17740893, -0.023187637, 10.02423
517263056016584, 5.6374903, -0.31226337, 8.236095, 0.37893277, 0.09181929, 9.977978
517263065656271, 5.6279187, 0.695115, 8.386844, -0.63566005, 0.09719086, 10.103579
517263075295959, 5.45085, -0.6233303, 8.267202, 0.6784637, -0.11406469, 9.898163
517263084935750, 5.7116675, 0.89730847, 8.3784685, -0.8183167, 0.18886995, 10.145035
517263094575438, 5.3910294, -0.67118675, 8.295917, 0.7103527, -0.17345667, 9.889451
517263104215125, 5.7320065, 0.6867401, 8.4347, -0.6107144, 0.1408143, 10.201906
517263113854917, 5.3814583, -0.357727, 8.482556, 0.4033927, -0.24941874, 10.04076
517263123494605, 5.7009, 0.21535404, 8.420342, -0.14447734, 0.093587875, 10.169522
517263133134292, 5.4676, 0.09092726, 8.449057, -0.039037168, -0.12329006, 10.063438
517263142774084, 5.584848, -0.3493521, 8.374879, 0.40870458, -0.019937515, 10.063983
517263152413771, 5.5716877, 0.5587241, 8.504091, -0.508977, -0.031942844, 10.169334
517263162053459, 5.456832, -0.6975078, 8.303095, 0.74321795, -0.117100716, 9.931708
517263171693250, 5.692525, 0.86859465, 8.38804, -0.8083459, 0.15658522, 10.141034
517263181332938, 5.4388857, -0.67836523, 8.2660055, 0.721618, -0.10623312, 9.891234
517263190972625, 5.7547383, 0.75254273, 8.355737, -0.67285585, 0.21546698, 10.149015
517263200612417, 5.4233327, -0.39601216, 8.376076, 0.43503523, -0.16320086, 9.975575
517263210252105, 5.729614, 0.33020952, 8.367701, -0.2538146, 0.15577507, 10.142349
517263219891792, 5.4687963, 0.13758731, 8.41795, -0.08624601, -0.102276325, 10.038458
517263229531584, 5.6004014, -0.22731815, 8.310273, 0.29299536, 0.040936947, 10.019445
517263239171271, 5.5501523, 0.52283174, 8.457432, -0.46913618, -0.025954247, 10.118545
517263248811063, 5.49751, -0.65922266, 8.379665, 0.7074492, -0.12521267, 10.017975
517263258450750, 5.7009, 0.8063812, 8.548359, -0.7364411, 0.07761574, 10.279911
517263268090438, 5.410172, -0.7692925, 8.40479, 0.80622774, -0.21606588, 9.990274
517263277730230, 5.749953, 0.71425754, 8.4012, -0.63394773, 0.18925905, 10.184037
517263287369917, 5.3850474, -0.44865423, 8.353344, 0.49625367, -0.19482708, 9.934495
517263297009605, 5.716453, 0.38404804, 8.293523, -0.30273378, 0.19060135, 10.073723
517263306649396, 5.4556355, 0.05383851, 8.30788, 0.0014413595, -0.06612158, 9.938983
517263316289084, 5.645865, -0.18185452, 8.176275, 0.2593426, 0.13813114, 9.933479
517263325928771, 5.601598, 0.5587241, 8.353344, -0.49213597, 0.076675415, 10.060832
517263335568563, 5.5740805, -0.52283174, 8.319844, 0.5787014, -0.028973103, 10.011383
517263345208250, 5.723632, 0.8530413, 8.518449, -0.7806437, 0.113447666, 10.2678795
517263354847938, 5.424529, -0.7537391, 8.411968, 0.78999436, -0.22068262, 10.004102
517263364487730, 5.7343993, 0.74416786, 8.5220375, -0.68414253, 0.10200977, 10.275396
517263374127417, 5.3587265, -0.5347959, 8.476574, 0.5669442, -0.28596163, 10.02253
517263383767105, 5.690132, 0.3684947, 8.435896, -0.3049077, 0.08643532, 10.177294
517263393406896, 5.3970113, -0.047856454, 8.41795, 0.09524712, -0.18583965, 9.997414
517263403046584, 5.6147585, -0.13998012, 8.283952, 0.20724091, 0.060510635, 10.006117
517263412686375, 5.5657053, 0.43429732, 8.415557, -0.37420774, -0.0030241013, 10.09194
517263422326063, 5.5716877, -0.58624154, 8.282756, 0.65294707, -0.0033421516, 9.9782295
517263431965750, 5.7320065, 0.8003992, 8.390432, -0.72346246, 0.17164087, 10.165777
517263441605542, 5.5022955, -0.6879365, 8.238488, 0.7532692, -0.046809196, 9.9021015
517263451245230, 5.7631135, 0.8327023, 8.331808, -0.76035786, 0.23869562, 10.133646
517263460884917, 5.4089756, -0.5072784, 8.327023, 0.56159604, -0.16649628, 9.925248
517263470524709, 5.7224355, 0.51565325, 8.428718, -0.4517588, 0.11525583, 10.190098
517263480164396, 5.440082, -0.062213387, 8.4705925, 0.1071803, -0.1809411, 10.065041
517263489804084, 5.6685967, -0.07178468, 8.34138, 0.14107132, 0.07540274, 10.084205
517263499443875, 5.54417, 0.38285163, 8.43111, -0.32808432, -0.042026997, 10.092502
517263509083563, 5.5250273, -0.55752766, 8.27797, 0.61921906, -0.054668903, 9.948626
517263518723355, 5.663811, 0.7501499, 8.444271, -0.6789715, 0.09171963, 10.172403
517263528363042, 5.4173503, -0.7573284, 8.348558, 0.80497456, -0.20850325, 9.946265
517263538002730, 5.7224355, 0.81236327, 8.475378, -0.7351519, 0.13863707, 10.231256
517263547642521, 5.42094, -0.55393845, 8.391629, 0.58554196, -0.20898294, 9.986309
517263557282209, 5.770292, 0.5587241, 8.370093, -0.47571445, 0.20864391, 10.168435
517263566921896, 5.460421, -0.1268196, 8.380861, 0.17079878, -0.11622906, 10.001421
517263576561688, 5.704489, 0.02751746, 8.282756, 0.045573145, 0.14756775, 10.05595
517263586201375, 5.575277, 0.39960137, 8.403593, -0.34026873, 0.003144741, 10.087021
517263595841167, 5.582455, -0.46181476, 8.273184, 0.52267545, 0.00817585, 9.977446
517263605480855, 5.643472, 0.73340017, 8.426325, -0.67252547, 0.064250946, 10.1456
517263615120542, 5.4484572, -0.7429714, 8.282756, 0.7909717, -0.13514757, 9.909483
517263624760334, 5.7379885, 0.83389866, 8.405986, -0.7531944, 0.16062355, 10.182701
517263634400021, 5.4029937, -0.6113662, 8.364112, 0.65150744, -0.21039009, 9.952677
517263644039813, 5.7379885, 0.5479564, 8.400003, -0.46393618, 0.15332222, 10.175759
517263653679500, 5.4173503, -0.18783657, 8.428718, 0.22683406, -0.19680548, 10.0167885
517263663319188, 5.680561, 0.08015956, 8.389236, -0.0053474903, 0.07006788, 10.131613
517263672958980, 5.511867, 0.30269206, 8.476574, -0.25147456, -0.09216738, 10.112016
517263682598667, 5.5776696, -0.46660042, 8.330612, 0.5319927, -0.036077023, 10.022121
517263692238459, 5.6578293, 0.70229346, 8.475378, -0.64117837, 0.058220387, 10.194203
517263701878146, 5.4963136, -0.7393822, 8.293523, 0.80247426, -0.098988056, 9.94409
517263711517834, 5.7343993, 0.84107715, 8.35454, -0.75751776, 0.19618607, 10.137888
517263721157625, 5.4029937, -0.6305088, 8.262417, 0.6770634, -0.14166069, 9.868076
517263730797313, 5.7403817, 0.65682983, 8.289934, -0.5741422, 0.21151114, 10.08623
517263740437000, 5.447261, -0.19980069, 8.344969, 0.25060564, -0.11549139, 9.963681
517263750076792, 5.7343993, 0.1591227, 8.315059, -0.08503544, 0.16369486, 10.100239
517263759716480, 5.511867, 0.2632105, 8.422736, -0.20721081, -0.07156706, 10.066995
517263769356271, 5.6327047, -0.38883367, 8.3581295, 0.45411548, 0.012828827, 10.076235
517263778995959, 5.629115, 0.6795616, 8.551949, -0.623163, -0.01204586, 10.241879
517263788635646, 5.4699926, -0.73459655, 8.395218, 0.78009117, -0.18118572, 10.014929
517263798275438, 5.666204, 0.80877405, 8.410771, -0.7323625, 0.102442265, 10.146637
517263807915125, 5.3886366, -0.67118675, 8.316256, 0.7134093, -0.19449806, 9.904607
517263817554917, 5.7583275, 0.6520442, 8.405986, -0.5670033, 0.1766262, 10.192713
517263827194605, 5.428118, -0.3361916, 8.416754, 0.38623446, -0.20079803, 10.01148
517263836834396, 5.721239, 0.21415763, 8.338987, -0.14177361, 0.13825464, 10.1132555
517263846474084, 5.5046883, 0.23330021, 8.347362, -0.17557529, -0.042635918, 10.000091
517263856113771, 5.6207404, -0.32183465, 8.274381, 0.3930465, 0.04031372, 10.0002775
517263865753563, 5.639883, 0.6412765, 8.452646, -0.57253, 0.049217224, 10.165458
517263875393250, 5.508278, -0.68075806, 8.315059, 0.7304276, -0.116399765, 9.969839
517263885033042, 5.741578, 0.8554341, 8.429914, -0.78426707, 0.1812892, 10.203579
517263894672730, 5.42094, -0.67477596, 8.311469, 0.7155812, -0.17661333, 9.918629
517263904312417, 5.7284174, 0.71665037, 8.384451, -0.63453317, 0.16670656, 10.158588
517263913952209, 5.424529, -0.30269206, 8.374879, 0.34342363, -0.1735239, 9.975355
517263923591896, 5.7284174, 0.27038896, 8.340183, -0.19078317, 0.14735079, 10.118715
517263933231688, 5.5046883, 0.13040884, 8.439486, -0.07332906, -0.1071105, 10.076044
517263942871375, 5.631508, -0.2835495, 8.306684, 0.35381627, 0.035782337, 10.033385
517263952511167, 5.615955, 0.5778667, 8.433503, -0.5086936, 0.030002117, 10.135936
517263962150855, 5.487939, -0.6879365, 8.288737, 0.74361396, -0.10080576, 9.936336
517263971790542, 5.723632, 0.80159557, 8.452646, -0.7228353, 0.11663008, 10.2134075
517263981430334, 5.4341, -0.73818576, 8.32463, 0.7820875, -0.18146229, 9.936257
517263991070021, 5.7858453, 0.73818576, 8.409575, -0.6642442, 0.20090199, 10.210793
517264000709813, 5.428118, -0.37088752, 8.403593, 0.42283654, -0.19676876, 10.000244
517264010349500, 5.7152567, 0.34217364, 8.3581295, -0.26196286, 0.1317954, 10.126873
517264019989292, 5.4628143, 0.101694964, 8.415557, -0.054421782, -0.12755251, 10.0327
517264029628980, 5.639883, -0.20817557, 8.29472, 0.28137144, 0.04939413, 10.02858
517264039268667, 5.608776, 0.57547385, 8.392825, -0.5085633, 0.051315784, 10.09791
517264048908459, 5.5190454, -0.6041877, 8.254042, 0.66279405, -0.07868719, 9.925152
517264058548146, 5.709275, 0.8650054, 8.427522, -0.7915815, 0.1448946, 10.18428
517264068187938, 5.453243, -0.701097, 8.327023, 0.7469101, -0.18032455, 9.948783
517264077827625, 5.759524, 0.7692925, 8.415557, -0.6762287, 0.18719864, 10.202607
517264087467417, 5.419743, -0.46181476, 8.415557, 0.5000453, -0.23186588, 10.005234
517264097107105, 5.7487564, 0.36011982, 8.40479, -0.28082183, 0.13707638, 10.184338
517264106746896, 5.4795637, 0.021535404, 8.419147, 0.031142265, -0.12851238, 10.044434
517264116386584, 5.6793647, -0.16510476, 8.295917, 0.24613252, 0.0820322, 10.051734
517264126026271, 5.5968122, 0.5204389, 8.43111, -0.44984895, 0.0072784424, 10.123061
517264135666063, 5.528617, -0.57547385, 8.300702, 0.6379573, -0.08029032, 9.969202
517264145306143, 5.697311, 0.81236327, 8.41795, -0.7390375, 0.11347437, 10.169666
517264154945935, 5.4484572, -0.73459655, 8.306684, 0.7888757, -0.16033697, 9.928659
517264164585623, 5.7690954, 0.8063812, 8.383254, -0.71398866, 0.18765593, 10.1816845
517264174225414, 5.4257255, -0.50368917, 8.342576, 0.5546601, -0.17963886, 9.947404
517264183865102, 5.6578293, 0.37208393, 8.360522, -0.29106924, 0.07035828, 10.097431
517264193504893, 5.5740805, 0.0023928226, 8.407183, 0.061590344, -0.04798937, 10.086874
517264203144581, 5.5968122, 0.10289137, 8.427522, -0.035049364, -0.035479546, 10.11709
517264212784268, 5.6004014, 0.06819545, 8.372486, 0.0023910403, -0.0030498505, 10.073116
517264222424060, 5.6303115, 0.09810573, 8.316256, -0.023268819, 0.055039883, 10.043236
517264232063748, 5.6075797, 0.062213387, 8.3581295, 0.009439528, 0.010363579, 10.065136
517264241703539, 5.578866, 0.05623133, 8.383254, 0.013611674, -0.029401302, 10.069996
517264251343227, 5.5896335, 0.0526421, 8.355737, 0.018767685, -0.00579834, 10.053096
517264260983018, 5.5896335, 0.061016977, 8.293523, 0.012037069, 0.031532764, 10.001455
517264270622706, 5.605187, 0.050249275, 8.311469, 0.023846716, 0.03322363, 10.024943
517264280262498, 5.629115, 0.029910283, 8.336594, 0.04265818, 0.038020134, 10.058994
517264289902185, 5.6147585, 0.07298109, 8.37129, -0.0028918982, 0.010579109, 10.080139
517264299541977, 5.6386867, 0.12801601, 8.37129, -0.057719022, 0.036073685, 10.093812
517264309181664, 5.6267223, 0.124426775, 8.367701, -0.054504573, 0.03150034, 10.084143
517264318821456, 5.599205, 0.083748795, 8.423932, -0.01792577, -0.025553703, 10.115324
517264328461143, 5.5716877, 0.050249275, 8.452646, 0.014479637, -0.06624985, 10.123678
517264338100935, 5.595616, 0.046660043, 8.389236, 0.021382213, -0.010383129, 10.084236
517264347740623, 5.6267223, 0.05623133, 8.288737, 0.016177535, 0.07125378, 10.018034
517264357380414, 5.5896335, 0.11964113, 8.323434, -0.050388753, 0.024882317, 10.026701
517264367020102, 5.4999027, 0.04426722, 8.392825, 0.01760514, -0.09514809, 10.033994
517264376659893, 5.5465627, -0.0035892338, 8.366505, 0.0677198, -0.045550823, 10.037735
517264386299581, 5.6327047, 0.046660043, 8.376076, 0.020579815, 0.025706768, 10.093915
517264395939268, 5.662615, 0.07178468, 8.38804, -0.004595995, 0.045600414, 10.120646
517264405579060, 5.6171513, 0.10289137, 8.349754, -0.036427557, 0.029195309, 10.063757
517264415218748, 5.611169, 0.11246266, 8.366505, -0.046943724, 0.015598297, 10.074414
517264424858539, 5.582455, 0.11006984, 8.372486, -0.045482278, -0.012227058, 10.063411
517264434498227, 5.5800624, 0.09332009, 8.400003, -0.028978765, -0.030251026, 10.0848465
517264444138018, 5.584848, 0.08015956, 8.405986, -0.015088379, -0.029815674, 10.092396
517264453777706, 5.5836515, 0.051445685, 8.427522, 0.013373882, -0.043190956, 10.109444
517264463417498, 5.5920267, 0.049052864, 8.420342, 0.016530186, -0.032507896, 10.108116
517264473057185, 5.575277, 0.016749758, 8.400003, 0.04869923, -0.034537315, 10.081692
517264482696977, 5.575277, 0.0023928226, 8.342576, 0.065297395, -0.0038909912, 10.033844
517264492336664, 5.5896335, 0.02632105, 8.270791, 0.045715272, 0.05151701, 9.982281
517264501976456, 5.6207404, 0.06580263, 8.2660055, 0.008385181, 0.08497763, 9.995831
517264511616143, 5.6243296, 0.09332009, 8.312666, -0.021291554, 0.06501818, 10.036808
517264521255935, 5.615955, 0.1160519, 8.3581295, -0.04676771, 0.03510046, 10.07012
517264530895623, 5.5872407, 0.09092726, 8.391629, -0.026239634, -0.008200169, 10.081876
517264540535414, 5.5836515, 0.08973085, 8.459825, -0.029635012, -0.04726696, 10.136604
517264550175102, 5.5716877, 0.069391854, 8.487342, -0.0130111575, -0.07355785, 10.152729
517264559814893, 5.6075797, 0.07298109, 8.444271, -0.008725703, -0.018481731, 10.136843
517264569454581, 5.578866, 0.03589234, 8.350951, 0.031623006, 0.004245758, 10.043028
517264579094373, 5.575277, 0.019142581, 8.352147, 0.047851145, -0.0010476112, 10.04192
517264588734164, 5.593223, 0.06580263, 8.347362, 0.0034759939, 0.018793583, 10.048212
517264598373852, 5.6004014, 0.083748795, 8.340183, -0.013426453, 0.027525902, 10.046355
517264608013643, 5.5860443, 0.0741775, 8.328219, -0.0046870112, 0.021301746, 10.028368
517264617653331, 5.5633125, 0.041874398, 8.335398, 0.026178718, -0.0034184456, 10.021494
517264627293123, 5.5800624, 0.046660043, 8.356933, 0.020859003, 9.226799E-4, 10.04874
517264636932810, 5.595616, 0.05742774, 8.4012, 0.008491248, -0.008672237, 10.094268
517264646572602, 5.601598, 0.07178468, 8.400003, -0.006784156, -0.0012154579, 10.096685
517264656212289, 5.5716877, 0.09332009, 8.389236, -0.029555082, -0.018808842, 10.071269
517264665852081, 5.568098, 0.08973085, 8.376076, -0.026602134, -0.01375103, 10.058306
517264675491768, 5.581259, 0.09810573, 8.414361, -0.03472078, -0.022435665, 10.097516
517264685131560, 5.5860443, 0.08973085, 8.420342, -0.026316628, -0.022260666, 10.105094
517264694771248, 5.6004014, 0.09212367, 8.397611, -0.026044697, 0.0033597946, 10.094166
517264704411039, 5.575277, 0.09930214, 8.396415, -0.033625335, -0.015308857, 10.079287
517264714050727, 5.558527, 0.059820566, 8.402397, 0.0066795647, -0.035062313, 10.074712
517264723690518, 5.548956, 0.06580263, 8.389236, 4.7263503E-4, -0.035247803, 10.058494
517264733330206, 5.572884, 0.03708875, 8.346166, 0.03326884, 0.008568287, 10.035722
517264742969998, 5.5920267, 0.0526421, 8.319844, 0.02019453, 0.040299416, 10.024535
517264752609685, 5.633901, 0.05623133, 8.338987, 0.018341422, 0.06492567, 10.0637045
517264762249477, 5.6207404, 0.0526421, 8.372486, 0.018627554, 0.030439854, 10.084282
517264771889268, 5.615955, 0.061016977, 8.394022, 0.008953452, 0.015322208, 10.099604
517264781528956, 5.582455, 0.046660043, 8.391629, 0.020093232, -0.014073849, 10.07893
517264791168748, 5.5776696, 0.07058827, 8.390432, -0.004234761, -0.017837524, 10.075436
517264800808435, 5.5704913, 0.09092726, 8.367701, -0.02397108, -0.009197712, 10.052681
517264810448227, 5.575277, 0.104087785, 8.365308, -0.035426766, -0.004799843, 10.05344
517264820087914, 5.5776696, 0.09810573, 8.350951, -0.028632313, 0.0045804977, 10.042788
517264829727706, 5.578866, 0.104087785, 8.365308, -0.034158498, -0.002192974, 10.055437
517264839367393, 5.5980086, 0.08853444, 8.391629, -0.018324733, -0.0022873878, 10.087848
517264849007185, 5.588437, 0.059820566, 8.377272, 0.01058653, -0.004298687, 10.070391
517264858646873, 5.6039906, 0.062213387, 8.379665, 0.009870946, 0.008115292, 10.081033
517264868286664, 5.6039906, 0.059820566, 8.383254, 0.012090981, 0.006032467, 10.084
517264877926352, 5.6039906, 0.05383851, 8.359326, 0.018985897, 0.01726532, 10.064059
517264887566143, 5.6243296, 0.059820566, 8.334201, 0.01425305, 0.0469985, 10.054509
517264897205935, 5.581259, 0.06699903, 8.348558, 0.004539445, 0.0036988258, 10.042576
517264906845623, 5.5633125, 0.076570325, 8.356933, -0.0068427473, -0.019771576, 10.039631
517264916485414, 5.581259, 0.06819545, 8.386844, 0.0017201304, -0.02191925, 10.07441
517264926125102, 5.564509, 0.05503492, 8.405986, 0.01317288, -0.04834318, 10.080916
517264935764893, 5.584848, 0.059820566, 8.355737, 0.010615557, -0.004122734, 10.050489
517264945404581, 5.6470613, 0.104087785, 8.29472, -0.028841734, 0.08439636, 10.034668
517264955044373, 5.6410794, 0.104087785, 8.30788, -0.029314965, 0.07201624, 10.042282
517264964684060, 5.6147585, 0.11006984, 8.349754, -0.037457287, 0.025021553, 10.062506
517264974323852, 5.605187, 0.09332009, 8.346166, -0.020487875, 0.018917084, 10.054079
517264983963643, 5.605187, 0.07537391, 8.335398, -0.0020801425, 0.023545742, 10.045003
517264993603331, 5.602794, 0.047856454, 8.359326, 0.024757206, 0.007725239, 10.063362
517265003243123, 5.572884, 0.034695927, 8.368897, 0.03488797, -0.020623207, 10.054605
517265012882810, 5.564509, 0.05383851, 8.437093, 0.012686521, -0.063688755, 10.106779
517265022522602, 5.5633125, 0.06460621, 8.471788, -2.7170777E-4, -0.0820632, 10.135042
517265032162289, 5.595616, 0.05503492, 8.407183, 0.01316461, -0.018136978, 10.099216
517265041802081, 5.5740805, 0.06580263, 8.400003, 0.0013217628, -0.03246975, 10.081353
517265051441873, 5.576473, 0.07058827, 8.346166, -0.0012369454, -0.0014157295, 10.037953
517265061081560, 5.5968122, 0.083748795, 8.30788, -0.011830866, 0.035705566, 10.017524
517265070721352, 5.645865, 0.10887343, 8.306684, -0.033773825, 0.077059746, 10.04398
517265080361039, 5.623133, 0.11724831, 8.298309, -0.04332079, 0.06325674, 10.024442
517265090000831, 5.6075797, 0.13399807, 8.329415, -0.060679078, 0.03375101, 10.041776
517265099640518, 5.6063833, 0.106480606, 8.325827, -0.031368613, 0.034950733, 10.03793
517265109280310, 5.595616, 0.086141616, 8.343773, -0.011805326, 0.016392708, 10.046715
517265118920102, 5.6039906, 0.086141616, 8.408379, -0.013387322, -0.012594223, 10.10508
517265128559789, 5.5704913, 0.040677983, 8.445468, 0.028763413, -0.062060833, 10.116981
517265138199581, 5.578866, 0.0071784677, 8.443074, 0.062537596, -0.055952072, 10.119402
517265147839268, 5.5716877, -0.019142581, 8.449057, 0.08682406, -0.06594849, 10.120214
