timestamp_acc,device_acc_x,device_acc_y,device_acc_z,earth_acc_x,earth_acc_y,earth_acc_z
1464749450976016, -0.6556334, 4.5559344, 8.803194, -0.016001761, -0.017608643, 9.933884
1464749453385547, -0.63888365, 4.587041, 8.807981, 0.007762134, 0.0024147034, 9.951359
1464749455795027, -0.634098, 4.5918264, 8.819944, 0.012591064, 8.029938E-4, 9.963844
1464749458204558, -0.6269195, 4.57747, 8.815159, 0.015504777, -0.010055065, 9.952536
1464749460614037, -0.6221339, 4.57747, 8.812766, 0.020269156, -0.010231495, 9.950107
1464749463023516, -0.6436693, 4.57747, 8.827123, -0.0014147162, -0.011088848, 9.964212
1464749465433047, -0.6652047, 4.5894337, 8.834301, -0.020059407, 0.0026288033, 9.977468
1464749467842527, -0.67477596, 4.5918264, 8.82473, -0.027974367, 0.011611462, 9.970714
1464749470252058, -0.64845496, 4.5894337, 8.82473, -0.0039099455, 0.0037231445, 9.967909
1464749472661537, -0.63888365, 4.584648, 8.822337, 0.004137039, -0.0018525124, 9.96297
1464749475071016, -0.6556334, 4.599005, 8.831908, -0.009094715, 0.011345863, 9.979133
1464749477480547, -0.64845496, 4.5798626, 8.836694, -0.008579731, -0.008178234, 9.9741
1464749479890027, -0.6580262, 4.5918264, 8.841479, -0.014847815, 0.0023007393, 9.984459
1464749482299558, -0.6436693, 4.587041, 8.827123, -0.0013412237, 9.560585E-4, 9.968619
1464749484709037, -0.6412765, 4.587041, 8.829515, -9.2089176E-5, -5.38826E-5, 9.970585
1464749487118516, -0.65324056, 4.5966125, 8.82473, -0.008665502, 0.013484478, 9.971519
1464749489528047, -0.63888365, 4.5942197, 8.812766, 0.0053191185, 0.013061523, 9.9589
1464749491937527, -0.634098, 4.5822554, 8.805588, 0.006098926, 0.00563097, 9.94673
1464749494347058, -0.6221339, 4.5918264, 8.807981, 0.018804371, 0.009948254, 9.952486
1464749496756537, -0.61016977, 4.5942197, 8.822337, 0.0299716, 0.0022010803, 9.965534
1464749499166016, -0.60059845, 4.5798626, 8.815159, 0.034619987, -0.009105206, 9.951965
1464749501575547, -0.60059845, 4.5798626, 8.807981, 0.035134852, -0.0058112144, 9.945608
1464749503985027, -0.6149554, 4.5822554, 8.819944, 0.020007193, -0.004975319, 9.958225
1464749506394558, -0.6029913, 4.584648, 8.836694, 0.029791772, -0.013862133, 9.9734
1464749508804037, -0.6197411, 4.584648, 8.846265, 0.013029814, -0.013515472, 9.982943
1464749511213568, -0.6269195, 4.584648, 8.841479, 0.0057218075, -0.00904274, 9.979164
1464749513623047, -0.64606214, 4.584648, 8.860622, -0.014062226, -0.012401581, 9.997335
1464749516032527, -0.6580262, 4.5822554, 8.867801, -0.027207196, -0.01427412, 10.003349
1464749518442058, -0.64606214, 4.57747, 8.867801, -0.017093897, -0.021689415, 10.000387
1464749520851537, -0.6580262, 4.587041, 8.872586, -0.02607584, -0.012764931, 10.00979
1464749523261068, -0.65324056, 4.5655055, 8.872586, -0.027237654, -0.03255844, 9.999577
1464749525670547, -0.6412765, 4.584648, 8.891729, -0.011655569, -0.028948307, 10.024576
1464749528080079, -0.65084773, 4.5726843, 8.886943, -0.023921013, -0.03415203, 10.015442
1464749530489558, -0.66759753, 4.5678983, 8.886943, -0.041294456, -0.033573627, 10.014306
1464749532899037, -0.6652047, 4.5798626, 8.882157, -0.034905136, -0.022742271, 10.015419
1464749535308568, -0.6628119, 4.5894337, 8.874979, -0.02946806, -0.012024879, 10.013314
1464749537718047, -0.6628119, 4.584648, 8.855837, -0.027613044, -0.010163784, 9.9941635
1464749540127579, -0.6771688, 4.587041, 8.843872, -0.04001516, 0.0011348724, 9.985589
1464749542537058, -0.6771688, 4.587041, 8.82473, -0.038742125, 0.009939194, 9.968639
1464749544946537, -0.6580262, 4.5966125, 8.810373, -0.015877247, 0.01804161, 9.959114
1464749547356068, -0.6556334, 4.5798626, 8.803194, -0.016751468, 0.004691124, 9.944896
1464749549765547, -0.65324056, 4.599005, 8.786445, -0.008595347, 0.028104305, 9.93873
1464749552175079, -0.6556334, 4.599005, 8.772088, -0.010029972, 0.035323143, 9.926173
1464749554584558, -0.6364908, 4.599005, 8.755338, 0.009480655, 0.038236618, 9.910116
1464749556994037, -0.6221339, 4.5918264, 8.755338, 0.022052407, 0.02701044, 9.9058895
1464749559403568, -0.63170516, 4.5918264, 8.743374, 0.013458788, 0.03496027, 9.895914
1464749561813047, -0.61734825, 4.615755, 8.740981, 0.033798754, 0.051297665, 9.903905
1464749564222579, -0.62931234, 4.610969, 8.743374, 0.02089715, 0.049094677, 9.904587
1464749566632058, -0.63170516, 4.6061835, 8.73141, 0.018650353, 0.049635887, 9.89195
1464749569041589, -0.6125626, 4.615755, 8.7266245, 0.039881825, 0.05502653, 9.890893
1464749571451068, -0.59342, 4.5966125, 8.743374, 0.052174687, 0.024903774, 9.895667
1464749573860547, -0.60777694, 4.5966125, 8.743374, 0.03807473, 0.027631283, 9.896596
1464749576270079, -0.61734825, 4.599005, 8.745767, 0.029312372, 0.031030655, 9.900434
1464749578679558, -0.6125626, 4.601398, 8.752945, 0.0335685, 0.028110504, 9.907585
1464749581089089, -0.6221339, 4.599005, 8.748159, 0.024022639, 0.030720234, 9.902863
1464749583498568, -0.60777694, 4.5942197, 8.762517, 0.035757005, 0.016375542, 9.912437
1464749585908047, -0.59342, 4.5678983, 8.769695, 0.042120934, -0.013383865, 9.905727
1464749588317579, -0.5910272, 4.5726843, 8.786445, 0.044487774, -0.017452717, 9.9226055
1464749590727058, -0.5814559, 4.57747, 8.79123, 0.05464804, -0.017938614, 9.9284315
1464749593136589, -0.6053841, 4.5726843, 8.784052, 0.03074205, -0.0128183365, 9.9214115
1464749595546068, -0.60059845, 4.558327, 8.7984085, 0.030575871, -0.032630444, 9.927186
1464749597955599, -0.6029913, 4.54397, 8.79123, 0.025132, -0.040960312, 9.914366
1464749600365079, -0.6269195, 4.5320063, 8.781659, -0.0013887286, -0.040492058, 9.90192
1464749602774610, -0.6436693, 4.536792, 8.800801, -0.017534971, -0.040940285, 9.922144
1464749605184089, -0.63888365, 4.5415773, 8.807981, -0.012554288, -0.040743828, 9.930397
1464749607593568, -0.6269195, 4.5296135, 8.800801, -0.0037856102, -0.0506649, 9.91776
1464749610003099, -0.62452674, 4.551149, 8.810373, 0.003493011, -0.03743124, 9.936008
1464749612412579, -0.61734825, 4.5487556, 8.810373, 0.009659708, -0.04049635, 9.934447
1464749614822110, -0.6149554, 4.558327, 8.810373, 0.014287174, -0.032177925, 9.938711
1464749617231589, -0.62931234, 4.5655055, 8.803194, 0.0022907853, -0.018460274, 9.936587
1464749619641068, -0.62452674, 4.575077, 8.788837, 0.010457337, -0.005045414, 9.927986
1464749622050599, -0.6364908, 4.570291, 8.793623, -0.0030483603, -0.007849216, 9.930781
1464749624460079, -0.6029913, 4.5726843, 8.772088, 0.03129053, -0.00494051, 9.91068
1464749626869610, -0.6053841, 4.5726843, 8.774481, 0.028749764, -0.005777836, 9.912951
1464749629279089, -0.62452674, 4.5726843, 8.774481, 0.009894609, -5.0258636E-4, 9.914178
1464749631688568, -0.62931234, 4.57747, 8.752945, 0.008290291, 0.014766693, 9.897629
1464749634098099, -0.63888365, 4.5726843, 8.733803, -0.001613915, 0.02210617, 9.87909
1464749636507579, -0.6412765, 4.575077, 8.740981, -0.0045152307, 0.021412373, 9.886701
1464749638917110, -0.64606214, 4.599005, 8.719446, -0.00110358, 0.052798748, 9.878979
1464749641326589, -0.64845496, 4.599005, 8.719446, -0.00339818, 0.05346012, 9.879131
1464749643736120, -0.6652047, 4.587041, 8.719446, -0.023367167, 0.047941685, 9.874682
1464749646145599, -0.6652047, 4.6061835, 8.73141, -0.019003868, 0.05859995, 9.894097
1464749648555079, -0.6723832, 4.584648, 8.740981, -0.033354223, 0.03774929, 9.893095
1464749650964610, -0.6723832, 4.570291, 8.755338, -0.038544893, 0.019130707, 9.899179
1464749653374089, -0.65324056, 4.584648, 8.762517, -0.016807914, 0.022794724, 9.910935
1464749655783620, -0.66999036, 4.587041, 8.772088, -0.033121586, 0.025294304, 9.921574
1464749658193099, -0.64606214, 4.5798626, 8.762517, -0.011384904, 0.017156601, 9.90827
1464749660602631, -0.64845496, 4.5918264, 8.76491, -0.010805905, 0.027245522, 9.916056
1464749663012110, -0.6269195, 4.584648, 8.7577305, 0.008457482, 0.018641949, 9.905022
1464749665421641, -0.634098, 4.5798626, 8.752945, 6.1547756E-4, 0.018741608, 9.899036
1464749667831120, -0.62452674, 4.6037908, 8.769695, 0.014659107, 0.029155731, 9.924284
1464749670240599, -0.6436693, 4.5942197, 8.76491, -0.006444633, 0.02904892, 9.91685
1464749672650131, -0.62931234, 4.5966125, 8.769695, 0.00764513, 0.024971962, 9.921278
1464749675059610, -0.63170516, 4.5822554, 8.781659, 3.427267E-5, 0.008580208, 9.9254
1464749677469141, -0.62452674, 4.5822554, 8.786445, 0.006006539, 0.0051651, 9.92918
1464749679878620, -0.6364908, 4.5822554, 8.776874, -0.0048145056, 0.012790203, 9.921466
1464749682288099, -0.6364908, 4.5535417, 8.769695, -0.011992514, -0.008204937, 9.901878
1464749684697631, -0.6412765, 4.546363, 8.784052, -0.019525886, -0.019591808, 9.911581
1464749687107110, -0.6125626, 4.5559344, 8.805588, 0.00874716, -0.027590752, 9.933244
1464749689516641, -0.61734825, 4.5678983, 8.805588, 0.007156849, -0.01620245, 9.939059
1464749691926120, -0.5982057, 4.575077, 8.7984085, 0.027905524, -0.011633873, 9.934802
1464749694335652, -0.60059845, 4.587041, 8.800801, 0.02809012, -0.0012435913, 9.942586
1464749696745131, -0.58624154, 4.6037908, 8.774481, 0.047848225, 0.021496296, 9.926096
1464749699154610, -0.5886344, 4.627719, 8.76491, 0.051314473, 0.047900677, 9.928797
1464749701564141, -0.5910272, 4.625326, 8.755338, 0.048974037, 0.05085945, 9.919372
1464749703973620, -0.6053841, 4.618148, 8.740981, 0.033646822, 0.055140495, 9.904261
1464749706383152, -0.6125626, 4.6205406, 8.729017, 0.02799201, 0.06445408, 9.895224
1464749708792631, -0.6149554, 4.610969, 8.73141, 0.02223602, 0.05621481, 9.893083
1464749711202162, -0.6221339, 4.6061835, 8.73141, 0.01413998, 0.053803444, 9.89133
1464749713611641, -0.6029913, 4.6037908, 8.738588, 0.031519085, 0.044108868, 9.895375
1464749716021172, -0.6197411, 4.5966125, 8.7577305, 0.012536168, 0.03305483, 9.91007
1464749718430652, -0.634098, 4.601398, 8.772088, -0.0010360479, 0.033883095, 9.92589
1464749720840131, -0.62452674, 4.613362, 8.781659, 0.010491967, 0.03772354, 9.939273
1464749723249662, -0.6149554, 4.599005, 8.788837, 0.01578787, 0.020321846, 9.938413
1464749725659141, -0.60777694, 4.610969, 8.7984085, 0.025084198, 0.024409294, 9.951946
1464749728068672, -0.6029913, 4.613362, 8.800801, 0.030162394, 0.024204254, 9.9548645
1464749730478152, -0.60059845, 4.625326, 8.803194, 0.035365224, 0.03259945, 9.962343
1464749732887683, -0.59342, 4.627719, 8.82473, 0.041131258, 0.023926735, 9.9820595
1464749735297162, -0.6029913, 4.644469, 8.819944, 0.03624177, 0.042755604, 9.986138
1464749737706641, -0.61016977, 4.6372905, 8.843872, 0.025690198, 0.027786732, 10.00447
1464749740116172, -0.6149554, 4.65404, 8.85823, 0.024329007, 0.036626816, 10.025196
1464749742525652, -0.61734825, 4.6325045, 8.863015, 0.015937865, 0.01714468, 10.019665
1464749744935183, -0.62931234, 4.6301117, 8.867801, 0.0034902096, 0.015832901, 10.023551
1464749747344662, -0.65084773, 4.613362, 8.874979, -0.022455812, 0.003917694, 10.023543
1464749749754193, -0.66999036, 4.6205406, 8.874979, -0.039248347, 0.01467371, 10.0280485
1464749752163672, -0.66999036, 4.613362, 8.886943, -0.041683435, 0.003027916, 10.0353365
1464749754573152, -0.67477596, 4.627719, 8.894122, -0.04372871, 0.013674259, 10.048603
1464749756982683, -0.66999036, 4.6325045, 8.894122, -0.03793204, 0.01660347, 10.050507
1464749759392162, -0.66759753, 4.6301117, 8.896515, -0.036655694, 0.01304388, 10.051372
1464749761801693, -0.64606214, 4.618148, 8.886943, -0.018090189, 0.0021452904, 10.036039
1464749764211172, -0.63888365, 4.627719, 8.886943, -0.009177715, 0.008793831, 10.039996
1464749766620704, -0.634098, 4.625326, 8.860622, -0.0036212206, 0.017765999, 10.015287
1464749769030183, -0.6197411, 4.610969, 8.867801, 0.0060812235, -0.0012130737, 10.014139
1464749771439662, -0.60777694, 4.618148, 8.85823, 0.019933969, 0.006491661, 10.008221
1464749773849193, -0.6221339, 4.6085763, 8.843872, 0.0041401386, 0.008248329, 9.991997
1464749776258672, -0.64845496, 4.610969, 8.841479, -0.021049142, 0.017555714, 9.992624
1464749778668204, -0.6412765, 4.601398, 8.848659, -0.016779661, 0.004386902, 9.994126
1464749781077683, -0.61734825, 4.5942197, 8.853444, 0.004396856, -0.009692669, 9.993565
1464749783487214, -0.6436693, 4.599005, 8.848659, -0.019667745, 0.0027079582, 9.993175
1464749785896693, -0.6364908, 4.613362, 8.839087, -0.00870353, 0.017664433, 9.990861
1464749788306224, -0.64606214, 4.618148, 8.82473, -0.016058654, 0.030412197, 9.980952
1464749790715704, -0.64845496, 4.615755, 8.822337, -0.018422693, 0.02972126, 9.9778805
1464749793125235, -0.63888365, 4.618148, 8.82473, -0.008700162, 0.028433323, 9.980502
1464749795534714, -0.62931234, 4.615755, 8.831908, 1.847744E-4, 0.020301819, 9.985161
1464749797944193, -0.6197411, 4.618148, 8.822337, 0.010588944, 0.024520397, 9.977188
1464749800353724, -0.62452674, 4.610969, 8.822337, 0.0042483807, 0.019500732, 9.974182
1464749802763204, -0.61016977, 4.601398, 8.829515, 0.016061008, 0.003962517, 9.975233
1464749805172735, -0.63170516, 4.613362, 8.834301, -0.001842469, 0.016167164, 9.986328
1464749807582214, -0.6269195, 4.627719, 8.817552, 0.0073716044, 0.034086704, 9.977817
1464749809991693, -0.6269195, 4.6085763, 8.810373, 0.003272593, 0.02101326, 9.962643
1464749812401224, -0.5982057, 4.6061835, 8.7984085, 0.03122142, 0.017843246, 9.949144
1464749814810704, -0.60777694, 4.6061835, 8.776874, 0.02330023, 0.028869629, 9.930683
1464749817220235, -0.6221339, 4.5966125, 8.769695, 0.0072087944, 0.026393414, 9.920822
1464749819629714, -0.6125626, 4.5822554, 8.755338, 0.013946503, 0.018560886, 9.900894
1464749822039245, -0.6197411, 4.587041, 8.7577305, 0.007944018, 0.023179054, 9.905668
1464749824448724, -0.6269195, 4.601398, 8.748159, 0.0047352314, 0.04153633, 9.9042635
1464749826858256, -0.62452674, 4.601398, 8.738588, 0.00726822, 0.044742107, 9.895643
1464749829267735, -0.64606214, 4.5894337, 8.736196, -0.016421735, 0.04022312, 9.889364
1464749831677266, -0.66759753, 4.5966125, 8.736196, -0.035616994, 0.051409245, 9.894026
1464749834086745, -0.66041905, 4.6037908, 8.73141, -0.026695937, 0.05807829, 9.892648
1464749836496224, -0.6628119, 4.610969, 8.73141, -0.02799514, 0.06459284, 9.896105
1464749838905756, -0.6723832, 4.6085763, 8.73141, -0.038422495, 0.06472826, 9.895602
1464749841315235, -0.66759753, 4.610969, 8.719446, -0.032564104, 0.071183205, 9.885816
1464749843724766, -0.6364908, 4.6085763, 8.717052, -0.002819866, 0.062959194, 9.880645
1464749846134245, -0.62931234, 4.5942197, 8.702696, 9.677112E-4, 0.055690765, 9.860867
1464749848543777, -0.6221339, 4.57747, 8.700303, 0.0036101043, 0.040998936, 9.850575
1464749850953256, -0.62452674, 4.57747, 8.702696, 0.001157403, 0.040457726, 9.852843
1464749853362735, -0.6221339, 4.587041, 8.721839, 0.0046944916, 0.039233208, 9.874052
1464749855772266, -0.6221339, 4.575077, 8.724232, 0.001122117, 0.028491974, 9.870654
1464749858181745, -0.62931234, 4.5631127, 8.721839, -0.008993745, 0.021936893, 9.863466
1464749860591277, -0.63888365, 4.5655055, 8.743374, -0.018927097, 0.01634264, 9.88423
1464749863000756, -0.65324056, 4.5678983, 8.76491, -0.033495903, 0.011898994, 9.9052925
1464749865410287, -0.6364908, 4.575077, 8.779266, -0.016775548, 0.008407116, 9.920262
1464749867819766, -0.6364908, 4.5631127, 8.7984085, -0.020838559, -0.010513306, 9.931694
1464749870229297, -0.634098, 4.5631127, 8.793623, -0.018319905, -0.007817268, 9.927311
1464749872638777, -0.62931234, 4.5678983, 8.803194, -0.013088882, -0.009331703, 9.937693
1464749875048308, -0.6221339, 4.584648, 8.817552, -0.0029865503, -0.0023856163, 9.957675
1464749877457787, -0.62452674, 4.575077, 8.834301, -0.0085555315, -0.017735481, 9.968243
1464749879867266, -0.6221339, 4.570291, 8.841479, -0.007923782, -0.024840832, 9.972246
1464749882276797, -0.6269195, 4.575077, 8.848659, -0.011817992, -0.02291584, 9.981106
1464749884686277, -0.6221339, 4.57747, 8.841479, -0.006241858, -0.0181427, 9.9755535
1464749887095808, -0.61016977, 4.5655055, 8.853444, 0.0015965104, -0.036460876, 9.979895
1464749889505287, -0.5982057, 4.56072, 8.851051, 0.012140989, -0.04236889, 9.974829
1464749891914818, -0.61734825, 4.551149, 8.841479, -0.0082684755, -0.04129982, 9.963136
1464749894324297, -0.6149554, 4.534399, 8.829515, -0.009349823, -0.050660133, 9.944679
1464749896733829, -0.62931234, 4.5296135, 8.82473, -0.024508476, -0.048833847, 9.939131
1464749899143308, -0.6269195, 4.534399, 8.812766, -0.020462036, -0.03989172, 9.930592
1464749901552839, -0.6149554, 4.546363, 8.810373, -0.005742073, -0.0316267, 9.933239
1464749903962318, -0.61734825, 4.536792, 8.800801, -0.00987345, -0.03485346, 9.920504
1464749906371797, -0.5910272, 4.536792, 8.784052, 0.016516447, -0.03395319, 9.904036
1464749908781329, -0.6053841, 4.5559344, 8.784052, 0.007536888, -0.014006615, 9.913745
1464749911190808, -0.59342, 4.5487556, 8.752945, 0.019071043, -0.008882999, 9.882153
1464749913600339, -0.6029913, 4.551149, 8.736196, 0.0114424825, 0.0032491684, 9.869019
1464749916009818, -0.6149554, 4.5655055, 8.738588, 0.003297925, 0.017352104, 9.878493
1464749918419349, -0.6029913, 4.57747, 8.729017, 0.018237472, 0.02889204, 9.874787
1464749920828829, -0.60777694, 4.5678983, 8.745767, 0.010255516, 0.014169693, 9.885506
1464749923238360, -0.62452674, 4.5726843, 8.7577305, -0.005490601, 0.01706171, 9.899344
1464749925647839, -0.6053841, 4.5678983, 8.769695, 0.011035621, 0.0026555061, 9.906545
1464749928057318, -0.61016977, 4.57747, 8.774481, 0.008595109, 0.010128975, 9.915486
1464749930466849, -0.6197411, 4.5822554, 8.776874, 4.0066242E-4, 0.015505314, 9.9204035
1464749932876329, -0.6149554, 4.5678983, 8.7984085, 3.2031536E-4, -0.007293701, 9.932563
1464749935285860, -0.62931234, 4.56072, 8.805588, -0.015507579, -0.01248312, 9.936508
1464749937695339, -0.63888365, 4.56072, 8.807981, -0.024469256, -0.010524273, 9.939223
1464749940104870, -0.63170516, 4.558327, 8.812766, -0.018386781, -0.016518116, 9.941914
1464749942514349, -0.6436693, 4.5726843, 8.817552, -0.026745856, -0.0035586357, 9.953505
1464749944923881, -0.6412765, 4.570291, 8.834301, -0.026000977, -0.013901234, 9.967087
1464749947333360, -0.63888365, 4.5726843, 8.836694, -0.022580385, -0.011760712, 9.970163
1464749949742891, -0.6436693, 4.57747, 8.841479, -0.02631104, -0.008697033, 9.976902
1464749952152370, -0.6436693, 4.57747, 8.85823, -0.027335644, -0.016407967, 9.991736
1464749954561849, -0.62931234, 4.610969, 8.855837, -0.0049906373, 0.0096850395, 10.004141
1464749956971381, -0.6269195, 4.6085763, 8.865408, -0.0034911036, 0.0033721924, 10.011366
1464749959380860, -0.6221339, 4.615755, 8.867801, 0.0028049946, 0.0071902275, 10.016491
1464749961790391, -0.6149554, 4.613362, 8.865408, 0.009551764, 0.0049977303, 10.012823
1464749964199870, -0.60777694, 4.5918264, 8.872586, 0.010717809, -0.018126965, 10.008826
1464749966609402, -0.6221339, 4.587041, 8.882157, -0.00486058, -0.022999287, 10.015995
1464749969018881, -0.6269195, 4.5822554, 8.872586, -0.010090351, -0.021484852, 10.005613
1464749971428412, -0.6029913, 4.56072, 8.891729, 0.0064730644, -0.054471016, 10.011175
1464749973837891, -0.5982057, 4.5487556, 8.872586, 0.0092968345, -0.057048798, 9.988418
1464749976247370, -0.6197411, 4.570291, 8.85823, -0.0052167773, -0.026816368, 9.986947
1464749978656902, -0.64606214, 4.5559344, 8.863015, -0.034522712, -0.034718037, 9.986218
1464749981066381, -0.6580262, 4.536792, 8.85823, -0.050648153, -0.04615593, 9.973917
1464749983475912, -0.65324056, 4.551149, 8.855837, -0.042347312, -0.03397751, 9.978106
1464749985885391, -0.6436693, 4.5631127, 8.853444, -0.030204952, -0.025568485, 9.980893
1464749988294922, -0.6364908, 4.5535417, 8.839087, -0.024833202, -0.029450417, 9.963324
1464749990704402, -0.6149554, 4.54397, 8.82473, -0.005504966, -0.036319256, 9.944864
1464749993113933, -0.6197411, 4.56072, 8.812766, -0.00526613, -0.015347004, 9.942274
1464749995523412, -0.6125626, 4.575077, 8.810373, 0.0053382516, -0.0045681, 9.946317
1464749997932943, -0.59581286, 4.5918264, 8.7984085, 0.0264045, 0.010306835, 9.942388
1464750000342422, -0.6029913, 4.6037908, 8.781659, 0.023458362, 0.029996872, 9.933509
1464750002751902, -0.5910272, 4.5894337, 8.762517, 0.032629967, 0.023606777, 9.9092045
1464750005161433, -0.59581286, 4.6061835, 8.762517, 0.03207326, 0.038175106, 9.917215
1464750007570912, -0.6149554, 4.599005, 8.755338, 0.012099564, 0.039177418, 9.908749
1464750009980443, -0.6197411, 4.6061835, 8.762517, 0.008807361, 0.043168068, 9.918709
1464750012389922, -0.61016977, 4.599005, 8.760123, 0.016539752, 0.03490591, 9.91269
1464750014799454, -0.59581286, 4.601398, 8.733803, 0.0325979, 0.04554701, 9.889592
1464750017208933, -0.60059845, 4.610969, 8.733803, 0.030421078, 0.054833412, 9.894297
1464750019618464, -0.61016977, 4.615755, 8.736196, 0.022206962, 0.060178757, 9.899216
1464750022027943, -0.6197411, 4.615755, 8.733803, 0.013329327, 0.06298399, 9.897699
1464750024437474, -0.61016977, 4.610969, 8.724232, 0.022042572, 0.060299873, 9.886426
1464750026846954, -0.63888365, 4.6085763, 8.717052, -0.0058773756, 0.06867266, 9.880758
1464750029256433, -0.64845496, 4.5966125, 8.73141, -0.018719852, 0.053768158, 9.888559
1464750031665964, -0.6556334, 4.575077, 8.738588, -0.03145969, 0.033898354, 9.885443
1464750034075443, -0.6963114, 4.5822554, 8.760123, -0.07007122, 0.039898396, 9.910358
1464750036484974, -0.71306115, 4.5655055, 8.762517, -0.09011501, 0.028828144, 9.9058075
1464750038894454, -0.6939186, 4.570291, 8.76491, -0.070473254, 0.027289867, 9.9089365
1464750041303985, -0.6771688, 4.5918264, 8.774481, -0.048754573, 0.037345886, 9.926288
1464750043713464, -0.6795616, 4.5942197, 8.793623, -0.051664174, 0.031168938, 9.944488
1464750046122995, -0.6843473, 4.5894337, 8.788837, -0.05719042, 0.030504227, 9.938345
1464750048532474, -0.6795616, 4.584648, 8.786445, -0.053315103, 0.026974678, 9.9337225
1464750050942006, -0.69152576, 4.5631127, 8.803194, -0.07140452, 0.0039920807, 9.939383
1464750053351485, -0.6723832, 4.558327, 8.819944, -0.0552848, -0.01214838, 9.950811
1464750055760964, -0.64606214, 4.5655055, 8.843872, -0.029590964, -0.023755074, 9.973659
1464750058170495, -0.64606214, 4.5655055, 8.853444, -0.030447125, -0.02748394, 9.982136
1464750060579974, -0.6436693, 4.5631127, 8.863015, -0.029755354, -0.033713818, 9.989361
1464750062989506, -0.6053841, 4.546363, 8.85823, 0.0031790733, -0.055597782, 9.975021
1464750065398985, -0.5838487, 4.546363, 8.85823, 0.023587763, -0.060334682, 9.973682
1464750067808516, -0.5814559, 4.5798626, 8.848659, 0.034260273, -0.027383327, 9.980484
1464750070217995, -0.5886344, 4.5726843, 8.822337, 0.027290165, -0.019471169, 9.954318
1464750072627527, -0.5886344, 4.587041, 8.822337, 0.031080306, -0.007302761, 9.960926
1464750075037006, -0.5886344, 4.558327, 8.829515, 0.022382677, -0.034281254, 9.954069
1464750077446537, -0.5886344, 4.5272202, 8.829515, 0.013677537, -0.06004691, 9.939758
1464750079856016, -0.6029913, 4.546363, 8.843872, 0.0039213896, -0.046593666, 9.962174
1464750082265495, -0.60059845, 4.56072, 8.843872, 0.010213137, -0.035003662, 9.968632
1464750084675027, -0.5886344, 4.5559344, 8.843872, 0.020498872, -0.04218483, 9.965687
1464750087084506, -0.6125626, 4.5559344, 8.855837, -0.0043779016, -0.040233612, 9.977775
1464750089494037, -0.61734825, 4.5655055, 8.853444, -0.0062895417, -0.02974987, 9.980356
1464750091903516, -0.6149554, 4.56072, 8.855837, -0.0054171085, -0.03554058, 9.980125
1464750094313047, -0.61734825, 4.5655055, 8.851051, -0.006122768, -0.028651237, 9.978237
1464750096722527, -0.6149554, 4.5535417, 8.853444, -0.0073624253, -0.04034424, 9.974703
1464750099132058, -0.6125626, 4.57747, 8.851051, 0.0013244152, -0.019494534, 9.983445
1464750101541537, -0.6197411, 4.570291, 8.82473, -0.0056580305, -0.01160574, 9.957274
1464750103951068, -0.6125626, 4.57747, 8.817552, 0.003510058, -0.004016876, 9.953775
1464750106360547, -0.62931234, 4.5678983, 8.7984085, -0.013805568, 0.0010685921, 9.933455
1464750108770079, -0.62452674, 4.5487556, 8.793623, -0.013884366, -0.014234543, 9.920113
1464750111179558, -0.634098, 4.5487556, 8.784052, -0.022509634, -0.00744915, 9.912228
1464750113589037, -0.6364908, 4.5559344, 8.762517, -0.021542609, 0.009328365, 9.896606
1464750115998568, -0.62452674, 4.546363, 8.760123, -0.012322128, -8.0537796E-4, 9.889341
1464750118408047, -0.6269195, 4.551149, 8.7673025, -0.01381588, 7.8344345E-4, 9.89805
1464750120817579, -0.6269195, 4.54397, 8.788837, -0.017016888, -0.015227318, 9.913821
1464750123227058, -0.634098, 4.54397, 8.781659, -0.023485243, -0.010102749, 9.907908
1464750125636589, -0.634098, 4.546363, 8.793623, -0.023915112, -0.013055325, 9.919606
1464750128046068, -0.6436693, 4.551149, 8.786445, -0.03196925, -0.0023932457, 9.91604
1464750130455599, -0.6436693, 4.558327, 8.793623, -0.030612826, 1.8835068E-4, 9.925701
1464750132865079, -0.64845496, 4.56072, 8.803194, -0.03523171, -9.92775E-4, 9.9355755
1464750135274610, -0.6580262, 4.57747, 8.822337, -0.042176187, 0.007826328, 9.960824
1464750137684089, -0.66041905, 4.5655055, 8.834301, -0.048900723, -0.006483078, 9.966064
1464750140093620, -0.6580262, 4.587041, 8.836694, -0.041439474, 0.010205746, 9.977941
1464750142503099, -0.6556334, 4.5966125, 8.843872, -0.037821054, 0.015234947, 9.988548
1464750144912579, -0.6269195, 4.599005, 8.834301, -0.0088765025, 0.014633656, 9.979402
1464750147322110, -0.6149554, 4.601398, 8.817552, 0.0036802888, 0.021873474, 9.964926
1464750149731589, -0.62931234, 4.6085763, 8.815159, -0.008300424, 0.032624245, 9.9669895
1464750152141120, -0.63170516, 4.587041, 8.819944, -0.016379625, 0.012395859, 9.961475
1464750154550599, -0.6412765, 4.5798626, 8.819944, -0.028284848, 0.00864172, 9.958762
1464750156960131, -0.6197411, 4.5678983, 8.815159, -0.009911895, -0.0043907166, 9.947698
1464750159369610, -0.6125626, 4.5655055, 8.817552, -0.0043436885, -0.009399891, 9.9482765
1464750161779141, -0.6221339, 4.57747, 8.810373, -0.010435849, 0.006406307, 9.948006
1464750164188620, -0.6029913, 4.575077, 8.803194, 0.00744766, 0.0027208328, 9.939371
1464750166598152, -0.60059845, 4.570291, 8.788837, 0.009043217, 0.0039167404, 9.924306
1464750169007631, -0.5910272, 4.575077, 8.774481, 0.020197213, 0.012457371, 9.913203
1464750171417110, -0.5838487, 4.5822554, 8.776874, 0.02870071, 0.015872955, 9.918184
1464750173826641, -0.57427746, 4.5822554, 8.7673025, 0.038242757, 0.016904831, 9.9091215
1464750176236120, -0.5886344, 4.5822554, 8.769695, 0.024073184, 0.017809391, 9.912126
1464750178645652, -0.56470615, 4.5798626, 8.760123, 0.04727447, 0.014714718, 9.901079
1464750181055131, -0.5766702, 4.584648, 8.733803, 0.03792587, 0.033918858, 9.880703
1464750183464662, -0.567099, 4.5822554, 8.724232, 0.047204554, 0.033121586, 9.870542
1464750185874141, -0.5814559, 4.584648, 8.721839, 0.033891767, 0.039471626, 9.870404
1464750188283672, -0.5886344, 4.584648, 8.721839, 0.0266864, 0.040438652, 9.870849
1464750190693152, -0.5838487, 4.570291, 8.709874, 0.028723955, 0.032576084, 9.85335
1464750193102683, -0.59342, 4.5822554, 8.690732, 0.0227409, 0.05363512, 9.842492
1464750195512162, -0.58624154, 4.57747, 8.695518, 0.02843061, 0.045734882, 9.844087
1464750197921693, -0.5766702, 4.5966125, 8.705089, 0.040970027, 0.056129932, 9.860788
1464750200331172, -0.5694918, 4.584648, 8.733803, 0.043070704, 0.03175211, 9.880273
1464750202740704, -0.57427746, 4.6037908, 8.7577305, 0.04150805, 0.038202763, 9.910568
1464750205150183, -0.5766702, 4.6205406, 8.788837, 0.041399926, 0.038756847, 9.945975
1464750207559662, -0.552742, 4.6061835, 8.822337, 0.05694872, 0.007841587, 9.967587
1464750209969193, -0.552742, 4.6085763, 8.831908, 0.057015598, 0.0054798126, 9.977166
1464750212378672, -0.55034924, 4.613362, 8.848659, 0.059595734, 0.0013365746, 9.99406
1464750214788204, -0.57188463, 4.6085763, 8.8701935, 0.036515534, -0.007997513, 10.012242
1464750217197683, -0.5814559, 4.618148, 8.867801, 0.025814563, 0.006095886, 10.015118
1464750219607214, -0.6053841, 4.615755, 8.874979, 0.0016309619, 0.005959511, 10.021822
1464750222016693, -0.60059845, 4.6061835, 8.865408, 0.0046361983, 0.0010991096, 10.008652
1464750224426224, -0.61016977, 4.6037908, 8.879765, -0.005914241, -0.0054893494, 10.020847
1464750226835704, -0.61734825, 4.601398, 8.865408, -0.014229238, 0.0016531944, 10.00746
1464750229245235, -0.6029913, 4.5894337, 8.865408, -0.0040724874, -0.010814667, 10.001093
1464750231654714, -0.63170516, 4.5918264, 8.853444, -0.030900538, 0.0032105446, 9.99332
1464750234064245, -0.6364908, 4.575077, 8.848659, -0.039099157, -0.0078930855, 9.981665
1464750236473724, -0.63170516, 4.5678983, 8.851051, -0.037154853, -0.0154109, 9.980192
1464750238883256, -0.62452674, 4.5631127, 8.846265, -0.031611145, -0.018204212, 9.97332
1464750241292735, -0.62931234, 4.5415773, 8.848659, -0.04129824, -0.036708355, 9.965825
1464750243702214, -0.6125626, 4.5391846, 8.860622, -0.026701242, -0.047370434, 9.974321
1464750246111745, -0.6053841, 4.5415773, 8.853444, -0.018798977, -0.04363346, 9.968632
1464750248521224, -0.6029913, 4.546363, 8.872586, -0.01722914, -0.04789543, 9.987654
1464750250930756, -0.59581286, 4.570291, 8.872586, -0.0046188235, -0.029098034, 9.998224
1464750253340235, -0.59342, 4.575077, 8.867801, -0.0013821125, -0.022693157, 9.996041
1464750255749766, -0.5838487, 4.57747, 8.8701935, 0.00833112, -0.023997784, 9.99869
1464750258159245, -0.5814559, 4.56072, 8.874979, 0.005273819, -0.040795326, 9.9950905
1464750260568777, -0.57188463, 4.584648, 8.867801, 0.020937383, -0.01949215, 9.999156
1464750262978256, -0.57906306, 4.570291, 8.860622, 0.01088649, -0.0266428, 9.986625
1464750265387787, -0.5814559, 4.5726843, 8.855837, 0.008960664, -0.021652222, 9.983627
1464750267797266, -0.57188463, 4.5918264, 8.848659, 0.022917986, -0.00469923, 9.985496
1464750270206797, -0.56470615, 4.570291, 8.846265, 0.024653494, -0.023753643, 9.973047
1464750272616277, -0.55513483, 4.5631127, 8.839087, 0.03257811, -0.028968334, 9.962816
1464750275025756, -0.567099, 4.5726843, 8.841479, 0.022834301, -0.01961708, 9.970051
1464750277435287, -0.55513483, 4.5726843, 8.836694, 0.03400767, -0.021847725, 9.965096
1464750279844766, -0.55752766, 4.5726843, 8.82473, 0.032550156, -0.015734673, 9.954639
1464750282254297, -0.552742, 4.5678983, 8.819944, 0.036246896, -0.018866539, 9.947913
1464750284663777, -0.552742, 4.584648, 8.805588, 0.0413841, 7.200241E-4, 9.942897
1464750287073308, -0.5599205, 4.57747, 8.784052, 0.033985555, 0.004600525, 9.920945
1464750289482787, -0.58624154, 4.57747, 8.755338, 0.010861099, 0.024919033, 9.897078
1464750291892318, -0.5599205, 4.570291, 8.745767, 0.0349257, 0.016053677, 9.883726
1464750294301797, -0.552742, 4.5655055, 8.743374, 0.04049617, 0.009467602, 9.878979
1464750296711329, -0.5479564, 4.5655055, 8.729017, 0.046104312, 0.014936924, 9.865975
1464750299120808, -0.5694918, 4.570291, 8.709874, 0.027982235, 0.031784296, 9.852512
1464750301530339, -0.552742, 4.584648, 8.705089, 0.048241615, 0.041646242, 9.853884
1464750303939818, -0.56470615, 4.5918264, 8.685946, 0.03987837, 0.05817938, 9.840956
1464750306349297, -0.57427746, 4.5798626, 8.681161, 0.027853966, 0.052808046, 9.8317795
1464750308758829, -0.60059845, 4.5822554, 8.690732, 0.0023026466, 0.056185246, 9.842938
1464750311168308, -0.5910272, 4.5726843, 8.685946, 0.009416163, 0.046478033, 9.833726
1464750313577839, -0.59581286, 4.5655055, 8.683554, 0.0030635595, 0.04281974, 9.828586
1464750315987318, -0.5910272, 4.5798626, 8.693125, 0.010849953, 0.048421144, 9.843395
1464750318396849, -0.58624154, 4.5678983, 8.685946, 0.012937546, 0.04022646, 9.83124
1464750320806329, -0.6053841, 4.5631127, 8.688339, -0.0069095492, 0.040428877, 9.832296
1464750323215860, -0.60059845, 4.5631127, 8.702696, -0.0035221577, 0.03200507, 9.844724
1464750325625339, -0.60059845, 4.570291, 8.705089, -0.001888752, 0.03673005, 9.850151
1464750328034870, -0.6029913, 4.570291, 8.719446, -0.005419135, 0.030798674, 9.863009
1464750330444349, -0.5982057, 4.5559344, 8.712267, -0.0041716695, 0.020641088, 9.8497505
1464750332853881, -0.5982057, 4.558327, 8.719446, -0.004316628, 0.019419193, 9.857208
1464750335263360, -0.5838487, 4.558327, 8.743374, 0.00763005, 0.004497528, 9.877538
1464750337672891, -0.59342, 4.5678983, 8.745767, 5.1021576E-4, 0.014364243, 9.884638
1464750340082370, -0.6029913, 4.584648, 8.736196, -0.0035095215, 0.035520554, 9.884454
1464750342491902, -0.5814559, 4.57747, 8.740981, 0.014625728, 0.021960258, 9.884097
1464750344901381, -0.57906306, 4.5918264, 8.743374, 0.020578027, 0.03236723, 9.892689
1464750347310860, -0.57188463, 4.5942197, 8.752945, 0.026703477, 0.02933073, 9.901836
1464750349720391, -0.5766702, 4.5918264, 8.760123, 0.020926237, 0.025317669, 9.907375
1464750352129870, -0.57427746, 4.5966125, 8.769695, 0.023790121, 0.024326801, 9.917914
1464750354539402, -0.57906306, 4.6061835, 8.779266, 0.021044374, 0.029338837, 9.931085
1464750356948881, -0.57906306, 4.6085763, 8.788837, 0.020487666, 0.027701378, 9.940662
1464750359358412, -0.55513483, 4.6205406, 8.815159, 0.044495583, 0.01971054, 9.96806
1464750361767891, -0.567099, 4.618148, 8.812766, 0.032183707, 0.022580624, 9.965551
1464750364177422, -0.55752766, 4.618148, 8.807981, 0.041739225, 0.022267342, 9.960744
1464750366586902, -0.55034924, 4.6229334, 8.829515, 0.04813093, 0.0151286125, 9.981593
1464750368996433, -0.56470615, 4.6301117, 8.841479, 0.03530073, 0.019537449, 9.996347
1464750371405912, -0.55513483, 4.618148, 8.846265, 0.040949762, 0.0050559044, 9.994506
1464750373815443, -0.552742, 4.610969, 8.841479, 0.041733444, 5.3215027E-4, 9.986819
1464750376224922, -0.552742, 4.610969, 8.855837, 0.040801585, -0.005882263, 9.999536
1464750378634454, -0.54317075, 4.5966125, 8.85823, 0.046444595, -0.021667004, 9.9944725
1464750381043933, -0.5479564, 4.6061835, 8.863015, 0.043973863, -0.014486313, 10.003403
1464750383453464, -0.55034924, 4.5966125, 8.865408, 0.039027035, -0.023087978, 10.001256
1464750385862943, -0.55034924, 4.613362, 8.865408, 0.04383093, -0.008947372, 10.008968
1464750388272474, -0.552742, 4.6061835, 8.85823, 0.04083687, -0.011356831, 9.999445
1464750390681954, -0.552742, 4.610969, 8.855837, 0.04222673, -0.0061903, 9.999529
1464750393091433, -0.55034924, 4.613362, 8.831908, 0.04678482, 0.0062150955, 9.979297
1464750395500964, -0.5599205, 4.6085763, 8.831908, 0.03706163, 0.0040488243, 9.977659
1464750397910443, -0.5694918, 4.6205406, 8.839087, 0.030406713, 0.013391018, 9.990098
1464750400319974, -0.5814559, 4.610969, 8.834301, 0.017439246, 0.009719372, 9.982165
1464750402729454, -0.58624154, 4.6061835, 8.827123, 0.012086272, 0.010156155, 9.973889
1464750405138985, -0.567099, 4.599005, 8.807981, 0.030786216, 0.006927967, 9.952487
1464750407548464, -0.5814559, 4.5942197, 8.815159, 0.016058505, 0.0022349358, 9.957495
1464750409957995, -0.58624154, 4.6061835, 8.810373, 0.014661074, 0.01581955, 9.959057
1464750412367474, -0.59581286, 4.5822554, 8.796016, 0.0011097789, 0.003440857, 9.935892
1464750414777006, -0.6053841, 4.570291, 8.781659, -0.010192752, 0.0022001266, 9.918241
1464750417186485, -0.5982057, 4.584648, 8.793623, 2.478361E-4, 0.00637722, 9.9350195
1464750419596016, -0.6053841, 4.5918264, 8.781659, -0.0041481853, 0.019790173, 9.928166
1464750422005495, -0.60777694, 4.587041, 8.772088, -0.0070400834, 0.020715714, 9.91763
1464750424415027, -0.6149554, 4.5966125, 8.76491, -0.010548115, 0.033432484, 9.916121
1464750426824506, -0.6197411, 4.601398, 8.772088, -0.014442563, 0.035395622, 9.924969
1464750429234037, -0.6364908, 4.599005, 8.772088, -0.03079015, 0.03711176, 9.924878
1464750431643516, -0.63888365, 4.613362, 8.779266, -0.029715478, 0.04644108, 9.937994
1464750434052995, -0.6197411, 4.6205406, 8.776874, -0.009277344, 0.048885822, 9.938032
1464750436462527, -0.60059845, 4.618148, 8.774481, 0.009209394, 0.04322958, 9.9336605
1464750438872006, -0.60059845, 4.6301117, 8.779266, 0.01169759, 0.051259518, 9.943411
1464750441281537, -0.5886344, 4.6229334, 8.796016, 0.020574808, 0.034688473, 9.954209
1464750443691016, -0.6053841, 4.599005, 8.807981, -0.0022431612, 0.012887478, 9.9547825
1464750446100547, -0.6269195, 4.618148, 8.793623, -0.01758498, 0.041517735, 9.95219
1464750448510027, -0.61016977, 4.6372905, 8.807981, 0.0022173524, 0.04712057, 9.972717
1464750450919558, -0.60777694, 4.642076, 8.807981, 0.0056911707, 0.05062914, 9.974779
1464750453329037, -0.6029913, 4.6492543, 8.817552, 0.011416674, 0.051726818, 9.986269
1464750455738568, -0.6197411, 4.651647, 8.810373, -0.0037978888, 0.0611248, 9.982025
1464750458148047, -0.62931234, 4.6372905, 8.812766, -0.016869783, 0.050489426, 9.978102
1464750460557579, -0.6149554, 4.6468616, 8.810373, -0.0011575818, 0.056313515, 9.979528
1464750462967058, -0.6029913, 4.6492543, 8.822337, 0.010250211, 0.04988146, 9.990505
1464750465376589, -0.61734825, 4.6396832, 8.817552, -0.0063754916, 0.047360897, 9.98272
1464750467786068, -0.6197411, 4.625326, 8.819944, -0.012386382, 0.034614086, 9.978366
1464750470195547, -0.60059845, 4.625326, 8.831908, 0.0053465366, 0.02436781, 9.987809
1464750472605079, -0.5982057, 4.613362, 8.843872, 0.0032984018, 0.007706642, 9.992746
1464750475014558, -0.5886344, 4.599005, 8.827123, 0.010069728, 8.172989E-4, 9.970725
1464750477424089, -0.59342, 4.6061835, 8.843872, 0.0058258176, -1.8978119E-4, 9.989151
1464750479833568, -0.59581286, 4.610969, 8.843872, 0.0047308207, 0.0044903755, 9.991501
1464750482243099, -0.57906306, 4.6037908, 8.834301, 0.019676268, -0.0019917488, 9.978712
1464750484652579, -0.57427746, 4.584648, 8.846265, 0.018639624, -0.02499628, 9.980192
1464750487062110, -0.60059845, 4.304688, 8.748159, -0.07083207, -0.21190786, 9.765831
1464750489471589, -0.47138608, 5.1852465, 8.82473, 0.2790606, 0.46416187, 10.231888
1464750491881120, -0.6269195, 4.0438704, 8.769695, -0.16993845, -0.4349246, 9.666201
1464750494290599, -0.57188463, 4.5272202, 8.673982, 0.018516779, 0.0033903122, 9.80104
1464750496700131, -0.46899325, 5.278567, 8.810373, 0.30703115, 0.54734755, 10.262167
1464750499109610, -0.7298109, 3.67059, 8.685946, -0.3484851, -0.691015, 9.426165
1464750501519141, -0.53359944, 4.996214, 8.73141, 0.1715442, 0.36646223, 10.065818
1464750503928620, -0.53599226, 4.974678, 8.851051, 0.15660721, 0.29446507, 10.161918
1464750506338152, -0.7465607, 3.6059837, 8.628518, -0.37648654, -0.71463704, 9.3466215
1464750508747631, -0.48095736, 5.4125648, 8.793623, 0.32624686, 0.67501354, 10.309845
1464750511157110, -0.64606214, 4.4841495, 8.848659, -0.07516068, -0.09604144, 9.940266
1464750513566641, -0.7082755, 3.859623, 8.690732, -0.28477627, -0.5376599, 9.516144
1464750515976120, -0.4139583, 5.5920267, 8.874979, 0.43217456, 0.7730236, 10.4605465
1464750518385652, -0.68195444, 3.9553359, 8.807981, -0.23490584, -0.5165112, 9.662729
1464750520795131, -0.61016977, 4.3932223, 8.79123, -0.055765033, -0.1535778, 9.845394
1464750523204662, -0.43788654, 5.515456, 8.91805, 0.381301, 0.7012992, 10.464533
1464750525614141, -0.7106683, 3.5940197, 8.7673025, -0.35193306, -0.7991264, 9.461773
1464750528023672, -0.49292147, 4.8789654, 8.848659, 0.17446023, 0.19789696, 10.113181
1464750530433152, -0.49052864, 5.139783, 8.985049, 0.23598641, 0.35541964, 10.354085
1464750532842683, -0.72502524, 3.507878, 8.685946, -0.400478, -0.82590485, 9.350616
1464750535252162, -0.4354937, 5.288138, 8.843872, 0.33970624, 0.5334573, 10.294085
1464750537661693, -0.57906306, 4.6205406, 8.946764, 0.017946243, -0.038699627, 10.086006
1464750540071172, -0.7322037, 3.7256248, 8.662018, -0.34104574, -0.62776685, 9.430619
1464750542480704, -0.44985065, 5.5944195, 8.827123, 0.40215737, 0.8095288, 10.421178
1464750544890183, -0.7082755, 4.101298, 8.803194, -0.2332735, -0.3820746, 9.727185
1464750547299714, -0.6987042, 4.180261, 8.721839, -0.20042151, -0.27956486, 9.690971
1464750549709193, -0.46660042, 5.599205, 8.805588, 0.3939429, 0.8205123, 10.405708
1464750552118724, -0.76570326, 3.6777685, 8.700303, -0.39689523, -0.67696095, 9.4441395
1464750554528204, -0.5838487, 4.718646, 8.745767, 0.05401033, 0.13660812, 9.953561
1464750556937683, -0.52163535, 5.300102, 8.843872, 0.26080853, 0.5665164, 10.304771
1464750559347214, -0.7920243, 3.5198421, 8.599805, -0.4491188, -0.7590525, 9.284148
1464750561756693, -0.5072784, 5.2331033, 8.769695, 0.2585178, 0.5417781, 10.207348
1464750564166224, -0.5910272, 4.814359, 8.872586, 0.060362816, 0.15799618, 10.110469
1464750566575704, -0.75613195, 3.6394832, 8.573483, -0.38321912, -0.65764284, 9.313585
1464750568985235, -0.44985065, 5.568098, 8.810373, 0.39517456, 0.7914109, 10.394531
1464750571394714, -0.65084773, 4.2831526, 8.822337, -0.1286596, -0.25374103, 9.824547
1464750573804245, -0.6891329, 4.0271206, 8.688339, -0.21984065, -0.39782524, 9.590268
1464750576213724, -0.44027936, 5.65424, 8.79123, 0.42964476, 0.8732338, 10.4164715
1464750578623256, -0.7298109, 3.7950168, 8.7266245, -0.32883573, -0.6008558, 9.519433
1464750581032735, -0.57188463, 4.558327, 8.733803, 0.02435714, -0.002163887, 9.86834
1464750583442266, -0.4426722, 5.436493, 8.819944, 0.37506342, 0.6671152, 10.342009
1464750585851745, -0.7465607, 3.5318062, 8.628518, -0.40798873, -0.77606416, 9.312015
1464750588261277, -0.4977071, 5.0823555, 8.755338, 0.23415256, 0.41521454, 10.124563
1464750590670756, -0.57188463, 4.9866424, 8.886943, 0.1283803, 0.29319572, 10.201421
1464750593080235, -0.7609176, 3.5676985, 8.583055, -0.40376645, -0.7190256, 9.289577
1464750595489766, -0.43788654, 5.477171, 8.822337, 0.3886832, 0.7017884, 10.362491
1464750597899297, -0.63888365, 4.4315076, 8.872586, -0.08583051, -0.15256786, 9.936729
1464750600308777, -0.6963114, 3.8811584, 8.695518, -0.28067166, -0.5183525, 9.529576
1464750602718256, -0.40677986, 5.6446686, 8.846265, 0.47869545, 0.815207, 10.45899
1464750605127787, -0.71306115, 3.912265, 8.817552, -0.2972738, -0.54277587, 9.653007
1464750607537266, -0.6364908, 4.3645086, 8.796016, -0.09517628, -0.17113185, 9.837967
1464750609946797, -0.47138608, 5.515456, 8.913264, 0.36242545, 0.7042308, 10.462382
1464750612356277, -0.77766734, 3.5844483, 8.76491, -0.4314959, -0.7817786, 9.459351
1464750614765808, -0.57188463, 4.922036, 8.85823, 0.11299217, 0.25360394, 10.146164
1464750617175287, -0.57906306, 5.144569, 8.989835, 0.16479796, 0.38024187, 10.365681
1464750619584818, -0.8135597, 3.5198421, 8.676374, -0.49152905, -0.77628183, 9.353419
1464750621994297, -0.5168497, 5.3814583, 8.872586, 0.30052614, 0.6154218, 10.367304
1464750624403829, -0.6891329, 4.5822554, 8.944371, -0.09292954, -0.038951397, 10.072915
1464750626813308, -0.8255238, 3.7591243, 8.688339, -0.42096078, -0.5853684, 9.475225
1464750629222839, -0.5240282, 5.5944195, 8.860622, 0.3372861, 0.80929375, 10.455337
1464750631632318, -0.77766734, 4.017549, 8.846265, -0.31918043, -0.4538653, 9.731085
1464750634041849, -0.72741807, 4.1778684, 8.7673025, -0.22322267, -0.29495144, 9.732035
1464750636451329, -0.5096712, 5.556134, 8.863015, 0.34221363, 0.7708101, 10.438972
1464750638860808, -0.81595254, 3.641876, 8.776874, -0.45167905, -0.7242632, 9.499156
1464750641270339, -0.61734825, 4.733003, 8.810373, 0.031879663, 0.12819147, 10.019364
1464750643679818, -0.55034924, 5.271388, 8.941978, 0.23260856, 0.5044074, 10.37983
1464750646089349, -0.8039884, 3.5126636, 8.6548395, -0.4655435, -0.7809441, 9.330854
1464750648498829, -0.5072784, 5.2570314, 8.834301, 0.27691364, 0.52684116, 10.275425
1464750650908360, -0.5982057, 4.7784667, 8.944371, 0.050216973, 0.09767103, 10.157822
1464750653317839, -0.74895346, 3.6801612, 8.666803, -0.35719985, -0.66806173, 9.415101
1464750655727370, -0.42592242, 5.601598, 8.867801, 0.43441355, 0.78817606, 10.4588375
1464750658136849, -0.67477596, 4.211368, 8.85823, -0.16635257, -0.31926227, 9.824947
1464750660546381, -0.6963114, 4.0965123, 8.740981, -0.2094698, -0.35657644, 9.66954
1464750662955860, -0.4354937, 5.649454, 8.846265, 0.45350873, 0.8322301, 10.462509
1464750665365391, -0.73459655, 3.7878382, 8.776874, -0.33545345, -0.62554765, 9.561225
1464750667774870, -0.57906306, 4.625326, 8.774481, 0.041607976, 0.040447235, 9.935648
1464750670184402, -0.45224348, 5.4317074, 8.889337, 0.36648405, 0.63807535, 10.401289
1464750672593881, -0.7609176, 3.562913, 8.664411, -0.4023093, -0.7640059, 9.359478
1464750675003360, -0.49292147, 5.139783, 8.781659, 0.2595191, 0.44872332, 10.173948
1464750677412891, -0.55752766, 4.9674997, 8.903693, 0.14401138, 0.26295805, 10.206507
1464750679822370, -0.7513463, 3.6083765, 8.595019, -0.37503427, -0.697206, 9.3183975
1464750682231902, -0.4331009, 5.541777, 8.7673025, 0.42260778, 0.78029776, 10.34297
1464750684641381, -0.6580262, 4.395615, 8.793623, -0.09561658, -0.14954138, 9.851432
1464750687050912, -0.7298109, 3.9457645, 8.611769, -0.26932615, -0.42845654, 9.487261
1464750689460391, -0.44506502, 5.651847, 8.707481, 0.4435104, 0.89785194, 10.3420925
1464750691869922, -0.7369894, 3.8644085, 8.664411, -0.2994182, -0.5217769, 9.496679
1464750694279402, -0.62452674, 4.4434714, 8.650054, -0.03622645, -0.05248761, 9.744426
1464750696688933, -0.47377887, 5.493921, 8.743374, 0.375306, 0.7562623, 10.302496
1464750699098412, -0.77766734, 3.5605202, 8.580662, -0.39596844, -0.7385912, 9.2848015
1464750701507943, -0.55034924, 4.9579287, 8.666803, 0.16085064, 0.35349798, 9.992326
1464750703917422, -0.56470615, 5.096712, 8.827123, 0.17133361, 0.4011755, 10.199174
1464750706326954, -0.80159557, 3.5270207, 8.523234, -0.43088698, -0.7317016, 9.21992
1464750708736433, -0.4833502, 5.4053864, 8.733803, 0.34229088, 0.68488216, 10.254021
1464750711145964, -0.64606214, 4.5391846, 8.807981, -0.039256573, -0.04138279, 9.929695
1464750713555443, -0.7609176, 3.7806597, 8.602198, -0.33030647, -0.5614109, 9.404568
1464750715964974, -0.44027936, 5.642276, 8.760123, 0.44242567, 0.86320734, 10.3840275
1464750718374454, -0.7178468, 3.9768713, 8.752945, -0.25048125, -0.47677135, 9.625736
1464750720783985, -0.66041905, 4.2520456, 8.7266245, -0.12322438, -0.24573302, 9.725969
1464750723193464, -0.4546363, 5.548956, 8.819944, 0.39994413, 0.76026964, 10.394763
1464750725602943, -0.7704889, 3.5820556, 8.717052, -0.39965045, -0.7823057, 9.414886
1464750728012474, -0.5623133, 4.792824, 8.781659, 0.10777843, 0.16789007, 10.018239
1464750730421954, -0.5240282, 5.2163534, 8.944371, 0.24381965, 0.44203663, 10.355284
1464750732831485, -0.76570326, 3.4695928, 8.673982, -0.42314076, -0.8513148, 9.325156
1464750735240964, -0.48095736, 5.271388, 8.879765, 0.30035883, 0.5084691, 10.320867
1464750737650495, -0.6053841, 4.6875396, 8.987442, 0.02278018, -0.0010027885, 10.154463
1464750740059974, -0.74416786, 3.644269, 8.729017, -0.3580565, -0.734246, 9.453196
1464750742469506, -0.4139583, 5.572884, 8.932407, 0.43466634, 0.7290292, 10.502186
1464750744878985, -0.6987042, 4.113262, 8.946764, -0.20970881, -0.44714785, 9.859402
1464750747288516, -0.6771688, 4.065406, 8.860622, -0.19542521, -0.44947624, 9.759943
1464750749697995, -0.43070808, 5.6039906, 8.956335, 0.4209978, 0.755146, 10.538438
1464750752107527, -0.74895346, 3.6753755, 8.882157, -0.36355752, -0.7736139, 9.603717
1464750754517006, -0.60059845, 4.6325045, 8.908479, 0.01719898, -0.007695198, 10.058899
1464750756926537, -0.51206404, 5.3503513, 9.030513, 0.272772, 0.52477646, 10.492324
1464750759336016, -0.782453, 3.4767714, 8.7577305, -0.44380975, -0.87082696, 9.404399
1464750761745547, -0.50488555, 5.1613183, 8.91805, 0.24424505, 0.416008, 10.304999
1464750764155027, -0.5982057, 4.8789654, 9.035298, 0.074263096, 0.14606905, 10.284548
1464750766564558, -0.8135597, 3.591627, 8.736196, -0.43919444, -0.7556708, 9.440277
1464750768974037, -0.49052864, 5.5226345, 8.939586, 0.3455171, 0.7133508, 10.489425
1464750771383516, -0.72023964, 4.278367, 8.970692, -0.19396842, -0.30460334, 9.958217
1464750773793047, -0.7752745, 3.926622, 8.817552, -0.32586503, -0.51961803, 9.663976
1464750776202527, -0.4953143, 5.6470613, 8.922835, 0.37149477, 0.82534075, 10.532448
1464750778612058, -0.7968099, 3.7974095, 8.853444, -0.386086, -0.633615, 9.63785
1464750781021537, -0.6771688, 4.4674, 8.831908, -0.0937103, -0.08709431, 9.9198
1464750783431068, -0.52163535, 5.465207, 8.91805, 0.31170982, 0.67853975, 10.445794
1464750785840547, -0.80877405, 3.5246277, 8.709874, -0.45998937, -0.7972367, 9.385726
1464750788250079, -0.52163535, 5.0392847, 8.827123, 0.20651704, 0.35696173, 10.169295
1464750790659558, -0.55034924, 5.06082, 8.956335, 0.17431891, 0.3196373, 10.295541
1464750793069089, -0.7728817, 3.5700915, 8.611769, -0.4074558, -0.7254312, 9.317359
1464750795478568, -0.42592242, 5.477171, 8.829515, 0.41510808, 0.6978264, 10.367346
1464750797888099, -0.6125626, 4.4913282, 8.872586, -0.026989996, -0.107177496, 9.962822
1464750800297579, -0.7178468, 3.8524444, 8.650054, -0.28285527, -0.5173645, 9.477995
1464750802707058, -0.41874397, 5.6709895, 8.772088, 0.48168486, 0.8851762, 10.40526
1464750805116589, -0.6963114, 3.9553359, 8.733803, -0.24294418, -0.4783883, 9.597968
1464750807526120, -0.63170516, 4.302295, 8.678768, -0.084107816, -0.18032336, 9.705164
1464750809935599, -0.4426722, 5.5704913, 8.755338, 0.43014234, 0.8067851, 10.346319
1464750812345131, -0.7465607, 3.6011982, 8.626125, -0.37760943, -0.71849847, 9.342225
1464750814754610, -0.51445687, 4.8765726, 8.700303, 0.18281984, 0.26536894, 9.981836
1464750817164089, -0.4881358, 5.2139606, 8.841479, 0.2878633, 0.4789648, 10.260757
1464750819573620, -0.7393822, 3.5318062, 8.523234, -0.37874824, -0.7310729, 9.218891
1464750821983099, -0.4235296, 5.369494, 8.733803, 0.3997119, 0.6408677, 10.233263
1464750824392631, -0.5886344, 4.6564326, 8.800801, 0.043934584, 0.04720211, 9.9739065
1464750826802110, -0.72023964, 3.7543387, 8.549556, -0.31739604, -0.557776, 9.343279
1464750829211641, -0.41635114, 5.6590257, 8.740981, 0.5038534, 0.86410666, 10.373144
1464750831621120, -0.66759753, 4.098905, 8.743374, -0.18166566, -0.37130165, 9.670699
1464750834030652, -0.6412765, 4.1922255, 8.678768, -0.12444204, -0.27103782, 9.654949
1464750836440131, -0.44027936, 5.6470613, 8.772088, 0.47715425, 0.8487978, 10.396371
1464750838849662, -0.7585248, 3.6993039, 8.683554, -0.37033218, -0.6600139, 9.438831
1464750841259141, -0.5766702, 4.6899323, 8.719446, 0.07383752, 0.10818148, 9.916632
1464750843668672, -0.526421, 5.3336015, 8.85823, 0.2877488, 0.57057714, 10.333651
1464750846078152, -0.7920243, 3.5102708, 8.595019, -0.44580054, -0.7696495, 9.275374
1464750848487683, -0.5024927, 5.2283173, 8.76491, 0.29123765, 0.5206232, 10.200764
1464750850897162, -0.62452674, 4.833502, 8.906086, 0.05674517, 0.15782833, 10.1510105
1464750853306693, -0.8111669, 3.6466618, 8.616554, -0.43161446, -0.65520644, 9.358715
1464750855716172, -0.4881358, 5.5920267, 8.822337, 0.40635896, 0.7959709, 10.418445
1464750858125704, -0.7322037, 4.2329035, 8.851051, -0.21267152, -0.29385304, 9.831739
1464750860535183, -0.7800602, 4.0414777, 8.736196, -0.2979015, -0.39254642, 9.644704
1464750862944662, -0.50009996, 5.666204, 8.853444, 0.40021187, 0.8505378, 10.481215
1464750865354193, -0.7968099, 3.7734814, 8.793623, -0.38724667, -0.6376674, 9.5731535
1464750867763672, -0.6556334, 4.558327, 8.800801, -0.04105097, -0.015791893, 9.932792
1464750870173204, -0.526421, 5.453243, 8.95155, 0.31122816, 0.6366563, 10.471056
1464750872582683, -0.8063812, 3.5509489, 8.738588, -0.45249134, -0.79838777, 9.422327
1464750874992214, -0.5312066, 5.089534, 8.863015, 0.21389472, 0.36875582, 10.225306
1464750877401693, -0.57427746, 5.0129633, 8.999406, 0.13495135, 0.25968504, 10.313255
1464750879811224, -0.79920274, 3.5724843, 8.662018, -0.4081755, -0.761775, 9.364026
1464750882220704, -0.44985065, 5.491528, 8.85823, 0.37780195, 0.70431376, 10.401379
1464750884630235, -0.6436693, 4.3908296, 8.898908, -0.075258225, -0.20896316, 9.941574
1464750887039714, -0.72263247, 3.8835511, 8.709874, -0.26095536, -0.5341568, 9.545294
1464750889449245, -0.4211368, 5.6685967, 8.841479, 0.46077913, 0.8500881, 10.466476
1464750891858724, -0.72263247, 3.859623, 8.834301, -0.2850377, -0.60969734, 9.64421
1464750894268256, -0.6149554, 4.3812585, 8.812766, -0.04845476, -0.18308616, 9.859137
1464750896677735, -0.44745782, 5.534599, 8.9108715, 0.39672607, 0.7091198, 10.467827
1464750899087214, -0.74416786, 3.5724843, 8.76491, -0.3572381, -0.82551193, 9.4515085
1464750901496745, -0.5024927, 4.914858, 8.843872, 0.18939877, 0.23384285, 10.125801
1464750903906224, -0.5192425, 5.156533, 8.999406, 0.22090313, 0.37284946, 10.37598
1464750906315756, -0.782453, 3.5198421, 8.671589, -0.3995294, -0.8156378, 9.34736
1464750908725235, -0.4642076, 5.3742795, 8.863015, 0.33038402, 0.6059742, 10.352537
1464750911134766, -0.63170516, 4.5655055, 8.941978, -0.025715321, -0.0837698, 10.059532
1464750913544245, -0.7537391, 3.735196, 8.719446, -0.3265083, -0.66300106, 9.486958
1464750915953777, -0.44506502, 5.642276, 8.8701935, 0.41214004, 0.82738256, 10.481379
1464750918363256, -0.71306115, 4.022335, 8.860622, -0.22350362, -0.4907589, 9.742048
1464750920772787, -0.6580262, 4.2568316, 8.7673025, -0.110733, -0.2594192, 9.764205
1464750923182266, -0.4354937, 5.6350975, 8.848659, 0.42102647, 0.83209944, 10.458161
1464750925591797, -0.76331043, 3.6323047, 8.743374, -0.35872993, -0.76101065, 9.461239
1464750928001277, -0.5814559, 4.802395, 8.786445, 0.08777827, 0.17450237, 10.028187
1464750930410808, -0.5072784, 5.2809596, 8.925228, 0.2676286, 0.5006399, 10.367414
1464750932820287, -0.76331043, 3.493521, 8.633304, -0.3952403, -0.82602406, 9.29961
1464750935229818, -0.45942193, 5.259424, 8.807981, 0.31709474, 0.52653694, 10.2506275
1464750937639297, -0.5766702, 4.7688956, 8.906086, 0.0784547, 0.091337204, 10.11824
1464750940048829, -0.7537391, 3.6753755, 8.616554, -0.3377882, -0.6670141, 9.368165
1464750942458308, -0.41874397, 5.615955, 8.779266, 0.4380923, 0.8331318, 10.387674
1464750944867839, -0.6436693, 4.194618, 8.793623, -0.12036306, -0.33397603, 9.757607
1464750947277318, -0.6652047, 4.0797625, 8.676374, -0.16419327, -0.37347913, 9.602084
1464750949686797, -0.42831525, 5.666204, 8.760123, 0.44543737, 0.8835068, 10.394715
1464750952096329, -0.7393822, 3.723232, 8.69791, -0.32385027, -0.66957283, 9.460951
1464750954505808, -0.5814559, 4.6061835, 8.693125, 0.04545474, 0.049790382, 9.854995
1464750956915339, -0.50009996, 5.386244, 8.803194, 0.30700374, 0.6446881, 10.307672
1464750959324818, -0.7728817, 3.4911282, 8.559127, -0.4039266, -0.7942047, 9.233095
1464750961734349, -0.5096712, 5.13739, 8.71466, 0.25724065, 0.4659915, 10.115064
1464750964143829, -0.59342, 4.9316072, 8.865408, 0.107586324, 0.2425456, 10.158638
1464750966553360, -0.79920274, 3.615555, 8.583055, -0.42624044, -0.6816423, 9.31308
1464750968962839, -0.4761717, 5.56092, 8.805588, 0.38699007, 0.7750068, 10.389349
1464750971372370, -0.6843473, 4.3669014, 8.85823, -0.12890375, -0.20635223, 9.896828
1464750973781849, -0.75613195, 3.9457645, 8.712267, -0.2969998, -0.4750793, 9.577602
1464750976191381, -0.4642076, 5.723632, 8.855837, 0.43602598, 0.88646317, 10.508347
1464750978600860, -0.76331043, 3.8739798, 8.836694, -0.34303784, -0.5880437, 9.654742
1464750981010391, -0.6771688, 4.4674, 8.829515, -0.09720504, -0.10827112, 9.917429
1464750983419870, -0.4977071, 5.5513487, 8.937193, 0.3628338, 0.70455647, 10.502883
1464750985829349, -0.7968099, 3.5676985, 8.750552, -0.45380396, -0.7987933, 9.438831
1464750988238881, -0.54317075, 5.0368915, 8.860622, 0.18346632, 0.32310724, 10.199896
1464750990648360, -0.55513483, 5.139783, 8.987442, 0.18996072, 0.35499573, 10.360385
1464750993057891, -0.77766734, 3.5844483, 8.650054, -0.41476715, -0.7447963, 9.356802
1464750995467370, -0.45224348, 5.4843497, 8.860622, 0.3877061, 0.6731868, 10.401429
1464750997876902, -0.6197411, 4.534399, 8.9013, -0.030146122, -0.10332966, 10.008316
1464751000286381, -0.72502524, 3.842873, 8.693125, -0.30454695, -0.5618005, 9.510803
1464751002695912, -0.42592242, 5.706882, 8.829515, 0.48204923, 0.8642783, 10.475252
1464751005105391, -0.7369894, 4.0103707, 8.822337, -0.2776345, -0.47504425, 9.703459
1464751007514922, -0.6795616, 4.3094735, 8.769695, -0.13249975, -0.22020626, 9.791572
1464751009924402, -0.46899325, 5.623133, 8.860622, 0.39585966, 0.80124617, 10.466686
1464751012333933, -0.7704889, 3.644269, 8.729017, -0.38523144, -0.74388695, 9.453482
1464751014743412, -0.5599205, 4.883751, 8.79123, 0.12538671, 0.22428226, 10.068975
1464751017152943, -0.526421, 5.2809596, 8.930014, 0.25702113, 0.48740578, 10.373389
1464751019562422, -0.7920243, 3.5509489, 8.626125, -0.4303773, -0.76750684, 9.320532
1464751021971954, -0.48095736, 5.3910294, 8.831908, 0.33638537, 0.6139579, 10.334749
1464751024381433, -0.6221339, 4.723432, 8.925228, 0.020364404, 0.042880535, 10.117079
1464751026790964, -0.76331043, 3.7806597, 8.678768, -0.3451258, -0.6046841, 9.471657
1464751029200443, -0.44027936, 5.692525, 8.848659, 0.441696, 0.8526063, 10.486917
1464751031609922, -0.68195444, 4.1754756, 8.855837, -0.17316413, -0.3793745, 9.805692
1464751034019454, -0.66759753, 4.180261, 8.769695, -0.15261835, -0.33903766, 9.730858
1464751036428933, -0.4331009, 5.6781683, 8.867801, 0.4440173, 0.82709455, 10.4969425
1464751038838464, -0.7465607, 3.723232, 8.786445, -0.33036345, -0.72203755, 9.538918
1464751041247943, -0.5694918, 4.685147, 8.815159, 0.06801084, 0.044312477, 9.998769
1464751043657474, -0.47138608, 5.400601, 8.91805, 0.3271876, 0.5843897, 10.414978
1464751046066954, -0.7585248, 3.5270207, 8.640483, -0.381263, -0.82089925, 9.319547
1464751048476485, -0.46660042, 5.221139, 8.807981, 0.2969401, 0.47158337, 10.234647
1464751050885964, -0.58624154, 4.898108, 8.891729, 0.0969637, 0.18695164, 10.166301
1464751053295495, -0.75613195, 3.656233, 8.563912, -0.35198665, -0.67667055, 9.31121
1464751055704974, -0.41156548, 5.611169, 8.743374, 0.45088053, 0.81986713, 10.354985
1464751058114506, -0.63888365, 4.2975097, 8.762517, -0.090633094, -0.2512939, 9.776867
1464751060523985, -0.701097, 4.0366917, 8.618947, -0.2063002, -0.3913989, 9.53294
1464751062933516, -0.4426722, 5.697311, 8.705089, 0.4470176, 0.9186244, 10.362925
1464751065342995, -0.7752745, 3.8237305, 8.666803, -0.3357054, -0.57982254, 9.480852
1464751067752527, -0.6436693, 4.5320063, 8.657232, -0.033369184, -0.0050907135, 9.7928505
1464751070162006, -0.5192425, 5.5130634, 8.7577305, 0.3217404, 0.74902534, 10.329412
1464751072571537, -0.80877405, 3.562913, 8.568698, -0.43087178, -0.7488301, 9.274948
1464751074981016, -0.5455636, 5.06082, 8.695518, 0.19285536, 0.4007373, 10.065971
1464751077390547, -0.58624154, 5.087141, 8.848659, 0.14509305, 0.36447334, 10.216043
1464751079800027, -0.8350951, 3.6107693, 8.539984, -0.42938194, -0.69327617, 9.273692
1464751082209506, -0.49292147, 5.541777, 8.7577305, 0.3485553, 0.7727542, 10.340864
1464751084619037, -0.6795616, 4.5128636, 8.817552, -0.082282096, -0.0921278, 9.927826
1464751087028516, -0.7728817, 3.9361932, 8.666803, -0.30132473, -0.49193883, 9.532663
1464751089438047, -0.49052864, 5.7403817, 8.793623, 0.4047262, 0.9173546, 10.464944
1464751091847527, -0.782453, 3.9553359, 8.803194, -0.31881082, -0.5333476, 9.662661
1464751094257058, -0.70588267, 4.4004006, 8.774481, -0.13118118, -0.15736222, 9.839275
1464751096666537, -0.54317075, 5.5944195, 8.886943, 0.3137979, 0.7661834, 10.482596
1464751099076068, -0.86141616, 3.591627, 8.76491, -0.48798573, -0.7998483, 9.465073
1464751101485547, -0.6197411, 4.9052863, 8.8701935, 0.07080096, 0.20513582, 10.152792
1464751103895079, -0.6053841, 5.206782, 9.032906, 0.1490919, 0.37975264, 10.435709
1464751106304558, -0.85184485, 3.507878, 8.73141, -0.4965914, -0.8573508, 9.396103
1464751108714089, -0.5168497, 5.3718867, 8.941978, 0.28390145, 0.54283714, 10.426314
1464751111123568, -0.6723832, 4.6372905, 9.020942, -0.055096567, -0.07622242, 10.164896
1464751113533099, -0.8207382, 3.7447674, 8.7984085, -0.40888608, -0.69370127, 9.563498
1464751115942579, -0.4881358, 5.6614184, 8.9348, 0.3842076, 0.784565, 10.552604
1464751118352058, -0.7369894, 4.06062, 8.937193, -0.2651652, -0.51021194, 9.827236
1464751120761589, -0.7106683, 4.220939, 8.882157, -0.19415462, -0.35594392, 9.85138
1464751123171068, -0.485743, 5.6470613, 8.941978, 0.39064884, 0.7628546, 10.552237
1464751125580599, -0.81834537, 3.65384, 8.839087, -0.44085646, -0.78692365, 9.556991
1464751127990079, -0.6053841, 4.752146, 8.8701935, 0.048674345, 0.072496414, 10.080777
1464751130399610, -0.5312066, 5.343173, 8.965906, 0.2687301, 0.5062876, 10.435066
1464751132809089, -0.8063812, 3.5150564, 8.683554, -0.45987684, -0.8347516, 9.354233
1464751135218620, -0.4881358, 5.2809596, 8.85823, 0.29873514, 0.48728943, 10.308654
1464751137628099, -0.59581286, 4.8454657, 8.927621, 0.07558781, 0.11503649, 10.174331
1464751140037631, -0.76570326, 3.67059, 8.635697, -0.37853146, -0.6967871, 9.381152
1464751142447110, -0.40917268, 5.6279187, 8.79123, 0.47228074, 0.78937435, 10.40579
1464751144856641, -0.6436693, 4.240082, 8.774481, -0.12005633, -0.3126254, 9.760736
1464751147266120, -0.6843473, 4.0414777, 8.652447, -0.19879425, -0.4191742, 9.563027
1464751149675652, -0.40677986, 5.690132, 8.702696, 0.48341024, 0.88552475, 10.356745
1464751152085131, -0.72741807, 3.7663028, 8.62134, -0.30804056, -0.62720776, 9.410281
1464751154494662, -0.567099, 4.613362, 8.626125, 0.0609259, 0.048410416, 9.798403
1464751156904141, -0.45702913, 5.4699926, 8.695518, 0.3782348, 0.71097946, 10.251495
1464751159313672, -0.7465607, 3.5533416, 8.4682, -0.38166833, -0.72842455, 9.177022
1464751161723152, -0.45702913, 5.1613183, 8.606983, 0.31478179, 0.48681474, 10.029566
1464751164132631, -0.5288138, 5.020142, 8.719446, 0.1994595, 0.3342533, 10.067707
1464751166542162, -0.7393822, 3.6203406, 8.425129, -0.3476572, -0.6578672, 9.169661
1464751168951641, -0.42831525, 5.582455, 8.630911, 0.44065517, 0.8235903, 10.245359
1464751171361172, -0.62931234, 4.436293, 8.671589, -0.051458657, -0.113423586, 9.760003
1464751173770652, -0.70588267, 3.9481573, 8.523234, -0.24108154, -0.4377942, 9.406485
1464751176180183, -0.41156548, 5.7403817, 8.645268, 0.49637026, 0.945724, 10.330599
1464751178589662, -0.6987042, 3.9050865, 8.6141615, -0.2474941, -0.5173638, 9.466402
1464751180999193, -0.634098, 4.4434714, 8.616554, -0.048894703, -0.07833147, 9.715092
1464751183408672, -0.48095736, 5.5776696, 8.695518, 0.3789873, 0.8071532, 10.30333
1464751185818204, -0.7800602, 3.5892339, 8.537591, -0.40366298, -0.7291889, 9.2567215
1464751188227683, -0.55513483, 4.981857, 8.681161, 0.1548711, 0.32577848, 10.01796
1464751190637214, -0.55752766, 5.130212, 8.843872, 0.18614542, 0.37318897, 10.230839
1464751193046693, -0.79441714, 3.5509489, 8.5423765, -0.44254726, -0.75097394, 9.244064
1464751195456224, -0.4546363, 5.436493, 8.79123, 0.37226695, 0.6311259, 10.3204155
1464751197865704, -0.6029913, 4.534399, 8.886943, -0.017831445, -0.13047123, 9.994238
1464751200275235, -0.7322037, 3.76391, 8.695518, -0.32744652, -0.6608329, 9.47477
1464751202684714, -0.41156548, 5.65424, 8.865408, 0.4559645, 0.7786393, 10.484327
1464751205094245, -0.6867401, 4.0031924, 8.8701935, -0.23738939, -0.5514016, 9.737408
1464751207503724, -0.6556334, 4.2329035, 8.812766, -0.14536077, -0.3377428, 9.791677
1464751209913204, -0.44745782, 5.6039906, 8.896515, 0.4002424, 0.73181343, 10.490812
1464751212322735, -0.7513463, 3.6227336, 8.788837, -0.3904286, -0.819819, 9.492516
1464751214732214, -0.5479564, 4.7880383, 8.853444, 0.10034704, 0.09024811, 10.079228
1464751217141745, -0.5072784, 5.2642097, 8.975478, 0.24367887, 0.4323783, 10.40587
1464751219551224, -0.7800602, 3.5198421, 8.676374, -0.41922343, -0.85108066, 9.347576
1464751221960756, -0.46660042, 5.326423, 8.8701935, 0.30217463, 0.52208185, 10.339483
1464751224370235, -0.5599205, 4.7401814, 8.965906, 0.066263616, -4.529953E-5, 10.157061
1464751226779766, -0.7585248, 3.711268, 8.685946, -0.3672558, -0.69349027, 9.443448
1464751229189245, -0.42831525, 5.6374903, 8.846265, 0.42952174, 0.78290033, 10.460581
1464751231598777, -0.67477596, 4.1635113, 8.85823, -0.17945999, -0.40873122, 9.800976
1464751234008256, -0.70588267, 4.0965123, 8.76491, -0.22030449, -0.41437387, 9.689329
1464751236417787, -0.45702913, 5.6470613, 8.836694, 0.40681273, 0.8050556, 10.458095
1464751238827266, -0.77766734, 3.7256248, 8.738588, -0.36831692, -0.70876527, 9.497893
1464751241236797, -0.62452674, 4.627719, 8.7266245, -0.0069585145, 0.030945778, 9.897413
1464751243646277, -0.51445687, 5.4053864, 8.836694, 0.27644968, 0.6146903, 10.349674
1464751246055808, -0.8135597, 3.5102708, 8.559127, -0.44379935, -0.80325365, 9.241232
1464751248465287, -0.52163535, 5.1589255, 8.717052, 0.23058486, 0.4589634, 10.129651
1464751250874818, -0.6221339, 4.895715, 8.831908, 0.059785962, 0.20760441, 10.114891
1464751253284297, -0.81595254, 3.5964124, 8.52802, -0.433744, -0.705117, 9.254285
1464751255693829, -0.47377887, 5.558527, 8.724232, 0.37801057, 0.782578, 10.318848
1464751258103308, -0.6987042, 4.321438, 8.750552, -0.1501466, -0.22874928, 9.78061
1464751260512787, -0.7513463, 3.991228, 8.611769, -0.27062505, -0.43414474, 9.507644
1464751262922318, -0.44506502, 5.6685967, 8.705089, 0.4202819, 0.87969685, 10.35177
1464751265331797, -0.7537391, 3.8117664, 8.6548395, -0.3181256, -0.60663605, 9.46228
1464751267741329, -0.61734825, 4.4482574, 8.633304, -0.030361652, -0.08397722, 9.731087
1464751270150808, -0.4642076, 5.4891353, 8.752945, 0.35875407, 0.71164656, 10.311399
1464751272560339, -0.7513463, 3.5437703, 8.547162, -0.3698842, -0.7850282, 9.2424965
1464751274969818, -0.48095736, 5.0105705, 8.685946, 0.23098901, 0.33815813, 10.030708
1464751277379349, -0.5096712, 5.0847483, 8.834301, 0.20988151, 0.34042645, 10.1980095
1464751279788829, -0.7465607, 3.548556, 8.518449, -0.35772103, -0.7709985, 9.219067
1464751282198360, -0.45224348, 5.4795637, 8.729017, 0.36226195, 0.71384525, 10.285189
1464751284607839, -0.65084773, 4.4721856, 8.788837, -0.066097856, -0.12964678, 9.881627
1464751287017318, -0.75613195, 3.8404803, 8.602198, -0.31033325, -0.5521569, 9.429615
1464751289426849, -0.43070808, 5.6853466, 8.740981, 0.43911618, 0.87487173, 10.390149
1464751291836381, -0.72502524, 3.9481573, 8.745767, -0.26528972, -0.5361078, 9.604386
1464751294245860, -0.6580262, 4.35733, 8.707481, -0.099437475, -0.18590665, 9.756798
1464751296655339, -0.4833502, 5.6207404, 8.803194, 0.3682152, 0.8028097, 10.418374
1464751299064870, -0.78723866, 3.6394832, 8.685946, -0.4029863, -0.74920845, 9.412096
1464751301474349, -0.5623133, 4.907679, 8.779266, 0.12557614, 0.22809458, 10.070215
1464751303883881, -0.53359944, 5.2809596, 8.906086, 0.2380749, 0.47944736, 10.353989
1464751306293360, -0.8039884, 3.5605202, 8.611769, -0.43482226, -0.7770848, 9.3109255
1464751308702891, -0.50009996, 5.367101, 8.805588, 0.29266262, 0.5937743, 10.3032055
1464751311112370, -0.6556334, 4.692325, 8.894122, -0.0286237, 0.012711048, 10.077312
1464751313521902, -0.81595254, 3.751946, 8.669196, -0.3967067, -0.64390635, 9.451236
1464751315931381, -0.50009996, 5.6781683, 8.819944, 0.36646676, 0.8498597, 10.460716
1464751318340912, -0.7537391, 4.106084, 8.836694, -0.26068187, -0.4353466, 9.760008
1464751320750391, -0.72741807, 4.182654, 8.752945, -0.2198962, -0.32801533, 9.720176
1464751323159922, -0.4953143, 5.6685967, 8.819944, 0.39882404, 0.8307128, 10.455648
1464751325569402, -0.8063812, 3.6849468, 8.712267, -0.42784894, -0.7090435, 9.457638
1464751327978933, -0.59581286, 4.7377887, 8.76491, 0.05451703, 0.096803665, 9.980629
1464751330388412, -0.552742, 5.3766723, 8.839087, 0.2627644, 0.5893593, 10.340562
1464751332797943, -0.85184485, 3.548556, 8.56152, -0.49257612, -0.7472844, 9.263717
1464751335207422, -0.55034924, 5.24746, 8.736196, 0.23744458, 0.52866983, 10.1894045
1464751337616954, -0.63888365, 4.8765726, 8.841479, 0.046860397, 0.1900096, 10.115463
1464751340026433, -0.8063812, 3.6801612, 8.544769, -0.4177041, -0.6332364, 9.307601
1464751342435912, -0.45942193, 5.6350975, 8.736196, 0.43980998, 0.8271761, 10.363825
1464751344845443, -0.6891329, 4.3094735, 8.745767, -0.1469804, -0.23135471, 9.770351
1464751347254922, -0.72502524, 4.031906, 8.63809, -0.2484178, -0.40520382, 9.548437
1464751349664454, -0.43788654, 5.6997037, 8.738588, 0.4785173, 0.8712015, 10.394871
1464751352073933, -0.76331043, 3.7854455, 8.69791, -0.3543136, -0.6263552, 9.489364
1464751354483464, -0.62931234, 4.575077, 8.7266245, -0.010828197, -0.012394905, 9.87325
1464751356892943, -0.52163535, 5.4795637, 8.843872, 0.33227122, 0.6645918, 10.390367
1464751359302474, -0.8135597, 3.5365918, 8.642876, -0.48092222, -0.7877698, 9.328278
1464751361711954, -0.5288138, 5.096712, 8.819944, 0.22732604, 0.35205364, 10.191756
1464751364121485, -0.5982057, 5.015356, 8.949157, 0.12524211, 0.24345922, 10.272493
1464751366530964, -0.79920274, 3.5796626, 8.652447, -0.42957819, -0.77737784, 9.355676
1464751368940495, -0.45702913, 5.517849, 8.88455, 0.38902426, 0.6698179, 10.439864
1464751371349974, -0.63170516, 4.4434714, 8.963513, -0.06312424, -0.23105717, 10.021511
1464751373759506, -0.715454, 3.885944, 8.786445, -0.27474988, -0.5956917, 9.611644
1464751376168985, -0.4211368, 5.7020965, 8.906086, 0.47122663, 0.8105755, 10.541845
1464751378578516, -0.6891329, 3.9170506, 8.882157, -0.25841248, -0.6177025, 9.708892
1464751380987995, -0.6149554, 4.3836513, 8.867801, -0.06143099, -0.23754478, 9.908191
1464751383397527, -0.4546363, 5.5776696, 8.956335, 0.40855575, 0.68480396, 10.530771
1464751385807006, -0.7752745, 3.5820556, 8.807981, -0.42750508, -0.84219265, 9.493189
1464751388216485, -0.5479564, 4.948357, 8.9108715, 0.15385264, 0.20507431, 10.204138
1464751390626016, -0.5407779, 5.163711, 9.047262, 0.20844167, 0.3228941, 10.424088
1464751393035495, -0.7920243, 3.5437703, 8.724232, -0.4489367, -0.8246658, 9.402989
1464751395445027, -0.4833502, 5.4293146, 8.939586, 0.3411255, 0.5788512, 10.448725
1464751397854506, -0.64606214, 4.6229334, 9.006584, -0.039585233, -0.08699036, 10.143883
1464751400264037, -0.80159557, 3.7974095, 8.781659, -0.38701957, -0.6419411, 9.571756
1464751402673516, -0.46899325, 5.6949177, 8.932407, 0.41608536, 0.8097167, 10.564618
1464751405083047, -0.7585248, 4.074977, 8.91805, -0.28228205, -0.4801569, 9.81846
1464751407492527, -0.7369894, 4.2352962, 8.843872, -0.21449101, -0.3137257, 9.826013
1464751409902058, -0.526421, 5.656633, 8.903693, 0.35272938, 0.80785656, 10.52489
1464751412311537, -0.8255238, 3.6586258, 8.779266, -0.44486713, -0.74929833, 9.507008
1464751414721068, -0.6364908, 4.7784667, 8.839087, 0.02345395, 0.122469425, 10.067411
1464751417130547, -0.60059845, 5.3240304, 8.977871, 0.1914733, 0.51169825, 10.440769
1464751419540079, -0.8781659, 3.534199, 8.678768, -0.5210327, -0.7929697, 9.363891
1464751421949558, -0.567099, 5.312066, 8.879765, 0.22850835, 0.53774214, 10.346422
1464751424359089, -0.67477596, 4.7569313, 8.9826565, -0.02609396, 0.049777508, 10.18669
1464751426768568, -0.8327023, 3.6658044, 8.695518, -0.44299, -0.69998026, 9.437018
1464751429178099, -0.49052864, 5.6327047, 8.879765, 0.3877747, 0.79020596, 10.490158
1464751431587579, -0.7369894, 4.199404, 8.882157, -0.2270701, -0.36155844, 9.843199
1464751433997110, -0.7513463, 4.0845485, 8.784052, -0.2641629, -0.409575, 9.704126
1464751436406589, -0.47138608, 5.682954, 8.874979, 0.41819102, 0.82657385, 10.508345
1464751438816068, -0.7728817, 3.7567315, 8.807981, -0.36931407, -0.6904638, 9.574851
1464751441225599, -0.61734825, 4.599005, 8.827123, -3.3575296E-4, -0.027247429, 9.972427
1464751443635079, -0.4881358, 5.453243, 8.953942, 0.33507067, 0.60367775, 10.472465
1464751446044610, -0.7680961, 3.546163, 8.707481, -0.410419, -0.8260989, 9.388002
1464751448454089, -0.4881358, 5.163711, 8.860622, 0.2693302, 0.39471102, 10.255949
1464751450863620, -0.5479564, 4.9698925, 8.9826565, 0.15089363, 0.19089603, 10.277596
1464751453273099, -0.7537391, 3.6370904, 8.662018, -0.38120347, -0.73015976, 9.388752
1464751455682631, -0.39720857, 5.608776, 8.867801, 0.47670144, 0.74307203, 10.463014
1464751458092110, -0.60059845, 4.3908296, 8.896515, -0.046423435, -0.24247241, 9.936152
1464751460501641, -0.68195444, 3.9816568, 8.733803, -0.22217119, -0.49094176, 9.607683
1464751462911120, -0.3900301, 5.7260246, 8.836694, 0.51436853, 0.85215473, 10.489801
1464751465320652, -0.6795616, 3.8907297, 8.796016, -0.25189418, -0.60048985, 9.620055
1464751467730131, -0.56470615, 4.479364, 8.769695, 0.018580794, -0.12220621, 9.862854
1464751470139662, -0.4139583, 5.5704913, 8.85823, 0.44399077, 0.7199378, 10.43813
1464751472549141, -0.7322037, 3.591627, 8.652447, -0.36897194, -0.777606, 9.3573475
1464751474958672, -0.47138608, 5.015356, 8.7673025, 0.24978131, 0.30535078, 10.10376
1464751477368152, -0.4833502, 5.15414, 8.894122, 0.26520687, 0.3656807, 10.281055
1464751479777683, -0.7298109, 3.5676985, 8.563912, -0.36854905, -0.7563546, 9.26789
1464751482187162, -0.43070808, 5.4795637, 8.76491, 0.41316956, 0.6851859, 10.3147745
1464751484596693, -0.59581286, 4.551149, 8.829515, 5.6743622E-5, -0.089152336, 9.950897
1464751487006172, -0.7106683, 3.8333018, 8.616554, -0.28614086, -0.56565714, 9.43623
1464751489415652, -0.41635114, 5.704489, 8.721839, 0.482449, 0.8879795, 10.380933
1464751491825183, -0.6939186, 4.0031924, 8.73141, -0.22947538, -0.4827528, 9.615555
1464751494234662, -0.64606214, 4.342973, 8.676374, -0.08903593, -0.180969, 9.722016
1464751496644193, -0.45224348, 5.6446686, 8.745767, 0.43221796, 0.8373742, 10.376282
1464751499053724, -0.79920274, 3.6275191, 8.616554, -0.42925686, -0.71585846, 9.345905
1464751501463204, -0.57188463, 4.8622155, 8.707481, 0.11437744, 0.21671247, 9.98641
1464751503872683, -0.552742, 5.304888, 8.834301, 0.24313664, 0.5256567, 10.303244
1464751506282214, -0.8111669, 3.5413775, 8.530413, -0.45975113, -0.7485173, 9.230149
1464751508691693, -0.50009996, 5.352744, 8.73141, 0.30101812, 0.6082158, 10.231275
1464751511101224, -0.6221339, 4.7138605, 8.805588, 0.019111335, 0.062244415, 10.007081
1464751513510704, -0.7680961, 3.7040894, 8.554341, -0.35813445, -0.6419313, 9.32452
1464751515920235, -0.41874397, 5.65424, 8.71466, 0.45615077, 0.8523216, 10.3516445
1464751518329714, -0.6723832, 4.132405, 8.721839, -0.17309344, -0.38246632, 9.665564
1464751520739245, -0.65084773, 4.1371903, 8.635697, -0.1455198, -0.34376144, 9.590406
1464751523148724, -0.40438703, 5.6685967, 8.69791, 0.47329515, 0.8632951, 10.343156
1464751525558256, -0.701097, 3.6801612, 8.62134, -0.30912584, -0.7129638, 9.367964
1464751527967735, -0.54317075, 4.6731825, 8.666803, 0.09276509, 0.070391655, 9.86071
1464751530377266, -0.47856453, 5.3910294, 8.793623, 0.3353626, 0.60077715, 10.30275
1464751532786745, -0.74895346, 3.5389848, 8.547162, -0.39858794, -0.7771263, 9.239941
1464751535196277, -0.44745782, 5.218746, 8.73141, 0.32209182, 0.47583294, 10.16577
1464751537605756, -0.5383851, 4.9052863, 8.85823, 0.13806689, 0.17731333, 10.137525
1464751540015287, -0.7393822, 3.6227336, 8.578269, -0.36604428, -0.7268903, 9.305655
1464751542424766, -0.4019942, 5.6039906, 8.779266, 0.45436943, 0.7705164, 10.384684
1464751544834297, -0.6412765, 4.3094735, 8.817552, -0.11137569, -0.28180957, 9.830574
1464751547243777, -0.71306115, 3.9888353, 8.717052, -0.26236057, -0.48458982, 9.597011
1464751549653308, -0.40917268, 5.6853466, 8.786445, 0.47251165, 0.8354559, 10.429331
1464751552062787, -0.715454, 3.792624, 8.755338, -0.3191887, -0.66747665, 9.539623
1464751554472266, -0.60777694, 4.5008993, 8.762517, -0.029276848, -0.10114598, 9.869047
1464751556881797, -0.5024927, 5.4819565, 8.855837, 0.3230214, 0.6548772, 10.401778
1464751559291277, -0.8039884, 3.5126636, 8.635697, -0.46710044, -0.8281164, 9.3089485
1464751561700808, -0.52163535, 5.0536413, 8.7673025, 0.19847786, 0.34357452, 10.1251955
1464751564110287, -0.56470615, 5.0273204, 8.886943, 0.14192927, 0.2780199, 10.2212105
1464751566519818, -0.7920243, 3.5533416, 8.551949, -0.43660194, -0.75426555, 9.253638
1464751568929297, -0.46181476, 5.477171, 8.752945, 0.37240863, 0.6871152, 10.30611
1464751571338829, -0.6652047, 4.4482574, 8.79123, -0.10251135, -0.14277768, 9.873416
1464751573748308, -0.7609176, 3.8285162, 8.599805, -0.34602225, -0.5506346, 9.421799
1464751576157839, -0.46899325, 5.6781683, 8.712267, 0.4232098, 0.8773985, 10.3641815
1464751578567318, -0.7465607, 3.912265, 8.69791, -0.3170727, -0.5293987, 9.54652
1464751580976849, -0.65324056, 4.3118663, 8.650054, -0.10874438, -0.19612765, 9.68463
1464751583386329, -0.47377887, 5.56092, 8.729017, 0.3646227, 0.78431416, 10.324532
1464751585795860, -0.7704889, 3.5676985, 8.571091, -0.4009515, -0.7648506, 9.275773
1464751588205339, -0.5240282, 4.9028935, 8.678768, 0.1633681, 0.25378895, 9.9771185
1464751590614870, -0.50488555, 5.1828537, 8.807981, 0.24706644, 0.42486095, 10.220365
1464751593024349, -0.76570326, 3.5246277, 8.4705925, -0.42213428, -0.74690914, 9.16647
1464751595433881, -0.44027936, 5.3910294, 8.681161, 0.3759989, 0.64436483, 10.201129
1464751597843360, -0.60777694, 4.625326, 8.7673025, 0.004536271, 0.0058870316, 9.931192
1464751600252891, -0.75613195, 3.7423747, 8.537591, -0.34148782, -0.60183644, 9.3267765
1464751602662370, -0.4235296, 5.663811, 8.707481, 0.44138443, 0.8717365, 10.350056
1464751605071902, -0.6987042, 4.074977, 8.733803, -0.21909636, -0.426116, 9.651082
1464751607481381, -0.6963114, 4.165904, 8.659625, -0.18980718, -0.31487942, 9.627749
1464751609890912, -0.45224348, 5.6590257, 8.748159, 0.40284365, 0.85516596, 10.385845
1464751612300391, -0.7537391, 3.6729827, 8.671589, -0.36349785, -0.72795105, 9.412403
1464751614709870, -0.57188463, 4.74736, 8.733803, 0.07040799, 0.11792278, 9.956152
1464751617119402, -0.50009996, 5.3623157, 8.874979, 0.2746592, 0.56114435, 10.362406
1464751619528881, -0.7968099, 3.5318062, 8.583055, -0.42600873, -0.79646707, 9.271544
1464751621938412, -0.4977071, 5.285745, 8.774481, 0.26303393, 0.5394316, 10.238073
1464751624347891, -0.6149554, 4.8215375, 8.879765, 0.034410954, 0.12154007, 10.122236
1464751626757422, -0.79920274, 3.6610186, 8.592627, -0.40607512, -0.6889303, 9.339994
1464751629166902, -0.4546363, 5.6374903, 8.774481, 0.39562714, 0.82802534, 10.398913
1464751631576433, -0.6963114, 4.254439, 8.805588, -0.17401224, -0.30623102, 9.797931
1464751633985912, -0.7369894, 4.065406, 8.671589, -0.24859452, -0.39240384, 9.594339
1464751636395443, -0.48095736, 5.721239, 8.750552, 0.39376622, 0.9200535, 10.41799
1464751638804922, -0.80159557, 3.7878382, 8.705089, -0.3788404, -0.63196397, 9.4987335
1464751641214454, -0.66999036, 4.56072, 8.7266245, -0.06894934, -0.013930321, 9.869046
1464751643623933, -0.55752766, 5.477171, 8.836694, 0.25104362, 0.6881237, 10.385608
1464751646033464, -0.8470592, 3.5365918, 8.597412, -0.47678822, -0.7868812, 9.289454
1464751648442943, -0.5455636, 5.127819, 8.7577305, 0.18494305, 0.4285798, 10.152445
1464751650852474, -0.6053841, 4.9986067, 8.898908, 0.08949107, 0.26799297, 10.220728
1464751653261954, -0.8470592, 3.5772698, 8.583055, -0.45919463, -0.7432518, 9.29623
1464751655671485, -0.4977071, 5.5465627, 8.810373, 0.32472628, 0.75052595, 10.390669
1464751658080964, -0.6939186, 4.3908296, 8.865408, -0.1424725, -0.2141521, 9.914142
1464751660490495, -0.7968099, 3.9314077, 8.721839, -0.3471083, -0.51217103, 9.5801115
1464751662899974, -0.48095736, 5.7116675, 8.851051, 0.39363807, 0.86315155, 10.5021715
1464751665309454, -0.78723866, 3.8739798, 8.843872, -0.35654575, -0.6146662, 9.661087
1464751667718985, -0.69152576, 4.4243293, 8.834301, -0.12583393, -0.16736221, 9.902218
1464751670128516, -0.52163535, 5.5872407, 8.953942, 0.3079341, 0.7292938, 10.53735
1464751672537995, -0.81834537, 3.5988052, 8.776874, -0.4413575, -0.8151932, 9.476035
1464751674947527, -0.55752766, 4.989035, 8.88455, 0.13358927, 0.2582841, 10.200588
1464751677357006, -0.552742, 5.1924253, 9.044869, 0.18191874, 0.3538289, 10.436388
1464751679766485, -0.8111669, 3.5557344, 8.73141, -0.45463908, -0.82764673, 9.415258
1464751682176016, -0.4546363, 5.465207, 8.9348, 0.35304672, 0.6158042, 10.45954
1464751684585547, -0.62931234, 4.587041, 9.01137, -0.038036227, -0.12007189, 10.1304455
1464751686995027, -0.74895346, 3.8237305, 8.776874, -0.32834518, -0.63078666, 9.576516
1464751689404506, -0.4331009, 5.73081, 8.9013, 0.43907917, 0.85664177, 10.551602
1464751691814037, -0.72741807, 4.019942, 8.896515, -0.26733768, -0.52706385, 9.771784
1464751694223516, -0.64606214, 4.2664027, 8.836694, -0.12450093, -0.30947638, 9.828298
1464751696633047, -0.4331009, 5.6614184, 8.920443, 0.41780108, 0.7860999, 10.536652
1464751699042527, -0.7680961, 3.6346977, 8.805588, -0.40621853, -0.7938986, 9.515466
1464751701452058, -0.567099, 4.807181, 8.867801, 0.08592981, 0.11876345, 10.101831
1464751703861537, -0.5288138, 5.3240304, 9.001799, 0.24707204, 0.48485565, 10.45759
1464751706271068, -0.7800602, 3.522235, 8.702696, -0.44053853, -0.83806753, 9.373107
1464751708680547, -0.4761717, 5.3312087, 8.9013, 0.29122758, 0.52858114, 10.369062
1464751711090079, -0.5886344, 4.773681, 8.987442, 0.044599473, 0.03948307, 10.193384
1464751713499558, -0.75613195, 3.711268, 8.709874, -0.3529032, -0.6976764, 9.465509
1464751715909089, -0.43070808, 5.690132, 8.88455, 0.4228701, 0.8330183, 10.517871
1464751718318568, -0.6867401, 4.199404, 8.915657, -0.1833219, -0.38903713, 9.869681
1464751720728099, -0.6795616, 4.1587257, 8.805588, -0.1795736, -0.37440872, 9.75309
1464751723137579, -0.4331009, 5.7355957, 8.865408, 0.4407403, 0.87718534, 10.522185
1464751725547110, -0.7609176, 3.7423747, 8.796016, -0.36207706, -0.706444, 9.556364
1464751727956589, -0.60777694, 4.685147, 8.812766, 0.015325308, 0.04786253, 9.999117
1464751730366120, -0.5072784, 5.4628143, 8.920443, 0.2973305, 0.63480234, 10.449049
1464751732775599, -0.7848458, 3.5653057, 8.6548395, -0.4196819, -0.78601694, 9.350918
1464751735185131, -0.49052864, 5.221139, 8.819944, 0.26211727, 0.4741602, 10.246891
1464751737594610, -0.57906306, 4.9842496, 8.922835, 0.11122203, 0.24733925, 10.233353
1464751740004141, -0.7800602, 3.6634114, 8.623733, -0.38847268, -0.6891973, 9.368668
1464751742413620, -0.44027936, 5.6327047, 8.82473, 0.40784281, 0.80740976, 10.439292
1464751744823152, -0.63888365, 4.4004006, 8.860622, -0.08892506, -0.20924115, 9.911138
1464751747232631, -0.701097, 4.0103707, 8.700303, -0.23467147, -0.45240617, 9.592192
1464751749642162, -0.4211368, 5.757131, 8.803194, 0.45707905, 0.9183116, 10.476923
1464751752051641, -0.71306115, 3.8739798, 8.7673025, -0.28374058, -0.5966816, 9.588807
1464751754461172, -0.5814559, 4.536792, 8.7577305, 0.0076304674, -0.057460308, 9.8800335
1464751756870652, -0.44745782, 5.568098, 8.836694, 0.38257807, 0.75005054, 10.420276
1464751759280183, -0.7465607, 3.5844483, 8.623733, -0.39130098, -0.76041603, 9.329686
1464751761689662, -0.47377887, 5.06082, 8.7577305, 0.24105865, 0.3547101, 10.116833
1464751764099193, -0.5312066, 5.0919266, 8.886943, 0.18475324, 0.33621073, 10.248926
1464751766508672, -0.79441714, 3.5724843, 8.578269, -0.44156897, -0.7358947, 9.286761
1464751768918152, -0.45942193, 5.491528, 8.817552, 0.3649202, 0.6893449, 10.368647
1464751771327683, -0.63170516, 4.5152564, 8.913264, -0.061950684, -0.13317299, 10.01056
1464751773737162, -0.76331043, 3.8333018, 8.721839, -0.35305154, -0.5872743, 9.532985
1464751776146693, -0.44985065, 5.6949177, 8.8701935, 0.4240505, 0.8374691, 10.50874
1464751778556172, -0.72502524, 3.952943, 8.877372, -0.29893035, -0.569118, 9.723473
1464751780965704, -0.66041905, 4.2975097, 8.851051, -0.14306962, -0.28326845, 9.856225
1464751783375183, -0.48095736, 5.6207404, 8.939586, 0.362289, 0.7509842, 10.537789
1464751785784714, -0.80159557, 3.615555, 8.803194, -0.45112413, -0.8032851, 9.505906
1464751788194193, -0.5407779, 4.895715, 8.898908, 0.12695503, 0.1722889, 10.168837
1464751790603724, -0.51206404, 5.2498527, 9.02812, 0.24000299, 0.40374374, 10.445551
1464751793013204, -0.782453, 3.546163, 8.736196, -0.45772028, -0.8248584, 9.413753
1464751795422735, -0.45224348, 5.383851, 8.944371, 0.34000754, 0.53904676, 10.430054
1464751797832214, -0.5910272, 4.6707897, 9.030513, 0.0050308704, -0.0675478, 10.183867
1464751800241745, -0.7465607, 3.7328033, 8.784052, -0.38665742, -0.6977482, 9.540146
1464751802651224, -0.38763726, 5.65424, 8.9013, 0.4868788, 0.75944805, 10.513802
1464751805060756, -0.6412765, 4.091727, 8.891729, -0.19396818, -0.47602034, 9.795514
1464751807470235, -0.6269195, 4.1347976, 8.807981, -0.16056097, -0.40674376, 9.74058
1464751809879766, -0.37806597, 5.6685967, 8.853444, 0.50370896, 0.78990364, 10.477678
1464751812289245, -0.6771688, 3.6849468, 8.736196, -0.32886076, -0.7372649, 9.471368
1464751814698777, -0.50488555, 4.709075, 8.7577305, 0.12125319, 0.064062595, 9.955368
1464751817108256, -0.4354937, 5.3814583, 8.848659, 0.37192762, 0.5632715, 10.343738
1464751819517787, -0.72502524, 3.5294135, 8.556734, -0.40592802, -0.7720833, 9.243334
1464751821927266, -0.4139583, 5.2546387, 8.73141, 0.36630142, 0.5046711, 10.179943
1464751824336797, -0.5096712, 4.8502517, 8.805588, 0.15419263, 0.15890884, 10.063501
1464751826746277, -0.6963114, 3.6610186, 8.504091, -0.33642024, -0.6458099, 9.256199
1464751829155808, -0.34217364, 5.623133, 8.700303, 0.5431719, 0.801414, 10.319626
1464751831565287, -0.567099, 4.2520456, 8.73141, -0.06817162, -0.2951188, 9.723542
1464751833974818, -0.59581286, 4.007978, 8.611769, -0.15544963, -0.4359665, 9.506167
1464751836384297, -0.34456646, 5.716453, 8.712267, 0.5665495, 0.87368155, 10.373807
1464751838793829, -0.6723832, 3.8069808, 8.671589, -0.2882405, -0.60809994, 9.470417
1464751841203308, -0.5312066, 4.5415773, 8.688339, 0.054736197, -0.041104555, 9.817875
1464751843612839, -0.41874397, 5.4987063, 8.817552, 0.42270184, 0.6683078, 10.369911
1464751846022318, -0.72263247, 3.5437703, 8.592627, -0.40656585, -0.778074, 9.281329
1464751848431849, -0.44027936, 5.0751767, 8.748159, 0.28000218, 0.35315657, 10.113281
1464751850841329, -0.4953143, 5.0273204, 8.906086, 0.20163226, 0.25528288, 10.233858
1464751853250860, -0.71306115, 3.603591, 8.599805, -0.37259847, -0.73865795, 9.3148575
1464751855660339, -0.3924229, 5.548956, 8.829515, 0.45052123, 0.70356894, 10.402275
1464751858069870, -0.60777694, 4.4195433, 8.894122, -0.07046485, -0.21404147, 9.947681
1464751860479349, -0.6891329, 3.9146578, 8.7266245, -0.2800489, -0.53595066, 9.570148
1464751862888881, -0.40438703, 5.7188463, 8.848659, 0.49439543, 0.83858633, 10.498564
1464751865298360, -0.7298109, 3.9194436, 8.841479, -0.33060098, -0.5738616, 9.6761465
1464751867707891, -0.634098, 4.386044, 8.829515, -0.105980754, -0.20592904, 9.876546
1464751870117370, -0.4761717, 5.599205, 8.920443, 0.37811875, 0.72573805, 10.511064
1464751872526902, -0.7680961, 3.591627, 8.7577305, -0.4512142, -0.8016069, 9.452059
1464751874936381, -0.5192425, 4.895715, 8.877372, 0.14477372, 0.171072, 10.148651
1464751877345912, -0.51445687, 5.1613183, 9.032906, 0.20326161, 0.32658768, 10.409095
1464751879755391, -0.7680961, 3.5246277, 8.719446, -0.44837743, -0.8452368, 9.387557
1464751882164922, -0.42592242, 5.3910294, 8.9348, 0.35601926, 0.5426464, 10.423724
1464751884574402, -0.57427746, 4.5966125, 9.004191, -0.0037448406, -0.12350798, 10.125159
1464751886983933, -0.715454, 3.76391, 8.774481, -0.3414582, -0.6825688, 9.543999
1464751889393412, -0.3924229, 5.6877394, 8.908479, 0.46056628, 0.7993407, 10.536332
1464751891802943, -0.65084773, 4.0390844, 8.915657, -0.21186674, -0.5307772, 9.79286
1464751894212422, -0.61734825, 4.2329035, 8.846265, -0.124851406, -0.34309578, 9.819453
1464751896621954, -0.41635114, 5.651847, 8.908479, 0.4279102, 0.7796202, 10.52078
1464751899031433, -0.73459655, 3.644269, 8.803194, -0.38685477, -0.793828, 9.5150795
1464751901440964, -0.5288138, 4.7688956, 8.829515, 0.09732127, 0.09460163, 10.04808
1464751903850443, -0.4833502, 5.328816, 8.961121, 0.27375126, 0.493783, 10.421748
1464751906259974, -0.7513463, 3.546163, 8.647661, -0.41900826, -0.80321455, 9.332798
1464751908669454, -0.4331009, 5.2929235, 8.812766, 0.31840295, 0.52511454, 10.270848
1464751911078985, -0.5479564, 4.8047876, 8.9013, 0.083016396, 0.09666014, 10.129322
1464751913488464, -0.7465607, 3.711268, 8.60459, -0.35756648, -0.64806485, 9.371339
1464751915897995, -0.3924229, 5.6685967, 8.752945, 0.4538296, 0.8627844, 10.389931
1464751918307474, -0.62931234, 4.2257247, 8.748159, -0.12996477, -0.30929184, 9.729877
1464751920717006, -0.65324056, 4.113262, 8.633304, -0.17222732, -0.34638047, 9.577576
1464751923126485, -0.37806597, 5.723632, 8.700303, 0.47956264, 0.9249072, 10.368835
1464751925536016, -0.6891329, 3.7615173, 8.640483, -0.29239905, -0.6431129, 9.4224615
1464751927945495, -0.5383851, 4.6205406, 8.650054, 0.06356269, 0.047447205, 9.821223
1464751930355027, -0.46181476, 5.4436717, 8.760123, 0.34177428, 0.67381144, 10.296397
1464751932764506, -0.76331043, 3.5318062, 8.525627, -0.4267496, -0.76090574, 9.218543
1464751935174037, -0.45942193, 5.130212, 8.685946, 0.26706713, 0.43928242, 10.085214
1464751937583516, -0.5168497, 4.955536, 8.788837, 0.15322447, 0.25720215, 10.098442
1464751939993047, -0.76331043, 3.5844483, 8.480164, -0.39489168, -0.7085962, 9.202503
1464751942402527, -0.41156548, 5.548956, 8.662018, 0.4048484, 0.7967138, 10.256327
1464751944812058, -0.6053841, 4.398008, 8.702696, -0.06071335, -0.15664077, 9.768198
1464751947221537, -0.701097, 3.952943, 8.52802, -0.2508446, -0.43342233, 9.412419
1464751949631068, -0.40917268, 5.7284174, 8.611769, 0.4546705, 0.9690089, 10.295584
1464751952040547, -0.73459655, 3.8835511, 8.602198, -0.304578, -0.51894546, 9.447611
1464751954450079, -0.6197411, 4.476971, 8.592627, -0.049720347, -0.03690052, 9.708591
1464751956859558, -0.45702913, 5.5776696, 8.669196, 0.36791384, 0.8228359, 10.279194
1464751959269089, -0.7728817, 3.5892339, 8.487342, -0.39747146, -0.7103293, 9.2115345
1464751961678568, -0.5192425, 5.020142, 8.630911, 0.17454576, 0.38529682, 9.989251
1464751964088099, -0.5623133, 5.1421757, 8.784052, 0.15213716, 0.4288416, 10.183845
1464751966497579, -0.8111669, 3.574877, 8.487342, -0.44702542, -0.7076125, 9.20718
1464751968907110, -0.46181476, 5.477171, 8.721839, 0.33825308, 0.71413517, 10.279043
1464751971316589, -0.6412765, 4.558327, 8.805588, -0.06504309, -0.06240797, 9.935785
1464751973726120, -0.7728817, 3.8213377, 8.609376, -0.3588717, -0.56424594, 9.427309
1464751976135599, -0.46660042, 5.706882, 8.752945, 0.3885746, 0.8980398, 10.413588
1464751978545131, -0.7369894, 3.9984066, 8.781659, -0.29180413, -0.50253105, 9.659724
1464751980954610, -0.6771688, 4.28076, 8.769695, -0.15490577, -0.27103972, 9.777197
1464751983364141, -0.4833502, 5.6327047, 8.8701935, 0.32832757, 0.79832983, 10.483139
1464751985773620, -0.79920274, 3.6251264, 8.760123, -0.41997996, -0.8011434, 9.471106
1464751988183152, -0.5694918, 4.8502517, 8.860622, 0.07321119, 0.1492505, 10.115941
1464751990592631, -0.552742, 5.2570314, 8.999406, 0.18015063, 0.42671394, 10.426729
1464751993002162, -0.82313097, 3.5437703, 8.709874, -0.47969216, -0.8262534, 9.390684
1464751995411641, -0.49292147, 5.359923, 8.932407, 0.26969272, 0.53506994, 10.411561
1464751997821172, -0.63170516, 4.7210393, 9.049655, -0.026913762, -0.026236057, 10.22654
1464752000230652, -0.8039884, 3.7184465, 8.800801, -0.4187706, -0.72430754, 9.551301
1464752002640183, -0.4546363, 5.6757755, 8.963513, 0.3782766, 0.7854638, 10.583272
1464752005049662, -0.6987042, 4.141976, 8.965906, -0.22753996, -0.4664564, 9.887482
1464752007459193, -0.6723832, 4.139583, 8.860622, -0.19862372, -0.42492962, 9.791776
1464752009868672, -0.43788654, 5.7020965, 8.939586, 0.40646654, 0.8101163, 10.573568
1464752012278204, -0.715454, 3.7304106, 8.839087, -0.33928508, -0.75246596, 9.585196
1464752014687683, -0.5479564, 4.6875396, 8.865408, 0.05852288, 0.011703968, 10.043165
1464752017097214, -0.46660042, 5.4149575, 8.958728, 0.3152607, 0.5631051, 10.458576
1464752019506693, -0.7537391, 3.546163, 8.662018, -0.4174704, -0.8107643, 9.345713
1464752021916224, -0.44506502, 5.2307105, 8.836694, 0.29563713, 0.45428658, 10.264102
1464752024325704, -0.56470615, 4.87418, 8.941978, 0.08206618, 0.13396502, 10.198569
1464752026735235, -0.7800602, 3.644269, 8.645268, -0.43062955, -0.7089534, 9.37773
1464752029144714, -0.44027936, 5.613562, 8.810373, 0.41393298, 0.7837157, 10.418401
1464752031554245, -0.67477596, 4.3070807, 8.839087, -0.16280836, -0.2662182, 9.850804
1464752033963724, -0.7369894, 4.005585, 8.693125, -0.2924413, -0.43622494, 9.585535
1464752036373256, -0.4642076, 5.7451673, 8.784052, 0.42986482, 0.9153557, 10.457502
1464752038782735, -0.76570326, 3.8620157, 8.755338, -0.36833954, -0.57891154, 9.575314
1464752041192266, -0.62931234, 4.54397, 8.755338, -0.051231205, -0.0424757, 9.884091
1464752043601745, -0.485743, 5.5776696, 8.848659, 0.36110818, 0.7421241, 10.43858
1464752046011277, -0.7920243, 3.6131623, 8.618947, -0.45133936, -0.720768, 9.340517
1464752048420756, -0.5312066, 5.1086764, 8.762517, 0.19755763, 0.4021983, 10.147003
1464752050830287, -0.56470615, 5.096712, 8.903693, 0.15131491, 0.33604383, 10.268169
1464752053239766, -0.7896315, 3.6179478, 8.580662, -0.43938583, -0.700171, 9.309001
1464752055649297, -0.46660042, 5.54417, 8.7984085, 0.37467563, 0.7344737, 10.377267
1464752058058777, -0.6652047, 4.4817567, 8.85823, -0.11432481, -0.1343379, 9.948154
1464752060468308, -0.7800602, 3.9098723, 8.645268, -0.37428063, -0.47787356, 9.500938
1464752062877787, -0.46660042, 5.7427745, 8.772088, 0.45914972, 0.8946085, 10.446796
1464752065287318, -0.76570326, 3.9673, 8.769695, -0.35399902, -0.49256825, 9.636668
1464752067696797, -0.69152576, 4.3812585, 8.745767, -0.15291691, -0.16233492, 9.803691
1464752070106329, -0.49292147, 5.6470613, 8.829515, 0.38521582, 0.804924, 10.45449
1464752072515808, -0.78723866, 3.6466618, 8.662018, -0.4436298, -0.7130363, 9.393787
1464752074925339, -0.56470615, 4.9340005, 8.752945, 0.12177354, 0.2590332, 10.059592
1464752077334818, -0.552742, 5.271388, 8.9013, 0.21565652, 0.47025967, 10.346911
1464752079744349, -0.8135597, 3.591627, 8.568698, -0.484733, -0.706614, 9.287088
1464752082153829, -0.46181476, 5.436493, 8.760123, 0.36926478, 0.6461539, 10.293426
1464752084563360, -0.59581286, 4.682754, 8.853444, 0.017170012, 0.012976646, 10.033256
1464752086972839, -0.72741807, 3.804588, 8.628518, -0.34220076, -0.57945013, 9.434114
1464752089382370, -0.39720857, 5.7379885, 8.781659, 0.49708956, 0.8822441, 10.448654
1464752091791849, -0.6628119, 4.1228333, 8.805588, -0.1969477, -0.42086697, 9.734451
1464752094201381, -0.6364908, 4.249653, 8.745767, -0.13293737, -0.29344654, 9.739062
1464752096610860, -0.39720857, 5.7116675, 8.834301, 0.48191136, 0.8323879, 10.483354
1464752099020391, -0.7106683, 3.7328033, 8.745767, -0.33924955, -0.7083998, 9.503177
1464752101429870, -0.5240282, 4.773681, 8.803194, 0.11393541, 0.092832565, 10.026827
1464752103839402, -0.44506502, 5.4053864, 8.944371, 0.34805942, 0.5391407, 10.440605
1464752106248933, -0.7393822, 3.5533416, 8.6548395, -0.4089232, -0.81037927, 9.341051
1464752108658412, -0.4426722, 5.278567, 8.839087, 0.30869544, 0.48496103, 10.288741
1464752111067891, -0.5479564, 4.855037, 8.944371, 0.096547544, 0.10160589, 10.190866
1464752113477422, -0.7298109, 3.682554, 8.652447, -0.3480671, -0.7150965, 9.398199
1464752115886902, -0.3924229, 5.651847, 8.815159, 0.4515649, 0.80238485, 10.438232
1464752118296433, -0.64606214, 4.2711883, 8.836694, -0.13462877, -0.31605697, 9.830035
1464752120705964, -0.6843473, 4.101298, 8.7266245, -0.20731956, -0.399199, 9.656118
1464752123115443, -0.4211368, 5.7451673, 8.803194, 0.4593876, 0.8916855, 10.472555
1464752125524974, -0.74895346, 3.8117664, 8.7577305, -0.34752452, -0.6445265, 9.552601
1464752127934454, -0.59581286, 4.6229334, 8.781659, 0.004222393, -0.00966692, 9.942027
1464752130343985, -0.50009996, 5.4963136, 8.891729, 0.3055675, 0.6575179, 10.440147
1464752132753464, -0.7920243, 3.5676985, 8.662018, -0.43579495, -0.8002002, 9.3571415
1464752135162995, -0.49292147, 5.1469617, 8.829515, 0.23257077, 0.39017296, 10.221948
1464752137572474, -0.5623133, 5.020142, 8.937193, 0.12732649, 0.24947691, 10.262213
1464752139982006, -0.7848458, 3.6083765, 8.630911, -0.40213498, -0.7603655, 9.348216
1464752142391485, -0.44506502, 5.556134, 8.812766, 0.36780286, 0.7411084, 10.394665
1464752144801016, -0.63888365, 4.4147577, 8.863015, -0.08858639, -0.21630836, 9.919508
1464752147210495, -0.715454, 3.9050865, 8.690732, -0.2712854, -0.55371046, 9.534683
1464752149620027, -0.4235296, 5.73081, 8.776874, 0.4306974, 0.8980651, 10.443325
1464752152029506, -0.74177504, 3.9146578, 8.755338, -0.2990865, -0.56511784, 9.598015
1464752154439037, -0.65084773, 4.4482574, 8.729017, -0.082157314, -0.11968112, 9.817599
1464752156848516, -0.5024927, 5.582455, 8.819944, 0.3257689, 0.76760054, 10.416927
1464752159258047, -0.7968099, 3.5964124, 8.652447, -0.41686693, -0.78039956, 9.362218
1464752161667527, -0.53359944, 4.9842496, 8.760123, 0.15388137, 0.29441833, 10.087461
1464752164077058, -0.55034924, 5.1756754, 8.906086, 0.17256704, 0.39041996, 10.306632
1464752166486537, -0.7896315, 3.5820556, 8.60459, -0.41798985, -0.77163696, 9.312544
1464752168896068, -0.44985065, 5.4819565, 8.805588, 0.3533944, 0.67485905, 10.354336
1464752171305547, -0.6125626, 4.615755, 8.88455, -0.014903307, -0.061703682, 10.030535
1464752173715079, -0.76570326, 3.8356948, 8.673982, -0.33578205, -0.59090567, 9.490779
1464752176124558, -0.45942193, 5.733203, 8.803194, 0.40234834, 0.89065075, 10.470041
1464752178534089, -0.7178468, 4.0510488, 8.79123, -0.24716634, -0.4763031, 9.691443
1464752180943568, -0.6652047, 4.26401, 8.733803, -0.14234304, -0.28039742, 9.736772
1464752183353099, -0.44985065, 5.6685967, 8.805588, 0.3947544, 0.8309283, 10.441623
1464752185762631, -0.76331043, 3.67059, 8.676374, -0.37225658, -0.7354393, 9.415725
1464752188172110, -0.55034924, 4.831109, 8.740981, 0.105480015, 0.17357922, 10.0003
1464752190581589, -0.54317075, 5.2905307, 8.8701935, 0.21441132, 0.5031452, 10.327922
1464752192991120, -0.79441714, 3.5318062, 8.571091, -0.43160385, -0.7966387, 9.259991
1464752195400652, -0.47856453, 5.3359947, 8.776874, 0.29283935, 0.56965446, 10.262802
1464752197810131, -0.6149554, 4.773681, 8.8701935, 0.019126177, 0.07656622, 10.091597
1464752200219662, -0.77766734, 3.7304106, 8.611769, -0.37059778, -0.6523557, 9.387246
1464752202629141, -0.4546363, 5.704489, 8.788837, 0.4025733, 0.87036943, 10.443752
1464752205038672, -0.6939186, 4.2185464, 8.796016, -0.18390769, -0.3422482, 9.772236
1464752207448152, -0.6891329, 4.1443686, 8.693125, -0.1884478, -0.35948157, 9.646573
1464752209857683, -0.44745782, 5.7379885, 8.76491, 0.413884, 0.9111066, 10.437766
1464752212267162, -0.7609176, 3.7758741, 8.69791, -0.3443592, -0.6595712, 9.483473
1464752214676693, -0.5910272, 4.6755753, 8.719446, 0.029230714, 0.058861256, 9.911345
1464752217086172, -0.5096712, 5.4628143, 8.82473, 0.29873747, 0.65792704, 10.366089
1464752219495704, -0.79920274, 3.5676985, 8.554341, -0.43298942, -0.754272, 9.262156
1464752221905183, -0.50488555, 5.204389, 8.7266245, 0.24564278, 0.4828887, 10.158789
1464752224314714, -0.5910272, 4.9363933, 8.848659, 0.088291705, 0.21976423, 10.146917
1464752226724193, -0.79920274, 3.6490545, 8.52802, -0.4057926, -0.6751771, 9.2769
1464752229133724, -0.4331009, 5.6039906, 8.748159, 0.40567744, 0.7952318, 10.35981
1464752231543204, -0.67477596, 4.3405805, 8.784052, -0.13584006, -0.23839879, 9.817346
1464752233952735, -0.74177504, 3.9840498, 8.6141615, -0.2761022, -0.44675517, 9.505306
1464752236362214, -0.44745782, 5.7427745, 8.733803, 0.4265899, 0.9232378, 10.412716
1464752238771745, -0.7465607, 3.8668015, 8.69791, -0.31451434, -0.5799222, 9.525121
1464752241181224, -0.62452674, 4.4817567, 8.685946, -0.044709027, -0.081557035, 9.793529
1464752243590756, -0.50009996, 5.568098, 8.79123, 0.33585972, 0.7623534, 10.384872
1464752246000235, -0.80159557, 3.591627, 8.580662, -0.42950815, -0.7464223, 9.296692
1464752248409766, -0.5479564, 5.06082, 8.721839, 0.16114375, 0.37400198, 10.09043
1464752250819297, -0.5694918, 5.1326046, 8.874979, 0.14841455, 0.36877298, 10.26037
1464752253228777, -0.8063812, 3.586841, 8.556734, -0.42520776, -0.74638605, 9.2733755
1464752255638308, -0.4546363, 5.534599, 8.807981, 0.35940817, 0.71852636, 10.381405
1464752258047787, -0.634098, 4.5248275, 8.874979, -0.055351734, -0.12954044, 9.981061
1464752260457318, -0.74895346, 3.8691943, 8.688339, -0.3169623, -0.57113934, 9.517993
1464752262866797, -0.4426722, 5.73081, 8.822337, 0.43180758, 0.87196875, 10.484513
1464752265276329, -0.72741807, 3.9625144, 8.829515, -0.28416038, -0.5644052, 9.684611
1464752267685808, -0.6723832, 4.331009, 8.7984085, -0.14047658, -0.24955702, 9.825462
1464752270095339, -0.4977071, 5.649454, 8.886943, 0.36174154, 0.77978945, 10.507277
1464752272504818, -0.7920243, 3.6227336, 8.755338, -0.43196034, -0.7944722, 9.465182
1464752274914349, -0.5599205, 4.8454657, 8.863015, 0.09919757, 0.13063765, 10.115246
1464752277323829, -0.5240282, 5.259424, 9.016156, 0.23019272, 0.4014144, 10.440933
1464752279733360, -0.7848458, 3.5270207, 8.721839, -0.4381023, -0.8657787, 9.390678
1464752282142839, -0.4642076, 5.395815, 8.920443, 0.32388878, 0.54922533, 10.416241
1464752284552370, -0.6053841, 4.7018967, 9.004191, 0.0081214905, -0.046110153, 10.175833
1464752286961849, -0.74177504, 3.7447674, 8.769695, -0.36119056, -0.7086413, 9.531445
1464752289371381, -0.40677986, 5.6997037, 8.927621, 0.47072542, 0.77914715, 10.560581
1464752291780860, -0.6652047, 4.106084, 8.939586, -0.20193356, -0.5023105, 9.8450775
1464752294190391, -0.66759753, 4.194618, 8.860622, -0.17210281, -0.3878317, 9.816879
1464752296599870, -0.44506502, 5.6757755, 8.927621, 0.41517073, 0.7776842, 10.551671
1464752299009402, -0.7585248, 3.6681972, 8.831908, -0.38454276, -0.8031106, 9.552004
1464752301418933, -0.57188463, 4.685147, 8.872586, 0.047349393, -0.008218288, 10.049785
1464752303828412, -0.51206404, 5.367101, 8.9826565, 0.2689591, 0.5042906, 10.4608555
1464752306237943, -0.82313097, 3.5294135, 8.676374, -0.46914834, -0.8326192, 9.354168
1464752308647422, -0.53359944, 5.2426744, 8.848659, 0.2308417, 0.46784973, 10.285765
1464752311056954, -0.63888365, 4.8622155, 8.944371, 0.025932252, 0.12784767, 10.19971
1464752313466433, -0.8350951, 3.6514473, 8.642876, -0.4507246, -0.7074895, 9.38222
1464752315875964, -0.5024927, 5.6303115, 8.815159, 0.36273104, 0.80479956, 10.434589
1464752318285443, -0.74416786, 4.278367, 8.843872, -0.21575254, -0.29796648, 9.845657
1464752320694974, -0.77766734, 4.048656, 8.71466, -0.2960018, -0.42607498, 9.6266575
1464752323104454, -0.50009996, 5.7379885, 8.772088, 0.38575083, 0.9142461, 10.446985
1464752325513985, -0.8063812, 3.7998023, 8.724232, -0.3827411, -0.6330292, 9.521227
1464752327923464, -0.66041905, 4.5678983, 8.729017, -0.053012133, -0.017032146, 9.87393
1464752330332995, -0.53359944, 5.503492, 8.829515, 0.31029648, 0.69006824, 10.3904295
1464752332742474, -0.8207382, 3.5581272, 8.573483, -0.46588624, -0.7552221, 9.276374
1464752335152006, -0.5407779, 5.089534, 8.724232, 0.20066124, 0.39156485, 10.105169
1464752337561537, -0.5910272, 5.0129633, 8.843872, 0.11120519, 0.28598976, 10.17836
1464752339971016, -0.8255238, 3.5844483, 8.530413, -0.43519428, -0.73117137, 9.250605
1464752342380547, -0.4881358, 5.5465627, 8.73141, 0.34470823, 0.7710047, 10.321188
1464752344790027, -0.66041905, 4.4721856, 8.7984085, -0.078980595, -0.13648081, 9.890589
1464752347199558, -0.7585248, 3.9074793, 8.633304, -0.3055203, -0.5141647, 9.487885
1464752349609037, -0.4426722, 5.7427745, 8.743374, 0.4457193, 0.9163389, 10.420348
1464752352018568, -0.7369894, 3.9457645, 8.73141, -0.28133714, -0.53264236, 9.590979
1464752354428047, -0.6364908, 4.429115, 8.71466, -0.06390524, -0.13886166, 9.795106
1464752356837579, -0.4761717, 5.623133, 8.812766, 0.37880242, 0.78932714, 10.428073
1464752359247058, -0.79441714, 3.644269, 8.664411, -0.39895937, -0.74936557, 9.394845
1464752361656589, -0.5288138, 4.9866424, 8.7673025, 0.1722464, 0.28828192, 10.094509
1464752364066068, -0.53359944, 5.211568, 8.9013, 0.21266943, 0.4195361, 10.317802
1464752366475599, -0.7848458, 3.5700915, 8.602198, -0.40298107, -0.78153396, 9.305168
1464752368885079, -0.4426722, 5.4293146, 8.827123, 0.35501498, 0.6156659, 10.348256
1464752371294610, -0.62452674, 4.6205406, 8.908479, -0.018142402, -0.0686841, 10.054619
1464752373704141, -0.7752745, 3.7686956, 8.681161, -0.35368633, -0.6531384, 9.466518
1464752376113620, -0.4354937, 5.6709895, 8.829515, 0.419881, 0.8201928, 10.462368
1464752378523152, -0.6963114, 4.0295134, 8.855837, -0.22158217, -0.5269506, 9.737602
1464752380932631, -0.64845496, 4.2017965, 8.793623, -0.13103664, -0.36218405, 9.759869
1464752383342162, -0.43070808, 5.649454, 8.855837, 0.41813153, 0.7928448, 10.474934
1464752385751641, -0.75613195, 3.6514473, 8.736196, -0.36440238, -0.7805507, 9.459591
1464752388161172, -0.5623133, 4.792824, 8.79123, 0.0889796, 0.11917496, 10.027512
1464752390570652, -0.5024927, 5.3312087, 8.91805, 0.26967543, 0.50388193, 10.386496
1464752392980183, -0.7848458, 3.5294135, 8.628518, -0.4208746, -0.82459974, 9.309508
1464752395389662, -0.48095736, 5.2929235, 8.810373, 0.2892508, 0.51871824, 10.272112
1464752397799193, -0.60059845, 4.766503, 8.894122, 0.041023552, 0.060420036, 10.108428
1464752400208672, -0.7896315, 3.6634114, 8.616554, -0.3922305, -0.7026379, 9.361706
1464752402618204, -0.46181476, 5.615955, 8.79123, 0.4016462, 0.79217577, 10.404282
1464752405027735, -0.72502524, 4.168297, 8.793623, -0.22737855, -0.36896753, 9.748863
1464752407437214, -0.7465607, 4.0390844, 8.688339, -0.2742113, -0.4238584, 9.59708
1464752409846745, -0.4833502, 5.690132, 8.762517, 0.3860504, 0.87743473, 10.415086
1464752412256224, -0.7968099, 3.751946, 8.695518, -0.3865701, -0.6636832, 9.472811
1464752414665756, -0.63888365, 4.601398, 8.721839, -0.025374353, 0.011742115, 9.88184
1464752417075235, -0.5288138, 5.4460645, 8.841479, 0.29593784, 0.6408205, 10.373659
1464752419484766, -0.8039884, 3.5365918, 8.597412, -0.45699483, -0.78506637, 9.286777
1464752421894245, -0.47856453, 5.1613183, 8.776874, 0.27247423, 0.41660786, 10.181059
1464752424303777, -0.5455636, 4.948357, 8.91805, 0.13937384, 0.1869421, 10.210834
1464752426713256, -0.782453, 3.603591, 8.609376, -0.405339, -0.7513826, 9.326875
1464752429122787, -0.4354937, 5.584848, 8.829515, 0.4044885, 0.74762154, 10.421995
1464752431532318, -0.6364908, 4.35733, 8.903693, -0.095820546, -0.28147507, 9.928685
1464752433941797, -0.7106683, 3.9290147, 8.736196, -0.26095796, -0.5468738, 9.586247
1464752436351329, -0.4235296, 5.7020965, 8.843872, 0.44512004, 0.84086275, 10.488192
1464752438760808, -0.72741807, 3.8476589, 8.810373, -0.31865984, -0.64060426, 9.6148
1464752441170339, -0.6364908, 4.412365, 8.812766, -0.0823102, -0.19009829, 9.874008
1464752443579818, -0.4953143, 5.5537415, 8.915657, 0.34844297, 0.6883092, 10.487286
1464752445989349, -0.80877405, 3.546163, 8.71466, -0.4703955, -0.83000183, 9.394919
1464752448398829, -0.55752766, 4.9698925, 8.834301, 0.14235932, 0.25336313, 10.147468
1464752450808360, -0.56470615, 5.1014977, 8.953942, 0.15700072, 0.31437206, 10.314737
1464752453217839, -0.8063812, 3.548556, 8.626125, -0.4469608, -0.78999496, 9.318192
1464752455627370, -0.47856453, 5.474778, 8.831908, 0.3401549, 0.6636071, 10.375393
1464752458036849, -0.65084773, 4.5248275, 8.896515, -0.07182044, -0.1278801, 10.001207
1464752460446381, -0.74895346, 3.8237305, 8.683554, -0.334383, -0.5962653, 9.493083
1464752462855912, -0.43070808, 5.7284174, 8.803194, 0.46147156, 0.87609434, 10.464989
1464752465265391, -0.6939186, 4.005585, 8.796016, -0.23964536, -0.5056119, 9.673834
1464752467674922, -0.6269195, 4.314259, 8.740981, -0.09072912, -0.23655415, 9.764549
1464752470084402, -0.40917268, 5.680561, 8.815159, 0.45036715, 0.83607674, 10.451859
1464752472493933, -0.6987042, 3.6777685, 8.671589, -0.30794555, -0.7319305, 9.411698
1464752474903412, -0.45702913, 4.87418, 8.7266245, 0.21343732, 0.20235825, 10.001698
1464752477312943, -0.4331009, 5.3240304, 8.848659, 0.33192712, 0.52288437, 10.317368
1464752479722422, -0.715454, 3.5772698, 8.535198, -0.33596772, -0.75527096, 9.245272
1464752482131954, -0.41156548, 5.395815, 8.729017, 0.37754953, 0.63707304, 10.24361
1464752484541485, -0.56470615, 4.759324, 8.827123, 0.07345331, 0.084121704, 10.04369
1464752486950964, -0.72502524, 3.7447674, 8.575876, -0.30704516, -0.6259129, 9.359944
1464752489360495, -0.4211368, 5.6877394, 8.769695, 0.43956417, 0.864213, 10.416104
1464752491769974, -0.6987042, 4.132405, 8.812766, -0.20984954, -0.41224217, 9.747606
1464752494179506, -0.69152576, 4.1491547, 8.745767, -0.19452661, -0.36906767, 9.695775
1464752496588985, -0.46181476, 5.6877394, 8.848659, 0.39554405, 0.8368468, 10.488357
1464752498998516, -0.7513463, 3.7088752, 8.779266, -0.35963643, -0.74058104, 9.524601
1464752501407995, -0.5694918, 4.65404, 8.819944, 0.04497224, 3.5095215E-4, 9.988685
1464752503817527, -0.47377887, 5.3982077, 8.958728, 0.311042, 0.5457077, 10.451287
1464752506227006, -0.7585248, 3.5270207, 8.69791, -0.40594345, -0.8553612, 9.368697
1464752508636537, -0.45224348, 5.180461, 8.88455, 0.28911293, 0.38344908, 10.283303
1464752511046068, -0.52163535, 4.898108, 9.013762, 0.14006734, 0.10264015, 10.270411
1464752513455547, -0.72502524, 3.6275191, 8.724232, -0.36513585, -0.78553367, 9.43644
1464752515865079, -0.37328035, 5.568098, 8.91805, 0.46563125, 0.6780968, 10.487995
1464752518274558, -0.6125626, 4.2687955, 8.95155, -0.0968554, -0.37331223, 9.928715
1464752520684089, -0.6652047, 3.9720855, 8.82473, -0.21341896, -0.5536032, 9.682139
1464752523093568, -0.39960137, 5.7020965, 8.920443, 0.46525556, 0.8051934, 10.553818
1464752525503099, -0.70348984, 3.778267, 8.896515, -0.30510825, -0.7432542, 9.657776
1464752527912579, -0.5766702, 4.5296135, 8.879765, 0.005274892, -0.1284244, 9.984169
1464752530322110, -0.45224348, 5.515456, 8.980264, 0.36339265, 0.6301303, 10.523347
1464752532731641, -0.75613195, 3.5796626, 8.7577305, -0.40650028, -0.83165073, 9.445988
1464752535141120, -0.4833502, 5.0799623, 8.889337, 0.23617965, 0.31021404, 10.242458
1464752537550652, -0.5168497, 5.0847483, 9.004191, 0.19729006, 0.26972485, 10.348217
1464752539960131, -0.7609176, 3.603591, 8.664411, -0.39665687, -0.7644148, 9.375244
1464752542369662, -0.40917268, 5.5393844, 8.85823, 0.4281044, 0.6940322, 10.423794
1464752544779141, -0.6125626, 4.505685, 8.879765, -0.038942635, -0.1428423, 9.975205
1464752547188672, -0.72023964, 3.8931224, 8.659625, -0.29122353, -0.5285163, 9.502636
1464752549598152, -0.41874397, 5.7403817, 8.73141, 0.48651862, 0.91617346, 10.406188
1464752552007683, -0.74416786, 3.95055, 8.69791, -0.30140692, -0.49271297, 9.564553
1464752554417214, -0.6628119, 4.371687, 8.63809, -0.10453081, -0.13016415, 9.702562
1464752556826693, -0.4833502, 5.625526, 8.690732, 0.3985992, 0.855628, 10.320757
1464752559236224, -0.79441714, 3.641876, 8.539984, -0.4304585, -0.66104746, 9.284578
1464752561645704, -0.5599205, 4.955536, 8.635697, 0.15374267, 0.3313253, 9.965575
1464752564055235, -0.5599205, 5.2426744, 8.752945, 0.22303188, 0.5148182, 10.202863
1464752566464714, -0.8279166, 3.5892339, 8.432307, -0.47036546, -0.64888096, 9.166764
1464752568874245, -0.50488555, 5.4341, 8.673982, 0.32836366, 0.7023535, 10.218668
1464752571283724, -0.65324056, 4.6731825, 8.76491, -0.025567114, 0.05890274, 9.954138
1464752573693256, -0.7968099, 3.7710886, 8.563912, -0.39013594, -0.56818867, 9.36598
1464752576102787, -0.47138608, 5.704489, 8.750552, 0.42633665, 0.8856034, 10.4100685
1464752578512266, -0.74177504, 4.098905, 8.810373, -0.27053374, -0.42197895, 9.732557
1464752580921797, -0.70588267, 4.2017965, 8.769695, -0.20514232, -0.3261013, 9.742306
1464752583331277, -0.4881358, 5.6733823, 8.877372, 0.39356202, 0.8047905, 10.508603
1464752585740808, -0.7848458, 3.6897326, 8.779266, -0.42009753, -0.7405231, 9.517395
1464752588150287, -0.5623133, 4.773681, 8.8701935, 0.08254528, 0.074751854, 10.088219
1464752590559818, -0.5072784, 5.3718867, 9.006584, 0.2808532, 0.50550413, 10.4832535
1464752592969297, -0.78723866, 3.5653057, 8.724232, -0.44047672, -0.81857824, 9.411655
1464752595378829, -0.4642076, 5.288138, 8.915657, 0.30494595, 0.46396208, 10.361496
1464752597788308, -0.5694918, 4.831109, 9.018549, 0.07688469, 0.057402134, 10.246412
1464752600197839, -0.7513463, 3.682554, 8.745767, -0.38797373, -0.73241615, 9.482996
1464752602607370, -0.42592242, 5.6470613, 8.927621, 0.44648826, 0.74828005, 10.536312
1464752605016849, -0.65084773, 4.237689, 8.958728, -0.15641403, -0.3910482, 9.922854
1464752607426381, -0.6795616, 4.0510488, 8.846265, -0.21846992, -0.48976326, 9.738666
1464752609835860, -0.4211368, 5.723632, 8.91805, 0.4570989, 0.8269019, 10.5629635
1464752612245391, -0.72023964, 3.7734814, 8.853444, -0.3297673, -0.7176852, 9.618605
1464752614654870, -0.57906306, 4.56072, 8.872586, 0.008045614, -0.09626055, 9.992443
1464752617064402, -0.48095736, 5.474778, 8.970692, 0.33033073, 0.6056709, 10.497707
1464752619473933, -0.7752745, 3.5318062, 8.709874, -0.43829572, -0.842036, 9.382723
1464752621883412, -0.46181476, 5.127819, 8.879765, 0.26788998, 0.3517866, 10.254877
1464752624292943, -0.55513483, 5.005785, 8.99462, 0.13801157, 0.22059536, 10.305412
1464752626702422, -0.7704889, 3.6227336, 8.666803, -0.40541786, -0.74265003, 9.386982
1464752629111954, -0.4235296, 5.5776696, 8.874979, 0.43275428, 0.71923256, 10.457077
1464752631521433, -0.62931234, 4.4004006, 8.9013, -0.09068853, -0.23076463, 9.946419
1464752633930964, -0.73459655, 3.9338005, 8.729017, -0.3056969, -0.5150943, 9.583914
1464752636340495, -0.4354937, 5.7284174, 8.822337, 0.4639958, 0.87050056, 10.481649
1464752638749974, -0.7322037, 3.8907297, 8.793623, -0.30569857, -0.5898192, 9.620831
1464752641159506, -0.6556334, 4.3812585, 8.772088, -0.10444003, -0.18000746, 9.825045
1464752643568985, -0.4953143, 5.575277, 8.860622, 0.3456344, 0.75216913, 10.447701
1464752645978516, -0.8039884, 3.562913, 8.666803, -0.448743, -0.7893028, 9.361083
1464752648387995, -0.552742, 4.9579287, 8.786445, 0.13975376, 0.2717433, 10.099249
1464752650797527, -0.57427746, 5.144569, 8.941978, 0.1568988, 0.36329222, 10.324668
1464752653207006, -0.8327023, 3.546163, 8.616554, -0.4862203, -0.7673452, 9.310664
1464752655616537, -0.50009996, 5.45085, 8.841479, 0.31772512, 0.6515393, 10.373437
1464752658026068, -0.66999036, 4.5678983, 8.91805, -0.081318796, -0.084424496, 10.041538
1464752660435547, -0.782453, 3.7998023, 8.688339, -0.3704633, -0.60058475, 9.488943
1464752662845079, -0.46181476, 5.6997037, 8.822337, 0.41499358, 0.8663602, 10.469516
1464752665254558, -0.72263247, 4.0031924, 8.834301, -0.2732023, -0.51306057, 9.708489
1464752667664089, -0.6795616, 4.2352962, 8.779266, -0.1696409, -0.30124307, 9.765016
1464752670073620, -0.4642076, 5.65424, 8.865408, 0.3989169, 0.8045764, 10.486892
1464752672483099, -0.7728817, 3.6729827, 8.729017, -0.4021799, -0.73105526, 9.46508
1464752674892631, -0.5479564, 4.807181, 8.7984085, 0.105168045, 0.1418581, 10.039425
1464752677302110, -0.4977071, 5.3312087, 8.925228, 0.27912062, 0.5134387, 10.391713
1464752679711641, -0.7800602, 3.5437703, 8.602198, -0.41907114, -0.7849908, 9.293694
1464752682121120, -0.4354937, 5.345566, 8.793623, 0.34184092, 0.57640743, 10.278297
1464752684530652, -0.5766702, 4.7688956, 8.894122, 0.055498242, 0.06979799, 10.108035
1464752686940183, -0.7322037, 3.7304106, 8.62134, -0.3490051, -0.6403234, 9.394028
1464752689349662, -0.37806597, 5.6781683, 8.796016, 0.49839997, 0.82803106, 10.431702
1464752691759193, -0.62931234, 4.156333, 8.819944, -0.1500774, -0.39803672, 9.761228
1464752694168672, -0.63888365, 4.1084766, 8.712267, -0.16405475, -0.3860786, 9.644446
1464752696578204, -0.37328035, 5.704489, 8.7984085, 0.5105953, 0.8501835, 10.445524
1464752698987683, -0.69152576, 3.7280176, 8.736196, -0.30988318, -0.7108321, 9.491899
1464752701397214, -0.526421, 4.644469, 8.7577305, 0.08052492, 0.014520168, 9.926701
1464752703806693, -0.44745782, 5.4628143, 8.88455, 0.3541367, 0.6273055, 10.414358
1464752706216224, -0.73459655, 3.5676985, 8.616554, -0.38608438, -0.7823677, 9.314073
1464752708625756, -0.45224348, 5.209175, 8.779266, 0.2911557, 0.46671295, 10.203577
1464752711035235, -0.5312066, 4.9698925, 8.894122, 0.14794469, 0.22975445, 10.198666
1464752713444766, -0.7322037, 3.6634114, 8.585447, -0.35099018, -0.68675494, 9.331226
1464752715854245, -0.39481574, 5.639883, 8.772088, 0.4524364, 0.8190093, 10.394143
1464752718263777, -0.6125626, 4.3836513, 8.807981, -0.07291001, -0.21066785, 9.855072
1464752720673308, -0.67477596, 4.0295134, 8.662018, -0.20808321, -0.4300363, 9.565283
1464752723082787, -0.39481574, 5.761917, 8.752945, 0.4768234, 0.9348407, 10.433999
1464752725492318, -0.69152576, 3.885944, 8.736196, -0.2599879, -0.58113813, 9.565278
1464752727901797, -0.5599205, 4.5296135, 8.73141, 0.02236563, -0.06250262, 9.852106
1464752730311329, -0.42831525, 5.582455, 8.843872, 0.40563798, 0.74485207, 10.432737
1464752732720808, -0.74416786, 3.603591, 8.642876, -0.38318104, -0.7623725, 9.354728
1464752735130339, -0.4761717, 5.0679984, 8.796016, 0.23214245, 0.33936405, 10.154418
1464752737539870, -0.5024927, 5.1206403, 8.941978, 0.2076127, 0.32788134, 10.309307
1464752739949349, -0.75613195, 3.5988052, 8.626125, -0.3820088, -0.76286054, 9.338377
1464752742358881, -0.4235296, 5.517849, 8.819944, 0.38586336, 0.70463276, 10.381331
1464752744768360, -0.6053841, 4.5391846, 8.896515, -0.027874768, -0.12242317, 10.005143
1464752747177891, -0.6867401, 3.8572302, 8.707481, -0.2584408, -0.59782124, 9.526064
1464752749587370, -0.37328035, 5.749953, 8.822337, 0.48564637, 0.8903365, 10.488394
1464752751996902, -0.6867401, 3.9840498, 8.831908, -0.2332868, -0.5485196, 9.694925
1464752754406433, -0.63888365, 4.3525443, 8.769695, -0.09736189, -0.21810985, 9.808329
1464752756815912, -0.4139583, 5.656633, 8.829515, 0.4234606, 0.8146858, 10.454001
1464752759225443, -0.70588267, 3.6394832, 8.688339, -0.33098435, -0.7675221, 9.409182
1464752761634922, -0.46181476, 4.9052863, 8.781659, 0.20816523, 0.20695639, 10.065111
1464752764044454, -0.43070808, 5.271388, 8.886943, 0.3210622, 0.4620514, 10.326385
1464752766453933, -0.7106683, 3.5724843, 8.554341, -0.3445093, -0.76179075, 9.259884
1464752768863464, -0.39720857, 5.3886366, 8.762517, 0.3753674, 0.6138191, 10.269333
1464752771272995, -0.5312066, 4.7042894, 8.846265, 0.08420333, 0.01995182, 10.033016
1464752773682474, -0.6843473, 3.7423747, 8.595019, -0.27024227, -0.6507032, 9.372919
1464752776092006, -0.3589234, 5.6949177, 8.740981, 0.48438805, 0.87730265, 10.390447
1464752778501485, -0.6412765, 4.1276193, 8.752945, -0.15042382, -0.4009695, 9.689125
1464752780911016, -0.634098, 4.1611185, 8.681161, -0.13152948, -0.3406334, 9.640862
1464752783320547, -0.4235296, 5.6949177, 8.76491, 0.42784506, 0.8805852, 10.415213
1464752785730027, -0.7680961, 3.696911, 8.673982, -0.37252694, -0.7034528, 9.426636
1464752788139558, -0.59581286, 4.7306104, 8.729017, 0.033113897, 0.11134052, 9.945648
1464752790549037, -0.526421, 5.386244, 8.851051, 0.24932778, 0.5969596, 10.35429
1464752792958568, -0.81834537, 3.5246277, 8.573483, -0.45849794, -0.7882526, 9.260981
1464752795368047, -0.50009996, 5.2402816, 8.793623, 0.24532354, 0.49681187, 10.233839
1464752797777579, -0.6053841, 4.855037, 8.927621, 0.04632622, 0.13271141, 10.179418
1464752800187110, -0.8063812, 3.6634114, 8.657232, -0.43132418, -0.70166993, 9.398944
1464752802596589, -0.46660042, 5.625526, 8.867801, 0.37942988, 0.7787986, 10.476244
1464752805006120, -0.72263247, 4.254439, 8.922835, -0.22142792, -0.34556365, 9.903081
1464752807415599, -0.74416786, 3.993621, 8.817552, -0.2893572, -0.5181725, 9.69019
1464752809825131, -0.47138608, 5.704489, 8.9348, 0.36931098, 0.82455254, 10.572502
1464752812234610, -0.78723866, 3.7663028, 8.896515, -0.38888335, -0.73896503, 9.656887
1464752814644141, -0.6412765, 4.5248275, 8.906086, -0.06769204, -0.124958515, 10.00917
1464752817053672, -0.5312066, 5.5226345, 9.032906, 0.28559518, 0.63407946, 10.577876
1464752819463152, -0.82313097, 3.5557344, 8.803194, -0.49345, -0.846519, 9.479291
1464752821872683, -0.53359944, 5.1062837, 8.95155, 0.17936617, 0.32078838, 10.31281
1464752824282162, -0.59342, 5.0368915, 9.080762, 0.092624724, 0.2163372, 10.398425
1464752826691693, -0.81595254, 3.6251264, 8.748159, -0.4631344, -0.76761436, 9.4622345
1464752829101224, -0.4642076, 5.556134, 8.953942, 0.36031437, 0.68429375, 10.519559
1464752831510704, -0.66759753, 4.4482574, 8.997013, -0.1237694, -0.22179031, 10.055567
1464752833920235, -0.74177504, 3.926622, 8.807981, -0.31503236, -0.5551934, 9.650992
