timestamp_acc,device_acc_x,device_acc_y,device_acc_z,earth_acc_x,earth_acc_y,earth_acc_z
1465170144100751, 7.1282187, 0.3062813, 7.123433, -0.023870468, 0.07514477, 10.081784
1465170146510647, 7.1377897, 0.30867413, 7.1066833, -0.022413611, 0.0941062, 10.076653
1465170148920543, 7.152147, 0.30388847, 7.0899334, -0.015274525, 0.114084244, 10.074695
1465170151330438, 7.1306114, 0.3062813, 7.085148, -0.020197988, 0.10280323, 10.056231
1465170153740386, 7.1210403, 0.31345975, 7.082755, -0.029511988, 0.09816122, 10.048005
1465170156150282, 7.123433, 0.3062813, 7.0612197, -0.019872546, 0.11355066, 10.034175
1465170158560178, 7.1186476, 0.29910284, 7.0731835, -0.01434195, 0.09972954, 10.039143
1465170160970074, 7.1162543, 0.31345975, 7.0779696, -0.029345036, 0.0974412, 10.041246
1465170163379970, 7.1066833, 0.3062813, 7.085148, -0.025372982, 0.0832963, 10.039448
1465170165789865, 7.094719, 0.3062813, 7.0875406, -0.028125405, 0.07229233, 10.032748
1465170168199761, 7.1162543, 0.2943172, 7.075577, -0.010905147, 0.09341526, 10.039057
1465170170609657, 7.1425757, 0.28235307, 7.075577, 0.004987359, 0.10932112, 10.057233
1465170173019553, 7.140183, 0.28235307, 7.0803623, 0.0036459565, 0.10344839, 10.058963
1465170175429501, 7.149754, 0.27996024, 7.068398, 0.00894326, 0.11790562, 10.057117
1465170177839397, 7.1306114, 0.2727818, 7.075577, 0.0103369355, 0.09717178, 10.048595
1465170180249293, 7.1186476, 0.27038896, 7.0875406, 0.009324312, 0.078577995, 10.048643
1465170182659188, 7.1282187, 0.27996024, 7.0779696, 0.0023998618, 0.093639374, 10.048819
1465170185069084, 7.123433, 0.27756742, 7.0875406, 0.002881229, 0.08164358, 10.05221
1465170187478980, 7.109076, 0.28235307, 7.0803623, -0.003518939, 0.07558155, 10.037156
1465170189888876, 7.099505, 0.27756742, 7.082755, -4.426241E-4, 0.06640625, 10.032001
1465170192298824, 7.085148, 0.2847459, 7.085148, -0.009827197, 0.05601406, 10.023796
1465170194708720, 7.099505, 0.2847459, 7.082755, -0.007505417, 0.06767559, 10.03219
1465170197118615, 7.1162543, 0.28235307, 7.068398, -9.6970797E-4, 0.08672047, 10.033719
1465170199528511, 7.1018977, 0.2943172, 7.0875406, -0.01604426, 0.06314087, 10.037558
1465170201938407, 7.1162543, 0.29910284, 7.092326, -0.019146323, 0.07066727, 10.051183
1465170204348303, 7.140183, 0.3062813, 7.099505, -0.023444653, 0.08362198, 10.073304
1465170206758199, 7.1425757, 0.3182454, 7.099505, -0.03491813, 0.08418608, 10.075333
1465170209168095, 7.1425757, 0.31345975, 7.094719, -0.02899617, 0.08317661, 10.071837
1465170211577990, 7.1473613, 0.31106696, 7.1042905, -0.02696079, 0.07941866, 10.081936
1465170213987938, 7.1425757, 0.30388847, 7.097112, -0.01893115, 0.076014996, 10.073311
1465170216397834, 7.1449685, 0.32542387, 7.111469, -0.041286647, 0.07145977, 10.085765
1465170218807730, 7.1473613, 0.33738798, 7.109076, -0.052465975, 0.07689285, 10.086075
1465170221217626, 7.1473613, 0.32542387, 7.109076, -0.040539026, 0.07058239, 10.085783
1465170223627522, 7.133004, 0.31345975, 7.1210403, -0.031873524, 0.050247192, 10.083834
1465170226037418, 7.1210403, 0.30149564, 7.1138616, -0.020001173, 0.041425705, 10.070005
1465170228447313, 7.1449685, 0.28713873, 7.1282187, -0.0030970573, 0.04283476, 10.096667
1465170230857209, 7.135397, 0.28953153, 7.135397, -0.00745821, 0.03155136, 10.095077
1465170233267157, 7.1473613, 0.30149564, 7.125826, -0.016151011, 0.046675205, 10.097059
1465170235677053, 7.152147, 0.29671, 7.1186476, -0.010083675, 0.054232597, 10.095213
1465170238086949, 7.135397, 0.27756742, 7.1138616, 0.006838143, 0.041945934, 10.079491
1465170240496845, 7.1377897, 0.28235307, 7.0875406, 0.0048181415, 0.062775135, 10.0626545
1465170242906740, 7.1306114, 0.27756742, 7.0803623, 0.009262562, 0.06204462, 10.052374
1465170245316636, 7.111469, 0.27517462, 7.068398, 0.010125399, 0.056502342, 10.030336
1465170247726532, 7.097112, 0.25124636, 7.0348988, 0.03348267, 0.066868305, 9.995817
1465170250136428, 7.082755, 0.22492532, 7.025327, 0.058558643, 0.059727192, 9.978189
1465170252546324, 7.0540414, 0.2105684, 7.01097, 0.06903857, 0.04816103, 9.947386
1465170254956272, 7.0396843, 0.20578274, 7.01097, 0.07201916, 0.037434578, 9.937134
1465170257366168, 7.0372915, 0.20817557, 7.02772, 0.06560165, 0.024894238, 9.947399
1465170259776063, 7.066005, 0.21535404, 7.0396843, 0.06103331, 0.037631035, 9.976315
1465170262185959, 7.085148, 0.22492532, 7.0540414, 0.052713513, 0.042360306, 10.000242
1465170264595855, 7.0899334, 0.2321038, 7.0779696, 0.041081905, 0.030601025, 10.020781
1465170267005751, 7.0899334, 0.22013968, 7.1042905, 0.050653875, 0.010400295, 10.039118
1465170269415647, 7.082755, 0.2416751, 7.109076, 0.028065622, 0.0052251816, 10.038026
1465170271825595, 7.0779696, 0.26081768, 7.0899334, 0.0070148706, 0.018354893, 10.021599
1465170274235490, 7.068398, 0.24885355, 7.1066833, 0.012615263, -0.0017895699, 10.026413
1465170276645386, 7.0468626, 0.22253251, 7.1186476, 0.034681916, -0.029325008, 10.019026
1465170279055282, 7.0301127, 0.22731815, 7.1042905, 0.026426136, -0.030073643, 9.997175
1465170281465178, 7.0133634, 0.21296121, 7.097112, 0.036408663, -0.038941383, 9.9799185
1465170283875074, 7.015756, 0.20817557, 7.092326, 0.041856706, -0.034638405, 9.978091
1465170286284970, 7.003792, 0.2009971, 7.099505, 0.04699284, -0.048942566, 9.974561
1465170288694865, 6.9990063, 0.2105684, 7.085148, 0.035519898, -0.04081011, 9.961267
1465170291104761, 7.0085773, 0.22731815, 7.066005, 0.019317925, -0.018043518, 9.954876
1465170293514709, 7.018149, 0.21774685, 7.068398, 0.02974385, -0.014447212, 9.963081
1465170295924605, 7.0061846, 0.22013968, 7.075577, 0.025292516, -0.027477741, 9.959793
1465170298334501, 7.0301127, 0.21774685, 7.070791, 0.028984308, -0.00760746, 9.973218
1465170300744397, 7.018149, 0.22013968, 7.075577, 0.024756312, -0.018967628, 9.968234
1465170303154293, 7.018149, 0.20338993, 7.0731835, 0.039757907, -0.019803524, 9.966131
1465170305564188, 7.0085773, 0.18185452, 7.0540414, 0.06154442, -0.016249657, 9.945286
1465170307974084, 7.018149, 0.1794617, 7.0348988, 0.06527811, 0.0035614967, 9.938417
1465170310384032, 7.0085773, 0.16510476, 7.0396843, 0.07665038, -0.008877277, 9.934719
1465170312793928, 7.01097, 0.16510476, 7.042077, 0.07673317, -0.008881092, 9.938102
1465170315203824, 7.0229344, 0.16510476, 7.042077, 0.07814556, -5.1641464E-4, 9.946539
1465170317613720, 7.018149, 0.14596218, 7.0396843, 0.094467044, -0.0061473846, 9.941023
1465170320023615, 7.001399, 0.15074782, 7.0301127, 0.0885604, -0.010471344, 9.922543
1465170322433511, 6.987042, 0.13878371, 7.018149, 0.099709034, -0.013820171, 9.903651
1465170324843407, 7.01097, 0.11006984, 7.01097, 0.13054538, 0.0031752586, 9.914761
1465170327253303, 6.9942207, 0.09810573, 7.01097, 0.13914973, -0.011804581, 9.902674
1465170329663199, 6.987042, 0.09332009, 7.0133634, 0.1427989, -0.019201279, 9.899191
1465170332073147, 7.001399, 0.08135597, 7.042077, 0.15385818, -0.031055927, 9.929372
1465170334483043, 7.0348988, 0.09332009, 7.066005, 0.14264154, -0.023207188, 9.970259
1465170336892938, 7.0468626, 0.09810573, 7.068398, 0.13775021, -0.016758919, 9.980526
1465170339302834, 7.0348988, 0.09810573, 7.066005, 0.13646835, -0.023428917, 9.97039
1465170341712730, 7.0325055, 0.08853444, 7.0540414, 0.14672273, -0.01819706, 9.960001
1465170344122626, 7.0229344, 0.09092726, 7.056434, 0.14193535, -0.02602911, 9.955015
1465170346532522, 7.0492554, 0.10289137, 7.0612197, 0.13302755, -0.008495808, 9.977257
1465170348942418, 7.0468626, 0.11006984, 7.0612197, 0.12563914, -0.009097099, 9.975739
1465170351352365, 7.0540414, 0.10049855, 7.0636125, 0.13471729, -0.006820202, 9.982286
1465170353762261, 7.0492554, 0.10767702, 7.068398, 0.12661177, -0.012442112, 9.982469
1465170356172157, 7.0468626, 0.13878371, 7.0875406, 0.09316039, -0.022446632, 9.995077
1465170358582053, 7.0468626, 0.15314065, 7.085148, 0.0791443, -0.01878357, 9.99372
1465170360991949, 7.042077, 0.15074782, 7.0899334, 0.07981557, -0.025257587, 9.993685
1465170363401845, 7.0492554, 0.15074782, 7.0875406, 0.08069807, -0.017663956, 9.997057
1465170365811740, 7.066005, 0.15792629, 7.0899334, 0.07545751, -0.0065603256, 10.010734
1465170368221636, 7.070791, 0.15553348, 7.075577, 0.0796777, 0.007858276, 10.0038805
1465170370631584, 7.056434, 0.15314065, 7.092326, 0.078838825, -0.014250755, 10.005567
1465170373041480, 7.0492554, 0.13399807, 7.1042905, 0.09584916, -0.030467033, 10.008534
1465170375451376, 7.058827, 0.1698904, 7.111469, 0.06098622, -0.022520542, 10.02121
1465170377861272, 7.075577, 0.18424734, 7.097112, 0.050079226, 0.0025639534, 10.023184
1465170380271168, 7.058827, 0.17467605, 7.111469, 0.056276023, -0.020596504, 10.021325
1465170382681063, 7.070791, 0.16749759, 7.125826, 0.063884676, -0.022280693, 10.03977
1465170385090959, 7.0731835, 0.17228323, 7.1282187, 0.0592314, -0.021580696, 10.043264
1465170387500855, 7.0779696, 0.18185452, 7.140183, 0.04929918, -0.025206566, 10.055342
1465170389910803, 7.0803623, 0.2009971, 7.135397, 0.031428516, -0.016376972, 10.054083
1465170392320699, 7.094719, 0.21774685, 7.1186476, 0.018620908, 0.008571625, 10.052719
1465170394730595, 7.1042905, 0.20578274, 7.1210403, 0.031419694, 0.011737347, 10.0608835
1465170397140490, 7.0899334, 0.19142582, 7.1018977, 0.046406865, 0.013385296, 10.036853
1465170399550386, 7.056434, 0.21774685, 7.111469, 0.0153000355, -0.012618065, 10.020641
1465170401960282, 7.0301127, 0.22971097, 7.111469, 1.6528368E-4, -0.029140472, 10.002369
1465170404370178, 7.0372915, 0.23688944, 7.1066833, -0.0047171116, -0.019572258, 10.004205
1465170406780074, 7.025327, 0.23449662, 7.1138616, -0.0045253634, -0.033312798, 10.000805
1465170409190022, 7.015756, 0.2536392, 7.111469, -0.023530006, -0.035226345, 9.992816
1465170411599918, 7.015756, 0.2656033, 7.111469, -0.035339117, -0.033328056, 9.993098
1465170414009813, 7.025327, 0.26799613, 7.1282187, -0.037007034, -0.0380044, 10.011779
1465170416419709, 7.0468626, 0.28235307, 7.140183, -0.049496353, -0.029141903, 10.03578
1465170418829605, 7.0468626, 0.28953153, 7.1449685, -0.055940628, -0.03133869, 10.0393505
1465170421239501, 7.066005, 0.2943172, 7.140183, -0.056549847, -0.0135855675, 10.049572
1465170423649397, 7.066005, 0.29192436, 7.1449685, -0.054635406, -0.01730442, 10.052908
1465170426059293, 7.058827, 0.30867413, 7.140183, -0.07032192, -0.015879154, 10.044867
1465170428469240, 7.0612197, 0.29671, 7.1306114, -0.057281554, -0.009557247, 10.039478
1465170430879136, 7.0396843, 0.2943172, 7.1377897, -0.058279276, -0.02998066, 10.029335
1465170433289032, 7.015756, 0.30867413, 7.1545396, -0.07556945, -0.055583, 10.024706
1465170435698928, 6.977471, 0.33020952, 7.1449685, -0.10077959, -0.072327614, 9.991462
1465170438108824, 6.984649, 0.33020952, 7.133004, -0.097810805, -0.05740738, 9.988056
1465170440518720, 7.0085773, 0.3397808, 7.135397, -0.10436833, -0.040858746, 10.006845
1465170442928615, 7.0085773, 0.34456646, 7.135397, -0.107548, -0.03871441, 10.006983
1465170445338511, 7.0301127, 0.3493521, 7.133004, -0.109239936, -0.02125454, 10.020575
1465170447748407, 7.0348988, 0.35413775, 7.111469, -0.108216524, -3.4618378E-4, 10.008821
1465170450158355, 7.0492554, 0.36131623, 7.1042905, -0.11284298, 0.01580286, 10.014015
1465170452568251, 7.070791, 0.36610186, 7.133004, -0.11746192, 0.011518002, 10.049673
1465170454978147, 7.075577, 0.3589234, 7.1425757, -0.109007, 0.007340431, 10.059675
1465170457388043, 7.0875406, 0.36610186, 7.164111, -0.114786506, 0.0017619133, 10.083579
1465170459797938, 7.068398, 0.37328035, 7.183254, -0.12607974, -0.023866177, 10.083861
1465170462207834, 7.0779696, 0.37806597, 7.176075, -0.12892354, -0.011422634, 10.085628
1465170464617730, 7.075577, 0.37088752, 7.183254, -0.120765686, -0.0196805, 10.0888815
1465170467027678, 7.082755, 0.37088752, 7.1784678, -0.11712319, -0.012453079, 10.090565
1465170469437574, 7.075577, 0.3684947, 7.1712894, -0.11501992, -0.012812614, 10.080356
1465170471847470, 7.0875406, 0.37567315, 7.149754, -0.118709624, 0.011688232, 10.073685
1465170474257365, 7.1018977, 0.36370903, 7.140183, -0.104243934, 0.026605606, 10.076699
1465170476667261, 7.094719, 0.36610186, 7.135397, -0.104869366, 0.024319649, 10.068335
1465170479077157, 7.099505, 0.37567315, 7.133004, -0.11133349, 0.02960682, 10.070282
1465170481487053, 7.123433, 0.36370903, 7.1569324, -0.09863305, 0.027762413, 10.1038
1465170483896949, 7.123433, 0.37806597, 7.1617184, -0.11109769, 0.025577068, 10.107594
1465170486306897, 7.1449685, 0.3900301, 7.164111, -0.12045401, 0.04074192, 10.124772
1465170488716793, 7.1425757, 0.38763726, 7.1712894, -0.11715403, 0.03220749, 10.128142
1465170491126688, 7.1569324, 0.3900301, 7.1569324, -0.11664942, 0.052645683, 10.128134
1465170493536584, 7.166504, 0.37328035, 7.149754, -0.09615126, 0.06184721, 10.129364
1465170495946480, 7.166504, 0.37806597, 7.135397, -0.09972778, 0.07257557, 10.1193075
1465170498356376, 7.1617184, 0.37567315, 7.109076, -0.09358281, 0.08763075, 10.09722
1465170500766272, 7.140183, 0.3589234, 7.094719, -0.07841891, 0.08022785, 10.071419
1465170503176168, 7.140183, 0.3469593, 7.094719, -0.06658107, 0.078523636, 10.071098
1465170505586063, 7.149754, 0.3397808, 7.1018977, -0.057126105, 0.07944918, 10.082749
1465170507996011, 7.152147, 0.34456646, 7.1066833, -0.059853137, 0.07947397, 10.087962
1465170510405907, 7.1425757, 0.35653058, 7.092326, -0.07163304, 0.08462095, 10.071361
1465170512815803, 7.1569324, 0.35413775, 7.0899334, -0.06602043, 0.096508026, 10.079713
1465170515225699, 7.1377897, 0.33499518, 7.0899334, -0.049498975, 0.080262184, 10.065712
1465170517635595, 7.164111, 0.33499518, 7.082755, -0.0450325, 0.1037879, 10.079152
1465170520045490, 7.176075, 0.34217364, 7.094719, -0.051666796, 0.10481548, 10.096261
1465170522455386, 7.176075, 0.34456646, 7.082755, -0.052004755, 0.11366844, 10.087843
1465170524865334, 7.1617184, 0.33020952, 7.0636125, -0.037973166, 0.11496353, 10.063758
1465170527275230, 7.1688967, 0.3469593, 7.075577, -0.052403808, 0.114267826, 10.07777
1465170529685126, 7.159325, 0.3278167, 7.085148, -0.0355649, 0.0979619, 10.077293
1465170532095022, 7.164111, 0.33738798, 7.075577, -0.042486727, 0.108706474, 10.074148
1465170534504918, 7.1569324, 0.33499518, 7.0803623, -0.04146278, 0.099980354, 10.072424
1465170536914813, 7.1473613, 0.3397808, 7.094719, -0.047675967, 0.08296251, 10.076017
1465170539324709, 7.1449685, 0.32542387, 7.1066833, -0.03483939, 0.070747375, 10.082421
1465170541734605, 7.1425757, 0.3062813, 7.1138616, -0.01575321, 0.060032845, 10.085304
1465170544144553, 7.135397, 0.32303107, 7.109076, -0.032797635, 0.06090069, 10.077322
1465170546554449, 7.1306114, 0.33260235, 7.111469, -0.042001426, 0.056585312, 10.075926
1465170548964345, 7.1282187, 0.34217364, 7.111469, -0.05176264, 0.05637312, 10.074509
1465170551374240, 7.1377897, 0.35174492, 7.1018977, -0.059156418, 0.071208954, 10.074728
1465170553784136, 7.140183, 0.33738798, 7.099505, -0.043423295, 0.07188225, 10.074323
1465170556194032, 7.1425757, 0.34217364, 7.109076, -0.047402978, 0.06723881, 10.082939
1465170558603928, 7.1449685, 0.35413775, 7.1162543, -0.059183, 0.06603193, 10.090055
1465170561013824, 7.1617184, 0.3589234, 7.123433, -0.061105907, 0.07312536, 10.10709
1465170563423720, 7.1712894, 0.33020952, 7.133004, -0.03237301, 0.06860161, 10.119804
1465170565833668, 7.1617184, 0.32063824, 7.1617184, -0.025316179, 0.039940834, 10.133162
1465170568243563, 7.1712894, 0.32063824, 7.1545396, -0.022889555, 0.051870346, 10.134812
1465170570653459, 7.166504, 0.30149564, 7.159325, -0.003835857, 0.04173374, 10.134291
1465170573063355, 7.1569324, 0.2943172, 7.1688967, 9.861588E-4, 0.027191639, 10.134132
1465170575473251, 7.164111, 0.2943172, 7.164111, 0.003715694, 0.03529644, 10.135794
1465170577883147, 7.166504, 0.29910284, 7.1712894, -0.0013675094, 0.03274584, 10.14271
1465170580293043, 7.149754, 0.28953153, 7.1425757, 0.00860858, 0.039525032, 10.1102705
1465170582702990, 7.135397, 0.28953153, 7.123433, 0.009701788, 0.04287672, 10.086579
1465170585112886, 7.1210403, 0.28713873, 7.111469, 0.011234045, 0.040833473, 10.067913
1465170587522782, 7.1066833, 0.27756742, 7.1042905, 0.02122277, 0.0339036, 10.052429
1465170589932678, 7.094719, 0.27517462, 7.109076, 0.021465123, 0.021833897, 10.047328
1465170592342574, 7.092326, 0.2656033, 7.109076, 0.03056866, 0.018577576, 10.045364
1465170594752470, 7.094719, 0.25603202, 7.111469, 0.040573776, 0.016722202, 10.048466
1465170597162365, 7.097112, 0.24646074, 7.109076, 0.050592303, 0.018409252, 10.048175
1465170599572261, 7.0899334, 0.24646074, 7.1042905, 0.05004859, 0.016528606, 10.039724
1465170601982157, 7.085148, 0.23928227, 7.1018977, 0.05669087, 0.013667583, 10.034448
1465170604392105, 7.075577, 0.24885355, 7.1138616, 0.044761896, 2.527237E-4, 10.03647
1465170606802001, 7.066005, 0.2656033, 7.125826, 0.025340617, -0.012129307, 10.038704
1465170609211897, 7.058827, 0.2727818, 7.133004, 0.016654551, -0.020868301, 10.038948
1465170611621793, 7.058827, 0.2847459, 7.1377897, 0.0036404133, -0.022316933, 10.042692
1465170614031688, 7.0492554, 0.29910284, 7.140183, -0.012658119, -0.028132439, 10.038064
1465170616441584, 7.056434, 0.30388847, 7.1425757, -0.016626537, -0.024020195, 10.044956
1465170618851480, 7.070791, 0.29910284, 7.135397, -0.009750843, -0.009640217, 10.049838
1465170621261428, 7.058827, 0.31345975, 7.152147, -0.027117193, -0.027338982, 10.053707
1465170623671324, 7.075577, 0.33260235, 7.152147, -0.04372263, -0.012551308, 10.066059
1465170626081220, 7.0612197, 0.32063824, 7.152147, -0.034152925, -0.024487019, 10.055599
1465170628491115, 7.066005, 0.33020952, 7.159325, -0.04360217, -0.02464199, 10.064338
1465170630901011, 7.066005, 0.33738798, 7.1569324, -0.05038035, -0.021944046, 10.062849
1465170633310907, 7.058827, 0.3278167, 7.133004, -0.039660454, -0.011779785, 10.0405445
1465170635720803, 7.0540414, 0.32063824, 7.125826, -0.032552183, -0.011262417, 10.031876
1465170638130699, 7.068398, 0.3182454, 7.123433, -0.027043283, -0.0011782646, 10.040224
1465170640540595, 7.0636125, 0.29910284, 7.125826, -0.008952677, -0.009103775, 10.037993
1465170642950543, 7.0540414, 0.30149564, 7.125826, -0.01254344, -0.0154213905, 10.031321
1465170645360438, 7.0731835, 0.28953153, 7.140183, 0.00113976, -0.015057087, 10.054638
1465170647770334, 7.0612197, 0.29910284, 7.1377897, -0.009641767, -0.020278454, 10.044792
1465170650180230, 7.0492554, 0.30867413, 7.133004, -0.019457579, -0.025256634, 10.033245
1465170652590126, 7.042077, 0.31106696, 7.1306114, -0.022521675, -0.028241634, 10.026562
1465170655000022, 7.056434, 0.29910284, 7.1377897, -0.008703947, -0.02638483, 10.041414
1465170657409918, 7.04447, 0.28713873, 7.135397, 0.0027462244, -0.036100864, 10.0309305
1465170659819813, 7.0468626, 0.2656033, 7.135397, 0.024331927, -0.037665844, 10.031982
1465170662229761, 7.0468626, 0.2727818, 7.125826, 0.018054664, -0.029885769, 10.02541
1465170664639657, 7.015756, 0.27038896, 7.111469, 0.01855445, -0.042811394, 9.993236
1465170667049553, 6.9990063, 0.26799613, 7.085148, 0.021032393, -0.03642893, 9.962704
1465170669459449, 6.991828, 0.27756742, 7.066005, 0.012758553, -0.027194977, 9.944357
1465170671869345, 7.003792, 0.26799613, 7.0731835, 0.023018837, -0.02578926, 9.957592
1465170674279240, 7.015756, 0.2847459, 7.0899334, 0.0065532327, -0.026492119, 9.978392
1465170676689136, 7.01097, 0.28235307, 7.0875406, 0.0082525015, -0.028563023, 9.973253
1465170679099032, 7.0325055, 0.30149564, 7.092326, -0.00827986, -0.013792515, 9.99239
1465170681508928, 7.0229344, 0.27996024, 7.1018977, 0.010691464, -0.030725956, 9.99179
1465170683918876, 7.025327, 0.28235307, 7.1186476, 0.0065807104, -0.0400939, 10.005421
1465170686328772, 7.02772, 0.2656033, 7.123433, 0.022957206, -0.04456377, 10.010004
1465170688738668, 7.0325055, 0.2632105, 7.135397, 0.02379793, -0.04957819, 10.02179
1465170691148563, 7.025327, 0.2727818, 7.140183, 0.012871861, -0.05626726, 10.020405
1465170693558459, 7.015756, 0.26081768, 7.125826, 0.023671865, -0.053843975, 10.00314
1465170695968355, 7.015756, 0.24885355, 7.125826, 0.034139037, -0.054232597, 10.002803
1465170698378251, 7.018149, 0.2632105, 7.1210403, 0.0208897, -0.046730995, 10.001515
1465170700788147, 7.0372915, 0.26799613, 7.1210403, 0.018881679, -0.032604218, 10.015144
1465170703198095, 7.0492554, 0.27756742, 7.125826, 0.0090997815, -0.024096489, 10.027252
1465170705607990, 7.051648, 0.2656033, 7.140183, 0.01978153, -0.03449869, 10.038771
1465170708017886, 7.0540414, 0.27038896, 7.1449685, 0.013376415, -0.033531666, 10.043998
1465170710427782, 7.0396843, 0.2727818, 7.1377897, 0.0080733895, -0.0366683, 10.028869
1465170712837678, 7.042077, 0.27038896, 7.1545396, 0.009100199, -0.047098637, 10.042366
1465170715247574, 7.0636125, 0.24885355, 7.1449685, 0.034285307, -0.029082775, 10.05013
1465170717657470, 7.058827, 0.22971097, 7.149754, 0.050403893, -0.03775263, 10.049618
1465170720067365, 7.058827, 0.20578274, 7.152147, 0.07353741, -0.04382038, 10.050634
1465170722477313, 7.04447, 0.2009971, 7.1569324, 0.07404685, -0.056965828, 10.0438
1465170724887209, 7.0540414, 0.2009971, 7.1569324, 0.07346439, -0.04946947, 10.050561
1465170727297105, 7.058827, 0.2105684, 7.1569324, 0.0627231, -0.04376316, 10.054214
1465170729707001, 7.0468626, 0.21774685, 7.173682, 0.052194178, -0.062497616, 10.057871
1465170732116897, 7.058827, 0.20578274, 7.1784678, 0.06519055, -0.059613228, 10.069359
1465170734526793, 7.0468626, 0.21774685, 7.166504, 0.05294156, -0.057494164, 10.052778
1465170736936688, 7.0636125, 0.22253251, 7.1617184, 0.048036754, -0.04052496, 10.061333
1465170739346584, 7.04447, 0.22253251, 7.1425757, 0.047285974, -0.040500164, 10.034271
1465170741756480, 7.0325055, 0.21296121, 7.1210403, 0.05719459, -0.035408497, 10.010304
1465170744166428, 7.02772, 0.20578274, 7.1066833, 0.06502658, -0.02992487, 9.9965515
1465170746576324, 7.01097, 0.22492532, 7.1138616, 0.041653216, -0.043692112, 9.990379
1465170748986220, 7.018149, 0.23449662, 7.109076, 0.034293234, -0.0331316, 9.992302
1465170751396115, 7.01097, 0.2321038, 7.1306114, 0.032292366, -0.054276943, 10.002461
1465170753806011, 7.015756, 0.27038896, 7.133004, -0.005151093, -0.046857834, 10.008571
1465170756215907, 7.0301127, 0.28713873, 7.140183, -0.0218454, -0.04015827, 10.024223
1465170758625803, 7.0372915, 0.28713873, 7.1425757, -0.021014154, -0.036895275, 10.030977
1465170761035751, 7.051648, 0.29192436, 7.1425757, -0.024920821, -0.027011871, 10.041214
1465170763445647, 7.056434, 0.32303107, 7.1449685, -0.05529201, -0.020771503, 10.047123
1465170765855543, 7.042077, 0.33260235, 7.1377897, -0.06636, -0.025504112, 10.03217
1465170768265438, 7.04447, 0.3469593, 7.1306114, -0.07951695, -0.018039703, 10.029152
1465170770675334, 7.042077, 0.35653058, 7.1306114, -0.08933216, -0.018026352, 10.027725
1465170773085230, 7.042077, 0.3493521, 7.1449685, -0.08348441, -0.02915001, 10.037711
1465170775495126, 7.051648, 0.35413775, 7.1473613, -0.08644837, -0.024851799, 10.046286
1465170777905022, 7.0372915, 0.3397808, 7.1569324, -0.07488662, -0.04372835, 10.042564
1465170780314970, 7.0348988, 0.33260235, 7.1617184, -0.06735456, -0.051104546, 10.044077
1465170782724865, 7.051648, 0.34456646, 7.152147, -0.076205015, -0.030896187, 10.049423
1465170785134761, 7.0731835, 0.36610186, 7.1306114, -0.09138453, 0.0012383461, 10.049936
1465170787544657, 7.0731835, 0.37567315, 7.135397, -0.09961969, -0.0017662048, 10.053607
1465170789954553, 7.0803623, 0.3684947, 7.1162543, -0.08999288, 0.015584469, 10.044901
1465170792364449, 7.075577, 0.3804588, 7.1018977, -0.099218786, 0.023288727, 10.031705
1465170794774345, 7.0731835, 0.37088752, 7.1018977, -0.09005493, 0.020199299, 10.029752
1465170797184240, 7.070791, 0.3804588, 7.1138616, -0.09878403, 0.011424065, 10.036832
1465170799594136, 7.085148, 0.3924229, 7.111469, -0.10855609, 0.024942875, 10.045592
1465170802004032, 7.097112, 0.39960137, 7.092326, -0.11059421, 0.047478676, 10.040683
1465170804413980, 7.1042905, 0.38524446, 7.082755, -0.09465355, 0.056998253, 10.038555
1465170806823876, 7.1042905, 0.3684947, 7.0731835, -0.07765341, 0.060652733, 10.0313
1465170809233772, 7.1018977, 0.37088752, 7.0612197, -0.07754433, 0.06758976, 10.021215
1465170811643668, 7.1186476, 0.3804588, 7.066005, -0.084053874, 0.07712793, 10.036697
1465170814053563, 7.109076, 0.3924229, 7.066005, -0.09706417, 0.07218361, 10.030292
1465170816463459, 7.0899334, 0.38524446, 7.075577, -0.09330019, 0.050719738, 10.023376
1465170818873355, 7.092326, 0.38285163, 7.0731835, -0.08951321, 0.053289413, 10.02331
1465170821283251, 7.1042905, 0.37806597, 7.0731835, -0.083335906, 0.060973167, 10.031607
1465170823693199, 7.099505, 0.38763726, 7.0731835, -0.09266269, 0.058405876, 10.028519
1465170826103095, 7.1162543, 0.4139583, 7.070791, -0.11649865, 0.07551813, 10.039386
1465170828512990, 7.1186476, 0.40677986, 7.075577, -0.10925105, 0.07200909, 10.044266
1465170830922886, 7.125826, 0.4019942, 7.082755, -0.104016155, 0.07049656, 10.054285
1465170833332782, 7.1210403, 0.4019942, 7.092326, -0.10534409, 0.060440063, 10.057693
1465170835742678, 7.1042905, 0.41874397, 7.075577, -0.1225881, 0.062100887, 10.0345
1465170838152574, 7.1042905, 0.4426722, 7.0731835, -0.14623788, 0.06679535, 10.033493
1465170840562470, 7.092326, 0.45942193, 7.082755, -0.16497168, 0.054028988, 10.03232
1465170842972365, 7.1186476, 0.45702913, 7.097112, -0.16074517, 0.061533928, 10.060984
1465170845382313, 7.099505, 0.44506502, 7.111469, -0.15211242, 0.036179543, 10.057316
1465170847792209, 7.1018977, 0.4331009, 7.109076, -0.13983488, 0.037403584, 10.056965
1465170850202105, 7.094719, 0.4354937, 7.1138616, -0.14338577, 0.029342175, 10.055362
1465170852612001, 7.092326, 0.4139583, 7.1066833, -0.121795475, 0.02982521, 10.047969
1465170855021897, 7.094719, 0.4019942, 7.092326, -0.10860354, 0.03997469, 10.039141
1465170857431793, 7.1066833, 0.3804588, 7.070791, -0.084870666, 0.060744286, 10.031694
1465170859841688, 7.111469, 0.37088752, 7.0803623, -0.07550332, 0.056188583, 10.0415745
1465170862251584, 7.125826, 0.35174492, 7.0779696, -0.05480489, 0.06556034, 10.049452
1465170864661532, 7.135397, 0.3589234, 7.082755, -0.061212897, 0.06979561, 10.059797
1465170867071428, 7.1377897, 0.35174492, 7.0803623, -0.05434984, 0.073073864, 10.059573
1465170869481324, 7.135397, 0.36610186, 7.0779696, -0.06868741, 0.07485771, 10.0566025
1465170871891220, 7.1425757, 0.3684947, 7.0899334, -0.071342915, 0.07153177, 10.0702095
1465170874301115, 7.1473613, 0.35653058, 7.0875406, -0.05881062, 0.07512665, 10.071546
1465170876711011, 7.140183, 0.3493521, 7.0803623, -0.052218407, 0.07439375, 10.06119
1465170879120907, 7.1449685, 0.33738798, 7.0731835, -0.039875418, 0.08110762, 10.059134
1465170881530803, 7.1617184, 0.30867413, 7.068398, -0.009468496, 0.09272957, 10.0667305
1465170883940699, 7.1569324, 0.28953153, 7.0636125, 0.009345561, 0.09054375, 10.059416
1465170886350647, 7.1617184, 0.30388847, 7.056434, -0.004177928, 0.099999905, 10.058123
1465170888760543, 7.1688967, 0.30388847, 7.0612197, -0.0035925806, 0.10057354, 10.066585
1465170891170438, 7.1688967, 0.3062813, 7.04447, -0.0048753023, 0.112633705, 10.054787
1465170893580334, 7.1688967, 0.2847459, 7.051648, 0.015593499, 0.10333586, 10.059273
1465170895990230, 7.1712894, 0.2943172, 7.0492554, 0.0065056384, 0.10785246, 10.05954
1465170898400126, 7.1688967, 0.27996024, 7.0396843, 0.021423817, 0.1088047, 10.050688
1465170900810022, 7.1880393, 0.26081768, 7.0325055, 0.043020427, 0.12480497, 10.058561
1465170903219918, 7.1784678, 0.2536392, 7.0301127, 0.049247086, 0.11886835, 10.04991
1465170905629813, 7.1545396, 0.25603202, 7.0229344, 0.044324994, 0.10486126, 10.028043
1465170908039761, 7.159325, 0.2656033, 7.0396843, 0.034488022, 0.09426308, 10.043584
1465170910449657, 7.1688967, 0.27996024, 7.0468626, 0.020842612, 0.09787989, 10.05583
1465170912859553, 7.1449685, 0.27517462, 7.0540414, 0.022222757, 0.075466156, 10.043884
1465170915269449, 7.1425757, 0.28953153, 7.051648, 0.0073426366, 0.07436943, 10.0409355
1465170917679345, 7.133004, 0.2847459, 7.0612197, 0.009766817, 0.05739832, 10.040829
1465170920089240, 7.135397, 0.29192436, 7.056434, 0.003301978, 0.06341028, 10.039339
1465170922499136, 7.135397, 0.27038896, 7.0492554, 0.025175452, 0.06552076, 10.033646
1465170924909032, 7.1018977, 0.2727818, 7.0468626, 0.018841624, 0.041749, 10.008373
1465170927318980, 7.094719, 0.2847459, 7.0540414, 0.0056099296, 0.033321857, 10.00872
1465170929728876, 7.1042905, 0.28713873, 7.056434, 0.004172325, 0.03864813, 10.017242
1465170932138772, 7.085148, 0.2847459, 7.0636125, 0.00292629, 0.016907215, 10.008732
1465170934548668, 7.0899334, 0.2943172, 7.068398, -0.0063574314, 0.018208027, 10.01577
1465170936958563, 7.097112, 0.29671, 7.0875406, -0.0097001195, 0.009744644, 10.034445
1465170939368459, 7.097112, 0.30149564, 7.125826, -0.017618239, -0.016448498, 10.0616455
1465170941778355, 7.1162543, 0.31106696, 7.123433, -0.024845243, 2.2506714E-4, 10.073753
1465170944188251, 7.1138616, 0.33020952, 7.1186476, -0.04367131, 0.004711151, 10.069223
1465170946598147, 7.135397, 0.30867413, 7.125826, -0.020282626, 0.011601448, 10.088905
1465170949008095, 7.1569324, 0.32063824, 7.123433, -0.0292629, 0.031176567, 10.102772
1465170951417990, 7.152147, 0.30867413, 7.125826, -0.018242955, 0.024379253, 10.100741
1465170953827886, 7.1473613, 0.28953153, 7.111469, 0.0014938116, 0.02974224, 10.086659
1465170956237782, 7.1545396, 0.27038896, 7.099505, 0.022339225, 0.040283203, 10.082727
1465170958647678, 7.135397, 0.25603202, 7.099505, 0.034084022, 0.026590824, 10.06879
1465170961057574, 7.1377897, 0.2416751, 7.092326, 0.049164474, 0.031234741, 10.064996
1465170963467470, 7.133004, 0.19381863, 7.094719, 0.09561342, 0.020869732, 10.061947
1465170965877365, 7.1210403, 0.19621146, 7.085148, 0.09257394, 0.019590855, 10.046794
1465170968287261, 7.123433, 0.1794617, 7.0803623, 0.10934961, 0.023443222, 10.044627
1465170970697209, 7.099505, 0.17228323, 7.082755, 0.11218017, 0.0050463676, 10.029231
1465170973107105, 7.0875406, 0.16031912, 7.1018977, 0.12096143, -0.018469334, 10.033989
1465170975517001, 7.085148, 0.16749759, 7.1018977, 0.112020135, -0.018464565, 10.032519
1465170977926897, 7.092326, 0.15553348, 7.1138616, 0.12373698, -0.023594856, 10.045717
1465170980336793, 7.085148, 0.16510476, 7.1186476, 0.11323577, -0.029657364, 10.044304
1465170982746688, 7.082755, 0.1698904, 7.1162543, 0.10648692, -0.028439045, 10.041077
1465170985156584, 7.082755, 0.16749759, 7.111469, 0.10922879, -0.025407791, 10.037624
1465170987566480, 7.075577, 0.16749759, 7.1210403, 0.10569972, -0.036291122, 10.0393505
1465170989976376, 7.0731835, 0.16510476, 7.1210403, 0.10552567, -0.038249493, 10.037621
1465170992386324, 7.056434, 0.16749759, 7.123433, 0.101073325, -0.05131817, 10.027552
1465170994796220, 7.0229344, 0.18185452, 7.1306114, 0.080037534, -0.07792616, 10.009386
1465170997206115, 7.015756, 0.1794617, 7.1473613, 0.08032662, -0.09503269, 10.016104
1465170999616011, 7.0229344, 0.18185452, 7.159325, 0.07592732, -0.097561836, 10.029722
1465171002025907, 7.02772, 0.20338993, 7.1617184, 0.054934204, -0.09311676, 10.035374
1465171004435803, 7.0301127, 0.19142582, 7.166504, 0.06441891, -0.09591198, 10.040148
1465171006845699, 7.0325055, 0.16271193, 7.164111, 0.09331906, -0.09627581, 10.039379
1465171009255595, 7.0372915, 0.16749759, 7.1688967, 0.0870558, -0.094839096, 10.046295
1465171011665490, 7.0348988, 0.18424734, 7.1617184, 0.07069546, -0.08935022, 10.0399685
1465171014075438, 7.0468626, 0.19621146, 7.1617184, 0.0581733, -0.07892513, 10.04875
1465171016485334, 7.04447, 0.19860429, 7.1569324, 0.055882156, -0.076931, 10.0437355
1465171018895230, 7.0301127, 0.2105684, 7.1545396, 0.04083872, -0.08379984, 10.032227
1465171021305126, 7.0229344, 0.20817557, 7.173682, 0.040970027, -0.102585316, 10.04064
1465171023715022, 7.0085773, 0.19860429, 7.1856465, 0.04719299, -0.1224308, 10.038721
1465171026124918, 7.01097, 0.19621146, 7.176075, 0.050551653, -0.114349365, 10.033575
1465171028534813, 7.0061846, 0.21296121, 7.176075, 0.03268099, -0.11564016, 10.030632
1465171030944709, 6.9966135, 0.23449662, 7.166504, 0.011002064, -0.11267853, 10.01766
1465171033354605, 6.991828, 0.21774685, 7.1377897, 0.029369295, -0.098137856, 9.99353
1465171035764501, 7.003792, 0.22253251, 7.123433, 0.027115643, -0.07904434, 9.991945
1465171038174449, 6.991828, 0.2416751, 7.111469, 0.0076194406, -0.07653475, 9.975527
1465171040584345, 6.9655066, 0.24646074, 7.111469, -2.6851892E-4, -0.09421635, 9.957065
1465171042994240, 6.9798636, 0.25603202, 7.133004, -0.009806991, -0.09793711, 9.982691
1465171045404136, 6.977471, 0.24646074, 7.133004, 4.172325E-5, -0.10123539, 9.980748
1465171047814032, 6.984649, 0.2536392, 7.135397, -0.0064008236, -0.096812725, 9.9876995
1465171050223928, 6.987042, 0.23688944, 7.1186476, 0.011943936, -0.085954666, 9.977098
1465171052633824, 7.003792, 0.23688944, 7.123433, 0.014562666, -0.07738638, 9.992313
1465171055043720, 7.001399, 0.23449662, 7.1210403, 0.016838253, -0.077739716, 9.988868
1465171057453615, 7.0085773, 0.22731815, 7.133004, 0.023665905, -0.082176685, 10.0022135
1465171059863511, 7.015756, 0.25603202, 7.1425757, -0.0046228766, -0.07923937, 10.014813
1465171062273459, 7.02772, 0.2440679, 7.159325, 0.00716424, -0.084579945, 10.034798
1465171064683355, 7.025327, 0.2416751, 7.1569324, 0.0100528, -0.084546566, 10.031353
1465171067093251, 7.0205417, 0.2416751, 7.1425757, 0.011490583, -0.077227116, 10.017818
1465171069503147, 7.0301127, 0.25603202, 7.123433, 4.36306E-4, -0.054846764, 10.01141
1465171071913043, 7.0636125, 0.25603202, 7.1042905, 0.0073003173, -0.017327309, 10.021515
1465171074322938, 7.070791, 0.26799613, 7.092326, -0.0024017692, -0.002023697, 10.018433
1465171076732834, 7.058827, 0.28235307, 7.092326, -0.017670512, -0.007612705, 10.01037
1465171079142730, 7.068398, 0.2727818, 7.092326, -0.006982684, -0.00242424, 10.016871
1465171081552678, 7.070791, 0.2727818, 7.097112, -0.007140577, -0.0041074753, 10.021948
1465171083962574, 7.070791, 0.2847459, 7.085148, -0.017267525, 0.006307602, 10.013799
1465171086372470, 7.082755, 0.2727818, 7.085148, -0.0038039088, 0.012549877, 10.021925
1465171088782365, 7.1138616, 0.2727818, 7.0636125, 0.0026245117, 0.04899454, 10.028642
1465171091192261, 7.111469, 0.25842485, 7.058827, 0.01693219, 0.04784155, 10.023184
1465171093602157, 7.097112, 0.2416751, 7.04447, 0.032907605, 0.045138836, 10.002441
1465171096012053, 7.1042905, 0.2416751, 7.0301127, 0.035289586, 0.060173035, 9.997348
1465171098421949, 7.1162543, 0.25124636, 7.0325055, 0.026950479, 0.06748533, 10.00775
1465171100831845, 7.1186476, 0.25124636, 7.01097, 0.029428422, 0.084210396, 9.994199
1465171103241793, 7.133004, 0.24885355, 6.987042, 0.03523308, 0.10952139, 9.987352
1465171105651688, 7.1473613, 0.25124636, 6.9894347, 0.033529162, 0.11694431, 9.999265
1465171108061584, 7.1282187, 0.23449662, 6.977471, 0.049198687, 0.10893822, 9.976839
1465171110471480, 7.1377897, 0.23928227, 6.975078, 0.044714093, 0.11630821, 9.9820595
1465171112881376, 7.1425757, 0.22971097, 6.9655066, 0.055811226, 0.12465811, 9.978416
1465171115291272, 7.1425757, 0.23449662, 6.9655066, 0.051099956, 0.12548876, 9.978542
1465171117701168, 7.1473613, 0.2416751, 6.960721, 0.0428707, 0.13179159, 9.978758
1465171120111063, 7.1162543, 0.2416751, 6.9726853, 0.037398577, 0.1018219, 9.965242
1465171122520959, 7.1377897, 0.24646074, 6.9726853, 0.033995926, 0.11579132, 9.980609
1465171124930855, 7.1210403, 0.26799613, 6.9798636, 0.008291662, 0.101380825, 9.974427
1465171127340803, 7.1066833, 0.25842485, 6.977471, 0.014853418, 0.090648174, 9.962349
1465171129750699, 7.0803623, 0.27756742, 6.975078, -0.00792402, 0.07723951, 9.942548
1465171132160595, 7.0731835, 0.27038896, 6.9798636, -0.0022574663, 0.067735195, 9.940671
1465171134570490, 7.092326, 0.28713873, 6.9966135, -0.01857686, 0.07204819, 9.966475
1465171136980386, 7.1066833, 0.3062813, 7.01097, -0.037052095, 0.07595062, 9.987258
1465171139390282, 7.1018977, 0.29910284, 7.0229344, -0.031803906, 0.06306267, 9.992149
1465171141800178, 7.1018977, 0.31106696, 7.025327, -0.043836117, 0.06336403, 9.994148
1465171144210074, 7.1018977, 0.33499518, 7.04447, -0.0691033, 0.055370808, 10.008289
1465171146619970, 7.1138616, 0.33260235, 7.0540414, -0.06648421, 0.056104183, 10.023453
1465171149029865, 7.1210403, 0.34217364, 7.0540414, -0.07499981, 0.062610626, 10.028772
1465171151439813, 7.123433, 0.33499518, 7.04447, -0.065926254, 0.07190657, 10.023501
1465171153849709, 7.1282187, 0.33260235, 7.0612197, -0.064512074, 0.06311989, 10.038666
1465171156259605, 7.1377897, 0.33499518, 7.075577, -0.06555325, 0.062479496, 10.055637
1465171158669501, 7.149754, 0.33738798, 7.082755, -0.0662024, 0.067521095, 10.069224
1465171161079397, 7.1545396, 0.31345975, 7.1066833, -0.043946862, 0.05063486, 10.088911
1465171163489293, 7.1784678, 0.31345975, 7.123433, -0.04247296, 0.05557871, 10.1176605
1465171165899188, 7.176075, 0.30149564, 7.1282187, -0.02916193, 0.05084753, 10.119041
1465171168309084, 7.1784678, 0.2943172, 7.1377897, -0.019926965, 0.046251774, 10.1273155
1465171170718980, 7.192825, 0.27517462, 7.1282187, 0.0016018748, 0.060127735, 10.130169
1465171173128876, 7.1880393, 0.24885355, 7.133004, 0.029132664, 0.05002165, 10.129474
1465171175538824, 7.1784678, 0.29671, 7.159325, -0.021625578, 0.031986713, 10.142628
1465171177948720, 7.164111, -0.1052842, 7.094719, 0.38187987, 0.008882999, 10.075948
1465171180358615, 7.2789664, 0.76331043, 7.173682, -0.47006285, 0.15843916, 10.236292
1465171182768511, 7.1018977, -0.11964113, 7.223932, 0.37830812, -0.12849998, 10.123084
1465171185178407, 7.207182, -0.12203395, 7.003792, 0.41153276, 0.09908962, 10.041529
1465171187588303, 7.3028946, 1.0935199, 7.2119675, -0.7917723, 0.20066833, 10.289478
1465171189998199, 7.0229344, -0.61734825, 7.183254, 0.86480993, -0.23748493, 10.024847
1465171192408095, 7.2957163, 0.30149564, 6.9678993, 0.0114815235, 0.24483871, 10.09009
1465171194817990, 7.223932, 0.9523434, 7.288538, -0.66517466, 0.065957546, 10.284365
1465171197227886, 6.9655066, -0.8997013, 7.0803623, 1.1446383, -0.26283503, 9.903536
1465171199637834, 7.3292155, 0.8709874, 6.991828, -0.5457494, 0.33636093, 10.146463
1465171202047730, 7.0492554, 0.4761717, 7.350751, -0.22724664, -0.17314148, 10.191696
1465171204457626, 6.991828, -0.8039884, 7.018149, 1.0576482, -0.18760204, 9.880924
1465171206867522, 7.348358, 1.282553, 7.056434, -0.9549773, 0.37474775, 10.216858
1465171209277418, 6.960721, -0.11006984, 7.259824, 0.3491059, -0.2716837, 10.048538
1465171211687313, 7.1018977, -0.33499518, 7.015756, 0.6132567, -0.043008804, 9.969558
1465171214097209, 7.2909307, 1.416551, 7.1306114, -1.0987576, 0.29825258, 10.232971
1465171216507105, 6.884151, -0.60777694, 7.1306114, 0.8452973, -0.3086648, 9.889224
1465171218917001, 7.207182, 0.27038896, 6.963114, 0.027732134, 0.1671381, 10.023614
1465171221326897, 7.176075, 1.2011969, 7.243074, -0.9208157, 0.09251928, 10.224705
1465171223736845, 6.884151, -0.90448695, 6.984649, 1.1445413, -0.25523138, 9.778541
1465171226146740, 7.2622166, 0.82313097, 6.9583282, -0.51099473, 0.29257488, 10.074173
1465171228556636, 7.018149, 0.72263247, 7.3627152, -0.4792266, -0.17130804, 10.184654
1465171230966532, 6.896115, -0.8446664, 6.963114, 1.082529, -0.24487352, 9.773585
1465171233376428, 7.2861447, 1.2634103, 7.02772, -0.9457138, 0.34108782, 10.151957
1465171235786324, 6.9056864, 0.11485548, 7.338787, 0.094267964, -0.33572674, 10.071639
1465171238196220, 6.975078, -0.46181476, 6.9894347, 0.7080727, -0.14247656, 9.85878
1465171240606115, 7.259824, 1.4644074, 7.042077, -1.1501883, 0.3628378, 10.148193
1465171243016011, 6.838687, -0.47856453, 7.1952176, 0.6822128, -0.39109516, 9.907042
1465171245425907, 7.085148, 0.09332009, 6.991828, 0.17915219, 0.026021004, 9.952936
1465171247835803, 7.1545396, 1.3447664, 7.183254, -1.0604331, 0.17436743, 10.170548
1465171250245751, 6.838687, -0.81834537, 7.0779696, 1.0274355, -0.37734747, 9.81514
1465171252655647, 7.2502527, 0.69152576, 7.04447, -0.3952189, 0.21743155, 10.122522
1465171255065543, 7.0731835, 0.93320084, 7.353144, -0.69525737, -0.07446861, 10.221575
1465171257475438, 6.8865438, -0.83988076, 6.991828, 1.0585933, -0.29360962, 9.788193
1465171259885334, 7.312466, 1.1772687, 7.094719, -0.8631361, 0.32760286, 10.214736
1465171262295230, 6.960721, 0.30388847, 7.4153576, -0.10208577, -0.31122923, 10.169771
1465171264705126, 6.9726853, -0.60059845, 7.0468626, 0.83103526, -0.22522497, 9.894239
1465171267115022, 7.2909307, 1.4620147, 7.133004, -1.1604295, 0.33750248, 10.233006
1465171269524918, 6.876972, -0.37088752, 7.3172517, 0.5550708, -0.42296934, 10.024244
1465171271934813, 7.085148, -0.15314065, 7.051648, 0.40352803, -0.05270052, 9.989139
1465171274344709, 7.207182, 1.4045869, 7.2023964, -1.1247431, 0.2203741, 10.221411
1465171276754657, 6.8482585, -0.8422736, 7.1784678, 1.032506, -0.4316187, 9.893742
1465171279164553, 7.2382884, 0.41635114, 7.0325055, -0.12421185, 0.17777014, 10.09828
1465171281574449, 7.1282187, 1.0313065, 7.34118, -0.77955925, 1.6212463E-5, 10.25477
1465171283984345, 6.896115, -0.9403793, 7.0133634, 1.1547873, -0.29502106, 9.8085375
1465171286394240, 7.322037, 0.98584294, 7.058827, -0.67872524, 0.32645607, 10.190383
1465171288804136, 7.01097, 0.4019942, 7.4010005, -0.18615872, -0.23971033, 10.197941
1465171291214032, 6.963114, -0.7465607, 7.0229344, 0.97497255, -0.19849682, 9.867823
1465171293623928, 7.32443, 1.3663018, 7.1186476, -1.0676789, 0.34018993, 10.243706
1465171296033824, 6.9559355, -0.24885355, 7.348358, 0.4557981, -0.34693432, 10.105307
1465171298443720, 7.0803623, -0.3684947, 7.068398, 0.617602, -0.09771776, 9.991926
1465171300853668, 7.259824, 1.430908, 7.164111, -1.1337336, 0.2949028, 10.2325325
1465171303263563, 6.8817577, -0.7800602, 7.219146, 0.96893376, -0.41707754, 9.948387
1465171305673459, 7.2119675, 0.14596218, 7.066005, 0.12678641, 0.0917263, 10.096423
1465171308083355, 7.164111, 1.1102697, 7.3340015, -0.8577917, 0.040390015, 10.276543
1465171310493251, 6.8721867, -0.997807, 7.0372915, 1.2073276, -0.32343674, 9.807333
1465171312903147, 7.322037, 0.7609176, 7.0540414, -0.45777923, 0.2813282, 10.181456
1465171315313043, 7.058827, 0.53599226, 7.396215, -0.3094263, -0.17954874, 10.231831
1465171317722938, 6.927222, -0.89013004, 6.943971, 1.1190505, -0.2079997, 9.782736
1465171320132834, 7.34118, 1.253839, 7.042077, -0.9419521, 0.3892293, 10.198876
1465171322542730, 6.9655066, -0.11485548, 7.322037, 0.31603652, -0.30930328, 10.096937
1465171324952626, 7.015756, -0.53359944, 6.9678993, 0.77353436, -0.1014452, 9.871602
1465171327362574, 7.2693954, 1.4691931, 7.056434, -1.1693895, 0.3591895, 10.163631
1465171329772470, 6.8817577, -0.6125626, 7.1856465, 0.8133061, -0.3579979, 9.928631
1465171332182365, 7.173682, 0.011964113, 6.9726853, 0.2610649, 0.10083628, 10.000093
1465171334592261, 7.2023964, 1.2921243, 7.1784678, -1.0155497, 0.19385862, 10.198315
1465171337002157, 6.8865438, -0.9020941, 7.0229344, 1.1176116, -0.29291296, 9.809437
1465171339412053, 7.32443, 0.62931234, 7.0085773, -0.32819694, 0.28361845, 10.147676
1465171341821949, 7.097112, 0.7800602, 7.372287, -0.55461717, -0.10254812, 10.247438
1465171344231845, 6.91765, -0.8662018, 6.946364, 1.0862432, -0.2123189, 9.779118
1465171346641740, 7.353144, 1.2155539, 7.0396843, -0.917596, 0.37181377, 10.204079
1465171349051636, 6.984649, 0.11964113, 7.3292155, 0.092087865, -0.263968, 10.121209
1465171351461532, 6.9798636, -0.5766702, 6.960721, 0.81381536, -0.12008762, 9.840018
1465171353871480, 7.2909307, 1.524228, 7.0492554, -1.2289331, 0.36898136, 10.174798
1465171356281376, 6.9056864, -0.4642076, 7.23111, 0.6656319, -0.34420824, 9.981553
1465171358691272, 7.123433, -0.11964113, 6.9942207, 0.37141126, 0.026260853, 9.976878
1465171361101168, 7.173682, 1.4380864, 7.1569324, -1.1729486, 0.21340752, 10.165143
1465171363511063, 6.8243303, -0.81595254, 7.0899334, 1.008672, -0.36623144, 9.815949
1465171365920959, 7.243074, 0.44027936, 7.003792, -0.16231024, 0.19856358, 10.081829
1465171368330855, 7.1066833, 0.9523434, 7.322037, -0.7145088, -0.024245739, 10.22316
1465171370740751, 6.8602223, -0.9499506, 6.936793, 1.1579175, -0.27063227, 9.729858
1465171373150647, 7.3172517, 1.0049855, 7.0085773, -0.7050637, 0.3517704, 10.151426
1465171375560543, 7.018149, 0.25124636, 7.3363943, -0.04449618, -0.22155046, 10.153282
1465171377970438, 6.975078, -0.76570326, 6.9320073, 0.99753094, -0.14515066, 9.811962
1465171380380334, 7.312466, 1.3734802, 7.018149, -1.0701088, 0.40100574, 10.164009
1465171382790282, 6.91765, -0.42831525, 7.23111, 0.6256336, -0.33538055, 9.991116
1465171385200178, 7.085148, -0.3804588, 6.9559355, 0.63253427, -0.01999569, 9.916079
1465171387610074, 7.233503, 1.3591232, 7.0636125, -1.0706003, 0.3099475, 10.140175
1465171390019970, 6.8602223, -0.8470592, 7.066005, 1.039079, -0.34572983, 9.823919
1465171392429865, 7.223932, 0.16031912, 6.920043, 0.119864464, 0.19429731, 10.002289
1465171394839761, 7.1162543, 1.0049855, 7.2095747, -0.7580645, 0.07229662, 10.151312
1465171397249657, 6.8482585, -0.9810573, 6.9320073, 1.1870192, -0.27880955, 9.7173605
1465171399659553, 7.2933235, 0.8063812, 6.963114, -0.5108678, 0.32669878, 10.097527
1465171402069449, 7.0229344, 0.44027936, 7.322037, -0.2238127, -0.18051624, 10.151108
1465171404479345, 6.8985076, -0.8446664, 6.9009004, 1.0656552, -0.2035327, 9.733871
1465171406889240, 7.3028946, 1.3208381, 7.0085773, -1.0193632, 0.3934536, 10.149046
1465171409299136, 6.9535427, -0.19142582, 7.288538, 0.3826298, -0.32372475, 10.062801
1465171411709084, 7.0612197, -0.4546363, 6.991828, 0.6910373, -0.090761185, 9.923075
1465171414118980, 7.2861447, 1.4811572, 7.068398, -1.1861727, 0.36978197, 10.183331
1465171416528876, 6.910472, -0.67477596, 7.1784678, 0.8683086, -0.36773348, 9.942392
1465171418938772, 7.2526455, 0.1052842, 6.9942207, 0.17551523, 0.1406517, 10.073752
1465171421348668, 7.21436, 1.2466606, 7.207182, -0.9760103, 0.16175318, 10.225746
1465171423758563, 6.9009004, -0.8805587, 6.9798636, 1.0987546, -0.262846, 9.789788
1465171426168459, 7.3435726, 0.70588267, 6.9822564, -0.40616816, 0.31601763, 10.144625
1465171428578355, 7.097112, 0.69152576, 7.3459654, -0.46713942, -0.101910114, 10.226525
1465171430988251, 6.9344, -0.8566305, 6.9128647, 1.0783074, -0.2120943, 9.767277
1465171433398147, 7.3627152, 1.2466606, 6.9942207, -0.9279064, 0.43494654, 10.180015
1465171435808043, 6.9942207, 0.011964113, 7.2861447, 0.1908117, -0.26266766, 10.094642
1465171438217938, 7.0229344, -0.5694918, 6.9320073, 0.8159, -0.09531021, 9.850071
1465171440627834, 7.331609, 1.5098711, 6.987042, -1.1915967, 0.44859362, 10.160208
1465171443037782, 6.936793, -0.552742, 7.159325, 0.75745934, -0.3091321, 9.950439
1465171445447678, 7.2095747, -0.076570325, 6.943971, 0.35168028, 0.115223885, 10.00328
1465171447857574, 7.219146, 1.3351951, 7.1042905, -1.053494, 0.25997972, 10.158361
1465171450267470, 6.8482585, -0.89491564, 6.9798636, 1.1039422, -0.30320358, 9.7523
1465171452677365, 7.271788, 0.5192425, 6.9224358, -0.2212094, 0.27960443, 10.046965
1465171455087261, 7.099505, 0.8111669, 7.259824, -0.56515914, -0.025726318, 10.170837
1465171457497157, 6.879365, -0.9499506, 6.8482585, 1.1806648, -0.1991806, 9.679518
1465171459907053, 7.3172517, 1.0695918, 6.9296145, -0.7579125, 0.40296173, 10.097967
1465171462316949, 6.991828, 0.16031912, 7.2526455, 0.055478156, -0.20924616, 10.073002
1465171464726845, 6.948757, -0.7322037, 6.8650084, 0.9651552, -0.12565756, 9.746917
1465171467136740, 7.259824, 1.4213367, 6.9535427, -1.1201649, 0.39702654, 10.082886
1465171469546636, 6.876972, -0.43788654, 7.176075, 0.63803256, -0.335032, 9.922763
1465171471956584, 7.085148, -0.2656033, 6.9415784, 0.520093, 0.0024638176, 9.908828
1465171474366480, 7.1856465, 1.430908, 7.0492554, -1.1495233, 0.27807474, 10.098232
1465171476776376, 6.8171515, -0.8111669, 7.025327, 1.00494, -0.3365922, 9.765427
1465171479186272, 7.2263246, 0.36610186, 6.927222, -0.089957, 0.21412468, 10.014301
1465171481596168, 7.1018977, 1.0169497, 7.2119675, -0.77696717, 0.036242485, 10.142909
1465171484006063, 6.826723, -0.9164511, 6.8650084, 1.1262796, -0.23329544, 9.656576
1465171486415959, 7.2670026, 0.997807, 6.910472, -0.7063081, 0.3582015, 10.046512
1465171488825855, 6.9702926, 0.4235296, 7.240681, -0.20942074, -0.17702055, 10.0556755
1465171491235751, 6.884151, -0.74416786, 6.8171515, 0.9727282, -0.1330471, 9.667212
1465171493645647, 7.257431, 1.4404793, 6.908079, -1.1428225, 0.42261887, 10.048989
1465171496055543, 6.867401, -0.2105684, 7.1449685, 0.40354806, -0.28855038, 9.900002
1465171498465438, 6.991828, -0.37328035, 6.862615, 0.6091438, -0.037362576, 9.785092
1465171500875334, 7.159325, 1.5409778, 6.936793, -1.2588384, 0.36477137, 10.001595
1465171503285282, 6.7932234, -0.6556334, 7.0205417, 0.84560984, -0.336123, 9.74873
1465171505695178, 7.1473613, 0.20578274, 6.896115, 0.06125045, 0.14748573, 9.932675
1465171508105074, 7.111469, 1.2323036, 7.1449685, -0.97799474, 0.11933279, 10.107986
1465171510514970, 6.8171515, -0.88295156, 6.9056864, 1.0908166, -0.2729864, 9.6787
1465171512924865, 7.2957163, 0.8350951, 6.948757, -0.54550904, 0.31869268, 10.090141
1465171515334761, 7.0396843, 0.61734825, 7.3196445, -0.4042132, -0.15559626, 10.165031
1465171517744657, 6.8985076, -0.78723866, 6.879365, 1.0044589, -0.1884222, 9.720615
1465171520154553, 7.331609, 1.3686945, 6.9942207, -1.0682795, 0.41083622, 10.1604595
1465171522564449, 6.977471, -0.04546363, 7.257431, 0.25158197, -0.26725578, 10.060952
1465171524974345, 7.066005, -0.485743, 6.9344, 0.7339316, -0.05585909, 9.884762
1465171527384240, 7.2957163, 1.5457634, 7.0133634, -1.2425559, 0.4140129, 10.153264
1465171529794136, 6.9009004, -0.5910272, 7.164111, 0.78420776, -0.35136032, 9.927628
1465171532204084, 7.204789, -0.033499517, 6.9678993, 0.30197573, 0.09692812, 10.018041
1465171534613980, 7.2023964, 1.2921243, 7.1688967, -1.0197692, 0.19542885, 10.191127
1465171537023876, 6.8721867, -0.9164511, 6.9798636, 1.1360068, -0.27973795, 9.76814
1465171539433772, 7.322037, 0.58624154, 6.9535427, -0.28302747, 0.29738712, 10.10639
1465171541843668, 7.1018977, 0.76331043, 7.3196445, -0.5231343, -0.083026886, 10.2135315
1465171544253563, 6.9128647, -0.91166544, 6.879365, 1.1466246, -0.18024683, 9.726111
1465171546663459, 7.355537, 1.2059826, 6.9990063, -0.8962819, 0.39208937, 10.177788
1465171549073355, 7.0229344, 0.09092726, 7.3052874, 0.12596828, -0.23821354, 10.130375
1465171551483251, 7.04447, -0.61016977, 6.927222, 0.8575747, -0.079123974, 9.8611145
1465171553893147, 7.3340015, 1.5337993, 6.9966135, -1.2192583, 0.4474678, 10.168869
1465171556303043, 6.943971, -0.4546363, 7.2023964, 0.6672529, -0.31399536, 9.987799
1465171558712938, 7.190432, -0.12203395, 6.984649, 0.4010306, 0.06384611, 10.016866
1465171561122834, 7.2622166, 1.4644074, 7.1569324, -1.1683342, 0.27120256, 10.230707
1465171563532730, 6.8865438, -0.7848458, 7.1018977, 0.9930526, -0.34605074, 9.8677025
1465171565942678, 7.3268228, 0.4761717, 7.003792, -0.17455989, 0.24962234, 10.142456
1465171568352574, 7.1808605, 1.0336994, 7.3292155, -0.7767113, 0.025913715, 10.283323
1465171570762470, 6.927222, -0.8279166, 6.95115, 1.0567153, -0.2325921, 9.788749
1465171573172365, 7.3842506, 1.1581261, 7.018149, -0.8328354, 0.4069972, 10.210955
1465171575582261, 7.068398, 0.42592242, 7.3579297, -0.19320577, -0.18880272, 10.208322
1465171577992157, 6.9966135, -0.5886344, 6.9391856, 0.8403684, -0.13222837, 9.835023
1465171580402053, 7.350751, 1.564906, 7.015756, -1.2334563, 0.44843102, 10.197097
1465171582811949, 6.963114, -0.2105684, 7.2287173, 0.4319951, -0.2896695, 10.025623
1465171585221845, 7.1186476, -0.15074782, 6.9344, 0.42544216, 0.034309387, 9.929834
1465171587631740, 7.2502527, 1.6510476, 7.02772, -1.3349758, 0.3739252, 10.137012
1465171590041636, 6.884151, -0.56470615, 7.066005, 0.7907711, -0.29026365, 9.845267
1465171592451532, 7.243074, 0.4426722, 6.9248285, -0.13562685, 0.2316122, 10.026928
1465171594861428, 7.1473613, 1.3112668, 7.2263246, -1.0301276, 0.100529194, 10.195719
1465171597271376, 6.869794, -0.70348984, 6.927222, 0.9439909, -0.2348609, 9.732887
1465171599681272, 7.32443, 1.0671989, 6.9798636, -0.7401406, 0.3587737, 10.140423
1465171602091168, 7.0540414, 0.7106683, 7.348358, -0.46881074, -0.15010262, 10.199051
1465171604501063, 6.9415784, -0.5838487, 6.9056864, 0.8361507, -0.14932775, 9.772074
1465171606910959, 7.3627152, 1.591227, 6.987042, -1.248632, 0.46016264, 10.187716
1465171609320855, 6.991828, 0.04546363, 7.259824, 0.19585145, -0.24833679, 10.074362
1465171611730751, 7.1186476, -0.22971097, 6.9702926, 0.51349694, -0.00370121, 9.952348
1465171614140647, 7.3292155, 1.7204394, 7.0325055, -1.3827658, 0.42542267, 10.200022
1465171616550543, 6.9344, -0.4642076, 7.135397, 0.705226, -0.28687096, 9.931549
1465171618960438, 7.281359, 0.30149564, 6.948757, 0.017250061, 0.21458721, 10.067174
1465171621370334, 7.243074, 1.4380864, 7.1712894, -1.1299497, 0.2415514, 10.228514
1465171623780230, 6.9152575, -0.70348984, 6.9583282, 0.952947, -0.22869778, 9.7864
1465171626190126, 7.381858, 0.88295156, 6.9320073, -0.53206414, 0.39378786, 10.143272
1465171628600022, 7.166504, 0.85184485, 7.3028946, -0.56889004, -0.020747662, 10.251469
1465171631009918, 6.9966135, -0.6891329, 6.879365, 0.9677631, -0.1031723, 9.788052
1465171633419813, 7.436893, 1.4189439, 6.984649, -1.0591265, 0.48573875, 10.234667
1465171635829761, 7.082755, 0.18903299, 7.2861447, 0.070280135, -0.17981768, 10.161287
1465171638239657, 7.1377897, -0.4235296, 6.9391856, 0.7163313, -0.013953686, 9.938129
1465171640649553, 7.422536, 1.6606189, 7.0085773, -1.2953966, 0.52128935, 10.248028
1465171643059449, 7.0205417, -0.3924229, 7.1617184, 0.6491097, -0.2454629, 10.012522
1465171645469345, 7.3052874, 0.06460621, 6.9583282, 0.26556623, 0.17774439, 10.084027
1465171647879240, 7.3459654, 1.4859428, 7.1282187, -1.153422, 0.31731272, 10.273834
1465171650289136, 6.991828, -0.7609176, 7.0061846, 1.0285114, -0.19871664, 9.871877
1465171652699032, 7.4129643, 0.6364908, 6.960721, -0.29076654, 0.34680843, 10.178604
1465171655108928, 7.219146, 0.9451649, 7.32443, -0.65458435, 0.005698204, 10.3067045
1465171657518824, 7.003792, -0.8207382, 6.903293, 1.0978644, -0.13638592, 9.806032
1465171659928720, 7.463214, 1.2107682, 6.9894347, -0.84476763, 0.45856953, 10.251527
1465171662338615, 7.1449685, 0.2727818, 7.314859, 0.004508853, -0.1457262, 10.227947
1465171664748511, 7.1162543, -0.61734825, 6.9248285, 0.9141584, -0.039251804, 9.906474
1465171667158407, 7.4584284, 1.538585, 6.9990063, -1.1785514, 0.50223637, 10.263541
1465171669568303, 7.058827, -0.3397808, 7.2382884, 0.5974037, -0.24803305, 10.09539
1465171671978199, 7.259824, -0.18903299, 7.001399, 0.49837506, 0.082145214, 10.074982
1465171674388147, 7.350751, 1.5026926, 7.123433, -1.1695147, 0.3343873, 10.2740135
1465171676798043, 6.977471, -0.7369894, 7.092326, 0.9944166, -0.26504612, 9.923217
1465171679207938, 7.391429, 0.4235296, 6.95115, -0.081329286, 0.3090539, 10.150318
1465171681617834, 7.24786, 1.1006985, 7.2622166, -0.79497147, 0.099797726, 10.287897
1465171684027730, 6.9822564, -0.8566305, 6.9224358, 1.126308, -0.16109228, 9.8036375
1465171686437626, 7.4344997, 1.038485, 7.0061846, -0.69006324, 0.40089846, 10.237185
1465171688847522, 7.140183, 0.4354937, 7.367501, -0.17377943, -0.15208292, 10.266382
1465171691257418, 7.0301127, -0.71306115, 6.960721, 0.9832285, -0.13998222, 9.868954
1465171693667313, 7.3986077, 1.4739788, 7.0636125, -1.1290779, 0.4179902, 10.26436
1465171696077209, 7.02772, -0.17706887, 7.312466, 0.42344606, -0.29738712, 10.130381
1465171698487105, 7.1617184, -0.32303107, 7.0325055, 0.6144604, -0.038407803, 10.023556
1465171700897001, 7.3340015, 1.5744773, 7.1306114, -1.2381489, 0.34533548, 10.269367
1465171703306897, 6.936793, -0.62931234, 7.192825, 0.8604359, -0.36108065, 9.969008
1465171705716845, 7.2861447, 0.24646074, 7.0348988, 0.06607807, 0.14597797, 10.129796
1465171708126688, 7.1880393, 1.2729816, 7.281359, -0.9810327, 0.098144054, 10.26326
1465171710536636, 6.8578296, -0.83030945, 7.0133634, 1.063196, -0.34099817, 9.780584
1465171712946532, 7.3028946, 0.8805587, 7.0348988, -0.54488754, 0.27117395, 10.160069
1465171715356428, 7.0492554, 0.6556334, 7.389036, -0.40324295, -0.1938572, 10.223478
1465171717766324, 6.8865438, -0.7537391, 6.936793, 1.0042224, -0.2579527, 9.748678
1465171720176220, 7.300502, 1.4093726, 7.04447, -1.0699835, 0.3539834, 10.180277
1465171722586115, 6.946364, 0.0047856453, 7.32443, 0.22680938, -0.34324026, 10.08613
1465171724996011, 7.0085773, -0.4139583, 6.9966135, 0.68040884, -0.14801311, 9.887328
1465171727405907, 7.2287173, 1.6366907, 7.0612197, -1.2971894, 0.35786772, 10.148062
1465171729815803, 6.8219376, -0.48095736, 7.200003, 0.69207436, -0.44740486, 9.896012
1465171732225699, 7.125826, 0.083748795, 7.003792, 0.21318138, 0.012643814, 9.98959
1465171734635595, 7.1377897, 1.4189439, 7.219146, -1.114759, 0.13694715, 10.189016
1465171737045490, 6.7932234, -0.782453, 7.0731835, 1.0022113, -0.44174814, 9.777039
1465171739455386, 7.245467, 0.70348984, 7.0396843, -0.37922364, 0.19209814, 10.117713
1465171741865282, 7.056434, 0.86141616, 7.391429, -0.60605234, -0.15993786, 10.235998
1465171744275230, 6.8243303, -0.8039884, 6.9678993, 1.0419708, -0.3377514, 9.724697
1465171746685074, 7.2622166, 1.2753744, 7.066005, -0.94157284, 0.29246283, 10.164779
1465171749095022, 6.9296145, 0.15314065, 7.365108, 0.077836454, -0.36449957, 10.106874
1465171751504918, 6.903293, -0.552742, 6.9822564, 0.81043756, -0.25108194, 9.7976055
1465171753914813, 7.190432, 1.5768701, 7.0612197, -1.2425357, 0.30143738, 10.120026
1465171756324709, 6.800402, -0.41156548, 7.2215385, 0.6280349, -0.4621601, 9.897347
1465171758734605, 7.02772, -0.11246266, 6.9822564, 0.39412415, -0.0746789, 9.8991165
1465171761144501, 7.092326, 1.4787644, 7.149754, -1.1751785, 0.14472389, 10.10964
1465171763554397, 6.7334027, -0.7704889, 7.0803623, 0.9889405, -0.46583796, 9.740067
1465171765964293, 7.149754, 0.4761717, 6.987042, -0.16355878, 0.11478615, 10.006226
1465171768374188, 6.9966135, 1.0336994, 7.3268228, -0.7685732, -0.120479584, 10.153731
1465171770784084, 6.754938, -0.849452, 6.9726853, 1.0820391, -0.3993516, 9.676715
1465171773193980, 7.216753, 1.0887343, 7.0492554, -0.76100165, 0.2387495, 10.115471
1465171775603876, 6.927222, 0.3397808, 7.396215, -0.115045786, -0.3440051, 10.132831
1465171778013772, 6.8578296, -0.6891329, 6.9702926, 0.9396892, -0.27033472, 9.753647
1465171780423668, 7.2119675, 1.4907285, 7.0636125, -1.1673094, 0.27934933, 10.133544
1465171782833563, 6.800402, -0.29910284, 7.3052874, 0.51785415, -0.4768901, 9.960249
1465171785243459, 6.9990063, -0.26799613, 7.018149, 0.5435684, -0.13264751, 9.899458
1465171787653355, 7.1210403, 1.4979069, 7.1162543, -1.1954159, 0.18877316, 10.105907
1465171790063251, 6.7669024, -0.7298109, 7.1473613, 0.9458861, -0.45806837, 9.813452
1465171792473199, 7.1425757, 0.27038896, 7.0085773, 0.02760595, 0.06978464, 10.010197
1465171794883095, 7.042077, 1.134198, 7.283752, -0.8655074, -0.0418396, 10.157728
1465171797292990, 6.7405815, -0.89013004, 6.9678993, 1.1174716, -0.3770523, 9.663772
1465171799702886, 7.2023964, 0.86141616, 6.9966135, -0.5422812, 0.22182655, 10.061108
1465171802112782, 6.9296145, 0.49052864, 7.353144, -0.24993539, -0.27951097, 10.108824
1465171804522678, 6.798009, -0.8207382, 6.9248285, 1.0662924, -0.29028082, 9.675669
1465171806932574, 7.2023964, 1.3423735, 7.0085773, -1.0269942, 0.29722643, 10.08234
1465171809342470, 6.829116, -0.18903299, 7.283752, 0.40303314, -0.41170645, 9.969637
1465171811752365, 6.9248285, -0.47138608, 6.977471, 0.7250226, -0.17801571, 9.813419
1465171814162261, 7.149754, 1.4907285, 7.0396843, -1.1813006, 0.26292276, 10.071436
1465171816572157, 6.778867, -0.6795616, 7.166504, 0.8937139, -0.44656038, 9.837454
1465171818982053, 7.1138616, 0.08135597, 6.991828, 0.20763499, 0.033997536, 9.972715
1465171821391949, 7.082755, 1.2346965, 7.2119675, -0.9529494, 0.05756426, 10.138586
1465171823801845, 6.7836523, -0.9020941, 7.001399, 1.1294496, -0.37398386, 9.717806
1465171826211740, 7.240681, 0.6963114, 6.9942207, -0.38124162, 0.23071957, 10.081312
1465171828621636, 7.018149, 0.6867401, 7.355537, -0.44635946, -0.17732573, 10.178372
1465171831031584, 6.829116, -0.8470592, 6.9296145, 1.0782242, -0.296669, 9.701716
1465171833441480, 7.271788, 1.2586247, 7.0325055, -0.92951524, 0.3273983, 10.14633
1465171835851376, 6.9391856, 0.014356935, 7.32443, 0.2096259, -0.3376093, 10.081759
1465171838261272, 6.9678993, -0.57906306, 6.963114, 0.83479774, -0.18888187, 9.83053
1465171840671168, 7.257431, 1.5218352, 7.018149, -1.1830034, 0.39191532, 10.13349
1465171843081063, 6.8745794, -0.5288138, 7.192825, 0.7424778, -0.40337276, 9.927851
1465171845490959, 7.1473613, -0.06699903, 6.9726853, 0.35650104, 0.031055927, 9.978955
1465171847900855, 7.1712894, 1.3591232, 7.1282187, -1.0518796, 0.22404003, 10.145416
1465171850310751, 6.8075805, -0.8470592, 7.0348988, 1.0635959, -0.39751196, 9.760185
1465171852720647, 7.24786, 0.55034924, 6.9798636, -0.230344, 0.21721268, 10.072369
1465171855130543, 7.097112, 0.8877372, 7.3100734, -0.6184712, -0.05362463, 10.208275
1465171857540438, 6.8865438, -0.8662018, 6.9128647, 1.1114709, -0.2650032, 9.729177
1465171859950334, 7.3603225, 1.160519, 6.991828, -0.8085347, 0.40626192, 10.17782
1465171862360230, 7.0540414, 0.23449662, 7.30768, 0.010738373, -0.20666361, 10.157454
1465171864770126, 7.0061846, -0.66759753, 6.9152575, 0.9344177, -0.1440444, 9.821365
1465171867180022, 7.3363943, 1.4859428, 6.9678993, -1.1294036, 0.4725623, 10.153004
1465171869589918, 6.95115, -0.39720857, 7.1688967, 0.6365558, -0.30562544, 9.968487
1465171871999813, 7.1688967, -0.2321038, 6.948757, 0.5357433, 0.027827263, 9.97218
1465171874409709, 7.2789664, 1.457229, 7.085148, -1.1145315, 0.3459139, 10.195311
1465171876819605, 6.9248285, -0.79920274, 7.075577, 1.0388861, -0.34352112, 9.872106
1465171879229553, 7.3340015, 0.35653058, 6.975078, -0.019869447, 0.24069595, 10.124627
1465171881639449, 7.21436, 1.0480564, 7.2789664, -0.75316405, 0.083076954, 10.273977
1465171884049345, 6.948757, -0.8997013, 6.903293, 1.1595986, -0.22238302, 9.765041
1465171886459240, 7.420143, 0.9906286, 6.963114, -0.61968935, 0.43171835, 10.195805
1465171888869136, 7.1449685, 0.4211368, 7.30768, -0.14568985, -0.11108875, 10.227247
1465171891279032, 7.056434, -0.72023964, 6.876972, 1.0100182, -0.088516235, 9.82735
1465171893688928, 7.420143, 1.4644074, 6.960721, -1.0886003, 0.5203471, 10.207783
1465171896098824, 7.042077, -0.17706887, 7.190432, 0.43667656, -0.21456909, 10.054243
1465171898508720, 7.173682, -0.3182454, 6.8889365, 0.6254345, 0.06762648, 9.930996
1465171900918615, 7.353144, 1.5672989, 6.9559355, -1.20539, 0.4863758, 10.159758
1465171903328511, 6.9678993, -0.64606214, 7.0229344, 0.9060565, -0.22758007, 9.87005
1465171905738407, 7.3268228, 0.22253251, 6.8817577, 0.120675385, 0.27646685, 10.049849
1465171908148303, 7.271788, 1.2610176, 7.1377897, -0.9332975, 0.24507856, 10.22184
1465171910558199, 6.963114, -0.83030945, 6.8721867, 1.1003442, -0.15461683, 9.75534
1465171912968095, 7.436893, 0.86859465, 6.8985076, -0.5074656, 0.45471525, 10.158098
1465171915377990, 7.1880393, 0.64845496, 7.281359, -0.36744, -0.024568558, 10.245535
1465171917787886, 7.0540414, -0.7585248, 6.853044, 1.0426409, -0.06600094, 9.808549
1465171920197782, 7.472785, 1.402194, 6.9702926, -1.0358417, 0.51253796, 10.24978
1465171922607678, 7.1210403, 0.0023928226, 7.245467, 0.26759905, -0.15888548, 10.154268
1465171925017574, 7.1856465, -0.43070808, 6.920043, 0.73551077, 0.04166174, 9.958078
1465171927427522, 7.4129643, 1.6247265, 6.9942207, -1.269748, 0.49969006, 10.229808
1465171929837418, 7.0229344, -0.50009996, 7.111469, 0.7538939, -0.22237301, 9.976318
1465171932247313, 7.322037, 0.04546363, 6.8913293, 0.28245342, 0.23381996, 10.048397
1465171934657209, 7.3268228, 1.402194, 7.0779696, -1.071707, 0.34263372, 10.221556
1465171937067105, 7.001399, -0.79920274, 6.8913293, 1.0708398, -0.1604147, 9.796749
1465171939477001, 7.436893, 0.66999036, 6.867401, -0.29804182, 0.44235802, 10.130792
1465171941886897, 7.216753, 0.8350951, 7.2263246, -0.53711396, 0.07217121, 10.232544
1465171944296793, 7.015756, -0.8422736, 6.8171515, 1.1241136, -0.10706854, 9.753395
1465171946706688, 7.472785, 1.268196, 6.948757, -0.8994161, 0.5141597, 10.230482
1465171949116584, 7.1473613, 0.16749759, 7.2502527, 0.10095942, -0.12234783, 10.181053
1465171951526480, 7.149754, -0.57906306, 6.862615, 0.8742292, 0.014417648, 9.888645
1465171953936376, 7.448857, 1.5696917, 6.9583282, -1.2033868, 0.5471916, 10.228401
1465171956346272, 7.066005, -0.4235296, 7.149754, 0.681832, -0.21688843, 10.035679
1465171958756168, 7.300502, -0.14356937, 6.920043, 0.47085357, 0.14853287, 10.047943
1465171961166063, 7.3746796, 1.442872, 7.070791, -1.0905612, 0.40389776, 10.252385
1465171963575959, 7.025327, -0.7896315, 7.0085773, 1.0502865, -0.22872066, 9.89664
1465171965985855, 7.429714, 0.4331009, 6.9128647, -0.07848799, 0.35602093, 10.151012
1465171968395751, 7.24786, 0.98584294, 7.2502527, -0.6890167, 0.103806496, 10.275408
1465171970805647, 6.9966135, -0.91166544, 6.8817577, 1.1750278, -0.18488026, 9.78404
1465171973215543, 7.475178, 1.0313065, 6.9535427, -0.6572477, 0.47513342, 10.229171
1465171975625438, 7.159325, 0.31106696, 7.314859, -0.044438004, -0.13594961, 10.239113
1465171978035386, 7.094719, -0.72023964, 6.8913293, 1.0039153, -0.09290218, 9.86548
1465171980445230, 7.4584284, 1.4644074, 6.9894347, -1.0876691, 0.53024054, 10.254786
1465171982855178, 7.0875406, -0.35413775, 7.24786, 0.6001867, -0.27285576, 10.122026
1465171985265074, 7.2526455, -0.3278167, 6.987042, 0.62841094, 0.02960825, 10.056408
1465171987674970, 7.365108, 1.4739788, 7.075577, -1.1319048, 0.39282608, 10.249181
1465171990084865, 7.0085773, -0.7393822, 7.109076, 0.9836566, -0.29024935, 9.957611
1465171992494761, 7.393822, 0.25603202, 6.987042, 0.07842362, 0.24678183, 10.172802
1465171994904657, 7.2765737, 1.1389836, 7.283752, -0.8372462, 0.12198877, 10.323905
1465171997314553, 6.987042, -0.8997013, 6.9678993, 1.1468887, -0.25279522, 9.838727
1465171999724449, 7.4392858, 0.88295156, 7.0061846, -0.5302691, 0.38997126, 10.23601
1465172002134345, 7.140183, 0.5192425, 7.379465, -0.26859486, -0.14942026, 10.276859
1465172004544240, 7.001399, -0.7920243, 6.946364, 1.0438342, -0.20548248, 9.837023
1465172006954136, 7.3842506, 1.3782659, 7.0301127, -1.031594, 0.42240763, 10.227738
1465172009364032, 7.0085773, -0.14117654, 7.312466, 0.37052548, -0.32026434, 10.117924
1465172011773928, 7.092326, -0.4331009, 6.984649, 0.7073358, -0.08805466, 9.938104
1465172014183824, 7.2789664, 1.5529419, 7.04447, -1.2216436, 0.37255955, 10.168004
1465172016593720, 6.879365, -0.6053841, 7.1808605, 0.82428604, -0.39754152, 9.920656
1465172019003615, 7.23111, 0.13399807, 6.9894347, 0.162215, 0.11415911, 10.055832
1465172021413511, 7.1688967, 1.3232309, 7.2095747, -1.0399415, 0.13295937, 10.199158
1465172023823407, 6.838687, -0.8279166, 7.0229344, 1.0469131, -0.35342646, 9.77516
1465172026233303, 7.271788, 0.7585248, 7.0229344, -0.44937748, 0.2322774, 10.125216
1465172028643199, 7.0301127, 0.7609176, 7.4105716, -0.5260902, -0.20663214, 10.2273445
1465172031053147, 6.8171515, -0.7920243, 6.975078, 1.0118847, -0.327415, 9.727356
1465172033463043, 7.240681, 1.3328022, 7.0540414, -1.0237994, 0.29374266, 10.140457
1465172035872886, 6.896115, 0.10767702, 7.3579297, 0.09176904, -0.3752365, 10.077593
1465172038282834, 6.9128647, -0.5024927, 6.9942207, 0.73576254, -0.21477556, 9.816916
1465172040692730, 7.173682, 1.6031911, 7.058827, -1.3064857, 0.28874922, 10.102905
1465172043102626, 6.788438, -0.45224348, 7.216753, 0.64842325, -0.44618988, 9.886829
1465172045512522, 7.056434, 0.0071784677, 7.001399, 0.2580812, -0.029063702, 9.937075
1465172047922418, 7.082755, 1.4596218, 7.1377897, -1.182066, 0.14761353, 10.090832
1465172050332313, 6.7429743, -0.75613195, 7.015756, 0.9561139, -0.38853502, 9.70542
1465172052742209, 7.149754, 0.60777694, 6.960721, -0.32190263, 0.17203951, 9.990335
1465172055152105, 6.963114, 0.93559366, 7.281359, -0.7054342, -0.12376881, 10.092845
1465172057562001, 6.7334027, -0.8255238, 6.867401, 1.0420518, -0.30210066, 9.5918865
1465172059971897, 7.1856465, 1.18684, 6.9559355, -0.8830038, 0.30301237, 10.027744
1465172062381793, 6.869794, 0.2727818, 7.2670026, -0.06178558, -0.29433584, 9.999369
1465172064791688, 6.8171515, -0.6364908, 6.8817577, 0.8642001, -0.22194958, 9.666498
1465172067201584, 7.1617184, 1.5290136, 6.984649, -1.2309024, 0.33995008, 10.039061
1465172069611480, 6.778867, -0.35413775, 7.204789, 0.5366106, -0.42834902, 9.875019
1465172072021376, 6.9726853, -0.22492532, 6.9822564, 0.463964, -0.11492348, 9.85862
1465172074431272, 7.066005, 1.4907285, 7.1018977, -1.2209364, 0.18477201, 10.053
1465172076841168, 6.6975107, -0.7704889, 7.0875406, 0.94931436, -0.4795699, 9.723804
1465172079251063, 7.094719, 0.35653058, 6.9678993, -0.0862484, 0.08604479, 9.94982
1465172081660959, 6.9678993, 1.0432707, 7.259824, -0.80705357, -0.089445114, 10.083935
1465172084070855, 6.695118, -0.9092726, 6.893722, 1.1103408, -0.35542393, 9.582045
1465172086480751, 7.1856465, 0.96430755, 6.963114, -0.67339945, 0.25823498, 10.026375
1465172088890647, 6.8889365, 0.37328035, 7.2933235, -0.17115957, -0.27703762, 10.034107
1465172091300543, 6.778867, -0.7920243, 6.876972, 1.0045614, -0.26862335, 9.632849
1465172093710490, 7.1712894, 1.3710874, 6.991828, -1.0755436, 0.30637693, 10.047003
1465172096120334, 6.8195443, -0.27756742, 7.240681, 0.46971, -0.4024868, 9.931168
1465172098530282, 6.9344, -0.44027936, 6.9583282, 0.6764931, -0.15407372, 9.809011
1465172100940178, 7.125826, 1.4524434, 7.0612197, -1.170502, 0.23358583, 10.065941
1465172103350074, 6.7429743, -0.76331043, 7.135397, 0.9517455, -0.46041107, 9.790119
1465172105759970, 7.094719, 0.083748795, 6.9702926, 0.17710495, 0.046298027, 9.944521
1465172108169865, 7.0612197, 1.1365907, 7.2287173, -0.8896361, 0.02669096, 10.1299
1465172110579761, 6.759724, -0.95473623, 6.9391856, 1.157532, -0.3420291, 9.659235
1465172112989657, 7.233503, 0.7322037, 6.948757, -0.43791652, 0.2719164, 10.043864
1465172115399553, 6.9798636, 0.4953143, 7.312466, -0.27318385, -0.19876862, 10.115427
1465172117809449, 6.8219376, -0.91405827, 6.867401, 1.1380471, -0.230124, 9.653364
1465172120219345, 7.245467, 1.2562319, 7.001399, -0.95792097, 0.32872915, 10.102913
1465172122629240, 6.903293, -0.13878371, 7.2670026, 0.34498292, -0.32552195, 10.012945
1465172125039136, 6.9894347, -0.59581286, 6.9344, 0.8368352, -0.106086254, 9.827591
1465172127449032, 7.2358956, 1.4476577, 7.02772, -1.1442912, 0.35370207, 10.119696
1465172129858928, 6.8410797, -0.65324056, 7.152147, 0.85187966, -0.38141632, 9.87467
1465172132268824, 7.1473613, -0.076570325, 6.960721, 0.35326982, 0.06688881, 9.970606
1465172134678720, 7.1688967, 1.2897314, 7.1784678, -1.0111778, 0.17215395, 10.175203
1465172137088615, 6.8506513, -0.91166544, 7.003792, 1.123055, -0.31706333, 9.770051
1465172139498511, 7.300502, 0.5623133, 6.987042, -0.2599789, 0.26962996, 10.113951
1465172141908407, 7.111469, 0.74177504, 7.3363943, -0.5002125, -0.0729413, 10.231831
1465172144318303, 6.8889365, -0.9284152, 6.91765, 1.1559265, -0.23238516, 9.735662
1465172146728199, 7.3292155, 1.1509477, 7.0396843, -0.8394546, 0.3575287, 10.186595
1465172149138095, 6.9966135, 0.050249275, 7.3579297, 0.1686629, -0.29147387, 10.147948
1465172151547990, 7.001399, -0.67477596, 6.9966135, 0.9211781, -0.1631589, 9.876858
1465172153957886, 7.30768, 1.4859428, 7.082755, -1.1694179, 0.36884308, 10.211369
1465172156367782, 6.920043, -0.49052864, 7.274181, 0.6998373, -0.38130236, 10.0202875
1465172158777678, 7.1856465, -0.18185452, 7.0396843, 0.4558369, 0.020560265, 10.050648
1465172161187626, 7.2550383, 1.442872, 7.200003, -1.1435736, 0.2546878, 10.255968
1465172163597522, 6.896115, -0.80877405, 7.1162543, 1.0258936, -0.34555006, 9.883305
1465172166007418, 7.322037, 0.40917268, 7.015756, -0.097339034, 0.2413621, 10.145578
1465172168417313, 7.173682, 0.9738788, 7.3579297, -0.705362, 0.0020942688, 10.298143
1465172170827209, 6.9248285, -0.89730847, 6.9678993, 1.1386414, -0.22990036, 9.795952
1465172173237105, 7.396215, 1.0648061, 7.042077, -0.73159873, 0.39277887, 10.234215
1465172175647001, 7.0779696, 0.31106696, 7.408179, -0.074992776, -0.21722937, 10.248059
1465172178056897, 7.01097, -0.72741807, 6.9966135, 0.98009944, -0.16025162, 9.881758
1465172180466793, 7.365108, 1.4739788, 7.109076, -1.1450458, 0.40264034, 10.270497
1465172182876688, 7.003792, -0.3062813, 7.3698936, 0.53142864, -0.34924555, 10.151743
1465172185286584, 7.1784678, -0.2727818, 7.1018977, 0.55258644, -0.035021782, 10.086388
1465172187696480, 7.32443, 1.550549, 7.1952176, -1.2287446, 0.3175726, 10.305919
1465172190106376, 6.9320073, -0.6891329, 7.223932, 0.9184278, -0.35986662, 9.986981
1465172192516272, 7.314859, 0.32542387, 7.082755, -0.016368806, 0.18054199, 10.18556
1465172194926168, 7.219146, 1.2179468, 7.3746796, -0.9387517, 0.06433487, 10.348912
1465172197336063, 6.903293, -0.82313097, 7.0396843, 1.0636417, -0.27307463, 9.832815
1465172199745959, 7.3435726, 0.97866446, 7.056434, -0.64826024, 0.33465958, 10.205238
1465172202155855, 7.068398, 0.63170516, 7.4344997, -0.38015682, -0.18452454, 10.269105
1465172204565751, 6.9296145, -0.6987042, 6.991828, 0.9552598, -0.2058425, 9.820312
1465172206975647, 7.331609, 1.5194423, 7.0875406, -1.1857542, 0.3892975, 10.234104
1465172209385543, 6.9655066, -0.011964113, 7.367501, 0.24251717, -0.3227477, 10.130919
1465172211795438, 7.0731835, -0.31106696, 7.068398, 0.5826154, -0.09002972, 9.987062
1465172214205334, 7.2861447, 1.6845472, 7.1425757, -1.3603401, 0.3475256, 10.245522
1465172216615230, 6.903293, -0.50009996, 7.2670026, 0.72996044, -0.3803339, 10.001869
1465172219025126, 7.245467, 0.23449662, 7.0803623, 0.07604587, 0.11061144, 10.132387
1465172221435022, 7.1880393, 1.4285151, 7.3052874, -1.130682, 0.10656977, 10.285231
1465172223844970, 6.879365, -0.74177504, 7.0779696, 0.9899024, -0.30026102, 9.843956
1465172226254813, 7.353144, 0.8805587, 7.0468626, -0.54831105, 0.3140049, 10.2030945
1465172228664761, 7.097112, 0.8877372, 7.4177504, -0.62763083, -0.114183426, 10.284608
1465172231074657, 6.893722, -0.67477596, 6.963114, 0.9281689, -0.21233797, 9.7753315
1465172233484553, 7.338787, 1.4548361, 7.0396843, -1.1063793, 0.41491652, 10.20467
1465172235894449, 7.003792, 0.22253251, 7.348358, 0.02617824, -0.24877357, 10.150785
1465172238304345, 7.018149, -0.39720857, 6.9894347, 0.67508996, -0.09425354, 9.889376
1465172240714240, 7.298109, 1.7036897, 7.042077, -1.3598802, 0.4220748, 10.184713
1465172243124136, 6.903293, -0.34456646, 7.2215385, 0.58364594, -0.32737017, 9.973815
1465172245534032, 7.173682, 0.09810573, 7.001399, 0.20225936, 0.09165144, 10.022057
1465172247943928, 7.216753, 1.5481563, 7.1569324, -1.2353611, 0.26232862, 10.203188
1465172250353824, 6.8865438, -0.6723832, 7.018149, 0.92185473, -0.2454896, 9.809227
1465172252763720, 7.338787, 0.6963114, 6.9320073, -0.35387242, 0.35512257, 10.106633
1465172255173615, 7.1569324, 1.026521, 7.2789664, -0.737884, 0.040358543, 10.232922
1465172257583511, 6.9296145, -0.7513463, 6.869794, 1.0177248, -0.12637186, 9.73275
1465172259993407, 7.396215, 1.2562319, 6.975078, -0.9066482, 0.46014452, 10.19314
1465172262403303, 7.0636125, 0.34456646, 7.3028946, -0.091082275, -0.15122747, 10.164372
1465172264813199, 7.0325055, -0.55034924, 6.896115, 0.8270222, -0.038858414, 9.830053
1465172267223095, 7.365108, 1.6127625, 6.9798636, -1.2666562, 0.49778223, 10.183915
1465172269632990, 6.9798636, -0.2656033, 7.190432, 0.50976986, -0.23343039, 10.008847
1465172272042886, 7.1856465, -0.14596218, 6.95115, 0.4488582, 0.087985516, 9.988197
1465172274452782, 7.2861447, 1.5601203, 7.056434, -1.2231677, 0.40259552, 10.181204
1465172276862678, 6.920043, -0.6987042, 7.0348988, 0.94197446, -0.25731277, 9.844361
1465172279272574, 7.314859, 0.41156548, 6.946364, -0.0871889, 0.28683233, 10.091515
1465172281682470, 7.192825, 1.0839486, 7.2670026, -0.8014624, 0.10134649, 10.250288
1465172284092365, 6.910472, -0.8470592, 6.908079, 1.0930197, -0.19502544, 9.744791
1465172286502261, 7.405786, 1.0241281, 6.960721, -0.67553234, 0.45388508, 10.182524
1465172288912157, 7.111469, 0.43788654, 7.3292155, -0.18212396, -0.11607838, 10.219369
1465172291322053, 7.001399, -0.7322037, 6.893722, 0.9952924, -0.087611675, 9.802084
1465172293731949, 7.396215, 1.4500505, 6.9894347, -1.1078908, 0.49532032, 10.207159
1465172296141845, 7.0301127, -0.2009971, 7.2502527, 0.43316448, -0.22187519, 10.089211
1465172298551740, 7.190432, -0.37088752, 6.9702926, 0.6530445, 0.0453887, 9.999816
1465172300961636, 7.3770723, 1.5266209, 7.066005, -1.192353, 0.46606255, 10.248964
1465172303371532, 6.9966135, -0.70348984, 7.149754, 0.9319205, -0.27420712, 9.981123
1465172305781480, 7.365108, 0.1363909, 6.9990063, 0.18054193, 0.2439971, 10.156641
1465172308191376, 7.2909307, 1.1916257, 7.257431, -0.8940475, 0.21146536, 10.3152275
1465172310601272, 6.9894347, -0.92602235, 6.987042, 1.1732249, -0.18945122, 9.854751
1465172313011168, 7.4512496, 0.7800602, 7.0133634, -0.44953996, 0.41164875, 10.244283
1465172315421063, 7.1880393, 0.5623133, 7.3746796, -0.31065923, -0.061429024, 10.30872
1465172317830959, 7.025327, -0.8781659, 6.9320073, 1.1289532, -0.1161747, 9.843328
1465172320240855, 7.4392858, 1.3064811, 7.058827, -0.9745015, 0.45683622, 10.281952
1465172322650751, 7.0875406, -0.11246266, 7.3459654, 0.34693897, -0.2262702, 10.199879
1465172325060647, 7.1377897, -0.5766702, 7.01097, 0.84485644, -0.03720188, 9.985945
1465172327470543, 7.391429, 1.4811572, 7.075577, -1.1548464, 0.4388566, 10.264724
1465172329880438, 6.9678993, -0.6364908, 7.223932, 0.859223, -0.3142028, 10.015235
1465172332290334, 7.2670026, -0.069391854, 7.0205417, 0.3568434, 0.12876606, 10.097437
1465172334700230, 7.2550383, 1.2897314, 7.223932, -1.0042925, 0.21221972, 10.267938
1465172337110126, 6.9009004, -0.8877372, 7.0540414, 1.1159531, -0.29565477, 9.840591
1465172339520022, 7.3603225, 0.59342, 6.987042, -0.26747602, 0.32650805, 10.15712
1465172341929918, 7.1545396, 0.7800602, 7.3579297, -0.52314425, -0.04022789, 10.279093
1465172344339813, 6.946364, -0.8925229, 6.9224358, 1.1377716, -0.18946648, 9.779482
1465172346749709, 7.393822, 1.2155539, 7.0229344, -0.8886857, 0.4195695, 10.222621
1465172349159605, 7.056434, 0.124426775, 7.34118, 0.10892707, -0.21969557, 10.180449
1465172351569501, 7.042077, -0.6029913, 6.9702926, 0.85862625, -0.09494972, 9.889043
1465172353979397, 7.32443, 1.5601203, 7.0492554, -1.2374027, 0.40149736, 10.2020035
1465172356389293, 6.946364, -0.42592242, 7.2502527, 0.6488149, -0.33197546, 10.023392
1465172358799188, 7.192825, -0.11964113, 7.02772, 0.4065141, 0.03452015, 10.048555
1465172361209084, 7.259824, 1.5026926, 7.1808605, -1.1951509, 0.26836395, 10.248293
1465172363618980, 6.884151, -0.72263247, 7.1306114, 0.9376493, -0.36282396, 9.8867855
1465172366028876, 7.2765737, 0.48095736, 7.0301127, -0.17620313, 0.19835806, 10.125805
1465172368438772, 7.1066833, 1.0600204, 7.3746796, -0.8062469, -0.05893755, 10.264549
1465172370848668, 6.8482585, -0.8255238, 6.9894347, 1.0522254, -0.30522728, 9.758688
1465172373258563, 7.314859, 1.1318051, 7.025327, -0.80294424, 0.33958817, 10.167759
1465172375668459, 6.9894347, 0.3924229, 7.365108, -0.15888095, -0.25463438, 10.156817
1465172378078355, 6.9152575, -0.65084773, 6.9224358, 0.9043044, -0.17537403, 9.762991
1465172380488251, 7.2765737, 1.5409778, 7.0133634, -1.2131298, 0.38553667, 10.143476
1465172382898147, 6.8650084, -0.2656033, 7.243074, 0.4852023, -0.36910868, 9.964405
1465172385308043, 7.0348988, -0.27756742, 6.977471, 0.5438966, -0.06544495, 9.897062
1465172387717990, 7.1569324, 1.5290136, 7.082755, -1.226103, 0.2522192, 10.1073265
1465172390127886, 6.771688, -0.701097, 7.123433, 0.91391367, -0.41903734, 9.802029
1465172392537782, 7.1473613, 0.2847459, 6.975078, 0.009353697, 0.1114068, 9.99025
1465172394947678, 7.058827, 1.174876, 7.281359, -0.90725976, -0.015120029, 10.168689
1465172397357574, 6.754938, -0.87338024, 6.9798636, 1.0930983, -0.35724068, 9.68442
1465172399767470, 7.2095747, 0.91405827, 7.01097, -0.60498327, 0.24605227, 10.076738
1465172402177365, 6.95115, 0.5599205, 7.4010005, -0.33779126, -0.26974106, 10.159723
1465172404587261, 6.798009, -0.7680961, 6.963114, 0.9905934, -0.30861712, 9.706253
1465172406997157, 7.2095747, 1.4045869, 7.0396843, -1.0888321, 0.3183117, 10.110445
1465172409407053, 6.843473, -0.14356937, 7.312466, 0.34547293, -0.40972996, 10.001933
1465172411816949, 6.960721, -0.44985065, 7.0085773, 0.69859755, -0.17474079, 9.861824
1465172414226845, 7.1617184, 1.5290136, 7.0612197, -1.2184069, 0.3045683, 10.095129
1465172416636740, 6.7573314, -0.6652047, 7.173682, 0.8679023, -0.45575666, 9.828773
1465172419046636, 7.0875406, 0.069391854, 7.001399, 0.20233643, 0.022816658, 9.960733
1465172421456532, 7.042077, 1.2586247, 7.2287173, -0.9985443, 0.039477825, 10.120806
1465172423866428, 6.71426, -0.8925229, 7.0396843, 1.092936, -0.42949104, 9.698252
1465172426276324, 7.1952176, 0.6843473, 7.018149, -0.38650554, 0.19809294, 10.065052
1465172428686220, 6.95115, 0.6891329, 7.3746796, -0.46434385, -0.21986008, 10.14472
1465172431096115, 6.788438, -0.8709874, 6.936793, 1.0930092, -0.3155141, 9.678141
1465172433506011, 7.23111, 1.2586247, 7.01097, -0.9450292, 0.33473015, 10.100576
1465172435915907, 6.903293, 0.016749758, 7.32443, 0.18993503, -0.3419981, 10.057333
1465172438325803, 6.9248285, -0.6053841, 6.975078, 0.8436276, -0.18032789, 9.809547
1465172440735699, 7.1952176, 1.5026926, 7.0325055, -1.1992838, 0.31788826, 10.096834
1465172443145595, 6.788438, -0.56470615, 7.2023964, 0.76652324, -0.42686558, 9.87454
1465172445555490, 7.0540414, -0.12921242, 6.977471, 0.39562207, -0.012622356, 9.914869
1465172447965386, 7.068398, 1.3280165, 7.135397, -1.0514156, 0.1357975, 10.075506
1465172450375282, 6.7022963, -0.90448695, 7.0205417, 1.1068254, -0.4241624, 9.675839
1465172452785178, 7.1473613, 0.4881358, 6.936793, -0.19847906, 0.18653679, 9.968348
1465172455195074, 6.9655066, 0.8111669, 7.2957163, -0.58038425, -0.13237476, 10.10195
1465172457604970, 6.7573314, -0.95473623, 6.8745794, 1.1730871, -0.28868246, 9.61111
1465172460014865, 7.223932, 1.0600204, 6.963114, -0.7498006, 0.32141972, 10.056255
1465172462424761, 6.936793, 0.16510476, 7.3028946, 0.05605203, -0.26950312, 10.069898
1465172464834657, 6.884151, -0.72502524, 6.893722, 0.96549666, -0.17291832, 9.720005
1465172467244553, 7.2263246, 1.4548361, 6.975078, -1.1366756, 0.39712095, 10.07662
1465172469654501, 6.8195443, -0.4546363, 7.204789, 0.647731, -0.39439917, 9.901856
1465172472064397, 7.0325055, -0.30388847, 6.9678993, 0.5581629, -0.053814888, 9.888663
1465172474474293, 7.1377897, 1.4213367, 7.075577, -1.1302178, 0.26339674, 10.083912
1465172476884188, 6.74776, -0.83030945, 7.068398, 1.0247259, -0.41723537, 9.744732
1465172479294084, 7.149754, 0.32063824, 6.948757, -0.031153142, 0.15597439, 9.974054
1465172481703980, 7.025327, 1.0049855, 7.2263246, -0.75083095, -0.008094311, 10.100555
1465172484113876, 6.7669024, -0.95712906, 6.836294, 1.1858294, -0.24851084, 9.590311
1465172486523772, 7.2502527, 0.93320084, 6.8985076, -0.61962163, 0.36703014, 10.025358
1465172488933668, 6.9535427, 0.34456646, 7.2646093, -0.12195361, -0.19344902, 10.059461
1465172491343563, 6.8458657, -0.7968099, 6.8410797, 1.0310082, -0.17587662, 9.65439
1465172493753459, 7.233503, 1.3926228, 6.9128647, -1.074431, 0.43323326, 10.035366
1465172496163355, 6.8458657, -0.2656033, 7.1688967, 0.47843558, -0.31051302, 9.899707
1465172498573251, 6.9822564, -0.4354937, 6.879365, 0.6971027, -0.051216602, 9.786657
1465172500983147, 7.183254, 1.4787644, 6.9678993, -1.1630654, 0.38152122, 10.041874
1465172503393043, 6.802795, -0.715454, 7.0325055, 0.9279239, -0.33421755, 9.760804
1465172505802938, 7.1545396, 0.11724831, 6.879365, 0.17500275, 0.17155361, 9.923044
1465172508212834, 7.066005, 1.1844472, 7.135397, -0.9145785, 0.12212372, 10.069453
1465172510622730, 6.7429743, -0.9212367, 6.855437, 1.1404185, -0.28042698, 9.588234
1465172513032626, 7.223932, 0.7848458, 6.8602223, -0.46436393, 0.35077238, 9.97623
1465172515442522, 6.9726853, 0.5623133, 7.245467, -0.32245553, -0.13191843, 10.065285
1465172517852418, 6.836294, -0.8662018, 6.8243303, 1.103385, -0.19848347, 9.633268
1465172520262313, 7.2502527, 1.3136597, 6.9655066, -0.989807, 0.40089178, 10.083141
1465172522672209, 6.893722, -0.083748795, 7.2765737, 0.291932, -0.3264594, 10.014347
1465172525082105, 6.960721, -0.5240282, 6.9559355, 0.7679081, -0.13813782, 9.823568
1465172527492001, 7.2382884, 1.5314065, 7.0372915, -1.2162261, 0.38818455, 10.130726
1465172529901897, 6.843473, -0.57427746, 7.1808605, 0.77282137, -0.38652515, 9.898537
1465172532311793, 7.1617184, -0.014356935, 6.991828, 0.29900837, 0.073235035, 10.0040655
1465172534721688, 7.1856465, 1.3351951, 7.1952176, -1.0416065, 0.2041235, 10.201021
1465172537131584, 6.8506513, -0.85184485, 7.0301127, 1.068794, -0.3228693, 9.789433
1465172539541480, 7.3052874, 0.60777694, 6.987042, -0.28814882, 0.29982042, 10.1184225
1465172541951376, 7.092326, 0.78723866, 7.3579297, -0.54120713, -0.070868015, 10.235333
1465172544361272, 6.879365, -0.89491564, 6.9391856, 1.1264877, -0.24858904, 9.744129
1465172546771168, 7.3196445, 1.1557333, 7.0348988, -0.82109857, 0.38661814, 10.17738
1465172549181063, 6.987042, 0.023928227, 7.3603225, 0.19949114, -0.2876892, 10.142541
1465172551590959, 6.9942207, -0.71306115, 6.9942207, 0.9671515, -0.16755056, 9.868296
1465172554000855, 7.312466, 1.4069797, 7.070791, -1.0721576, 0.40679073, 10.204551
1465172556410751, 6.977471, -0.5455636, 7.2693954, 0.7640517, -0.33465624, 10.056395
1465172558820699, 7.2526455, -0.22492532, 7.0205417, 0.5219573, 0.08853769, 10.082619
1465172561230595, 7.3268228, 1.4237294, 7.164111, -1.0953066, 0.36565065, 10.281072
1465172563640490, 6.963114, -0.76570326, 7.1018977, 1.0006918, -0.27242422, 9.921322
1465172566050386, 7.3603225, 0.48095736, 7.003792, -0.1467573, 0.31518698, 10.1655245
1465172568460282, 7.2023964, 1.0480564, 7.350751, -0.76375204, 0.06413746, 10.315962
1465172570870178, 6.91765, -0.8207382, 6.975078, 1.0716615, -0.21292543, 9.797216
1465172573280074, 7.3627152, 1.1102697, 7.0301127, -0.7675169, 0.40960217, 10.203329
1465172575689970, 7.0492554, 0.34456646, 7.3746796, -0.099595964, -0.18802786, 10.205458
1465172578099865, 6.9798636, -0.69152576, 6.960721, 0.9545285, -0.13794518, 9.834541
1465172580509761, 7.3603225, 1.5098711, 7.0612197, -1.1661803, 0.4509864, 10.2348175
1465172582919657, 6.977471, -0.22971097, 7.3028946, 0.47246933, -0.29314756, 10.087666
1465172585329553, 7.1617184, -0.18185452, 7.0348988, 0.4831524, 0.026798725, 10.028904
1465172587739449, 7.298109, 1.6510476, 7.164111, -1.3109423, 0.36432552, 10.269446
1465172590149345, 6.9152575, -0.5766702, 7.21436, 0.8143538, -0.34683895, 9.9708
1465172592559240, 7.288538, 0.40677986, 7.0899334, -0.08508581, 0.17885113, 10.174291
1465172594969136, 7.216753, 1.2969099, 7.3866434, -1.0031953, 0.08707523, 10.359152
1465172597379032, 6.9296145, -0.74177504, 7.058827, 0.9963106, -0.2616825, 9.865887
1465172599788928, 7.3986077, 1.0289137, 7.0731835, -0.6751565, 0.37775707, 10.2581415
1465172602198824, 7.1545396, 0.6843473, 7.4416785, -0.4050957, -0.11384535, 10.337179
1465172604608720, 7.001399, -0.6269195, 6.9942207, 0.9091011, -0.14401007, 9.873425
1465172607018615, 7.4153576, 1.5744773, 7.0875406, -1.2044818, 0.4742632, 10.296798
1465172609428511, 7.0468626, 0.059820566, 7.372287, 0.19668525, -0.2553773, 10.193556
1465172611838407, 7.149754, -0.22253251, 7.058827, 0.52331465, -0.017887115, 10.036005
1465172614248303, 7.350751, 1.7587247, 7.1186476, -1.3906771, 0.45863485, 10.278982
1465172616658199, 6.9798636, -0.42831525, 7.24786, 0.68262714, -0.30517864, 10.043621
1465172619068095, 7.322037, 0.2943172, 7.0731835, 0.04534149, 0.1913886, 10.182833
1465172621477990, 7.314859, 1.4739788, 7.300502, -1.1350749, 0.24267054, 10.37448
1465172623887886, 6.9678993, -0.6963114, 7.094719, 0.9679656, -0.24926138, 9.918288
1465172626297782, 7.4416785, 0.8925229, 7.0803623, -0.52511716, 0.38126183, 10.290072
1465172628707678, 7.219146, 0.86859465, 7.446464, -0.57502437, -0.029003143, 10.3917675
1465172631117574, 7.0229344, -0.6963114, 7.015756, 0.9795918, -0.15524387, 9.901695
1465172633527470, 7.4512496, 1.416551, 7.109076, -1.040646, 0.46865416, 10.332672
1465172635937365, 7.092326, 0.16031912, 7.4249287, 0.10924655, -0.2332325, 10.2659645
1465172638347261, 7.111469, -0.45942193, 7.0779696, 0.757189, -0.10067129, 10.014901
1465172640757157, 7.393822, 1.6701902, 7.140183, -1.2929611, 0.46606207, 10.322374
1465172643167053, 7.0205417, -0.41156548, 7.312466, 0.66209126, -0.31610203, 10.118856
1465172645576949, 7.2861447, 0.033499517, 7.1210403, 0.29077536, 0.08788109, 10.183612
1465172647986897, 7.331609, 1.5122639, 7.298109, -1.1725836, 0.27637625, 10.385111
1465172650396740, 6.984649, -0.72263247, 7.190432, 0.9797226, -0.31032467, 9.9976845
1465172652806688, 7.4153576, 0.65324056, 7.1162543, -0.2960021, 0.29900408, 10.28972
1465172655216584, 7.243074, 0.9954142, 7.487142, -0.6965979, -0.017043114, 10.44149
1465172657626480, 6.9966135, -0.76570326, 7.092326, 1.0303161, -0.25677872, 9.935416
1465172660036376, 7.4656067, 1.268196, 7.176075, -0.8959845, 0.41420317, 10.385822
1465172662446272, 7.1449685, 0.3589234, 7.501499, -0.09637362, -0.21476316, 10.363227
1465172664856168, 7.082755, -0.55752766, 7.1042905, 0.83501107, -0.16505527, 10.011129
1465172667266063, 7.4105716, 1.6151553, 7.1712894, -1.2511472, 0.4262514, 10.354014
1465172669675959, 7.018149, -0.28235307, 7.3770723, 0.53148806, -0.3379135, 10.166546
1465172672085855, 7.204789, -0.16271193, 7.1186476, 0.47030717, -0.006392956, 10.118763
1465172674495751, 7.3196445, 1.5720844, 7.207182, -1.2259123, 0.32738686, 10.314169
1465172676905647, 6.9391856, -0.6795616, 7.204789, 0.921622, -0.3493476, 9.977558
1465172679315543, 7.348358, 0.43788654, 7.0899334, -0.101733744, 0.22074461, 10.217543
1465172681725438, 7.192825, 1.1318051, 7.3986077, -0.8407009, 0.02505207, 10.346482
1465172684135334, 6.91765, -0.8279166, 7.0468626, 1.0812826, -0.28129768, 9.846283
1465172686545230, 7.405786, 1.0456635, 7.1282187, -0.6951404, 0.3440447, 10.302863
1465172688955126, 7.1018977, 0.45702913, 7.4847493, -0.19424385, -0.22952938, 10.323609
1465172691365022, 6.9678993, -0.7178468, 7.056434, 0.98676, -0.21790695, 9.891361
1465172693774918, 7.348358, 1.4644074, 7.166504, -1.126426, 0.33070517, 10.301622
1465172696184813, 6.9655066, -0.2105684, 7.422536, 0.43204176, -0.40168953, 10.164087
1465172698594709, 7.094719, -0.38285163, 7.1186476, 0.65464777, -0.1321888, 10.035473
1465172701004605, 7.2693954, 1.550549, 7.1808605, -1.2249198, 0.30400658, 10.257691
1465172703414501, 6.879365, -0.6843473, 7.2263246, 0.9077018, -0.41304302, 9.950841
1465172705824397, 7.223932, 0.15553348, 7.0540414, 0.15468574, 0.0991025, 10.096291
1465172708234293, 7.140183, 1.1916257, 7.2933235, -0.90334237, 0.048820496, 10.2360325
1465172710644188, 6.826723, -0.9236295, 7.0061846, 1.1579316, -0.3221469, 9.751886
1465172713054084, 7.2789664, 0.78723866, 7.02772, -0.467413, 0.26444578, 10.134275
1465172715463980, 7.01097, 0.54317075, 7.389036, -0.304511, -0.21560764, 10.193496
1465172717873876, 6.8458657, -0.8805587, 6.9128647, 1.1230929, -0.23765993, 9.701089
1465172720283772, 7.243074, 1.2801601, 7.0205417, -0.9610659, 0.32889175, 10.117169
1465172722693668, 6.8865438, -0.1363909, 7.2957163, 0.35837406, -0.3537979, 10.020826
1465172725103563, 6.943971, -0.60059845, 6.987042, 0.85477716, -0.17665339, 9.8303795
1465172727513459, 7.1712894, 1.4596218, 7.051648, -1.159555, 0.29782248, 10.092093
1465172729923355, 6.7669024, -0.66041905, 7.190432, 0.8498352, -0.46398497, 9.848448
1465172732333251, 7.056434, -0.1052842, 7.01097, 0.36639768, -0.03743744, 9.940946
1465172734743199, 7.051648, 1.2586247, 7.21436, -0.9974618, 0.06483173, 10.1172
1465172737153095, 6.719046, -0.9499506, 7.04447, 1.146655, -0.43859768, 9.703883
1465172739562990, 7.164111, 0.53599226, 7.01097, -0.25062817, 0.14951992, 10.033957
1465172741972886, 6.9655066, 0.7298109, 7.3770723, -0.50730556, -0.21096611, 10.157274
1465172744382782, 6.74776, -0.95473623, 6.920043, 1.1606951, -0.33358908, 9.637027
1465172746792678, 7.1976104, 1.1389836, 6.9966135, -0.84299374, 0.29497766, 10.062695
1465172749202574, 6.855437, 0.040677983, 7.2909307, 0.14788347, -0.34420395, 10.000798
1465172751612470, 6.8339014, -0.715454, 6.9152575, 0.92993826, -0.23459339, 9.70129
1465172754022365, 7.133004, 1.4285151, 6.991828, -1.1404059, 0.30990124, 10.020454
1465172756432261, 6.7501526, -0.5623133, 7.1880393, 0.73869467, -0.45452833, 9.838516
1465172758842157, 6.977471, -0.27756742, 6.9678993, 0.5166295, -0.09114504, 9.850814
1465172761252053, 7.04447, 1.3304094, 7.1282187, -1.0722737, 0.13445139, 10.051777
1465172763661949, 6.695118, -0.92602235, 7.0612197, 1.0946977, -0.468503, 9.701809
1465172766071845, 7.1210403, 0.28953153, 6.987042, -0.029429078, 0.10019684, 9.980025
1465172768481740, 6.9894347, 0.8709874, 7.3292155, -0.6605588, -0.11311245, 10.142933
1465172770891636, 6.7334027, -1.0145568, 6.943971, 1.1951449, -0.3899727, 9.643978
1465172773301532, 7.1856465, 0.95473623, 7.0085773, -0.6688279, 0.26172495, 10.057304
1465172775711428, 6.908079, 0.22971097, 7.34118, -0.040860057, -0.30266953, 10.078392
1465172778121324, 6.8578296, -0.8111669, 6.9344, 1.0253284, -0.23274279, 9.729762
1465172780531220, 7.2119675, 1.3806586, 7.015756, -1.0922961, 0.33388424, 10.091331
1465172782941115, 6.8171515, -0.4211368, 7.2382884, 0.6037424, -0.40624952, 9.925432
1465172785351011, 6.9966135, -0.40917268, 6.9726853, 0.64155924, -0.09222126, 9.865002
1465172787760907, 7.1425757, 1.4069797, 7.068398, -1.1285865, 0.26619005, 10.08036
1465172790170803, 6.778867, -0.8566305, 7.099505, 1.0399585, -0.41933298, 9.789407
1465172792580699, 7.140183, 0.11964113, 6.95115, 0.1557244, 0.11023617, 9.963865
1465172794990595, 7.0540414, 1.0025927, 7.2263246, -0.7552354, 0.017884731, 10.119968
1465172797400490, 6.754938, -1.0456635, 6.910472, 1.2475022, -0.33978224, 9.633562
1465172799810386, 7.2526455, 0.7322037, 6.9320073, -0.43548632, 0.30447435, 10.045265
1465172802220282, 6.9894347, 0.37806597, 7.3052874, -0.15840465, -0.1980176, 10.11425
1465172804630178, 6.8650084, -0.91884387, 6.867401, 1.1483743, -0.1913662, 9.683926
1465172807040074, 7.288538, 1.2634103, 6.9726853, -0.9499746, 0.3833065, 10.11375
1465172809449970, 6.927222, -0.27517462, 7.243074, 0.49331164, -0.30728865, 10.009317
1465172811859865, 7.0372915, -0.5479564, 6.936793, 0.80680776, -0.058739662, 9.863491
1465172814269761, 7.219146, 1.4404793, 7.003792, -1.1343383, 0.335824, 10.091812
1465172816679657, 6.8075805, -0.73459655, 7.1138616, 0.9448092, -0.37500143, 9.82123
1465172819089605, 7.164111, 0.009571291, 6.91765, 0.27553612, 0.13056803, 9.95417
1465172821499501, 7.1162543, 1.2155539, 7.1545396, -0.94322544, 0.119510174, 10.119393
1465172823909345, 6.786045, -0.930808, 6.946364, 1.1577109, -0.29926777, 9.681887
1465172826319293, 7.283752, 0.66999036, 6.9296145, -0.35392666, 0.31132984, 10.064756
1465172828729188, 7.075577, 0.6867401, 7.2957163, -0.4275189, -0.089559555, 10.177037
1465172831139084, 6.9056864, -0.8566305, 6.855437, 1.1132277, -0.1548996, 9.703405
1465172833548980, 7.353144, 1.2753744, 6.9559355, -0.9373802, 0.43830633, 10.149363
1465172835958876, 7.0085773, 0.043070808, 7.2550383, 0.20050347, -0.21320677, 10.08325
1465172838368772, 7.02772, -0.5479564, 6.9248285, 0.8183346, -0.06445503, 9.8472595
1465172840778668, 7.314859, 1.5696917, 6.977471, -1.2365193, 0.4437852, 10.145455
1465172843188563, 6.9391856, -0.4977071, 7.152147, 0.7422444, -0.2763672, 9.94615
1465172845598459, 7.21436, -0.03589234, 6.9535427, 0.3473671, 0.12830019, 10.013138
1465172848008355, 7.2502527, 1.4285151, 7.1186476, -1.1119428, 0.256639, 10.197043
1465172850418251, 6.9009004, -0.8039884, 7.0085773, 1.0616616, -0.23600006, 9.808475
1465172852828147, 7.3627152, 0.5982057, 6.948757, -0.26596314, 0.33458376, 10.13262
1465172855238043, 7.192825, 0.93559366, 7.2861447, -0.6468216, 0.029595375, 10.260639
1465172857647938, 6.9535427, -0.83988076, 6.8817577, 1.11155, -0.12732887, 9.755203
1465172860057834, 7.4249287, 1.1796615, 6.9655066, -0.8202699, 0.46069002, 10.2056055
1465172862467730, 7.123433, 0.25603202, 7.3100734, 0.0203017, -0.1360879, 10.2091675
1465172864877626, 7.082755, -0.64845496, 6.91765, 0.9439461, -0.032320976, 9.876625
1465172867287522, 7.4153576, 1.5457634, 6.991828, -1.1880457, 0.4946189, 10.22773
1465172869697418, 7.0325055, -0.33260235, 7.2119675, 0.59632456, -0.21978283, 10.058595
1465172872107313, 7.2358956, -0.19621146, 6.9678993, 0.5091592, 0.11387062, 10.033748
1465172874517209, 7.353144, 1.5409778, 7.0899334, -1.1981127, 0.3735032, 10.253562
1465172876927105, 6.9822564, -0.7298109, 7.1066833, 1.0021311, -0.24175787, 9.936134
1465172879337001, 7.389036, 0.4139583, 7.003792, -0.06546229, 0.28640175, 10.185087
1465172881746897, 7.271788, 1.0983056, 7.3100734, -0.7841603, 0.09765291, 10.339145
1465172884156793, 7.0133634, -0.8470592, 6.9726853, 1.1324701, -0.1511817, 9.859907
1465172886566688, 7.4823565, 1.0504491, 7.02772, -0.6867116, 0.43523932, 10.2867365
1465172888976584, 7.183254, 0.45942193, 7.3698936, -0.17420352, -0.10609722, 10.2997055
1465172891386480, 7.085148, -0.72502524, 6.9296145, 1.0216663, -0.045354843, 9.884264
1465172893796376, 7.4536424, 1.4883357, 7.0229344, -1.1258847, 0.4820261, 10.275874
1465172896206272, 7.0779696, -0.17706887, 7.2909307, 0.45445836, -0.22076797, 10.150439
1465172898616220, 7.207182, -0.36610186, 7.015756, 0.681385, 0.032096386, 10.041565
1465172901026115, 7.3842506, 1.5529419, 7.094719, -1.1962928, 0.39251375, 10.2804985
1465172903436011, 6.9942207, -0.6771688, 7.1712894, 0.94409394, -0.27282333, 9.991963
1465172905845907, 7.3579297, 0.1794617, 7.0348988, 0.15726763, 0.20776844, 10.178076
1465172908255803, 7.30768, 1.2346965, 7.2957163, -0.9152218, 0.14732933, 10.358321
1465172910665699, 6.9990063, -0.8757731, 7.025327, 1.1566484, -0.19036627, 9.886063
1465172913075595, 7.460821, 0.81834537, 7.04447, -0.46147144, 0.36894083, 10.276626
1465172915485490, 7.192825, 0.6149554, 7.393822, -0.31850988, -0.09392643, 10.328272
1465172917895386, 7.018149, -0.79441714, 6.91765, 1.0894599, -0.08085394, 9.825779
1465172920305282, 7.4273214, 1.3686945, 7.0229344, -1.0102236, 0.43416405, 10.254314
1465172922715178, 7.0636125, -0.047856454, 7.3052874, 0.32073647, -0.21532583, 10.154551
1465172925125074, 7.123433, -0.46899325, 6.9678993, 0.7714425, 0.0039219856, 9.945841
1465172927534970, 7.3770723, 1.6079768, 7.0348988, -1.25337, 0.44202423, 10.23378
1465172929944865, 6.963114, -0.5024927, 7.176075, 0.7686685, -0.26771688, 9.978526
1465172932354761, 7.257431, 0.0741775, 6.991828, 0.25284302, 0.15422821, 10.073418
1465172934764657, 7.2861447, 1.4644074, 7.1808605, -1.1318167, 0.25109482, 10.269036
1465172937174553, 6.943971, -0.715454, 6.9990063, 0.9864418, -0.19222355, 9.833958
1465172939584449, 7.379465, 0.7704889, 6.95115, -0.42140323, 0.371675, 10.151499
1465172941994345, 7.164111, 0.9451649, 7.298109, -0.65172285, 0.004813671, 10.249657
1465172944404240, 6.9559355, -0.7298109, 6.8602223, 1.0132731, -0.08878708, 9.744009
1465172946814136, 7.4129643, 1.3663018, 6.9559355, -1.0073175, 0.48101044, 10.195971
1465172949224032, 7.042077, 0.28235307, 7.2622166, -0.0068488717, -0.16031694, 10.118528
1465172951633928, 7.018149, -0.4546363, 6.8721867, 0.7506925, -0.02096939, 9.804291
1465172954043824, 7.3052874, 1.7108682, 6.9583282, -1.3579736, 0.45362425, 10.132265
1465172956453720, 6.893722, -0.29192436, 7.173682, 0.5469599, -0.293952, 9.934022
1465172958863615, 7.1066833, 0.0023928226, 6.9559355, 0.2981876, 0.047492027, 9.939759
1465172961273511, 7.1808605, 1.6510476, 7.1018977, -1.3282189, 0.26983023, 10.143505
1465172963683407, 6.829116, -0.60059845, 7.0492554, 0.84718853, -0.31335497, 9.791508
1465172966093303, 7.243074, 0.6269195, 6.9798636, -0.29171365, 0.2279625, 10.071573
1465172968503199, 7.085148, 1.2059826, 7.314859, -0.9197589, -0.012669086, 10.21346
1465172970913147, 6.8339014, -0.68195444, 6.9248285, 0.93718475, -0.2505164, 9.704609
1465172973323043, 7.3100734, 1.2705889, 7.001399, -0.9211681, 0.37441635, 10.15295
1465172975732938, 7.0205417, 0.526421, 7.3435726, -0.2683071, -0.19851685, 10.167683
1465172978142834, 6.9415784, -0.5192425, 6.927222, 0.7907569, -0.15088987, 9.787414
1465172980552730, 7.30768, 1.6677973, 7.0085773, -1.3123204, 0.44594526, 10.167736
1465172982962626, 6.9128647, -0.13399807, 7.259824, 0.377797, -0.33244467, 10.012865
1465172985372522, 7.0803623, -0.1052842, 7.01097, 0.40155548, -0.037356853, 9.956591
1465172987782418, 7.216753, 1.7228323, 7.1018977, -1.3820143, 0.32511234, 10.17207
1465172990192313, 6.8410797, -0.5312066, 7.1425757, 0.77190334, -0.37450886, 9.867261
1465172992602209, 7.2287173, 0.43788654, 7.0325055, -0.11300713, 0.1521821, 10.092883
1465172995012105, 7.140183, 1.3304094, 7.3100734, -1.0301354, 0.06347036, 10.253008
1465172997422001, 6.8458657, -0.6939186, 6.991828, 0.9397969, -0.31930256, 9.759503
1465172999831897, 7.3100734, 1.0504491, 7.003792, -0.68519586, 0.36373138, 10.148495
1465173002241793, 7.0301127, 0.70588267, 7.3698936, -0.43686002, -0.15718842, 10.199046
1465173004651688, 6.8865438, -0.60777694, 6.9535427, 0.875391, -0.24475718, 9.763166
1465173007061584, 7.283752, 1.5672989, 7.056434, -1.1954396, 0.42139006, 10.183127
1465173009471480, 6.91765, 0.031106694, 7.3340015, 0.20838147, -0.3481779, 10.073618
1465173011881376, 7.0205417, -0.25124636, 7.0301127, 0.53974897, -0.12416363, 9.923048
1465173014291272, 7.240681, 1.7419748, 7.1042905, -1.3819779, 0.38733053, 10.191811
1465173016701168, 6.8745794, -0.43070808, 7.233503, 0.6725158, -0.40241766, 9.957645
1465173019111063, 7.2287173, 0.30149564, 7.051648, 0.038672864, 0.117724895, 10.102259
1465173021520959, 7.1880393, 1.4979069, 7.283752, -1.1609277, 0.1793766, 10.275444
1465173023930855, 6.8745794, -0.6436693, 7.068398, 0.9050203, -0.33808517, 9.833771
1465173026340751, 7.338787, 0.94277215, 7.051648, -0.5664505, 0.3267417, 10.200232
1465173028750647, 7.1018977, 0.94755775, 7.4010005, -0.6555746, -0.07812405, 10.279773
1465173031160543, 6.9152575, -0.6149554, 6.9702926, 0.89646006, -0.23337507, 9.794174
1465173033570438, 7.3603225, 1.4763715, 7.0540414, -1.0825975, 0.45108652, 10.23416
1465173035980334, 7.015756, 0.2440679, 7.365108, 0.03246951, -0.26186705, 10.171312
1465173038390282, 7.0348988, -0.34456646, 7.0229344, 0.65674126, -0.12985516, 9.923808
1465173040800126, 7.3100734, 1.7611175, 7.0875406, -1.3674607, 0.43662167, 10.232857
1465173043210074, 6.9128647, -0.30149564, 7.2646093, 0.5625078, -0.37334108, 10.009863
1465173045619970, 7.192825, 0.16271193, 7.0468626, 0.18027532, 0.06447315, 10.069004
1465173048029865, 7.233503, 1.6295122, 7.21436, -1.2721561, 0.2561593, 10.263618
1465173050439761, 6.9056864, -0.58624154, 7.097112, 0.868706, -0.30902672, 9.876793
1465173052849657, 7.331609, 0.79441714, 7.0325055, -0.41251856, 0.2907548, 10.177671
1465173055259553, 7.1569324, 1.1533405, 7.3770723, -0.8236648, -0.0060806274, 10.309927
1465173057669449, 6.9391856, -0.62452674, 6.9702926, 0.9291866, -0.20996428, 9.809172
1465173060079345, 7.3770723, 1.3974084, 7.0372915, -0.99189496, 0.43330288, 10.233563
1465173062489240, 7.056434, 0.47856453, 7.3603225, -0.17887527, -0.18919134, 10.204355
1465173064899136, 7.0133634, -0.4331009, 6.9798636, 0.7514154, -0.12827349, 9.87483
1465173067309032, 7.355537, 1.7324036, 7.051648, -1.3253287, 0.45589972, 10.240437
1465173069718928, 6.9559355, -0.15792629, 7.259824, 0.4509216, -0.30662632, 10.0408
1465173072128824, 7.133004, -0.050249275, 7.003792, 0.40157002, 0.012627602, 9.988691
1465173074538720, 7.2502527, 1.6606189, 7.1138616, -1.2741642, 0.32370043, 10.207966
1465173076948615, 6.879365, -0.5910272, 7.109076, 0.8841137, -0.33341694, 9.865147
1465173079358511, 7.257431, 0.53359944, 6.9990063, -0.16056776, 0.20532656, 10.093224
1465173081768407, 7.123433, 1.2299109, 7.3268228, -0.89681417, -8.893013E-4, 10.253489
1465173084178303, 6.8482585, -0.71306115, 6.9894347, 1.0120121, -0.28046274, 9.754818
1465173086588199, 7.3172517, 1.174876, 7.056434, -0.78314, 0.31037426, 10.198339
1465173088998095, 7.042077, 0.6029913, 7.3866434, -0.2894141, -0.20684195, 10.217163
1465173091407990, 6.9320073, -0.5599205, 6.9702926, 0.8780379, -0.18538046, 9.805401
1465173093817886, 7.3196445, 1.6366907, 7.056434, -1.2396314, 0.388978, 10.215733
1465173096227782, 6.9320073, -0.02871387, 7.2789664, 0.32550067, -0.31342983, 10.041548
1465173098637678, 7.058827, -0.20817557, 6.977471, 0.54444575, -0.04392147, 9.912474
1465173101047626, 7.233503, 1.7108682, 7.0492554, -1.3240896, 0.34967613, 10.152199
1465173103457522, 6.8506513, -0.5072784, 7.1282187, 0.7987623, -0.34445095, 9.861216
1465173105867418, 7.1976104, 0.31345975, 6.9894347, 0.056343496, 0.12958288, 10.036737
1465173108277313, 7.140183, 1.3639089, 7.2693954, -1.0126475, 0.07840252, 10.230101
1465173110687209, 6.8315086, -0.7537391, 7.0396843, 1.0477686, -0.34732533, 9.776316
1465173113097105, 7.322037, 0.9523434, 7.075577, -0.5676213, 0.26898432, 10.207275
1465173115507001, 7.0779696, 0.74177504, 7.4273214, -0.4329694, -0.18357182, 10.275789
1465173117916897, 6.9009004, -0.66759753, 6.9702926, 0.97409856, -0.2335558, 9.780067
1465173120326793, 7.3268228, 1.4787644, 7.0875406, -1.0820394, 0.352386, 10.237545
1465173122736688, 6.9798636, 0.059820566, 7.353144, 0.23699147, -0.32072306, 10.130735
1465173125146584, 7.0372915, -0.3900301, 7.0301127, 0.72023463, -0.13279533, 9.927826
1465173127556480, 7.2765737, 1.6558332, 7.0875406, -1.2618289, 0.3717456, 10.207503
1465173129966376, 6.8865438, -0.45702913, 7.204789, 0.73559725, -0.3833351, 9.94255
1465173132376272, 7.1856465, 0.09092726, 7.02772, 0.26546496, 0.05138111, 10.047762
1465173134786168, 7.2023964, 1.4548361, 7.2095747, -1.0901256, 0.19684076, 10.234349
1465173137196063, 6.836294, -0.7537391, 7.04447, 1.0455734, -0.36185503, 9.782813
1465173139605959, 7.281359, 0.70348984, 7.003792, -0.31237704, 0.2457757, 10.119694
1465173142015855, 7.085148, 0.8877372, 7.3603225, -0.5592948, -0.106861115, 10.239019
1465173144425751, 6.8865438, -0.7920243, 6.9224358, 1.1074092, -0.23597527, 9.730872
1465173146835647, 7.3363943, 1.2849457, 7.025327, -0.8809143, 0.37286043, 10.193819
1465173149245543, 6.9966135, 0.17706887, 7.355537, 0.11865038, -0.29089785, 10.148357
1465173151655438, 6.9798636, -0.5383851, 6.975078, 0.85983664, -0.17039013, 9.843359
1465173154065334, 7.283752, 1.5984055, 7.066005, -1.1953008, 0.3738413, 10.196464
1465173156475230, 6.8889365, -0.38285163, 7.2526455, 0.66828007, -0.39835453, 9.97996
1465173158885126, 7.111469, -0.076570325, 7.0205417, 0.4304902, -0.023979187, 9.9840355
1465173161295074, 7.1712894, 1.5409778, 7.164111, -1.165483, 0.20691156, 10.184564
1465173163704918, 6.8075805, -0.70588267, 7.0875406, 0.9913448, -0.39405203, 9.7947235
1465173166114865, 7.259824, 0.5096712, 6.9894347, -0.12475532, 0.2061863, 10.087563
1465173168524761, 7.099505, 1.0863415, 7.32443, -0.7491724, -0.026798725, 10.230757
1465173170934657, 6.814759, -0.7920243, 6.9391856, 1.090486, -0.31489754, 9.691862
1465173173344553, 7.274181, 1.1222339, 7.0133634, -0.7214875, 0.31790352, 10.136013
1465173175754449, 6.9894347, 0.39481574, 7.3603225, -0.08601838, -0.26404572, 10.15408
1465173178164345, 6.91765, -0.6269195, 6.943971, 0.95375216, -0.20480156, 9.77313
1465173180574240, 7.2670026, 1.5696917, 7.0301127, -1.1641382, 0.3609047, 10.159246
1465173182984136, 6.8865438, -0.22013968, 7.2789664, 0.51198864, -0.39141178, 10.0020485
1465173185394032, 7.0540414, -0.18903299, 7.001399, 0.53413534, -0.07553196, 9.925917
1465173187803928, 7.1976104, 1.6510476, 7.097112, -1.2630256, 0.28589678, 10.159901
1465173190213824, 6.8099732, -0.58624154, 7.1377897, 0.8730399, -0.4135852, 9.835354
1465173192623720, 7.200003, 0.38763726, 7.003792, -0.006337285, 0.1220212, 10.051292
1465173195033615, 7.1210403, 1.308874, 7.3172517, -0.95607376, 0.012835026, 10.249405
1465173197443511, 6.8195443, -0.70348984, 7.0372915, 1.0083196, -0.36446762, 9.766013
1465173199853407, 7.2957163, 1.0767702, 7.0779696, -0.67086136, 0.2620206, 10.196364
1465173202263303, 7.042077, 0.7298109, 7.4656067, -0.41411138, -0.25031805, 10.277384
1465173204673199, 6.8913293, -0.5910272, 7.025327, 0.9072518, -0.2988596, 9.8123665
1465173207083095, 7.2765737, 1.5936198, 7.1138616, -1.1798054, 0.3041768, 10.227937
1465173209492990, 6.927222, 0.059820566, 7.3770723, 0.24876243, -0.39505863, 10.109065
1465173211902886, 7.0348988, -0.2416751, 7.0492554, 0.59460336, -0.14442635, 9.943127
1465173214312782, 7.245467, 1.7515461, 7.109076, -1.336046, 0.31186962, 10.208888
1465173216722678, 6.8602223, -0.44745782, 7.2358956, 0.75120294, -0.440557, 9.94297
1465173219132626, 7.190432, 0.27756742, 7.0468626, 0.109075785, 0.056175232, 10.070879
1465173221542522, 7.149754, 1.4668003, 7.2789664, -1.089562, 0.08854866, 10.249823
1465173223952418, 6.8506513, -0.68195444, 7.0636125, 1.0000315, -0.3684554, 9.80588
1465173226362313, 7.2933235, 0.8853444, 7.0396843, -0.4590276, 0.2442565, 10.16185
1465173228772209, 7.075577, 0.88295156, 7.4033933, -0.5299776, -0.1610384, 10.263859
1465173231182105, 6.876972, -0.701097, 6.9655066, 1.039865, -0.28729916, 9.753907
1465173233592001, 7.2957163, 1.4045869, 7.042077, -0.9702061, 0.34133196, 10.184959
1465173236001897, 6.9559355, 0.1794617, 7.338787, 0.1465007, -0.3304224, 10.106651
1465173238411793, 6.9798636, -0.4546363, 6.9702926, 0.8088391, -0.17830181, 9.839928
1465173240821688, 7.281359, 1.6510476, 7.01097, -1.2068532, 0.40355635, 10.1626005
1465173243231584, 6.9009004, -0.39960137, 7.1784678, 0.72396713, -0.3690343, 9.932379
1465173245641480, 7.1784678, 0.04546363, 6.9966135, 0.35251176, 0.034567356, 10.0179615
1465173248051376, 7.2263246, 1.5050855, 7.1856465, -1.0924567, 0.19751883, 10.24139
1465173250461272, 6.8745794, -0.7369894, 7.085148, 1.0677814, -0.3757887, 9.834679
1465173252871168, 7.30768, 0.634098, 7.015756, -0.21294564, 0.21598244, 10.1455965
1465173255281063, 7.1138616, 0.9762716, 7.355537, -0.61365664, -0.09437084, 10.260535
1465173257690959, 6.867401, -0.8039884, 6.9391856, 1.1390201, -0.29604197, 9.72496
1465173260100855, 7.3052874, 1.2107682, 7.0229344, -0.78146213, 0.3130026, 10.170846
1465173262510751, 7.003792, 0.30867413, 7.338787, 0.029584646, -0.28284597, 10.14521
1465173264920647, 6.9559355, -0.60059845, 6.946364, 0.9525647, -0.20652485, 9.800392
1465173267330543, 7.3028946, 1.5696917, 6.991828, -1.1310139, 0.39455938, 10.161052
1465173269740438, 6.910472, -0.3182454, 7.1880393, 0.64333576, -0.3561263, 9.949024
1465173272150386, 7.133004, -0.19621146, 6.948757, 0.57549876, -0.011695862, 9.943447
1465173274560282, 7.240681, 1.5266209, 7.0492554, -1.1107521, 0.30719948, 10.154896
1465173276970178, 6.867401, -0.74895346, 7.0229344, 1.0704644, -0.34719324, 9.786588
1465173279380074, 7.274181, 0.35413775, 6.927222, 0.058143914, 0.20207739, 10.048945
1465173281789970, 7.183254, 1.0456635, 7.24786, -0.66596806, 0.034420967, 10.236178
1465173284199865, 6.910472, -0.9020941, 6.9248285, 1.2413856, -0.26635647, 9.74216
1465173286609761, 7.4033933, 1.0073783, 7.0085773, -0.57928985, 0.35082102, 10.221867
1465173289019657, 7.133004, 0.44985065, 7.372287, -0.11395353, -0.18518114, 10.265741
1465173291429553, 7.001399, -0.70588267, 6.95115, 1.0453169, -0.19222641, 9.833957
1465173293839449, 7.372287, 1.5337993, 7.0396843, -1.1067431, 0.41193867, 10.2403965
1465173296249345, 6.9894347, -0.1268196, 7.2957163, 0.4403022, -0.3353305, 10.089075
1465173298659240, 7.1449685, -0.39481574, 6.95115, 0.7644518, -0.034645557, 9.946825
1465173301069136, 7.3603225, 1.4261223, 6.9798636, -0.99279714, 0.43214798, 10.185984
1465173303479032, 6.9798636, -0.83748794, 7.018149, 1.1660788, -0.2775874, 9.860907
1465173305888928, 7.34118, -0.038285162, 6.8650084, 0.44837976, 0.23105717, 10.0383415
1465173308298824, 7.2502527, 1.012164, 7.1282187, -0.62573606, 0.18296194, 10.196918
1465173310708720, 6.910472, -1.0983056, 6.8889365, 1.4213293, -0.26374578, 9.712292
1465173313118615, 7.365108, 0.6269195, 6.95115, -0.2136612, 0.31166124, 10.139702
1465173315528511, 7.1425757, 0.45224348, 7.338787, -0.11165911, -0.14452457, 10.249165
1465173317938459, 6.9798636, -0.9499506, 6.9224358, 1.2800323, -0.21132231, 9.790703
1465173320348303, 7.4392858, 1.2251252, 7.0301127, -0.8014123, 0.41514778, 10.268972
1465173322758251, 7.1186476, -0.17228323, 7.288538, 0.49894983, -0.23485518, 10.17465
1465173325168147, 7.1976104, -0.6269195, 6.948757, 0.98739964, -0.020865917, 9.975394
1465173327578043, 7.472785, 1.4452649, 7.015756, -1.009259, 0.49632454, 10.290151
1465173329987938, 7.0803623, -0.66999036, 7.1449685, 0.9941199, -0.25414133, 10.028866
1465173332397834, 7.350751, -0.1363909, 6.943971, 0.533106, 0.17130947, 10.097393
1465173334807730, 7.3340015, 1.2251252, 7.1377897, -0.82495624, 0.27114248, 10.270466
1465173337217626, 6.984649, -0.97866446, 6.9535427, 1.2931962, -0.27935934, 9.815521
1465173339627522, 7.3986077, 0.47138608, 6.9320073, -0.050409794, 0.3215127, 10.144379
1465173342037418, 7.1784678, 0.66999036, 7.3292155, -0.33144605, -0.065200806, 10.275337
1465173344447313, 6.963114, -1.0097711, 6.9056864, 1.3253108, -0.26942396, 9.765452
1465173346857209, 7.4010005, 1.105484, 7.015756, -0.6837062, 0.38935804, 10.22735
1465173349267105, 7.085148, 0.019142581, 7.3627152, 0.2910971, -0.29150677, 10.209778
1465173351677001, 7.1138616, -0.6987042, 7.003792, 1.040881, -0.16416407, 9.951781
1465173354086897, 7.4512496, 1.4715859, 7.075577, -1.0380144, 0.44845676, 10.3185215
1465173356496793, 7.0899334, -0.5072784, 7.3028946, 0.8128086, -0.3546424, 10.152356
1465173358906688, 7.3292155, -0.20578274, 7.070791, 0.5793471, 0.029003143, 10.169529
1465173361316584, 7.4033933, 1.4069797, 7.216753, -1.0030003, 0.3104105, 10.381184
1465173363726480, 7.0325055, -0.8350951, 7.1473613, 1.13817, -0.35840464, 9.990718
1465173366136376, 7.4536424, 0.38524446, 7.04447, 0.031451464, 0.25046062, 10.259924
1465173368546324, 7.2789664, 0.94755775, 7.3770723, -0.58680654, 0.009429932, 10.390283
1465173370956220, 7.003792, -0.93559366, 6.987042, 1.2534535, -0.2814603, 9.853772
1465173373366115, 7.4679995, 0.9954142, 7.056434, -0.5689915, 0.37319994, 10.300102
1465173375776011, 7.1545396, 0.24646074, 7.4129643, 0.07084781, -0.24072456, 10.302294
1465173378185907, 7.0612197, -0.7752745, 6.9966135, 1.1030462, -0.21662664, 9.90711
1465173380595803, 7.4010005, 1.4141582, 7.092326, -0.99223197, 0.3821907, 10.292965
1465173383005699, 7.0325055, -0.3589234, 7.34118, 0.65607464, -0.39389324, 10.143583
1465173385415595, 7.190432, -0.35174492, 7.085148, 0.70436513, -0.10476589, 10.075626
1465173387825490, 7.3196445, 1.4739788, 7.1952176, -1.0760176, 0.25912714, 10.309996
1465173390235386, 6.9583282, -0.7537391, 7.2287173, 1.0470402, -0.44043446, 9.997526
1465173392645282, 7.3363943, 0.20817557, 7.066005, 0.17662811, 0.11868858, 10.185733
1465173395055178, 7.240681, 1.0959128, 7.34118, -0.7402937, 0.031732082, 10.342744
1465173397465074, 6.946364, -0.9523434, 7.0301127, 1.2567301, -0.34856606, 9.842791
1465173399874970, 7.405786, 0.81595254, 7.0612197, -0.40457034, 0.2896371, 10.253035
1465173402284865, 7.1282187, 0.47377887, 7.4392858, -0.15622377, -0.23638916, 10.3101225
1465173404694761, 6.963114, -0.8422736, 7.003792, 1.156178, -0.3074255, 9.839521
1465173407104657, 7.367501, 1.3351951, 7.0899334, -0.92820823, 0.33016682, 10.264473
1465173409514553, 6.9822564, -0.17228323, 7.3842506, 0.4535113, -0.42180395, 10.145203
1465173411924501, 7.0612197, -0.4546363, 7.070791, 0.7772663, -0.20038939, 9.9709215
1465173414334397, 7.2502527, 1.5457634, 7.1306114, -1.162024, 0.26076412, 10.216795
1465173416744293, 6.862615, -0.6197411, 7.245467, 0.90226066, -0.4701271, 9.946922
1465173419154188, 7.192825, 0.11006984, 7.0636125, 0.24568033, 0.0055117607, 10.078844
1465173421564084, 7.159325, 1.308874, 7.2933235, -0.96138567, 0.014708996, 10.258516
1465173423973980, 6.812366, -0.83748794, 7.092326, 1.1247334, -0.43431807, 9.795771
1465173426383876, 7.274181, 0.74416786, 7.0492554, -0.37416863, 0.17482758, 10.148346
1465173428793772, 7.0468626, 0.7513463, 7.393822, -0.45000952, -0.22132063, 10.229366
1465173431203668, 6.829116, -0.8279166, 6.9655066, 1.1160356, -0.33612537, 9.720188
1465173433613563, 7.2646093, 1.3016955, 7.051648, -0.9264817, 0.26181555, 10.162076
1465173436023459, 6.927222, 0.086141616, 7.355537, 0.19384241, -0.38943052, 10.0949745
1465173438433355, 6.9296145, -0.5312066, 7.015756, 0.8309196, -0.25308847, 9.837078
1465173440843251, 7.21436, 1.5840486, 7.0875406, -1.2197466, 0.24687433, 10.160743
1465173443253147, 6.836294, -0.45224348, 7.2550383, 0.71798456, -0.4705572, 9.941734
1465173445663043, 7.1138616, -0.0071784677, 7.051648, 0.32878947, -0.05965042, 10.011052
1465173448072938, 7.159325, 1.4715859, 7.21436, -1.1387008, 0.10269213, 10.205946
1465173450482834, 6.8171515, -0.76331043, 7.111469, 1.0267925, -0.42879963, 9.817894
1465173452892730, 7.24786, 0.61734825, 7.042077, -0.26803136, 0.14462519, 10.119818
1465173455302626, 7.051648, 0.9738788, 7.372287, -0.67646223, -0.1649332, 10.22448
1465173457712574, 6.8171515, -0.80159557, 6.946364, 1.0725855, -0.3244686, 9.701153
1465173460122470, 7.274181, 1.2131611, 7.003792, -0.8518249, 0.29502392, 10.1304455
1465173462532365, 6.95115, 0.30867413, 7.3028946, -0.042474687, -0.29046345, 10.082651
1465173464942261, 6.903293, -0.634098, 6.8913293, 0.9202729, -0.19626474, 9.729467
1465173467352157, 7.2358956, 1.524228, 6.943971, -1.1562755, 0.37949038, 10.070711
1465173469762053, 6.8578296, -0.35174492, 7.1569324, 0.6076833, -0.37175083, 9.892814
1465173472171949, 7.051648, -0.20817557, 6.9152575, 0.5216866, -0.042495728, 9.864882
1465173474581845, 7.149754, 1.5146568, 7.0085773, -1.1676288, 0.27259874, 10.054634
1465173476991740, 6.771688, -0.72741807, 6.9798636, 0.9918452, -0.34913158, 9.695243
1465173479401636, 7.1976104, 0.3900301, 6.8650084, -0.053144395, 0.20173597, 9.952011
1465173481811532, 7.0899334, 1.0887343, 7.152147, -0.7845554, 0.034991264, 10.098957
1465173484221428, 6.8099732, -0.8757731, 6.798009, 1.1495478, -0.21850204, 9.590955
1465173486631324, 7.2765737, 1.0145568, 6.855437, -0.65731835, 0.35946178, 10.0206585
1465173489041220, 7.01097, 0.44506502, 7.216753, -0.16542053, -0.16580391, 10.0686865
1465173491451115, 6.9152575, -0.72263247, 6.798009, 1.0083745, -0.14067936, 9.670538
1465173493861011, 7.2670026, 1.4763715, 6.8865438, -1.1149948, 0.42042017, 10.049553
1465173496270959, 6.8889365, -0.18664017, 7.1377897, 0.43920368, -0.3094368, 9.907153
1465173498680855, 7.0205417, -0.3469593, 6.8602223, 0.64039594, -0.05326891, 9.800922
1465173501090751, 7.2119675, 1.605584, 6.9296145, -1.2548294, 0.38874006, 10.044113
1465173503500647, 6.843473, -0.60777694, 6.9894347, 0.8576363, -0.3141241, 9.758099
1465173505910543, 7.1952176, 0.22971097, 6.838687, 0.10439259, 0.18780327, 9.927004
1465173508320438, 7.149754, 1.3232309, 7.097112, -1.003237, 0.17489433, 10.109495
1465173510730334, 6.8482585, -0.77766734, 6.838687, 1.042228, -0.2442441, 9.650138
1465173513140230, 7.3340015, 0.9284152, 6.8602223, -0.564513, 0.40174723, 10.061417
1465173515550126, 7.092326, 0.72023964, 7.2119675, -0.44015253, -0.049069405, 10.130951
1465173517960022, 6.9344, -0.7178468, 6.762117, 0.9983176, -0.11754751, 9.660071
1465173520369918, 7.3603225, 1.4452649, 6.8745794, -1.0661914, 0.5084057, 10.105828
1465173522779813, 7.015756, 0.02871387, 7.152147, 0.23876238, -0.19234896, 10.014034
1465173525189709, 7.0803623, -0.4211368, 6.829116, 0.72769326, -0.0070905685, 9.819172
1465173527599605, 7.338787, 1.6486548, 6.9056864, -1.2670125, 0.52283144, 10.118583
1465173530009501, 6.9344, -0.47377887, 7.0636125, 0.72708124, -0.28916693, 9.878904
1465173532419397, 7.243074, 0.083748795, 6.908079, 0.24532032, 0.14488316, 10.005474
