timestamp_acc,device_acc_x,device_acc_y,device_acc_z,earth_acc_x,earth_acc_y,earth_acc_z
1464894445133471, 6.2548385, 0.4354937, 7.8197446, 0.020299435, -0.0108885765, 10.023001
1464894447543210, 6.2524457, 0.41874397, 7.8197446, 0.035918474, -0.016989708, 10.020741
1464894449952950, 6.2380886, 0.40677986, 7.810173, 0.046058774, -0.024767399, 10.003763
1464894452362690, 6.2309103, 0.41156548, 7.812566, 0.03993237, -0.030338287, 10.001367
1464894454772429, 6.2309103, 0.39481574, 7.810173, 0.05645442, -0.033227444, 9.998731
1464894457182169, 6.2261243, 0.40438703, 7.810173, 0.046120167, -0.034328938, 9.996181
1464894459591908, 6.206982, 0.4139583, 7.8293157, 0.030059814, -0.05788517, 9.999595
1464894462001648, 6.2141604, 0.41874397, 7.8460655, 0.024675548, -0.061378002, 10.017361
1464894464411388, 6.2141604, 0.39481574, 7.84128, 0.048373997, -0.06462479, 10.012534
1464894466821127, 6.202196, 0.41156548, 7.84128, 0.02956301, -0.06855297, 10.005834
1464894469230867, 6.233303, 0.44027936, 7.836494, 0.009362519, -0.035117626, 10.022835
1464894471640606, 6.24766, 0.43788654, 7.812566, 0.01728493, -0.00957489, 10.01303
1464894474050346, 6.24766, 0.44745782, 7.810173, 0.0077750087, -0.0049290657, 10.011602
1464894476460085, 6.242874, 0.44506502, 7.810173, 0.009007037, -0.009115219, 10.008506
1464894478869825, 6.2404814, 0.4354937, 7.8221374, 0.01567024, -0.02039671, 10.015909
1464894481279565, 6.2309103, 0.4354937, 7.8293157, 0.012617826, -0.031958103, 10.015533
1464894483689304, 6.2309103, 0.44745782, 7.8460655, -0.0017824173, -0.039028168, 10.029142
1464894486099044, 6.24766, 0.4426722, 7.8723865, 0.0035948157, -0.04384041, 10.059908
1464894488508783, 6.2668023, 0.4642076, 7.905886, -0.01705432, -0.044723988, 10.098963
1464894490918523, 6.259624, 0.4761717, 7.8963146, -0.029893398, -0.040914536, 10.087561
1464894493328263, 6.273981, 0.4833502, 7.8891363, -0.03278756, -0.023967266, 10.091249
1464894495738002, 6.283552, 0.49292147, 7.8867435, -0.04024923, -0.012990952, 10.095788
1464894498147742, 6.2931237, 0.50009996, 7.867601, -0.043004572, 0.0076851845, 10.087158
1464894500557481, 6.3050876, 0.485743, 7.84128, -0.024046242, 0.029788017, 10.073444
1464894502967221, 6.32423, 0.4881358, 7.8077803, -0.01888287, 0.06521034, 10.059375
1464894505376960, 6.3122663, 0.47377887, 7.8077803, -0.008657396, 0.051772594, 10.051262
1464894507786700, 6.314659, 0.4761717, 7.8221374, -0.01203686, 0.045265198, 10.06406
1464894510196440, 6.3314085, 0.4761717, 7.84128, -0.010667682, 0.046089172, 10.089446
1464894512606179, 6.32423, 0.4833502, 7.8460655, -0.020323873, 0.03819704, 10.089024
1464894515015919, 6.3290157, 0.4953143, 7.8628154, -0.032785594, 0.034184456, 10.105613
1464894517425710, 6.32423, 0.4977071, 7.8699937, -0.03771186, 0.02517128, 10.10833
1464894519835398, 6.3194447, 0.5072784, 7.874779, -0.048467457, 0.0206604, 10.109505
1464894522245190, 6.3290157, 0.5096712, 7.8604226, -0.047692895, 0.03662157, 10.104397
1464894524654929, 6.3338017, 0.4977071, 7.850851, -0.033982873, 0.043257236, 10.099386
1464894527064669, 6.326623, 0.51206404, 7.8484583, -0.049153805, 0.042414665, 10.093683
1464894529474408, 6.3194447, 0.5168497, 7.853244, -0.055714488, 0.03506565, 10.093147
1464894531884148, 6.3122663, 0.50488555, 7.8317084, -0.043281436, 0.04036188, 10.071335
1464894534293888, 6.3218374, 0.4977071, 7.826923, -0.033655822, 0.048816204, 10.07326
1464894536703627, 6.3074803, 0.5024927, 7.836494, -0.041632175, 0.033201694, 10.071971
1464894539113367, 6.290731, 0.4977071, 7.850851, -0.041698158, 0.010633945, 10.072488
1464894541523106, 6.3122663, 0.51206404, 7.8556366, -0.051956832, 0.02705574, 10.090317
1464894543932846, 6.326623, 0.5096712, 7.836494, -0.04439664, 0.04949808, 10.084251
1464894546342585, 6.3457656, 0.51445687, 7.826923, -0.044317186, 0.07093477, 10.088961
1464894548752325, 6.3290157, 0.5072784, 7.838887, -0.04118991, 0.04972744, 10.087505
1464894551162065, 6.32423, 0.5096712, 7.8436728, -0.044946134, 0.0436697, 10.088357
1464894553571804, 6.32423, 0.51445687, 7.853244, -0.04985249, 0.038600445, 10.09604
1464894555981544, 6.302695, 0.5312066, 7.853244, -0.06952423, 0.025885582, 10.083359
1464894558391283, 6.314659, 0.526421, 7.850851, -0.06223595, 0.035351753, 10.088747
1464894560801023, 6.2979093, 0.5192425, 7.853244, -0.058814883, 0.01965046, 10.079826
1464894563210763, 6.2979093, 0.51445687, 7.8699937, -0.054780602, 0.007882118, 10.092674
1464894565620502, 6.3074803, 0.51206404, 7.867601, -0.049029946, 0.016061306, 10.096683
1464894568030242, 6.3050876, 0.4953143, 7.850851, -0.03143114, 0.020801067, 10.081364
1464894570439981, 6.302695, 0.5024927, 7.865208, -0.04044026, 0.011764526, 10.091391
1464894572849721, 6.3194447, 0.5024927, 7.879565, -0.037439108, 0.015272617, 10.113049
1464894575259460, 6.300302, 0.4953143, 7.8628154, -0.031404078, 0.009622097, 10.087712
1464894577669200, 6.2931237, 0.4977071, 7.8604226, -0.03497964, 0.0062642097, 10.081474
1464894580078940, 6.283552, 0.50488555, 7.850851, -0.04183787, 0.0063300133, 10.068367
1464894582488679, 6.2955165, 0.50488555, 7.8436728, -0.038492084, 0.01974535, 10.070242
1464894584898419, 6.302695, 0.49292147, 7.8484583, -0.024690151, 0.019159317, 10.077909
1464894587308158, 6.2979093, 0.5096712, 7.853244, -0.04251063, 0.016610146, 10.079425
1464894589717898, 6.3074803, 0.5096712, 7.8723865, -0.04154432, 0.011470318, 10.100331
1464894592127638, 6.3122663, 0.49292147, 7.874779, -0.024542868, 0.0096030235, 10.104412
1464894594537377, 6.2883377, 0.48095736, 7.881958, -0.017787158, -0.01597786, 10.094515
1464894596947117, 6.2955165, 0.48095736, 7.874779, -0.015379012, -0.006178379, 10.093401
1464894599356856, 6.2883377, 0.4833502, 7.877172, -0.019544303, -0.012451172, 10.090894
1464894601766596, 6.276374, 0.49292147, 7.874779, -0.030200422, -0.017804146, 10.082001
1464894604176335, 6.262017, 0.47138608, 7.853244, -0.0099464655, -0.020558834, 10.055245
1464894606586075, 6.245267, 0.46181476, 7.850851, -0.0031372309, -0.033989906, 10.042478
1464894608995815, 6.24766, 0.46660042, 7.850851, -0.0065310597, -0.03107214, 10.044193
1464894611405554, 6.242874, 0.44985065, 7.850851, 0.008621752, -0.03879547, 10.040424
1464894613815294, 6.216553, 0.42592242, 7.865208, 0.024982333, -0.07334137, 10.034065
1464894616225033, 6.233303, 0.4331009, 7.8699937, 0.021250248, -0.061935425, 10.048591
1464894618634773, 6.2285175, 0.4019942, 7.877172, 0.049464703, -0.07757664, 10.049747
1464894621044513, 6.2285175, 0.38285163, 7.8604226, 0.070381045, -0.072060585, 10.03579
1464894623454252, 6.218946, 0.38763726, 7.867601, 0.062930584, -0.082570076, 10.035631
1464894625863992, 6.2237315, 0.3924229, 7.867601, 0.05958253, -0.07763147, 10.038844
1464894628273731, 6.216553, 0.4019942, 7.867601, 0.048567593, -0.08079529, 10.034809
1464894630683471, 6.209375, 0.41156548, 7.8628154, 0.038286388, -0.08091164, 10.027042
1464894633093210, 6.2309103, 0.40917268, 7.850851, 0.04669279, -0.057979107, 10.031052
1464894635502950, 6.250053, 0.42592242, 7.8484583, 0.03511381, -0.0379467, 10.041922
1464894637912690, 6.2644095, 0.4235296, 7.850851, 0.04008645, -0.029424667, 10.052641
1464894640322429, 6.2715883, 0.4331009, 7.836494, 0.03390181, -0.012938023, 10.046377
1464894642732169, 6.259624, 0.42831525, 7.8317084, 0.036376834, -0.020699501, 10.034952
1464894645141908, 6.24766, 0.40917268, 7.8317084, 0.0529384, -0.03339672, 10.026585
1464894647551700, 6.262017, 0.4235296, 7.836494, 0.04110664, -0.02308321, 10.039953
1464894649961388, 6.262017, 0.43788654, 7.838887, 0.026872396, -0.021408081, 10.042489
1464894652371179, 6.2524457, 0.4354937, 7.834101, 0.027777076, -0.026201248, 10.032669
1464894654780867, 6.245267, 0.43788654, 7.836494, 0.023047924, -0.03357458, 10.030159
1464894657190658, 6.2524457, 0.44027936, 7.8197446, 0.023847222, -0.01727724, 10.021699
1464894659600398, 6.2548385, 0.46899325, 7.8197446, -0.0036617517, -0.009187698, 10.024533
1464894662010138, 6.2668023, 0.45224348, 7.8149586, 0.015534639, -8.621216E-4, 10.027495
1464894664419825, 6.2715883, 0.44506502, 7.8221374, 0.022421658, -0.003622532, 10.035747
1464894666829617, 6.2883377, 0.44506502, 7.8221374, 0.025718033, 0.00903368, 10.046211
1464894669239356, 6.276374, 0.41874397, 7.8221374, 0.04879558, -0.0064558983, 10.037512
1464894671649096, 6.285945, 0.42592242, 7.82453, 0.043439746, 8.430481E-4, 10.0456915
1464894674058835, 6.283552, 0.4211368, 7.836494, 0.04595858, -0.010057449, 10.0533
1464894676468575, 6.2668023, 0.40438703, 7.8436728, 0.05838293, -0.030704975, 10.047647
1464894678878315, 6.257231, 0.4211368, 7.8293157, 0.04096675, -0.02628231, 10.031257
1464894681288054, 6.262017, 0.43070808, 7.8317084, 0.032315254, -0.02212429, 10.036557
1464894683697794, 6.2691956, 0.44506502, 7.838887, 0.01830566, -0.018548012, 10.047307
1464894686107533, 6.2668023, 0.45224348, 7.826923, 0.011993229, -0.011433601, 10.036821
1464894688517273, 6.259624, 0.44506502, 7.826923, 0.01710862, -0.018410206, 10.0320015
1464894690927013, 6.2644095, 0.4354937, 7.8293157, 0.026737928, -0.017989635, 10.036416
1464894693336752, 6.2691956, 0.4426722, 7.8173513, 0.021774769, -0.005461216, 10.030417
1464894695746492, 6.2644095, 0.4426722, 7.786245, 0.023444116, 0.010722637, 10.003185
1464894698156231, 6.2691956, 0.45224348, 7.771888, 0.016402662, 0.02524662, 9.995432
1464894700565971, 6.2668023, 0.43788654, 7.7814593, 0.029039502, 0.014490128, 10.00073
1464894702975710, 6.250053, 0.4139583, 7.7886376, 0.047982633, -0.0071458817, 9.994752
1464894705385450, 6.2404814, 0.39960137, 7.8077803, 0.057656527, -0.02914524, 10.003027
1464894707795190, 6.2548385, 0.41156548, 7.810173, 0.04853338, -0.01722765, 10.014418
1464894710204929, 6.257231, 0.41635114, 7.8197446, 0.04252726, -0.019899368, 10.023598
1464894712614669, 6.262017, 0.42592242, 7.8221374, 0.03388065, -0.01572609, 10.028893
1464894715024408, 6.262017, 0.45224348, 7.826923, 0.0069242716, -0.012701035, 10.033838
1464894717434148, 6.273981, 0.45942193, 7.826923, 0.0022282004, -0.0021429062, 10.041645
1464894719843888, 6.276374, 0.45224348, 7.8173513, 0.01013571, 0.004228592, 10.035352
1464894722253627, 6.2691956, 0.44985065, 7.8053875, 0.012262702, 0.0056791306, 10.021432
1464894724663367, 6.2668023, 0.4426722, 7.8173513, 0.017155409, -0.0051469803, 10.028929
1464894727073106, 6.2715883, 0.46181476, 7.8293157, -0.0017674565, -0.0045809746, 10.042124
1464894729482846, 6.273981, 0.44506502, 7.838887, 0.0136393905, -0.012562275, 10.050311
1464894731892585, 6.273981, 0.4331009, 7.8460655, 0.024506748, -0.019711494, 10.055356
1464894734302325, 6.273981, 0.43070808, 7.853244, 0.026063442, -0.024686813, 10.060841
1464894736712065, 6.285945, 0.4426722, 7.8484583, 0.017252743, -0.01010704, 10.065136
1464894739121804, 6.300302, 0.45702913, 7.8604226, 0.004922867, -0.0034680367, 10.084091
1464894741531544, 6.3314085, 0.43788654, 7.8699937, 0.02853012, 0.009740353, 10.110111
1464894743941283, 6.302695, 0.44745782, 7.8723865, 0.013051689, -0.011498928, 10.094471
1464894746351023, 6.283552, 0.45942193, 7.867601, -0.0021543503, -0.02028656, 10.079327
1464894748760763, 6.283552, 0.45702913, 7.874779, -6.238818E-4, -0.025269508, 10.084811
1464894751170502, 6.2811594, 0.46181476, 7.8723865, -0.0055784583, -0.024806976, 10.08167
1464894753580242, 6.276374, 0.4546363, 7.881958, -6.645918E-4, -0.035976887, 10.085809
1464894755989981, 6.290731, 0.4546363, 7.867601, 0.004024923, -0.016361713, 10.083593
1464894758399721, 6.283552, 0.45702913, 7.8580294, 0.0012698174, -0.015267372, 10.071756
1464894760809460, 6.2979093, 0.46181476, 7.853244, 7.3975325E-4, -1.6736984E-4, 10.07722
1464894763219200, 6.285945, 0.46660042, 7.834101, -0.003804624, 0.0040431023, 10.055044
1464894765628940, 6.3050876, 0.4642076, 7.8173513, 0.004665673, 0.028116703, 10.0538435
1464894768038679, 6.2715883, 0.47856453, 7.8053875, -0.015184522, 0.013823986, 10.024246
1464894770448419, 6.290731, 0.45942193, 7.793423, 0.009458184, 0.031070232, 10.026005
1464894772858158, 6.2955165, 0.45942193, 7.776674, 0.01243335, 0.044974327, 10.015942
1464894775267898, 6.2931237, 0.45702913, 7.7790666, 0.014375269, 0.04099703, 10.0162
1464894777677638, 6.302695, 0.45702913, 7.769495, 0.017550409, 0.054071903, 10.014722
1464894780087377, 6.290731, 0.4642076, 7.769495, 0.008262098, 0.046248436, 10.007579
1464894782497117, 6.285945, 0.44745782, 7.757531, 0.024898887, 0.045207024, 9.994495
1464894784906856, 6.283552, 0.44985065, 7.769495, 0.020674169, 0.03662014, 10.002434
1464894787316596, 6.2644095, 0.45942193, 7.800602, 0.0036005974, 0.0043935776, 10.015152
1464894789726335, 6.285945, 0.44985065, 7.8077803, 0.016708136, 0.013810635, 10.033764
1464894792136075, 6.2883377, 0.44745782, 7.8053875, 0.019752562, 0.015604973, 10.033288
1464894794545815, 6.2691956, 0.43070808, 7.8029947, 0.032124758, -0.0012617111, 10.018684
1464894796955554, 6.2668023, 0.4354937, 7.793423, 0.027956605, 0.003130436, 10.00995
1464894799365294, 6.2811594, 0.44985065, 7.795816, 0.016847968, 0.015867233, 10.021452
1464894801775033, 6.290731, 0.4426722, 7.8077803, 0.02448982, 0.013954639, 10.036427
1464894804184773, 6.2883377, 0.4354937, 7.8077803, 0.030736327, 0.009768486, 10.034602
1464894806594513, 6.2811594, 0.43070808, 7.8077803, 0.033724308, 0.0025839806, 10.029893
1464894809004252, 6.290731, 0.4235296, 7.8053875, 0.043028474, 0.009507179, 10.033684
1464894811413992, 6.290731, 0.43070808, 7.810173, 0.035514116, 0.008286953, 10.037743
1464894813823731, 6.273981, 0.4331009, 7.8173513, 0.028532565, -0.00857687, 10.03297
1464894816233471, 6.285945, 0.44985065, 7.8077803, 0.015901387, 0.0097203255, 10.033771
1464894818643263, 6.3050876, 0.4642076, 7.812566, 0.005638063, 0.024633884, 10.050133
1464894821052950, 6.2811594, 0.46660042, 7.812566, -0.001966238, 0.0069184303, 10.03528
1464894823462742, 6.2931237, 0.46181476, 7.8077803, 0.005867481, 0.017646313, 10.038815
1464894825872429, 6.3050876, 0.45702913, 7.8197446, 0.011643827, 0.01766491, 10.055394
1464894828282169, 6.2979093, 0.46899325, 7.8173513, -0.0012227893, 0.01657629, 10.049592
1464894830691960, 6.2955165, 0.4546363, 7.8221374, 0.01174885, 0.007937908, 10.051163
1464894833101700, 6.283552, 0.45942193, 7.82453, 0.0042928457, -0.0013914108, 10.045763
1464894835511440, 6.2715883, 0.45702913, 7.82453, 0.0042690635, -0.011381626, 10.038168
1464894837921179, 6.2644095, 0.45702913, 7.8221374, 0.0030105114, -0.0152926445, 10.031814
1464894840330919, 6.24766, 0.47138608, 7.8436728, -0.016939938, -0.037742615, 10.038773
1464894842740658, 6.2380886, 0.4761717, 7.8484583, -0.023903191, -0.04696417, 10.036734
1464894845150398, 6.250053, 0.47138608, 7.8460655, -0.016767442, -0.03749752, 10.042133
1464894847560138, 6.257231, 0.46660042, 7.838887, -0.00970161, -0.028878212, 10.040812
1464894849969877, 6.2787666, 0.4642076, 7.8436728, -0.0022652745, -0.015772343, 10.0579
1464894852379617, 6.259624, 0.47377887, 7.850851, -0.016592085, -0.032174587, 10.051961
1464894854789356, 6.259624, 0.46899325, 7.84128, -0.010286808, -0.02705717, 10.044287
1464894857199096, 6.273981, 0.46660042, 7.8149586, -0.0016904473, -6.8569183E-4, 10.032654
1464894859608835, 6.276374, 0.46660042, 7.812566, -3.05593E-4, 0.00309515, 10.032286
1464894862018575, 6.273981, 0.4642076, 7.810173, 0.0017753243, 0.0022025108, 10.028814
1464894864428315, 6.285945, 0.47138608, 7.8029947, -0.0018146634, 0.017317295, 10.031037
1464894866838054, 6.283552, 0.47138608, 7.798209, -0.0012683868, 0.018739223, 10.025814
1464894869247794, 6.2955165, 0.46660042, 7.812566, 0.0048089027, 0.0178895, 10.044257
1464894871657533, 6.290731, 0.4642076, 7.826923, 0.0044735074, 0.00487566, 10.052337
1464894874067273, 6.2955165, 0.44745782, 7.8293157, 0.021454036, 0.0031576157, 10.056414
1464894876477013, 6.314659, 0.45224348, 7.836494, 0.02038169, 0.014339924, 10.074199
1464894878886752, 6.309873, 0.46899325, 7.8149586, 0.0057531595, 0.028213024, 10.055209
1464894881296492, 6.302695, 0.47138608, 7.8221374, 0.0011451244, 0.018935204, 10.056424
1464894883706231, 6.3122663, 0.47138608, 7.82453, 0.0030491948, 0.024958134, 10.064272
1464894886115971, 6.300302, 0.4642076, 7.826923, 0.007268548, 0.012825966, 10.058321
1464894888525710, 6.2811594, 0.45942193, 7.8293157, 0.0077611804, -0.003830433, 10.047993
1464894890935450, 6.300302, 0.46660042, 7.84128, 0.0034770966, 0.004839897, 10.069616
1464894893345190, 6.2883377, 0.47138608, 7.853244, -0.0049907565, -0.01043129, 10.071679
1464894895754929, 6.285945, 0.4642076, 7.891529, -0.0028229356, -0.03699112, 10.099675
1464894898164669, 6.283552, 0.45942193, 7.884351, 0.0021656752, -0.035465717, 10.092364
1464894900574408, 6.302695, 0.4642076, 7.891529, 6.1136484E-4, -0.023794651, 10.110149
1464894902984148, 6.3050876, 0.47377887, 7.8963146, -0.008715391, -0.022745132, 10.115818
1464894905393888, 6.3074803, 0.4642076, 7.8867435, 0.0018956065, -0.016386986, 10.109414
1464894907803627, 6.290731, 0.47138608, 7.884351, -0.008308113, -0.025856495, 10.097414
1464894910213367, 6.2715883, 0.4761717, 7.8963146, -0.018483877, -0.0460124, 10.094994
1464894912623106, 6.2524457, 0.4642076, 7.9011, -0.011366665, -0.06612539, 10.086201
1464894915032846, 6.250053, 0.4642076, 7.9130645, -0.013503313, -0.07505369, 10.09403
1464894917442585, 6.257231, 0.4546363, 7.9154572, -0.0022502542, -0.07336569, 10.099936
1464894919852325, 6.250053, 0.44506502, 7.9106717, 0.0058215857, -0.077711105, 10.091279
1464894922262065, 6.24766, 0.4642076, 7.91785, -0.014048278, -0.07971811, 10.096264
1464894924671804, 6.250053, 0.46660042, 7.9154572, -0.016245663, -0.0754056, 10.096009
1464894927081544, 6.250053, 0.4642076, 7.9154572, -0.013914585, -0.07593441, 10.095898
1464894929491283, 6.245267, 0.47377887, 7.8891363, -0.02148348, -0.06115818, 10.07284
1464894931901023, 6.2524457, 0.48095736, 7.8891363, -0.027172506, -0.054049492, 10.077658
1464894934310763, 6.262017, 0.47856453, 7.877172, -0.02168411, -0.03996277, 10.074206
1464894936720502, 6.2715883, 0.49292147, 7.881958, -0.034178257, -0.032711983, 10.084582
1464894939130242, 6.259624, 0.48095736, 7.877172, -0.024414718, -0.041403294, 10.072821
1464894941539981, 6.276374, 0.4977071, 7.8604226, -0.035691977, -0.014734268, 10.071014
1464894943949721, 6.2979093, 0.5072784, 7.8699937, -0.041670144, -0.0028510094, 10.092376
1464894946359460, 6.3074803, 0.50009996, 7.8580294, -0.031504393, 0.009569645, 10.088703
1464894948769200, 6.2883377, 0.50488555, 7.8604226, -0.040218115, -0.0053138733, 10.078823
1464894951178940, 6.2955165, 0.5024927, 7.853244, -0.03572929, 0.0040225983, 10.077606
1464894953588679, 6.2955165, 0.5240282, 7.838887, -0.055113852, 0.016739368, 10.067422
1464894955998419, 6.2931237, 0.5192425, 7.834101, -0.050029933, 0.0166955, 10.061977
1464894958408158, 6.2955165, 0.526421, 7.82453, -0.05544895, 0.026067257, 10.056351
1464894960817898, 6.2955165, 0.5072784, 7.826923, -0.037113607, 0.020148754, 10.057326
1464894963227638, 6.2883377, 0.49292147, 7.812566, -0.022785246, 0.019155025, 10.040988
1464894965637377, 6.290731, 0.50009996, 7.812566, -0.029371798, 0.022472382, 10.042818
1464894968047117, 6.2955165, 0.50488555, 7.800602, -0.031428695, 0.033390522, 10.03672
1464894970456856, 6.283552, 0.50009996, 7.7886376, -0.027953029, 0.030691147, 10.019695
1464894972866596, 6.302695, 0.48095736, 7.776674, -0.0039941072, 0.046950817, 10.0214615
1464894975276335, 6.2955165, 0.485743, 7.7742805, -0.01016897, 0.04404497, 10.015331
1464894977686075, 6.2811594, 0.4881358, 7.7742805, -0.015377998, 0.033745766, 10.006462
1464894980095815, 6.2979093, 0.4881358, 7.7623167, -0.010669291, 0.051523685, 10.007633
1464894982505554, 6.314659, 0.47856453, 7.7407813, 0.0042250156, 0.075371265, 10.000896
1464894984915294, 6.309873, 0.47856453, 7.716853, 0.005607307, 0.08558416, 9.9792795
1464894987325033, 6.3122663, 0.4833502, 7.716853, 0.0014243126, 0.08844328, 9.981
1464894989734773, 6.309873, 0.47856453, 7.7096744, 0.0064249635, 0.08872795, 9.973701
1464894992144513, 6.2955165, 0.47138608, 7.7216387, 0.0092116, 0.068903446, 9.973697
1464894994554252, 6.2715883, 0.44506502, 7.752745, 0.026087642, 0.024335861, 9.981718
1464894996963992, 6.2715883, 0.43070808, 7.7742805, 0.037761033, 0.007766247, 9.997815
1464894999373731, 6.2691956, 0.4331009, 7.8173513, 0.030352235, -0.020133972, 10.029959
1464895001783471, 6.2787666, 0.4331009, 7.8460655, 0.02840811, -0.031677723, 10.058301
1464895004193210, 6.290731, 0.44985065, 7.867601, 0.012266099, -0.03220606, 10.083334
1464895006602950, 6.2979093, 0.45702913, 7.8699937, 0.0055477023, -0.026850224, 10.090023
1464895009012690, 6.2691956, 0.45702913, 7.8460655, 0.0022241473, -0.03365326, 10.053421
1464895011422429, 6.2668023, 0.45942193, 7.826923, 7.722974E-4, -0.022625923, 10.037136
1464895013832169, 6.24766, 0.44506502, 7.7814593, 0.0155085325, -0.011187553, 9.989099
1464895016241908, 6.250053, 0.4354937, 7.7647095, 0.027089953, -0.0012869835, 9.977114
1464895018651648, 6.2548385, 0.4235296, 7.735996, 0.042863905, 0.018354893, 9.957201
1464895021061388, 6.245267, 0.41635114, 7.7312098, 0.048380494, 0.0124697685, 9.947152
1464895023471127, 6.2548385, 0.41156548, 7.728817, 0.055204093, 0.02093792, 9.951056
1464895025880867, 6.257231, 0.41635114, 7.7096744, 0.053280473, 0.035439968, 9.937872
1464895028290606, 6.2715883, 0.4331009, 7.7144604, 0.0394997, 0.04717827, 9.951358
1464895030700346, 6.2715883, 0.43788654, 7.728817, 0.03306067, 0.040160656, 9.962754
1464895033110085, 6.285945, 0.44745782, 7.726424, 0.02677834, 0.054913998, 9.970317
1464895035519825, 6.285945, 0.42592242, 7.745567, 0.045267284, 0.038410187, 9.984228
1464895037929565, 6.285945, 0.4354937, 7.769495, 0.03340012, 0.025779724, 10.003302
1464895040339304, 6.283552, 0.4211368, 7.769495, 0.04662341, 0.020670414, 10.0011425
1464895042749044, 6.2668023, 0.44027936, 7.7671022, 0.024824977, 0.013872623, 9.989682
1464895045158783, 6.2715883, 0.45224348, 7.7742805, 0.013071358, 0.015779972, 9.998818
1464895047568523, 6.2524457, 0.4354937, 7.7503524, 0.027546167, 0.012719631, 9.967436
1464895049978263, 6.24766, 0.4354937, 7.733603, 0.028406203, 0.019466877, 9.951399
1464895052388002, 6.245267, 0.43788654, 7.719246, 0.027178466, 0.027092934, 9.938833
1464895054797742, 6.250053, 0.42831525, 7.7312098, 0.035696328, 0.021686077, 9.950703
1464895057207481, 6.250053, 0.43788654, 7.726424, 0.026485026, 0.027066708, 9.947417
1464895059617221, 6.245267, 0.4354937, 7.728817, 0.0274809, 0.021425247, 9.946176
1464895062026960, 6.245267, 0.44985065, 7.719246, 0.014695704, 0.030811787, 9.939383
1464895064436700, 6.2380886, 0.43788654, 7.7383885, 0.021436453, 0.01079607, 9.949251
1464895066846440, 6.2285175, 0.43070808, 7.7623167, 0.022126675, -0.0134058, 9.961568
1464895069256179, 6.2404814, 0.44027936, 7.793423, 0.011763811, -0.02125597, 9.993713
1464895071665919, 6.235696, 0.42592242, 7.800602, 0.022224009, -0.033432484, 9.995655
1464895074075658, 6.2715883, 0.43070808, 7.8077803, 0.024621427, -0.009817123, 10.023926
1464895076485398, 6.2644095, 0.44985065, 7.826923, 0.0020242333, -0.02228117, 10.03521
1464895078895138, 6.2668023, 0.44745782, 7.8436728, 0.0011674762, -0.032081127, 10.049638
1464895081304877, 6.2787666, 0.4546363, 7.879565, -0.009100139, -0.044095993, 10.085393
1464895083714617, 6.2644095, 0.45702913, 7.877172, -0.014361501, -0.052727222, 10.074651
1464895086124356, 6.285945, 0.47856453, 7.8723865, -0.030716777, -0.02849102, 10.085379
1464895088534096, 6.3050876, 0.47138608, 7.874779, -0.019768596, -0.017491817, 10.098901
1464895090943835, 6.3074803, 0.44745782, 7.8699937, 0.0038486123, -0.018624306, 10.095592
1464895093353575, 6.317052, 0.46660042, 7.8580294, -0.010994852, 7.362366E-4, 10.093135
1464895095763315, 6.3218374, 0.47377887, 7.826923, -0.013415515, 0.025753975, 10.072239
1464895098173054, 6.3074803, 0.44745782, 7.800602, 0.012078524, 0.024578571, 10.041573
1464895100582794, 6.3218374, 0.43788654, 7.793423, 0.025442839, 0.037301064, 10.04454
1464895102992533, 6.3290157, 0.45702913, 7.7742805, 0.010906756, 0.059687138, 10.034994
1464895105402273, 6.3385873, 0.45702913, 7.783852, 0.011298895, 0.061329365, 10.048434
1464895107812013, 6.3481584, 0.48095736, 7.8053875, -0.012360454, 0.061138153, 10.07227
1464895110221752, 6.3290157, 0.48095736, 7.810173, -0.017152011, 0.043869495, 10.064013
1464895112631492, 6.326623, 0.48095736, 7.8197446, -0.018968225, 0.036170483, 10.069965
1464895115041231, 6.3361945, 0.4953143, 7.8221374, -0.030966878, 0.045364857, 10.078469
1464895117450971, 6.34098, 0.4881358, 7.8197446, -0.02292484, 0.048529148, 10.079278
1464895119860710, 6.3385873, 0.50488555, 7.8149586, -0.039112568, 0.05374098, 10.074808
1464895122270450, 6.326623, 0.5192425, 7.8197446, -0.055927813, 0.04536915, 10.071693
1464895124680190, 6.3074803, 0.51445687, 7.826923, -0.05588776, 0.025443554, 10.065084
1464895127089929, 6.3194447, 0.50488555, 7.836494, -0.04515177, 0.02621317, 10.079594
1464895129499669, 6.314659, 0.51445687, 7.838887, -0.055739522, 0.023447514, 10.078893
1464895131909408, 6.317052, 0.5168497, 7.8484583, -0.057941973, 0.02022791, 10.087953
1464895134319148, 6.326623, 0.5288138, 7.84128, -0.06594002, 0.035169125, 10.0889
1464895136728888, 6.3338017, 0.51445687, 7.8221374, -0.048847497, 0.048319817, 10.077838
1464895139138627, 6.34098, 0.52163535, 7.8029947, -0.052275598, 0.06718731, 10.067751
1464895141548367, 6.3314085, 0.51445687, 7.7910304, -0.045074284, 0.06624174, 10.052121
1464895143958106, 6.3290157, 0.50009996, 7.798209, -0.032556236, 0.056633472, 10.055562
1464895146367846, 6.3218374, 0.5096712, 7.7910304, -0.041799188, 0.05793333, 10.045917
1464895148777585, 6.300302, 0.51206404, 7.8029947, -0.049199224, 0.034656048, 10.041868
1464895151187325, 6.2931237, 0.50009996, 7.8197446, -0.040789187, 0.016206741, 10.049874
1464895153597065, 6.3050876, 0.4833502, 7.82453, -0.022565782, 0.018497944, 10.060327
1464895156006804, 6.2811594, 0.4881358, 7.8436728, -0.033513725, -0.010838032, 10.060478
1464895158416544, 6.2979093, 0.48095736, 7.853244, -0.024188757, -0.0056710243, 10.078087
1464895160826283, 6.2787666, 0.4977071, 7.867601, -0.045327306, -0.0254426, 10.07805
1464895163236023, 6.2787666, 0.4977071, 7.881958, -0.04637128, -0.034112453, 10.0892315
1464895165645763, 6.283552, 0.4953143, 7.8699937, -0.041848958, -0.023687363, 10.0828
1464895168055502, 6.283552, 0.4833502, 7.8699937, -0.029613972, -0.02573967, 10.082257
1464895170465242, 6.2883377, 0.4761717, 7.874779, -0.022152364, -0.026624203, 10.088652
1464895172874981, 6.285945, 0.4833502, 7.877172, -0.029255271, -0.027842522, 10.089349
1464895175284721, 6.2955165, 0.47856453, 7.8723865, -0.021683395, -0.018135548, 10.0913925
1464895177694460, 6.2979093, 0.4642076, 7.8604226, -0.006031513, -0.011958599, 10.082916
1464895180104200, 6.2931237, 0.4546363, 7.8556366, 0.0028557777, -0.014639854, 10.075757
1464895182513940, 6.300302, 0.48095736, 7.8556366, -0.021450043, -0.003633976, 10.081451
1464895184923679, 6.2979093, 0.47856453, 7.8628154, -0.019240737, -0.00965023, 10.08544
1464895187333419, 6.300302, 0.4761717, 7.879565, -0.01802653, -0.018778801, 10.099873
1464895189743158, 6.3074803, 0.45942193, 7.874779, 1.6731024E-4, -0.013883114, 10.099869
1464895192152898, 6.309873, 0.47138608, 7.881958, -0.011151493, -0.013755798, 10.107506
1464895194562638, 6.3290157, 0.46899325, 7.891529, -0.0060747266, -0.005707264, 10.126824
1464895196972377, 6.314659, 0.48095736, 7.8867435, -0.019501269, -0.011005402, 10.114667
1464895199382117, 6.3050876, 0.47856453, 7.8891363, -0.019221485, -0.020228386, 10.110434
1464895201791856, 6.317052, 0.4881358, 7.881958, -0.025587976, -0.0047855377, 10.112764
1464895204201596, 6.3122663, 0.48095736, 7.879565, -0.018531024, -0.00853157, 10.107578
1464895206611335, 6.300302, 0.4833502, 7.8699937, -0.021434844, -0.011318684, 10.092752
1464895209021075, 6.300302, 0.46899325, 7.8699937, -0.007404864, -0.014292717, 10.092092
1464895211430815, 6.3290157, 0.4833502, 7.881958, -0.017115533, 0.0029931068, 10.120031
1464895213840554, 6.3385873, 0.48095736, 7.874779, -0.011474729, 0.013862133, 10.120317
1464895216250294, 6.3338017, 0.48095736, 7.881958, -0.012287617, 0.005443096, 10.122917
1464895218660033, 6.3194447, 0.4953143, 7.877172, -0.028649569, 7.138252E-4, 10.110872
1464895221069773, 6.3218374, 0.49052864, 7.877172, -0.023509026, 0.0014724731, 10.112147
1464895223479513, 6.326623, 0.4761717, 7.879565, -0.0081448555, -3.9482117E-4, 10.116343
1464895225889252, 6.350551, 0.47377887, 7.8604226, 0.0017874837, 0.027945518, 10.116294
1464895228298992, 6.3361945, 0.485743, 7.8580294, -0.01250422, 0.021249771, 10.106004
1464895230708731, 6.3290157, 0.46181476, 7.8580294, 0.009363055, 0.010547638, 10.100403
1464895233118471, 6.3218374, 0.47377887, 7.8460655, -0.0019262433, 0.0139398575, 10.087152
1464895235528210, 6.317052, 0.4881358, 7.8317084, -0.014753461, 0.021172523, 10.07365
1464895237937950, 6.326623, 0.4642076, 7.8197446, 0.011775136, 0.030327797, 10.06921
1464895240347690, 6.309873, 0.45942193, 7.812566, 0.014183998, 0.019844055, 10.052917
1464895242757429, 6.2955165, 0.4642076, 7.8173513, 0.006061077, 0.0071730614, 10.04788
1464895245167169, 6.2931237, 0.4642076, 7.8293157, 0.004494071, -0.0032510757, 10.055698
1464895247576908, 6.300302, 0.46899325, 7.834101, 8.177161E-4, 2.913475E-4, 10.06414
1464895249986648, 6.300302, 0.45942193, 7.836494, 0.009856641, -0.0034008026, 10.065556
1464895252396388, 6.2811594, 0.46181476, 7.836494, 0.0036879778, -0.018094063, 10.053681
1464895254806075, 6.302695, 0.45702913, 7.826923, 0.013836443, 0.0021915436, 10.059492
1464895257215815, 6.3122663, 0.4426722, 7.8149586, 0.03112191, 0.0134243965, 10.055501
1464895259625606, 6.317052, 0.4331009, 7.812566, 0.041541576, 0.015713692, 10.05619
1464895262035346, 6.3194447, 0.44506502, 7.800602, 0.031751394, 0.027693748, 10.048935
1464895264445033, 6.314659, 0.4426722, 7.7910304, 0.034297884, 0.029262543, 10.038376
1464895266854773, 6.309873, 0.44027936, 7.7910304, 0.035063505, 0.024424553, 10.035273
1464895269264565, 6.302695, 0.44027936, 7.7886376, 0.03379649, 0.02052164, 10.028915
1464895271674252, 6.3122663, 0.44985065, 7.7910304, 0.025644898, 0.027691841, 10.03722
1464895274084044, 6.3050876, 0.44027936, 7.783852, 0.03436464, 0.02423954, 10.026691
1464895276493731, 6.302695, 0.42592242, 7.769495, 0.04860866, 0.026973724, 10.013357
1464895278903471, 6.2931237, 0.43788654, 7.769495, 0.034921825, 0.022749424, 10.00792
1464895281313210, 6.283552, 0.4426722, 7.7790666, 0.026062071, 0.0099077225, 10.0096
1464895283722950, 6.2955165, 0.4642076, 7.769495, 0.00791806, 0.029067993, 10.0106535
1464895286132690, 6.3074803, 0.44985065, 7.7742805, 0.02378267, 0.031606674, 10.021206
1464895288542429, 6.2955165, 0.44506502, 7.783852, 0.024694681, 0.015583038, 10.020935
1464895290952169, 6.2811594, 0.4546363, 7.7886376, 0.010834098, 0.0033230782, 10.0161085
1464895293361908, 6.2883377, 0.46660042, 7.786245, 1.617074E-4, 0.012410641, 10.0192995
1464895295771648, 6.2979093, 0.4546363, 7.769495, 0.015483379, 0.027191639, 10.011715
1464895298181388, 6.317052, 0.46181476, 7.759924, 0.012848556, 0.048914433, 10.016602
1464895300591127, 6.3218374, 0.46660042, 7.757531, 0.009461284, 0.05509615, 10.01796
1464895303000867, 6.300302, 0.47377887, 7.7383885, 1.0472536E-4, 0.052432537, 9.989904
1464895305410606, 6.300302, 0.47856453, 7.7240314, -0.0036572218, 0.06217146, 9.978958
1464895307820346, 6.302695, 0.47377887, 7.7240314, 0.001491785, 0.06286478, 9.980237
1464895310230085, 6.300302, 0.4881358, 7.7144604, -0.012356341, 0.07006502, 9.971958
1464895312639825, 6.290731, 0.49052864, 7.726424, -0.01830399, 0.055832386, 9.975373
1464895315049565, 6.2811594, 0.485743, 7.728817, -0.015754163, 0.046112537, 9.971014
1464895317459304, 6.290731, 0.5024927, 7.728817, -0.030005991, 0.057211876, 9.977785
1464895319869044, 6.300302, 0.49292147, 7.7383885, -0.019928694, 0.05602169, 9.990792
1464895322278783, 6.302695, 0.49292147, 7.735996, -0.019156694, 0.05929613, 9.990431
1464895324688523, 6.283552, 0.485743, 7.735996, -0.01608783, 0.0426383, 9.978102
1464895327098263, 6.2644095, 0.48095736, 7.735996, -0.015508115, 0.027157784, 9.965881
1464895329508002, 6.290731, 0.47856453, 7.752745, -0.009499311, 0.035968304, 9.995298
1464895331917742, 6.276374, 0.47377887, 7.769495, -0.009806573, 0.013719559, 9.999105
1464895334327481, 6.2548385, 0.45942193, 7.786245, -0.002239287, -0.01654625, 9.997969
1464895336737221, 6.2548385, 0.45942193, 7.800602, -0.0034918785, -0.02566433, 10.009135
1464895339146960, 6.2691956, 0.4426722, 7.7910304, 0.016795397, -0.012775421, 10.009919
1464895341556700, 6.283552, 0.4546363, 7.7910304, 0.008120537, 7.4243546E-4, 10.019471
1464895343966440, 6.2787666, 0.4426722, 7.795816, 0.018449306, -0.008190632, 10.019642
1464895346376179, 6.273981, 0.4354937, 7.800602, 0.024065971, -0.016138077, 10.020033
1464895348785919, 6.2668023, 0.45702913, 7.800602, 0.0016410351, -0.016517162, 10.016527
1464895351195658, 6.276374, 0.46181476, 7.8077803, -0.0018011332, -0.012661934, 10.028331
1464895353605398, 6.290731, 0.4546363, 7.8029947, 0.009003282, -1.06334686E-4, 10.0332775
1464895356015138, 6.2979093, 0.4546363, 7.8029947, 0.011043906, 0.005677223, 10.037775
1464895358424877, 6.3074803, 0.46660042, 7.798209, 0.0019776225, 0.018617153, 10.040605
1464895360834617, 6.300302, 0.4642076, 7.776674, 0.0052016973, 0.02599001, 10.019243
1464895363244356, 6.309873, 0.46899325, 7.786245, 0.0021100044, 0.028522015, 10.0329075
1464895365654096, 6.300302, 0.47377887, 7.7790666, -0.0029685497, 0.02682066, 10.021549
1464895368063835, 6.2955165, 0.47138608, 7.7910304, -0.002965033, 0.015277386, 10.027745
1464895370473575, 6.2931237, 0.48095736, 7.776674, -0.010289669, 0.024511814, 10.015522
1464895372883315, 6.290731, 0.49052864, 7.783852, -0.020896196, 0.020530224, 10.02005
1464895375293054, 6.3074803, 0.4881358, 7.7814593, -0.013533652, 0.034163475, 10.028577
1464895377702794, 6.2955165, 0.485743, 7.793423, -0.015257001, 0.017247677, 10.030273
1464895380112533, 6.317052, 0.485743, 7.793423, -0.010537863, 0.033352375, 10.04377
1464895382522273, 6.302695, 0.50009996, 7.8029947, -0.027766585, 0.020237446, 10.042889
1464895384931960, 6.302695, 0.5096712, 7.795816, -0.03520012, 0.027037144, 10.037754
1464895387341752, 6.290731, 0.48095736, 7.8053875, -0.011186779, 0.005113125, 10.03636
1464895389751440, 6.2883377, 0.4833502, 7.8077803, -0.013209283, 0.0024261475, 10.036836
1464895392161179, 6.2883377, 0.48095736, 7.826923, -0.01317668, -0.009973049, 10.051615
1464895394570919, 6.2931237, 0.4881358, 7.834101, -0.019088805, -0.008915424, 10.060536
1464895396980658, 6.2787666, 0.48095736, 7.834101, -0.015120447, -0.021543503, 10.051203
1464895399390398, 6.2715883, 0.4833502, 7.838887, -0.018703878, -0.028952122, 10.050543
1464895401800138, 6.2787666, 0.4881358, 7.8293157, -0.020722449, -0.016520977, 10.047819
1464895404209877, 6.276374, 0.48095736, 7.826923, -0.013325691, -0.017996788, 10.044125
1464895406619617, 6.285945, 0.46660042, 7.8221374, 0.0032225847, -0.011269569, 10.045723
1464895409029356, 6.2715883, 0.46660042, 7.8053875, 0.002055645, -0.01168251, 10.023697
1464895411439096, 6.2691956, 0.46660042, 7.8029947, 0.0024366379, -0.011627674, 10.020336
1464895413848835, 6.300302, 0.46899325, 7.793423, 0.008159578, 0.018295765, 10.032488
1464895416258575, 6.2931237, 0.47377887, 7.7910304, 0.0022469163, 0.015542507, 10.026356
1464895418668315, 6.290731, 0.45702913, 7.783852, 0.018798292, 0.014172554, 10.018482
1464895421078054, 6.314659, 0.4546363, 7.786245, 0.026186764, 0.029890537, 10.035221
1464895423487794, 6.300302, 0.45224348, 7.798209, 0.024042487, 0.011172295, 10.035423
1464895425897533, 6.3074803, 0.43788654, 7.7742805, 0.041905463, 0.02791214, 10.020626
1464895428307273, 6.285945, 0.45942193, 7.7742805, 0.016177475, 0.016214848, 10.008151
1464895430717013, 6.2811594, 0.4546363, 7.7886376, 0.018276751, 0.002635479, 10.016096
1464895433126752, 6.290731, 0.46181476, 7.795816, 0.012508869, 0.0070319176, 10.028016
1464895435536492, 6.2955165, 0.44506502, 7.810173, 0.02775371, -0.0022330284, 10.041396
1464895437946231, 6.2883377, 0.45224348, 7.8173513, 0.018592298, -0.010517597, 10.04282
1464895440355971, 6.2883377, 0.4642076, 7.826923, 0.0053804517, -0.013872623, 10.050831
1464895442765710, 6.290731, 0.45702913, 7.8293157, 0.012610018, -0.015128136, 10.053854
1464895445175450, 6.2787666, 0.45224348, 7.8293157, 0.014178336, -0.02491808, 10.046134
1464895447585190, 6.262017, 0.44027936, 7.84128, 0.02126658, -0.04757929, 10.044384
1464895449994929, 6.2524457, 0.44506502, 7.836494, 0.014613092, -0.05009556, 10.034892
1464895452404669, 6.250053, 0.43788654, 7.8556366, 0.018479407, -0.06423712, 10.047958
1464895454814408, 6.2644095, 0.4354937, 7.826923, 0.025867403, -0.034680843, 10.034506
1464895457224148, 6.273981, 0.43788654, 7.812566, 0.026901543, -0.018045425, 10.029441
1464895459633888, 6.2811594, 0.4354937, 7.810173, 0.03090614, -0.011674881, 10.031963
1464895462043627, 6.2979093, 0.4642076, 7.826923, 0.0036168694, -0.0019578934, 10.056831
1464895464453367, 6.2931237, 0.4331009, 7.8460655, 0.031030536, -0.024233818, 10.067283
1464895466863106, 6.273981, 0.44027936, 7.84128, 0.020828307, -0.03405428, 10.051904
1464895469272794, 6.257231, 0.4426722, 7.8556366, 0.012944281, -0.05417967, 10.052702
1464895471682585, 6.257231, 0.4426722, 7.8556366, 0.011980236, -0.05323553, 10.052709
1464895474092273, 6.2668023, 0.45702913, 7.877172, -0.0025418997, -0.056255817, 10.076129
1464895476502065, 6.2668023, 0.44985065, 7.8891363, 0.003222227, -0.065246105, 10.085108
1464895478911752, 6.262017, 0.45702913, 7.8891363, -0.0055816174, -0.066223145, 10.08245
1464895481321492, 6.2668023, 0.55752766, 7.908279, -0.10451859, -0.052344322, 10.104992
1464895483731231, 6.257231, 0.16510476, 7.891529, 0.27695888, -0.13455915, 10.067851
1464895486140971, 6.3792653, 0.8757731, 7.958528, -0.39725518, 0.07766724, 10.229191
1464895488550710, 6.2380886, 0.4426722, 7.8987074, 8.790493E-4, -0.09137392, 10.074272
1464895490960450, 6.242874, -0.06460621, 7.8556366, 0.499972, -0.1775198, 10.020338
1464895493370190, 6.4606214, 1.3208381, 8.04467, -0.8220379, 0.18884277, 10.367716
1464895495779929, 6.1734824, -0.047856454, 7.8053875, 0.47195, -0.19261646, 9.938734
1464895498189669, 6.3074803, 0.21535404, 7.8987074, 0.23356783, -0.08918095, 10.107313
1464895500599408, 6.4366927, 1.3782659, 8.04467, -0.88462585, 0.18435192, 10.355232
1464895503009148, 6.1208405, -0.40677986, 7.719246, 0.8211841, -0.26071882, 9.822149
1464895505418888, 6.3888364, 0.7298109, 7.9274216, -0.2474904, 0.07205677, 10.204286
1464895507828627, 6.3361945, 1.0839486, 7.975278, -0.6065427, 0.093152046, 10.225008
1464895510238367, 6.1328044, -0.57427746, 7.6259255, 0.99674714, -0.24731207, 9.748905
1464895512648106, 6.4534426, 1.1964114, 7.920243, -0.6861788, 0.24361229, 10.260527
1464895515057846, 6.2261243, 0.5838487, 7.8604226, -0.13736057, -0.038477898, 10.043476
1464895517467585, 6.178268, -0.35413775, 7.645068, 0.7857756, -0.17302561, 9.802862
1464895519877325, 6.491728, 1.5050855, 7.9513497, -0.97715175, 0.330256, 10.3231735
1464895522287065, 6.1639113, 0.043070808, 7.7216387, 0.3935179, -0.1334076, 9.871511
1464895524696804, 6.290731, 0.05503492, 7.8053875, 0.40128857, -0.08806658, 10.016566
1464895527106544, 6.463014, 1.4931214, 7.9226356, -0.96483773, 0.3289256, 10.282461
1464895529516283, 6.128019, -0.39481574, 7.6067834, 0.8189931, -0.20421839, 9.739567
1464895531926023, 6.3792653, 0.6053841, 7.8723865, -0.1237461, 0.073541164, 10.149641
1464895534335763, 6.3696938, 1.2466606, 7.905886, -0.75007594, 0.2069869, 10.199251
1464895536745502, 6.1232333, -0.5910272, 7.515856, 1.0198264, -0.20065117, 9.65666
1464895539155242, 6.4558353, 1.0671989, 7.881958, -0.5536889, 0.23967361, 10.226337
1464895541564929, 6.2548385, 0.7704889, 7.867601, -0.3054418, 0.021771908, 10.075813
1464895543974669, 6.142376, -0.49292147, 7.5349984, 0.93064374, -0.17941475, 9.687603
1464895546384408, 6.4701924, 1.4045869, 7.908279, -0.8759421, 0.3213787, 10.271639
1464895548794148, 6.1591253, 0.16271193, 7.7383885, 0.26950896, -0.12481308, 9.887153
1464895551203888, 6.2237315, -0.12921242, 7.6953177, 0.5715127, -0.12532854, 9.880645
1464895553613627, 6.439086, 1.5266209, 7.877172, -0.99790096, 0.3478799, 10.233545
1464895556023367, 6.0801625, -0.33020952, 7.6402826, 0.7424992, -0.25097942, 9.738433
1464895558433106, 6.2955165, 0.39960137, 7.8293157, 0.06327969, -0.019290447, 10.054205
1464895560842846, 6.352944, 1.3447664, 7.8723865, -0.83921736, 0.23930359, 10.167655
1464895563252585, 6.094519, -0.567099, 7.5661054, 0.9806239, -0.25727034, 9.678992
1464895565662325, 6.4151573, 0.9284152, 7.905886, -0.43216264, 0.15938854, 10.213082
1464895568072065, 6.2787666, 0.9284152, 7.905886, -0.4647916, 0.045909405, 10.127672
1464895570481804, 6.13759, -0.5312066, 7.5493555, 0.9613237, -0.181324, 9.694738
1464895572891544, 6.513263, 1.3615161, 7.960921, -0.8397495, 0.28824997, 10.337519
1464895575301283, 6.2213387, 0.35413775, 7.800602, 0.09415209, -0.06834555, 9.983303
1464895577711023, 6.2309103, -0.24885355, 7.652247, 0.69763297, -0.11967659, 9.845915
1464895580120763, 6.503692, 1.550549, 7.920243, -1.0163262, 0.36642027, 10.308505
1464895582530502, 6.1567326, -0.21774685, 7.6713896, 0.6421959, -0.17935705, 9.816233
1464895584940242, 6.3314085, 0.23449662, 7.8197446, 0.2268334, -0.024504185, 10.061714
1464895587349981, 6.424729, 1.4333007, 7.9298143, -0.9295406, 0.2603922, 10.260682
1464895589759721, 6.1304116, -0.5455636, 7.635497, 0.9623382, -0.24556017, 9.7567425
1464895592169460, 6.4366927, 0.74177504, 7.941778, -0.2540217, 0.09805775, 10.245923
1464895594579200, 6.350551, 1.0648061, 7.9513497, -0.5864759, 0.106098175, 10.214308
1464895596988888, 6.15434, -0.567099, 7.587641, 0.9915689, -0.20735264, 9.733631
1464895599398679, 6.515656, 1.2251252, 7.9944205, -0.7156976, 0.24335623, 10.358282
1464895601808367, 6.242874, 0.48095736, 7.8987074, -0.041758537, -0.08092642, 10.078992
1464895604218106, 6.1974106, -0.40677986, 7.7001033, 0.82839954, -0.20886135, 9.855711
1464895606627846, 6.5108705, 1.4739788, 8.013563, -0.96203816, 0.29307175, 10.381223
1464895609037585, 6.1998034, -0.12203395, 7.8029947, 0.54464924, -0.20062208, 9.94999
1464895611447325, 6.2955165, -0.011964113, 7.881958, 0.4504007, -0.15067291, 10.076377
1464895613857065, 6.4271216, 1.4596218, 7.984849, -0.95861673, 0.24343109, 10.306211
1464895616266804, 6.13759, -0.53599226, 7.7072816, 0.93699414, -0.2947631, 9.818078
1464895618676544, 6.4175506, 0.5407779, 7.948957, -0.07126498, 0.036584854, 10.230196
1464895621086283, 6.3481584, 1.1365907, 7.987242, -0.6675345, 0.11114979, 10.243487
1464895623496023, 6.101698, -0.66999036, 7.5900335, 1.073448, -0.2826934, 9.698248
1464895625905763, 6.458228, 1.0313065, 7.975278, -0.53459775, 0.17289257, 10.298626
1464895628315502, 6.2380886, 0.5910272, 7.9106717, -0.14978015, -0.06168413, 10.09037
1464895630725242, 6.1184473, -0.5240282, 7.5996046, 0.94016534, -0.23771477, 9.722324
1464895633134981, 6.463014, 1.3878372, 7.946564, -0.87651724, 0.28382874, 10.295423
1464895635544721, 6.1471615, 0.009571291, 7.7647095, 0.40694213, -0.17976093, 9.893457
1464895637954460, 6.216553, -0.13160525, 7.7479596, 0.5607194, -0.15144062, 9.91748
1464895640364200, 6.4366927, 1.524228, 7.9106717, -1.0128338, 0.3106799, 10.257226
1464895642773940, 6.101698, -0.43070808, 7.6546397, 0.8404837, -0.25201416, 9.75909
1464895645183679, 6.35773, 0.36610186, 7.8484583, 0.10060477, 0.0097641945, 10.106574
1464895647593419, 6.3888364, 1.2897314, 7.8987074, -0.7898356, 0.24119902, 10.207262
1464895650003158, 6.0921264, -0.62931234, 7.539784, 1.0431895, -0.25637484, 9.6542425
1464895652412846, 6.4701924, 0.92602235, 7.881958, -0.41854215, 0.2174778, 10.228573
1464895654822585, 6.285945, 0.81834537, 7.874779, -0.35690087, 0.05605793, 10.102694
1464895657232325, 6.1471615, -0.526421, 7.5062847, 0.9596763, -0.14661264, 9.66781
1464895659642065, 6.506085, 1.3710874, 7.9011, -0.84639424, 0.32414818, 10.286638
1464895662051804, 6.218946, 0.21296121, 7.7479596, 0.23456222, -0.0690403, 9.93437
1464895664461544, 6.216553, -0.22253251, 7.647461, 0.6657254, -0.12510014, 9.834625
1464895666871283, 6.4773707, 1.5696917, 7.867601, -1.0336306, 0.38987398, 10.251781
1464895669281023, 6.151947, -0.2727818, 7.6307116, 0.7015953, -0.17757797, 9.778796
1464895671690763, 6.34098, 0.25842485, 7.783852, 0.20747542, 0.004477024, 10.04092
1464895674100502, 6.4151573, 1.4476577, 7.867601, -0.934681, 0.31249094, 10.206755
1464895676510242, 6.1232333, -0.55752766, 7.5349984, 0.9788898, -0.21439743, 9.673513
1464895678919981, 6.4773707, 0.80159557, 7.8604226, -0.2907083, 0.19470596, 10.210911
1464895681329721, 6.3481584, 1.0289137, 7.8891363, -0.5431415, 0.13854074, 10.162777
1464895683739460, 6.1639113, -0.53599226, 7.501499, 0.9715164, -0.15777731, 9.673925
1464895686149200, 6.5228343, 1.3112668, 7.9106717, -0.78332126, 0.32705545, 10.301697
1464895688558940, 6.257231, 0.40438703, 7.8029947, 0.046357572, -0.035033226, 10.009986
1464895690968679, 6.206982, -0.30149564, 7.594819, 0.7399123, -0.123603344, 9.78448
1464895693378419, 6.503692, 1.579263, 7.8723865, -1.0446692, 0.4056263, 10.271839
1464895695788158, 6.1734824, -0.12921242, 7.6570325, 0.56264853, -0.13842726, 9.81952
1464895698197898, 6.326623, 0.10767702, 7.757531, 0.35482883, -0.027720928, 10.004517
1464895700607585, 6.4366927, 1.5218352, 7.865208, -1.0021307, 0.33463907, 10.222146
1464895703017325, 6.1208405, -0.4953143, 7.568498, 0.917375, -0.21341658, 9.700778
1464895705427065, 6.4343, 0.5982057, 7.865208, -0.11276966, 0.10865736, 10.178165
1464895707836804, 6.364908, 1.160519, 7.920243, -0.6785318, 0.16642618, 10.202991
1464895710246544, 6.1232333, -0.57906306, 7.5254273, 0.99630785, -0.21428728, 9.665548
1464895712656283, 6.4797635, 1.1437693, 7.9369926, -0.6352399, 0.23687792, 10.287457
1464895715066023, 6.2404814, 0.59581286, 7.891529, -0.15425688, -0.05293417, 10.077116
1464895717475763, 6.142376, -0.38285163, 7.6331043, 0.7986948, -0.21658087, 9.770098
1464895719885502, 6.489335, 1.5337993, 7.972885, -1.0161864, 0.32380962, 10.338927
1464895722295242, 6.1854467, 0.009571291, 7.786245, 0.410173, -0.17821789, 9.934054
1464895724704981, 6.2644095, -0.019142581, 7.8053875, 0.45355517, -0.12980938, 9.997235
1464895727114721, 6.45105, 1.5696917, 7.925029, -1.0593781, 0.32311726, 10.279075
1464895729524460, 6.1160545, -0.39720857, 7.668997, 0.80377823, -0.24882412, 9.7810755
1464895731934200, 6.3888364, 0.50009996, 7.9130645, -0.035235703, 0.023392677, 10.182443
1464895734343940, 6.3744793, 1.3328022, 7.9704924, -0.8459313, 0.19314194, 10.256033
1464895736753679, 6.1040907, -0.5599205, 7.594819, 0.9667383, -0.26594782, 9.708213
1464895739163419, 6.474978, 1.0049855, 7.9776707, -0.51170945, 0.18130398, 10.309406
1464895741573158, 6.2931237, 0.7920243, 7.944171, -0.34363323, 0.011227608, 10.159842
1464895743982898, 6.1399827, -0.4642076, 7.609176, 0.87528574, -0.22177982, 9.74675
1464895746392585, 6.501299, 1.4620147, 7.9920278, -0.9495371, 0.2960329, 10.357975
1464895748802325, 6.209375, 0.18664017, 7.8436728, 0.24003458, -0.1420188, 10.001829
1464895751212065, 6.2380886, -0.12203395, 7.7814593, 0.5533408, -0.15757656, 9.957346
1464895753621804, 6.4845495, 1.6175481, 7.9561353, -1.0990039, 0.34317112, 10.326682
1464895756031544, 6.15434, -0.3062813, 7.7216387, 0.7147417, -0.2330308, 9.850292
1464895758441283, 6.3792653, 0.34217364, 7.908279, 0.11496383, -0.016777515, 10.165604
1464895760851023, 6.407979, 1.4237294, 7.9537425, -0.9298918, 0.2487731, 10.26765
1464895763260763, 6.113662, -0.55752766, 7.5828547, 0.9678764, -0.24158049, 9.705269
1464895765670502, 6.4701924, 0.8542377, 7.9298143, -0.3624708, 0.16105318, 10.262444
1464895768080242, 6.317052, 0.9451649, 7.948957, -0.48066473, 0.054445267, 10.185795
1464895770489981, 6.135197, -0.5407779, 7.5732837, 0.96533775, -0.20326185, 9.711567
1464895772899721, 6.5204415, 1.3064811, 7.960921, -0.7917313, 0.28595877, 10.338797
1464895775309460, 6.250053, 0.31585258, 7.8556366, 0.12075502, -0.08831072, 10.042489
1464895777719200, 6.218946, -0.30149564, 7.685746, 0.7320319, -0.15914726, 9.862844
1464895780128940, 6.5252275, 1.5529419, 7.91785, -1.0238178, 0.3842826, 10.319241
1464895782538679, 6.1974106, -0.24646074, 7.678568, 0.6791422, -0.15728712, 9.845969
1464895784948367, 6.3457656, 0.15553348, 7.8029947, 0.31033695, -0.01967287, 10.054002
1464895787358106, 6.422336, 1.4739788, 7.879565, -0.9639857, 0.29316664, 10.2221
1464895789767846, 6.099305, -0.55513483, 7.5732837, 0.9753221, -0.22600174, 9.688239
1464895792177585, 6.4295144, 0.6771688, 7.891529, -0.19372463, 0.10938072, 10.199213
1464895794587325, 6.314659, 1.0648061, 7.9393854, -0.5994761, 0.08274269, 10.182159
1464895796997065, 6.0801625, -0.5982057, 7.537391, 1.0081971, -0.24709558, 9.646812
1464895799406804, 6.4845495, 1.1820544, 7.9776707, -0.6783105, 0.22643805, 10.323687
1464895801816544, 6.24766, 0.50009996, 7.874779, -0.053569615, -0.05722475, 10.064261
1464895804226283, 6.1734824, -0.37806597, 7.652247, 0.80592746, -0.19642496, 9.804265
1464895806636023, 6.4797635, 1.5218352, 7.972885, -1.0028611, 0.31404448, 10.332757
1464895809045763, 6.15434, -0.09332009, 7.7647095, 0.50712675, -0.20663595, 9.893203
1464895811455502, 6.259624, -0.014356935, 7.826923, 0.44673264, -0.14634705, 10.011137
1464895813865242, 6.431907, 1.5074782, 7.9346, -0.9987175, 0.30079365, 10.271898
1464895816274981, 6.113662, -0.5240282, 7.661818, 0.9291926, -0.28405952, 9.767847
1464895818684721, 6.3888364, 0.47377887, 7.9226356, -0.0017867088, 0.0145254135, 10.1887
1464895821094408, 6.317052, 1.1557333, 7.9704924, -0.68284607, 0.1045413, 10.212364
1464895823504148, 6.058627, -0.6412765, 7.609176, 1.0400314, -0.3220229, 9.686711
1464895825913888, 6.4534426, 1.0217353, 8.037491, -0.53493136, 0.13537884, 10.343484
1464895828323627, 6.2380886, 0.6412765, 7.9920278, -0.21355653, -0.09504986, 10.155927
1464895830733367, 6.1232333, -0.48095736, 7.692925, 0.88109833, -0.2883401, 9.800353
1464895833143106, 6.4797635, 1.442872, 8.066205, -0.9365622, 0.24606276, 10.401691
1464895835552846, 6.1878395, 0.0526421, 7.8891363, 0.36109537, -0.22140837, 10.017544
1464895837962585, 6.2309103, -0.14117654, 7.8556366, 0.5630443, -0.21858883, 10.009514
1464895840372325, 6.4295144, 1.5672989, 8.015956, -1.0617934, 0.26798916, 10.336893
1464895842782065, 6.1160545, -0.37806597, 7.735996, 0.7807606, -0.2912922, 9.833627
1464895845191804, 6.3481584, 0.36131623, 7.9561353, 0.088210106, -0.064733505, 10.184195
1464895847601544, 6.367301, 1.3375878, 7.9920278, -0.8517034, 0.18865728, 10.268555
1464895850011283, 6.096912, -0.5910272, 7.6139617, 0.9912095, -0.29638577, 9.717188
1464895852421023, 6.4462643, 0.9236295, 7.975278, -0.43239087, 0.14687109, 10.286106
1464895854830763, 6.2715883, 0.8422736, 7.958528, -0.38833547, 0.0040655136, 10.160196
1464895857240450, 6.0921264, -0.5096712, 7.5828547, 0.9207624, -0.25915718, 9.693218
1464895859650190, 6.4845495, 1.39023, 7.982456, -0.87674046, 0.27751493, 10.337118
1464895862059929, 6.195018, 0.2416751, 7.826923, 0.18628973, -0.12844658, 9.982294
1464895864469669, 6.1806607, -0.23449662, 7.704889, 0.6548811, -0.19573355, 9.856659
1464895866879408, 6.465407, 1.5960127, 7.944171, -1.0676997, 0.3579464, 10.304875
1464895869289148, 6.1304116, -0.2536392, 7.7001033, 0.6658735, -0.236135, 9.82032
1464895871698888, 6.314659, 0.21774685, 7.834101, 0.23786378, -0.05530739, 10.061601
1464895874108627, 6.4055862, 1.4763715, 7.9034934, -0.96497715, 0.28507042, 10.230541
1464895876518367, 6.099305, -0.53359944, 7.5517483, 0.9550659, -0.22412682, 9.672268
1464895878928106, 6.439086, 0.7513463, 7.874779, -0.25719696, 0.14960861, 10.195584
1464895881337846, 6.3194447, 1.038485, 7.879565, -0.5621005, 0.12850142, 10.137499
1464895883747585, 6.1040907, -0.53359944, 7.4847493, 0.9588597, -0.18014526, 9.623631
1464895886157325, 6.4797635, 1.2897314, 7.9034934, -0.7672226, 0.29842424, 10.268312
1464895888567013, 6.242874, 0.4426722, 7.7790666, 0.013235509, -0.016588211, 9.98413
1464895890976752, 6.1902323, -0.2847459, 7.5661054, 0.7292578, -0.11011648, 9.752029
1464895893386492, 6.472585, 1.6199409, 7.850851, -1.0826863, 0.40892363, 10.23792
1464895895796231, 6.15434, -0.08135597, 7.6426754, 0.5099897, -0.13375664, 9.798726
1464895898205971, 6.3050876, 0.124426775, 7.726424, 0.33510387, -0.01993084, 9.967676
1464895900615710, 6.4343, 1.5768701, 7.84128, -1.0519824, 0.37959528, 10.204002
1464895903025450, 6.111269, -0.46899325, 7.5469627, 0.88866925, -0.20760345, 9.679432
1464895905435190, 6.4008007, 0.59342, 7.84128, -0.10825813, 0.10012007, 10.13836
1464895907844929, 6.3481584, 1.1940185, 7.893922, -0.7044589, 0.17766285, 10.174035
1464895910254669, 6.096912, -0.5694918, 7.5182486, 0.98533994, -0.22328043, 9.643648
1464895912664408, 6.4701924, 1.134198, 7.944171, -0.6301977, 0.22401524, 10.28651
1464895915074148, 6.257231, 0.62452674, 7.874779, -0.17988509, -0.017877579, 10.075835
1464895917483888, 6.135197, -0.39720857, 7.5900335, 0.8128911, -0.207057, 9.731565
1464895919893627, 6.4797635, 1.5314065, 7.9298143, -1.0043046, 0.35506153, 10.299505
1464895922303315, 6.1567326, 0.02871387, 7.7479596, 0.39047682, -0.1740818, 9.887076
1464895924713054, 6.2404814, -0.016749758, 7.7671022, 0.45358413, -0.12962008, 9.952349
1464895927122794, 6.4295144, 1.6127625, 7.925029, -1.0978608, 0.32790947, 10.268055
1464895929532533, 6.099305, -0.38763726, 7.6737823, 0.7917258, -0.27166557, 9.77436
1464895931942273, 6.3768725, 0.46660042, 7.9130645, -0.0062446, 0.0069646835, 10.173431
1464895934352013, 6.343373, 1.3495519, 7.9537425, -0.87177396, 0.18215132, 10.223919
1464895936761752, 6.0825553, -0.5383851, 7.5756764, 0.93808365, -0.27178907, 9.681133
1464895939171492, 6.465407, 0.997807, 7.975278, -0.50014895, 0.17567492, 10.301512
1464895941581231, 6.314659, 0.8135597, 7.9657063, -0.3567629, 0.020606518, 10.19125
1464895943990971, 6.15434, -0.4546363, 7.6019974, 0.87590086, -0.20859194, 9.749989
1464895946400710, 6.5276203, 1.442872, 7.984849, -0.9190613, 0.3323474, 10.36795
1464895948810450, 6.2309103, 0.17228323, 7.8173513, 0.25546825, -0.11809206, 9.994285
1464895951220190, 6.242874, -0.16031912, 7.7479596, 0.58789444, -0.15409708, 9.93281
1464895953629929, 6.4677997, 1.605584, 7.946564, -1.0877358, 0.35598373, 10.307684
1464895956039617, 6.1232333, -0.3278167, 7.7001033, 0.72899485, -0.26509476, 9.812815
1464895958449356, 6.343373, 0.30867413, 7.891529, 0.14685047, -0.04674816, 10.128483
1464895960859096, 6.381658, 1.4237294, 7.944171, -0.9232514, 0.2516508, 10.24435
1464895963268835, 6.087341, -0.552742, 7.6019974, 0.9532366, -0.29275894, 9.703466
1464895965678575, 6.448657, 0.8422736, 7.9513497, -0.35332197, 0.14066172, 10.265182
1464895968088315, 6.317052, 0.9667004, 7.960921, -0.505492, 0.0707593, 10.195851
1464895970498054, 6.1040907, -0.5192425, 7.5900335, 0.92287207, -0.26286983, 9.706563
1464895972907794, 6.472585, 1.3280165, 7.999206, -0.8209648, 0.2606926, 10.339407
1464895975317533, 6.209375, 0.35653058, 7.884351, 0.07159102, -0.12881613, 10.041152
1464895977727273, 6.1639113, -0.27996024, 7.733603, 0.69360507, -0.24101353, 9.866187
1464895980137013, 6.439086, 1.6079768, 7.9944205, -1.0921414, 0.31009674, 10.328081
1464895982546752, 6.108876, -0.17706887, 7.7790666, 0.57595146, -0.2824111, 9.871784
1464895984956440, 6.2644095, 0.14596218, 7.891529, 0.28663254, -0.1495781, 10.071537
1464895987366179, 6.3744793, 1.5146568, 7.941778, -1.0086876, 0.27577066, 10.24239
1464895989775919, 6.0634127, -0.4881358, 7.628319, 0.8835132, -0.31087446, 9.711708
1464895992185658, 6.3888364, 0.6939186, 7.9393854, -0.21117747, 0.062535286, 10.211959
1464895994595398, 6.2955165, 1.1030912, 7.946564, -0.62783384, 0.10040712, 10.178113
1464895997005138, 6.084948, -0.57188463, 7.54457, 0.9923355, -0.24099827, 9.65564
1464895999414877, 6.4701924, 1.1964114, 7.9561353, -0.68517786, 0.23369074, 10.299068
1464896001824617, 6.24766, 0.5192425, 7.884351, -0.070768416, -0.05691576, 10.072618
1464896004234356, 6.1495543, -0.40438703, 7.609176, 0.833269, -0.19038963, 9.754461
1464896006644096, 6.472585, 1.5266209, 7.932207, -0.9919511, 0.36253977, 10.297058
1464896009053835, 6.166304, -0.06460621, 7.7312098, 0.49328625, -0.18377447, 9.875322
1464896011463523, 6.2811594, -0.009571291, 7.7551384, 0.46513438, -0.09813166, 9.968412
1464896013873263, 6.4271216, 1.5553347, 7.874779, -1.0164055, 0.36758327, 10.225992
1464896016283002, 6.0801625, -0.44985065, 7.6139617, 0.85642266, -0.2808056, 9.712406
1464896018692742, 6.3696938, 0.5240282, 7.884351, -0.046425104, 0.034493446, 10.149248
1464896021102481, 6.314659, 1.2490535, 7.9369926, -0.76348686, 0.15970325, 10.189332
1464896023512221, 6.070591, -0.56470615, 7.5613194, 0.9725659, -0.2882347, 9.659999
1464896025921960, 6.4534426, 1.0671989, 7.958528, -0.5553125, 0.1886425, 10.284944
1464896028331700, 6.257231, 0.71306115, 7.925029, -0.25476956, -0.02883339, 10.119375
1464896030741440, 6.1184473, -0.4331009, 7.5996046, 0.8602634, -0.22974157, 9.725438
1464896033151179, 6.4821568, 1.5074782, 7.9633136, -0.9759331, 0.3217411, 10.327112
1464896035560919, 6.204589, 0.13160525, 7.7814593, 0.30676997, -0.13001728, 9.947579
1464896037970658, 6.250053, -0.086141616, 7.743174, 0.5321928, -0.12915277, 9.936167
1464896040380346, 6.474978, 1.6390835, 7.908279, -1.0981869, 0.38306522, 10.285915
1464896042790085, 6.1447687, -0.3278167, 7.6594253, 0.75510585, -0.21907854, 9.793583
1464896045199825, 6.3888364, 0.3684947, 7.874779, 0.112077, 0.0105371475, 10.146551
1464896047609565, 6.3888364, 1.4093726, 7.925029, -0.89502895, 0.2504635, 10.234543
1464896050019304, 6.111269, -0.552742, 7.5732837, 0.9774391, -0.252697, 9.694768
1464896052429044, 6.4965134, 0.9499506, 7.948957, -0.43510413, 0.19731283, 10.298774
1464896054838783, 6.309873, 0.91884387, 7.9561353, -0.44950354, 0.0458889, 10.186005
1464896057248523, 6.1208405, -0.46899325, 7.5924263, 0.8899529, -0.2355628, 9.720188
1464896059658263, 6.491728, 1.4189439, 7.9920278, -0.8955403, 0.27517653, 10.351364
1464896062068002, 6.2285175, 0.2847459, 7.8604226, 0.15991277, -0.120316505, 10.031037
1464896064477742, 6.206982, -0.22492532, 7.728817, 0.6642307, -0.18102932, 9.891302
1464896066887429, 6.4606214, 1.6127625, 7.9657063, -1.0872219, 0.31695318, 10.320397
1464896069297169, 6.1208405, -0.2416751, 7.7312098, 0.6602505, -0.25178194, 9.838465
1464896071706908, 6.3074803, 0.18664017, 7.8891363, 0.2627805, -0.10231733, 10.09842
1464896074116648, 6.3696938, 1.4620147, 7.9776707, -0.9653064, 0.21919632, 10.265176
1464896076526388, 6.0514483, -0.57188463, 7.645068, 0.9665017, -0.34389734, 9.712969
1464896078936127, 6.393622, 0.715454, 7.972885, -0.23468566, 0.044784546, 10.242074
1464896081345867, 6.302695, 1.0336994, 7.982456, -0.56385684, 0.053967476, 10.207411
1464896083755606, 6.101698, -0.5766702, 7.5756764, 0.9949812, -0.26441717, 9.689903
1464896086165346, 6.4965134, 1.2418749, 7.9944205, -0.7305304, 0.23263693, 10.34746
1464896088575085, 6.2380886, 0.4019942, 7.893922, 0.03602463, -0.100660324, 10.068659
1464896090984825, 6.1878395, -0.3493521, 7.676175, 0.77885795, -0.18590403, 9.833304
1464896093394565, 6.4965134, 1.5361922, 7.9561353, -1.0115495, 0.32792664, 10.331209
1464896095804252, 6.178268, -0.15553348, 7.7479596, 0.58366376, -0.19055986, 9.891869
1464896098213992, 6.302695, 0.03589234, 7.8221374, 0.415968, -0.09868002, 10.036348
1464896100623731, 6.4438715, 1.5314065, 7.9346, -1.013735, 0.30403328, 10.281366
1464896103033471, 6.1064835, -0.5024927, 7.647461, 0.91583705, -0.27058887, 9.752607
1464896105443210, 6.4271216, 0.5407779, 7.9274216, -0.06316322, 0.053725243, 10.219465
1464896107852950, 6.350551, 1.1796615, 7.9680996, -0.70327204, 0.12978697, 10.232315
1464896110262690, 6.125626, -0.60777694, 7.5589266, 1.0260527, -0.2299285, 9.691461
1464896112672429, 6.4965134, 1.0887343, 7.982456, -0.58501303, 0.2069354, 10.330759
1464896115082169, 6.2787666, 0.59581286, 7.925029, -0.1452989, -0.043697834, 10.127241
1464896117491856, 6.15434, -0.44027936, 7.609176, 0.86744, -0.20092487, 9.755843
1464896119901596, 6.501299, 1.4835501, 7.958528, -0.9608702, 0.32517576, 10.333294
1464896122311335, 6.202196, -0.02871387, 7.771888, 0.45324373, -0.16188383, 9.931701
1464896124721075, 6.2524457, -0.09810573, 7.7479596, 0.53880394, -0.11998415, 9.941272
1464896127130815, 6.4462643, 1.5672989, 7.8891363, -1.0518855, 0.33434057, 10.248463
1464896129540554, 6.128019, -0.43070808, 7.62114, 0.8495304, -0.21408463, 9.749481
1464896131950294, 6.364908, 0.38763726, 7.8556366, 0.082004905, 0.01264286, 10.117632
1464896134360033, 6.3457656, 1.3112668, 7.925029, -0.82624805, 0.17459774, 10.202013
1464896136769773, 6.084948, -0.60059845, 7.539784, 1.0110545, -0.2624879, 9.651141
1464896139179513, 6.4558353, 0.93559366, 7.91785, -0.4377749, 0.1849122, 10.24791
1464896141589252, 6.276374, 0.7752745, 7.8867435, -0.32091475, 0.028354168, 10.104002
1464896143998940, 6.108876, -0.5096712, 7.515856, 0.9284049, -0.19327068, 9.652302
1464896146408679, 6.4821568, 1.4213367, 7.905886, -0.904379, 0.32722473, 10.276995
1464896148818419, 6.1998034, 0.18424734, 7.752745, 0.25244498, -0.09880161, 9.924872
1464896151228158, 6.202196, -0.19860429, 7.649854, 0.6357405, -0.12963629, 9.828834
1464896153637898, 6.45105, 1.5840486, 7.836494, -1.0565312, 0.38467264, 10.2113495
1464896156047638, 6.1208405, -0.33499518, 7.6067834, 0.7503755, -0.19606209, 9.738508
1464896158457377, 6.3385873, 0.25603202, 7.776674, 0.2056334, 0.00798893, 10.033818
1464896160867117, 6.3888364, 1.4213367, 7.8460655, -0.9196761, 0.29062462, 10.171916
1464896163276856, 6.0921264, -0.56470615, 7.499106, 0.9806245, -0.20900631, 9.6262245
1464896165686596, 6.4821568, 0.7920243, 7.8556366, -0.2870227, 0.19454098, 10.209625
1464896168096283, 6.3385873, 0.9523434, 7.877172, -0.47608858, 0.112754345, 10.143723
1464896170506023, 6.128019, -0.552742, 7.4919276, 0.9820386, -0.17265558, 9.643283
1464896172915763, 6.503692, 1.2897314, 7.9130645, -0.77515846, 0.29629803, 10.2902565
1464896175325502, 6.259624, 0.3684947, 7.8029947, 0.07372248, -0.043472767, 10.009899
1464896177735242, 6.1998034, -0.29910284, 7.628319, 0.7276217, -0.1474638, 9.806482
1464896180144981, 6.491728, 1.591227, 7.884351, -1.0672878, 0.38553572, 10.273743
1464896182554721, 6.1806607, -0.18185452, 7.688139, 0.606054, -0.17005157, 9.84606
1464896184964460, 6.3290157, 0.15314065, 7.8053875, 0.30226076, -0.048734188, 10.045409
1464896187374200, 6.4414787, 1.5314065, 7.8891363, -1.0179079, 0.32209063, 10.243851
1464896189783940, 6.1184473, -0.5072784, 7.587641, 0.9221533, -0.2318573, 9.713955
1464896192193627, 6.4366927, 0.6867401, 7.9106717, -0.20837688, 0.10011768, 10.218998
1464896194603367, 6.350551, 1.134198, 7.9274216, -0.6623973, 0.13543367, 10.198177
1464896197013106, 6.128019, -0.5599205, 7.537391, 0.976956, -0.20318031, 9.678981
1464896199422846, 6.5276203, 1.1892328, 7.9704924, -0.6782233, 0.25176334, 10.345503
1464896201832585, 6.2715883, 0.54317075, 7.8963146, -0.09854603, -0.050085545, 10.097891
1464896204242325, 6.1591253, -0.40917268, 7.6307116, 0.8285947, -0.21179914, 9.777452
1464896206652065, 6.498906, 1.5194423, 7.9537425, -0.999208, 0.33536386, 10.329357
1464896209061804, 6.1830535, -0.06460621, 7.7647095, 0.48300403, -0.18801975, 9.912436
1464896211471544, 6.2668023, -0.014356935, 7.7886376, 0.44656402, -0.12567472, 9.986025
1464896213881283, 6.431907, 1.5816557, 7.9154572, -1.0732256, 0.32799435, 10.25993
1464896216291023, 6.108876, -0.4546363, 7.647461, 0.8628107, -0.24834442, 9.757181
1464896218700710, 6.391229, 0.47377887, 7.920243, -0.010535896, 0.011379242, 10.188339
1464896221110450, 6.343373, 1.2418749, 7.9657063, -0.76806754, 0.12613487, 10.228748
1464896223520190, 6.0825553, -0.6125626, 7.578069, 1.0223053, -0.26087713, 9.679189
1464896225929929, 6.472585, 1.0169497, 8.020741, -0.53293294, 0.13904762, 10.342025
1464896228339669, 6.273981, 0.69152576, 7.9944205, -0.25665998, -0.06508589, 10.182421
1464896230749408, 6.1160545, -0.4881358, 7.6713896, 0.8874181, -0.27886915, 9.779025
1464896233159148, 6.4869423, 1.4452649, 8.04467, -0.94099236, 0.25251102, 10.389259
1464896235568888, 6.1998034, 0.078963146, 7.838887, 0.34261107, -0.17523146, 9.987185
1464896237978627, 6.2237315, -0.1698904, 7.7790666, 0.59688014, -0.18093109, 9.944274
1464896240388315, 6.4606214, 1.591227, 7.9513497, -1.0771645, 0.3224988, 10.306858
1464896242798054, 6.1208405, -0.36610186, 7.685746, 0.77550286, -0.24855566, 9.798277
1464896245207794, 6.352944, 0.33499518, 7.8963146, 0.117589116, -0.030840397, 10.139484
1464896247617533, 6.364908, 1.3854443, 7.9393854, -0.8987272, 0.2237401, 10.227786
1464896250027273, 6.0897336, -0.57188463, 7.5756764, 0.9743412, -0.26784945, 9.684095
1464896252437013, 6.472585, 0.8877372, 7.9513497, -0.38936985, 0.16541433, 10.282384
1464896254846752, 6.300302, 0.8805587, 7.941778, -0.42431474, 0.036118984, 10.166597
1464896257256492, 6.101698, -0.5072784, 7.5613194, 0.92112696, -0.22153139, 9.683185
1464896259666231, 6.4677997, 1.3878372, 7.982456, -0.883245, 0.2618761, 10.326154
1464896262075919, 6.1854467, 0.2656033, 7.850851, 0.15652585, -0.14597034, 9.996017
1464896264485658, 6.15434, -0.24646074, 7.728817, 0.65632373, -0.22238779, 9.858553
1464896266895398, 6.422336, 1.6103697, 7.960921, -1.1046386, 0.29934788, 10.291069
1464896269305138, 6.0825553, -0.23928227, 7.733603, 0.636518, -0.2771492, 9.817402
1464896271714877, 6.2691956, 0.17706887, 7.8628154, 0.2617951, -0.11318493, 10.05369
1464896274124617, 6.3696938, 1.4931214, 7.932207, -0.99730605, 0.24772501, 10.230657
1464896276534356, 6.056234, -0.5479564, 7.5900335, 0.9461166, -0.29497814, 9.6749525
1464896278944096, 6.4055862, 0.701097, 7.9011, -0.22358596, 0.100212574, 10.192665
1464896281353835, 6.290731, 1.0480564, 7.908279, -0.5855994, 0.10066509, 10.14197
1464896283763575, 6.058627, -0.5814559, 7.5062847, 0.98396397, -0.24985027, 9.610346
1464896286173263, 6.465407, 1.227518, 7.91785, -0.71847254, 0.26478148, 10.267147
1464896288583002, 6.216553, 0.40677986, 7.810173, 0.032319188, -0.061972618, 9.990241
1464896290992742, 6.1447687, -0.37088752, 7.597212, 0.7923039, -0.18175459, 9.744362
1464896293402481, 6.474978, 1.550549, 7.9130645, -1.0298223, 0.35626936, 10.283904
1464896295812221, 6.1710896, -0.13878371, 7.7240314, 0.5511111, -0.18645096, 9.87035
1464896298221960, 6.283552, 0.033499517, 7.810173, 0.39978456, -0.11048269, 10.015534
1464896300631700, 6.4175506, 1.5481563, 7.932207, -1.0453066, 0.31131983, 10.262167
1464896303041440, 6.1040907, -0.4953143, 7.635497, 0.89252895, -0.27640867, 9.74336
1464896305451127, 6.393622, 0.53599226, 7.925029, -0.06980455, 0.03012228, 10.19637
1464896307860867, 6.3481584, 1.2035898, 7.948957, -0.7272943, 0.1551032, 10.216684
1464896310270606, 6.1040907, -0.57906306, 7.5349984, 0.98442227, -0.2355237, 9.66162
1464896312680346, 6.513263, 1.1030912, 7.9369926, -0.5956918, 0.26123476, 10.30593
1464896315090085, 6.3314085, 0.65084773, 7.8699937, -0.1951279, 0.04991865, 10.119614
1464896317499825, 6.1830535, -0.40917268, 7.5469627, 0.8344151, -0.14226007, 9.728193
1464896319909565, 6.5347986, 1.5457634, 7.91785, -1.015863, 0.40956068, 10.324031
1464896322319304, 6.250053, 0.062213387, 7.7407813, 0.3739339, -0.08692932, 9.941799
1464896324729044, 6.3050876, -0.019142581, 7.733603, 0.46731162, -0.057826042, 9.967016
1464896327138731, 6.4941206, 1.6438692, 7.877172, -1.1156316, 0.4147997, 10.271761
1464896329548471, 6.1734824, -0.3589234, 7.6163545, 0.77566314, -0.1692748, 9.778511
1464896331958210, 6.424729, 0.44506502, 7.836494, 0.02751422, 0.08666754, 10.142859
1464896334367950, 6.4175506, 1.3782659, 7.884351, -0.88187146, 0.28848457, 10.216978
1464896336777690, 6.151947, -0.51445687, 7.5086775, 0.93430656, -0.16581488, 9.674242
1464896339187429, 6.5252275, 0.9762716, 7.920243, -0.47100985, 0.2480073, 10.294592
1464896341597169, 6.352944, 0.85902333, 7.9130645, -0.39259273, 0.09224272, 10.176041
1464896344006908, 6.1639113, -0.45942193, 7.5517483, 0.87887, -0.18704987, 9.717325
1464896346416648, 6.5443697, 1.4356936, 7.9680996, -0.9075303, 0.37012577, 10.364361
1464896348826335, 6.259624, 0.21774685, 7.8317084, 0.21001661, -0.09826565, 10.025578
1464896351236075, 6.257231, -0.17467605, 7.726424, 0.59721553, -0.14535093, 9.924884
1464896353645815, 6.501299, 1.6247265, 7.9369926, -1.0981572, 0.41179323, 10.321191
1464896356055554, 6.161518, -0.30388847, 7.7216387, 0.7074771, -0.23270941, 9.855237
1464896358465294, 6.3601227, 0.25603202, 7.891529, 0.19028056, -0.045497417, 10.136799
1464896360875033, 6.391229, 1.4333007, 7.958528, -0.9455216, 0.23683405, 10.261105
1464896363284773, 6.0825553, -0.56470615, 7.618747, 0.9570053, -0.295743, 9.713825
1464896365694513, 6.4343, 0.77766734, 7.982456, -0.3107025, 0.087623596, 10.277178
1464896368104252, 6.300302, 0.9595219, 7.9800634, -0.51614994, 0.039432526, 10.199409
1464896370513940, 6.111269, -0.58624154, 7.6019974, 0.9789561, -0.27667236, 9.718372
1464896372923679, 6.4845495, 1.2586247, 8.035098, -0.7693393, 0.22145176, 10.370893
1464896375333419, 6.233303, 0.34456646, 7.920243, 0.073890924, -0.13643217, 10.083598
1464896377743158, 6.1806607, -0.35174492, 7.7383885, 0.7573193, -0.24290562, 9.877975
1464896380152898, 6.472585, 1.5529419, 8.015956, -1.0510032, 0.29371643, 10.361983
1464896382562638, 6.151947, -0.20338993, 7.793423, 0.5998378, -0.2603526, 9.909475
1464896384972377, 6.3122663, 0.09810573, 7.9106717, 0.32994634, -0.13260841, 10.114673
1464896387382117, 6.410372, 1.5098711, 7.987242, -1.0230322, 0.24711752, 10.29859
1464896389791804, 6.084948, -0.51206404, 7.6977105, 0.89584696, -0.32407284, 9.779365
1464896392201544, 6.3960147, 0.65084773, 7.987242, -0.19546288, 0.021233082, 10.251341
1464896394611283, 6.3050876, 1.1389836, 8.001599, -0.6856056, 0.05766821, 10.227592
1464896397021023, 6.0634127, -0.55752766, 7.6139617, 0.9502262, -0.28966475, 9.698525
1464896399430763, 6.4438715, 1.1533405, 8.039884, -0.6773015, 0.14247322, 10.344775
1464896401840502, 6.250053, 0.5455636, 7.9704924, -0.121240914, -0.10556555, 10.142175
1464896404250242, 6.142376, -0.39720857, 7.7144604, 0.79891086, -0.25406265, 9.833446
1464896406659981, 6.4845495, 1.5337993, 8.035098, -1.0361196, 0.27461052, 10.383438
1464896409069721, 6.1902323, -0.023928227, 7.8173513, 0.43912923, -0.19539785, 9.959896
1464896411479408, 6.2691956, -0.014356935, 7.850851, 0.4431106, -0.15463543, 10.035868
1464896413889148, 6.4462643, 1.5768701, 7.9633136, -1.0704647, 0.29776907, 10.306341
1464896416298888, 6.135197, -0.42831525, 7.668997, 0.83545023, -0.2418418, 9.791892
1464896418708627, 6.4127645, 0.50009996, 7.9154572, -0.033260345, 0.03942728, 10.199287
1464896421118367, 6.3720865, 1.2873386, 7.9346, -0.8071879, 0.18838263, 10.224068
1464896423528106, 6.1064835, -0.5910272, 7.5517483, 1.002574, -0.23098755, 9.675166
1464896425937846, 6.501299, 1.0217353, 7.9633136, -0.5197244, 0.19573498, 10.315853
1464896428347585, 6.290731, 0.72741807, 7.920243, -0.27340317, -0.0046138763, 10.136959
1464896430757273, 6.1447687, -0.4833502, 7.587641, 0.90709376, -0.1935687, 9.731588
1464896433167013, 6.515656, 1.457229, 7.9657063, -0.9417489, 0.3065014, 10.346445
1464896435576752, 6.216553, 0.11246266, 7.7886376, 0.32098424, -0.124099255, 9.960052
1464896437986492, 6.242874, -0.17228323, 7.735996, 0.6033885, -0.14910603, 9.922827
1464896440396231, 6.463014, 1.5960127, 7.9106717, -1.0757234, 0.3481164, 10.277071
1464896442805971, 6.1328044, -0.36610186, 7.668997, 0.778085, -0.24015093, 9.792638
1464896445215710, 6.3696938, 0.29192436, 7.867601, 0.17003566, -0.021146297, 10.125612
1464896447625450, 6.3960147, 1.3830515, 7.91785, -0.8839493, 0.23346329, 10.231242
1464896450035190, 6.111269, -0.5838487, 7.537391, 0.9989702, -0.22768307, 9.667005
1464896452444877, 6.4821568, 0.85902333, 7.893922, -0.35959202, 0.18434429, 10.242413
1464896454854617, 6.3338017, 0.88295156, 7.884351, -0.41436934, 0.08730364, 10.142994
1464896457264356, 6.1184473, -0.5694918, 7.496713, 0.9889647, -0.20335007, 9.640594
1464896459674096, 6.4845495, 1.3160524, 7.905886, -0.80150926, 0.29643822, 10.273954
1464896462083835, 6.216553, 0.2440679, 7.776674, 0.1941731, -0.098284245, 9.956627
1464896464493575, 6.1830535, -0.30149564, 7.645068, 0.7298537, -0.18176556, 9.808282
1464896466903315, 6.472585, 1.5625132, 7.8867435, -1.0361922, 0.35923433, 10.263226
1464896469313054, 6.1495543, -0.2943172, 7.664211, 0.71187186, -0.21843767, 9.802515
1464896471722742, 6.3290157, 0.11724831, 7.795816, 0.33321285, -0.060839653, 10.036444
1464896474132481, 6.4055862, 1.4739788, 7.8891363, -0.96567154, 0.30464268, 10.218477
1464896476542221, 6.099305, -0.57188463, 7.5732837, 0.9708681, -0.2902832, 9.687949
1464896478951960, 6.4271216, 0.6580262, 7.879565, -0.17063767, 0.10064459, 10.187698
1464896481361700, 6.326623, 1.038485, 7.8891363, -0.56168455, 0.124372005, 10.149489
1464896483771440, 6.084948, -0.5910272, 7.4775705, 0.99809325, -0.24701166, 9.603788
1464896486181179, 6.4701924, 1.2251252, 7.8987074, -0.7119684, 0.27785873, 10.255232
1464896488590919, 6.2285175, 0.45224348, 7.810173, -0.01742661, -0.057803154, 9.999706
1464896491000606, 6.1304116, -0.35653058, 7.578069, 0.770413, -0.19714117, 9.721307
1464896493410346, 6.4438715, 1.5696917, 7.893922, -1.0571532, 0.3400197, 10.25028
1464896495820085, 6.1208405, -0.11246266, 7.7001033, 0.5178989, -0.22273302, 9.820952
1464896498229825, 6.2524457, 0.014356935, 7.769495, 0.41898787, -0.13378525, 9.963176
1464896500639565, 6.3768725, 1.564906, 7.8891363, -1.0590541, 0.3032484, 10.20482
1464896503049304, 6.0514483, -0.49292147, 7.618747, 0.8738059, -0.3267722, 9.697317
1464896505459044, 6.3792653, 0.5168497, 7.8987074, -0.05742657, 0.017554283, 10.166028
1464896507868731, 6.32423, 1.2083755, 7.9633136, -0.7447599, 0.12032175, 10.212801
1464896510278471, 6.0729837, -0.5910272, 7.580462, 0.9803598, -0.3086896, 9.676646
1464896512688210, 6.474978, 1.079163, 7.999206, -0.5898217, 0.17587471, 10.3294935
1464896515097950, 6.2979093, 0.6556334, 7.9513497, -0.21298623, -0.039859295, 10.16221
1464896517507690, 6.151947, -0.4211368, 7.6139617, 0.83265066, -0.22514057, 9.759726
1464896519917429, 6.4869423, 1.5122639, 7.972885, -0.9995208, 0.31329155, 10.336203
1464896522327169, 6.175875, 0.02871387, 7.8053875, 0.37951052, -0.20637655, 9.943829
1464896524736908, 6.242874, -0.083748795, 7.771888, 0.5064812, -0.16809416, 9.954797
1464896527146648, 6.4343, 1.6271194, 7.9346, -1.1168487, 0.33209753, 10.278521
1464896529556335, 6.101698, -0.38524446, 7.688139, 0.7746264, -0.30209827, 9.787508
1464896531966075, 6.3696938, 0.39481574, 7.884351, 0.06413019, -0.016005516, 10.143347
1464896534375815, 6.3601227, 1.3495519, 7.932207, -0.8635671, 0.20244646, 10.217907
1464896536785554, 6.0897336, -0.55752766, 7.5613194, 0.95327854, -0.28111553, 9.673752
1464896539195294, 6.4821568, 0.930808, 7.944171, -0.43732667, 0.17586374, 10.284573
1464896541605033, 6.32423, 0.8279166, 7.932207, -0.37418354, 0.038378716, 10.171517
1464896544014773, 6.1447687, -0.5072784, 7.5732837, 0.9157324, -0.23440552, 9.719908
1464896546424460, 6.515656, 1.3878372, 7.9680996, -0.8678528, 0.30821943, 10.34516
1464896548834200, 6.242874, 0.20338993, 7.8053875, 0.22842276, -0.11420822, 9.993684
1464896551243940, 6.24766, -0.19381863, 7.716853, 0.62375534, -0.1644063, 9.909821
1464896553653679, 6.4965134, 1.6127625, 7.9226356, -1.0823853, 0.38193417, 10.308076
1464896556063419, 6.1710896, -0.3062813, 7.685746, 0.71631026, -0.2234211, 9.832794
1464896558473158, 6.3744793, 0.25124636, 7.8484583, 0.20398557, -0.02788639, 10.112024
1464896560882898, 6.4295144, 1.4620147, 7.9154572, -0.9602027, 0.28552485, 10.253151
1464896563292638, 6.125626, -0.5288138, 7.568498, 0.93791234, -0.24307156, 9.702905
1464896565702325, 6.4558353, 0.7800602, 7.8987074, -0.28320146, 0.14482641, 10.226177
1464896568112065, 6.3314085, 1.0001999, 7.9130645, -0.5271577, 0.10743952, 10.169281
1464896570521804, 6.1208405, -0.552742, 7.5230346, 0.96319544, -0.25400257, 9.663022
1464896572931544, 6.501299, 1.2849457, 7.948957, -0.765241, 0.29327726, 10.316603
1464896575341283, 6.233303, 0.39960137, 7.8484583, 0.028548956, -0.095879555, 10.030058
1464896577751023, 6.1806607, -0.3062813, 7.6594253, 0.7205261, -0.21023035, 9.81824
1464896580160763, 6.498906, 1.564906, 7.925029, -1.0351049, 0.36826277, 10.309401
1464896582570502, 6.1495543, -0.17467605, 7.7240314, 0.58192694, -0.23750639, 9.8546
1464896584980242, 6.302695, 0.08853444, 7.836494, 0.351498, -0.12344313, 10.050058
1464896587389929, 6.422336, 1.5266209, 7.920243, -1.0134549, 0.30537462, 10.256065
1464896589799669, 6.1184473, -0.51206404, 7.6259255, 0.91343534, -0.2940855, 9.74328
1464896592209408, 6.4438715, 0.62452674, 7.9106717, -0.14510232, 0.08290911, 10.220779
1464896594619148, 6.364908, 1.1318051, 7.960921, -0.6585357, 0.13157892, 10.233196
1464896597028888, 6.135197, -0.5982057, 7.5637126, 1.0039091, -0.26567364, 9.702051
1464896599438627, 6.513263, 1.1365907, 7.9704924, -0.62520826, 0.23316431, 10.334309
1464896601848315, 6.2931237, 0.5455636, 7.91785, -0.10221833, -0.057576656, 10.12816
1464896604258054, 6.168697, -0.43070808, 7.649854, 0.84117174, -0.25083017, 9.797353
1464896606667794, 6.503692, 1.5098711, 7.9776707, -0.9911072, 0.3168292, 10.350763
1464896609077533, 6.192625, -0.02871387, 7.793423, 0.43745685, -0.21048927, 9.942394
1464896611487273, 6.262017, -0.059820566, 7.82453, 0.47954285, -0.18647194, 10.008745
1464896613897013, 6.422336, 1.5601203, 7.948957, -1.0562247, 0.29797697, 10.279197
1464896616306752, 6.099305, -0.45942193, 7.6713896, 0.8464681, -0.32852125, 9.769258
1464896618716492, 6.3744793, 0.4546363, 7.9106717, 0.0052473545, -0.021891117, 10.169508
1464896621126179, 6.3361945, 1.2993027, 7.958528, -0.8219323, 0.1522026, 10.2213
1464896623535919, 6.0801625, -0.5694918, 7.554141, 0.9630685, -0.30143118, 9.66123
1464896625945658, 6.4701924, 1.0313065, 7.9369926, -0.53441715, 0.18929338, 10.276256
1464896628355398, 6.285945, 0.74177504, 7.8963146, -0.2947603, 3.0899048E-4, 10.115742
1464896630765138, 6.1328044, -0.47138608, 7.5469627, 0.8832866, -0.22544718, 9.693251
1464896633174877, 6.501299, 1.4668003, 7.9154572, -0.938797, 0.34180498, 10.299257
1464896635584617, 6.2141604, 0.14596218, 7.759924, 0.28467762, -0.13086891, 9.9375725
1464896637994356, 6.235696, -0.1794617, 7.6833534, 0.6131456, -0.15604973, 9.876726
1464896640404044, 6.4797635, 1.5888343, 7.8580294, -1.0516756, 0.39576864, 10.246838
1464896642813783, 6.1710896, -0.35653058, 7.611569, 0.77873623, -0.20819044, 9.772188
1464896645223523, 6.391229, 0.30149564, 7.798209, 0.17009723, 0.01888609, 10.085707
1464896647633263, 6.4055862, 1.4045869, 7.879565, -0.8999487, 0.27111197, 10.208258
1464896650043002, 6.1208405, -0.60059845, 7.537391, 1.0104837, -0.2596364, 9.672082
1464896652452742, 6.4797635, 0.83030945, 7.9226356, -0.33097368, 0.14550257, 10.26227
1464896654862481, 6.2955165, 0.89730847, 7.944171, -0.44476426, 0.016272068, 10.166144
1464896657272169, 6.0921264, -0.552742, 7.587641, 0.94955206, -0.3079896, 9.695119
1464896659681908, 6.489335, 1.3328022, 8.015956, -0.8270304, 0.23363161, 10.36363
1464896662091648, 6.209375, 0.2943172, 7.891529, 0.12162733, -0.17855406, 10.043532
1464896664501388, 6.1830535, -0.29192436, 7.7312098, 0.6976055, -0.25814533, 9.875914
1464896666911127, 6.474978, 1.5984055, 7.982456, -1.0855746, 0.31258154, 10.340389
1464896669320867, 6.175875, -0.22013968, 7.7647095, 0.62704635, -0.26233435, 9.900435
1464896671730606, 6.3457656, 0.13399807, 7.8580294, 0.3136835, -0.09928703, 10.095894
1464896674140346, 6.431907, 1.4931214, 7.944171, -0.98396933, 0.27337027, 10.279386
1464896676550033, 6.1184473, -0.5383851, 7.611569, 0.94151187, -0.2985735, 9.730656
1464896678959773, 6.4701924, 0.67477596, 7.948957, -0.19291592, 0.08232546, 10.269403
1464896681369513, 6.367301, 1.0839486, 7.9920278, -0.6172496, 0.08982277, 10.25675
1464896683779252, 6.135197, -0.567099, 7.611569, 0.9670929, -0.29470253, 9.7404375
1464896686188992, 6.501299, 1.2323036, 8.037491, -0.72899437, 0.2036357, 10.383343
1464896688598731, 6.2644095, 0.47138608, 7.932207, -0.041077018, -0.11643982, 10.11779
1464896691008471, 6.1806607, -0.3589234, 7.688139, 0.7681974, -0.25755215, 9.837704
1464896693418158, 6.503692, 1.5720844, 7.9920278, -1.0498996, 0.3272581, 10.364969
1464896695827898, 6.1830535, -0.09332009, 7.786245, 0.5013242, -0.22974539, 9.927757
1464896698237638, 6.276374, 0.021535404, 7.8293157, 0.40587187, -0.15780115, 10.025063
1464896700647377, 6.448657, 1.5601203, 7.944171, -1.0543344, 0.28774405, 10.292452
1464896703057117, 6.108876, -0.485743, 7.6594253, 0.88240176, -0.30604553, 9.764671
1464896705466856, 6.407979, 0.50488555, 7.9130645, -0.039580762, 0.010518074, 10.194705
1464896707876596, 6.367301, 1.2442678, 7.941778, -0.7623285, 0.15453386, 10.22534
1464896710286283, 6.1208405, -0.5910272, 7.542177, 1.0026183, -0.26013947, 9.67603
1464896712696023, 6.501299, 1.0624132, 7.9393854, -0.56027675, 0.20994234, 10.299101
1464896715105763, 6.300302, 0.6556334, 7.877172, -0.20822287, -0.006904602, 10.105946
1464896717515502, 6.1567326, -0.43788654, 7.5469627, 0.8564113, -0.19481659, 9.709911
1464896719925242, 6.4965134, 1.5050855, 7.91785, -0.9876834, 0.33444738, 10.299271
1464896722334981, 6.192625, 0.05742774, 7.735996, 0.36636657, -0.15662622, 9.901455
1464896724744721, 6.24766, -0.09332009, 7.7096744, 0.5282735, -0.13957262, 9.908709
1464896727154460, 6.439086, 1.6247265, 7.8604226, -1.1065011, 0.34944105, 10.224548
1464896729564148, 6.1208405, -0.35174492, 7.6163545, 0.76176155, -0.2393341, 9.744728
1464896731973888, 6.3960147, 0.40917268, 7.826923, 0.057032764, 0.029445171, 10.11598
1464896734383627, 6.3960147, 1.3974084, 7.891529, -0.9070365, 0.23648834, 10.210747
1464896736793367, 6.1160545, -0.552742, 7.5230346, 0.9638641, -0.2319336, 9.660479
1464896739203106, 6.4965134, 0.9451649, 7.8891363, -0.4459163, 0.19868708, 10.2517395
1464896741612846, 6.3385873, 0.88295156, 7.891529, -0.4168918, 0.06180334, 10.151646
1464896744022585, 6.1878395, -0.50009996, 7.5086775, 0.9339517, -0.16195202, 9.696453
1464896746432273, 6.580262, 1.4237294, 7.8963146, -0.88839376, 0.3778143, 10.331827
1464896748842013, 6.273981, 0.25124636, 7.757531, 0.19292843, -0.0620327, 9.978186
1464896751251752, 6.2548385, -0.18664017, 7.635497, 0.6235086, -0.11270189, 9.851761
1464896753661492, 6.5084777, 1.6151553, 7.8604226, -1.0853581, 0.3932681, 10.267551
1464896756071231, 6.168697, -0.2727818, 7.6546397, 0.68806213, -0.21184301, 9.808286
1464896758480971, 6.3744793, 0.25603202, 7.800602, 0.20728749, -0.01422596, 10.0750065
1464896760890710, 6.4175506, 1.4620147, 7.881958, -0.96112156, 0.26248837, 10.2203245
1464896763300398, 6.1304116, -0.55034924, 7.5493555, 0.95989215, -0.23845053, 9.690167
1464896765710138, 6.491728, 0.7609176, 7.893922, -0.27356994, 0.13770056, 10.244106
1464896768119877, 6.3601227, 1.0193424, 7.9154572, -0.5547886, 0.08751011, 10.189663
1464896770529617, 6.1399827, -0.56470615, 7.5182486, 0.98075294, -0.20817661, 9.671459
1464896772939356, 6.532406, 1.2466606, 7.9346, -0.74143887, 0.25843048, 10.32317
1464896775349096, 6.285945, 0.3684947, 7.8221374, 0.07352686, -0.06710529, 10.041157
1464896777758835, 6.2141604, -0.3684947, 7.609176, 0.7963743, -0.1751051, 9.797259
1464896780168575, 6.5371914, 1.5553347, 7.879565, -1.0243633, 0.38432455, 10.297789
1464896782578263, 6.2117677, -0.22013968, 7.688139, 0.64256895, -0.18821955, 9.863757
1464896784988002, 6.3290157, 0.031106694, 7.7647095, 0.41183233, -0.083994865, 10.008571
1464896787397742, 6.4199433, 1.5074782, 7.8723865, -1.0057099, 0.29044676, 10.216007
1464896789807481, 6.1160545, -0.5240282, 7.580462, 0.92689425, -0.26626205, 9.706396
1464896792217221, 6.45105, 0.61016977, 7.8604226, -0.12672752, 0.09218645, 10.185777
1464896794626960, 6.364908, 1.146162, 7.905886, -0.6699166, 0.13329887, 10.191282
1464896797036700, 6.094519, -0.61016977, 7.5062847, 1.0181766, -0.25892925, 9.630995
1464896799446388, 6.498906, 1.1150553, 7.9274216, -0.6162551, 0.21357107, 10.290662
1464896801856127, 6.2715883, 0.5383851, 7.874779, -0.102632284, -0.06764698, 10.080659
1464896804265867, 6.1495543, -0.4546363, 7.5996046, 0.8628945, -0.23732853, 9.745605
1464896806675606, 6.491728, 1.4931214, 7.932207, -0.9887868, 0.29015923, 10.306792
1464896809085346, 6.1998034, -0.047856454, 7.752745, 0.46828014, -0.18824577, 9.914144
1464896811495085, 6.2787666, -0.083748795, 7.7647095, 0.5200189, -0.14597225, 9.971405
1464896813904825, 6.4534426, 1.5696917, 7.9011, -1.0619974, 0.2960205, 10.262688
1464896816314513, 6.113662, -0.4331009, 7.6307116, 0.8370434, -0.27618074, 9.747578
1464896818724252, 6.391229, 0.45942193, 7.850851, 0.0028271675, 0.015428543, 10.13383
1464896821133992, 6.3625154, 1.3040884, 7.8867435, -0.825309, 0.18115044, 10.181799
1464896823543731, 6.099305, -0.59581286, 7.496713, 1.0048056, -0.24486446, 9.627442
1464896825953471, 6.489335, 0.9834501, 7.9011, -0.48713392, 0.18615103, 10.258366
1464896828363210, 6.2883377, 0.73459655, 7.8867435, -0.28313333, -0.020839214, 10.109549
1464896830772950, 6.1232333, -0.50009996, 7.542177, 0.91941196, -0.22380543, 9.681587
1464896833182638, 6.5228343, 1.4356936, 7.925029, -0.91954136, 0.29703426, 10.318956
1464896835592377, 6.2237315, 0.11964113, 7.769495, 0.30602616, -0.14884949, 9.949794
1464896838002117, 6.250053, -0.2105684, 7.688139, 0.6411869, -0.1638999, 9.888226
1464896840411856, 6.4821568, 1.5816557, 7.881958, -1.0570378, 0.34724474, 10.266809
1464896842821596, 6.1734824, -0.33738798, 7.647461, 0.75555646, -0.22876167, 9.802357
1464896845231335, 6.3864436, 0.27756742, 7.8077803, 0.19303554, -0.011829376, 10.088991
1464896847641075, 6.4199433, 1.4237294, 7.850851, -0.9135282, 0.27208853, 10.196568
1464896850050763, 6.1232333, -0.57188463, 7.4823565, 0.99616563, -0.21794462, 9.631556
1464896852460502, 6.498906, 0.85902333, 7.850851, -0.35406905, 0.19110823, 10.219965
1464896854870242, 6.3314085, 0.9379865, 7.8484583, -0.4675247, 0.08866501, 10.116244
1464896857279981, 6.1304116, -0.526421, 7.470392, 0.9497251, -0.19799471, 9.629364
1464896859689721, 6.513263, 1.3399807, 7.8987074, -0.8169695, 0.2924161, 10.288576
1464896862099460, 6.2524457, 0.32063824, 7.7814593, 0.12429172, -0.086299896, 9.9861965
1464896864509200, 6.1974106, -0.25603202, 7.63789, 0.68745124, -0.18288517, 9.813501
1464896866918888, 6.4773707, 1.6175481, 7.905886, -1.0954878, 0.3294587, 10.284317
1464896869328627, 6.1471615, -0.19860429, 7.7001033, 0.61214834, -0.2449131, 9.832798
1464896871738367, 6.3194447, 0.14117654, 7.8053875, 0.30400985, -0.09553146, 10.038817
1464896874148106, 6.431907, 1.5146568, 7.893922, -1.0059347, 0.2862153, 10.24128
1464896876557846, 6.1304116, -0.5240282, 7.5637126, 0.93496597, -0.25970554, 9.701788
1464896878967585, 6.4677997, 0.6771688, 7.865208, -0.18269396, 0.11443043, 10.203236
1464896881377325, 6.3864436, 1.1102697, 7.893922, -0.622954, 0.14775753, 10.194286
1464896883787013, 6.1471615, -0.552742, 7.475178, 0.97628194, -0.19878197, 9.6425495
1464896886196752, 6.530013, 1.2251252, 7.908279, -0.7072046, 0.27802563, 10.300751
1464896888606492, 6.290731, 0.5096712, 7.8293157, -0.061703444, -0.036400795, 10.056149
1464896891016231, 6.1902323, -0.36610186, 7.587641, 0.7880349, -0.18848467, 9.765693
1464896893425971, 6.539584, 1.564906, 7.91785, -1.0371219, 0.36915922, 10.329352
1464896895835710, 6.218946, -0.08135597, 7.7240314, 0.5052154, -0.17746067, 9.902314
1464896898245450, 6.3074803, 0.009571291, 7.769495, 0.43273687, -0.11416149, 9.997458
1464896900655138, 6.4677997, 1.579263, 7.8963146, -1.0636163, 0.32539177, 10.268454
1464896903064877, 6.151947, -0.46660042, 7.611569, 0.87763, -0.2530861, 9.7553005
1464896905474617, 6.45105, 0.48095736, 7.8699937, -0.00896275, 0.051736355, 10.187315
1464896907884356, 6.4127645, 1.2394822, 7.932207, -0.75765395, 0.18407965, 10.245577
1464896910294096, 6.1639113, -0.60777694, 7.5517483, 1.0154982, -0.25054836, 9.71072
1464896912703835, 6.5515485, 1.0504491, 7.9633136, -0.5474436, 0.21817017, 10.348589
1464896915113575, 6.3314085, 0.68195444, 7.9274216, -0.23511845, -0.020397186, 10.165634
1464896917523263, 6.195018, -0.44745782, 7.587641, 0.8702173, -0.19251585, 9.765061
1464896919933002, 6.5491557, 1.4955142, 7.9776707, -0.98424745, 0.30756664, 10.378242
1464896922342742, 6.2548385, 0.047856454, 7.798209, 0.37047452, -0.15550518, 9.9887905
1464896924752481, 6.2979093, -0.12203395, 7.7647095, 0.5512351, -0.14438581, 9.982213
1464896927162221, 6.5108705, 1.5864414, 7.941778, -1.074086, 0.33751822, 10.330175
1464896929571960, 6.1854467, -0.3804588, 7.6833534, 0.7839574, -0.25032806, 9.836726
1464896931981700, 6.4534426, 0.3589234, 7.908279, 0.10500586, -2.0551682E-4, 10.213012
1464896934391388, 6.4414787, 1.3615161, 7.975278, -0.8742696, 0.20670176, 10.302639
1464896936801127, 6.161518, -0.5814559, 7.587641, 0.983541, -0.25764656, 9.738631
1464896939210867, 6.539584, 0.88295156, 7.9704924, -0.39433992, 0.16080713, 10.338913
1464896941620606, 6.367301, 0.8350951, 7.9633136, -0.3868119, 0.025575161, 10.22272
1464896944030346, 6.1710896, -0.552742, 7.5828547, 0.95784456, -0.23983765, 9.74231
1464896946440085, 6.546763, 1.3328022, 7.984849, -0.8288188, 0.27560854, 10.374556
1464896948849825, 6.262017, 0.19621146, 7.8436728, 0.22605157, -0.1430664, 10.0350895
1464896951259513, 6.257231, -0.24885355, 7.726424, 0.6696294, -0.18889952, 9.92111
1464896953669252, 6.5204415, 1.5553347, 7.9393854, -1.039412, 0.33997488, 10.333108
1464896956078992, 6.1710896, -0.33499518, 7.733603, 0.7274939, -0.27901793, 9.868945
1464896958488731, 6.355337, 0.18664017, 7.8963146, 0.24498868, -0.10793495, 10.134359
1464896960898471, 6.410372, 1.4333007, 7.958528, -0.95362294, 0.21647835, 10.272737
1464896963308210, 6.1064835, -0.58624154, 7.618747, 0.9721224, -0.32129383, 9.727789
1464896965717950, 6.4534426, 0.7082755, 7.960921, -0.24283904, 0.057391167, 10.269496
1464896968127638, 6.3457656, 1.0073783, 7.9800634, -0.55390525, 0.039283276, 10.230181
1464896970537377, 6.125626, -0.5814559, 7.5828547, 0.979401, -0.27796412, 9.712086
1464896972947117, 6.5252275, 1.2251252, 7.9920278, -0.7291819, 0.22120714, 10.362018
1464896975356856, 6.302695, 0.3900301, 7.884351, 0.03989148, -0.087654114, 10.100982
1464896977766596, 6.2237315, -0.36131623, 7.6666036, 0.7737268, -0.20940971, 9.848842
1464896980176335, 6.539584, 1.564906, 7.9393854, -1.0460619, 0.36197233, 10.345224
1464896982586075, 6.2213387, -0.16031912, 7.7312098, 0.5752541, -0.19874048, 9.906158
1464896984995763, 6.350551, 0.086141616, 7.7886376, 0.3629347, -0.07038212, 10.043064
1464896987405502, 6.4821568, 1.5529419, 7.8867435, -1.0388532, 0.33291483, 10.268431
1464896989815242, 6.1567326, -0.4953143, 7.5900335, 0.9069365, -0.23687696, 9.740671
1464896992224981, 6.472585, 0.5982057, 7.867601, -0.119585395, 0.100370884, 10.204264
1464896994634721, 6.381658, 1.18684, 7.891529, -0.7111879, 0.16451073, 10.192032
1464896997044460, 6.128019, -0.56470615, 7.4919276, 0.9754675, -0.21825409, 9.64372
1464896999454200, 6.5084777, 1.1294123, 7.9154572, -0.6298212, 0.23151875, 10.287859
1464897001863888, 6.290731, 0.6029913, 7.874779, -0.15974456, -0.04001522, 10.095638
1464897004273627, 6.175875, -0.41635114, 7.5828547, 0.83482796, -0.20228672, 9.750725
1464897006683367, 6.541977, 1.5337993, 7.925029, -1.0111017, 0.35037518, 10.334942
1464897009093106, 6.2309103, 0.02632105, 7.7503524, 0.3980263, -0.15398502, 9.9353285
1464897011502846, 6.317052, -0.04546363, 7.743174, 0.48394167, -0.10334492, 9.980937
1464897013912585, 6.513263, 1.6271194, 7.8891363, -1.1079652, 0.37267542, 10.29282
1464897016322325, 6.175875, -0.39960137, 7.6163545, 0.8148402, -0.21623993, 9.777487
1464897018732013, 6.448657, 0.4642076, 7.850851, 0.010624647, 0.056834698, 10.170211
1464897021141752, 6.410372, 1.3304094, 7.9011, -0.8384858, 0.21109009, 10.22461
1464897023551492, 6.142376, -0.57188463, 7.5254273, 0.9889972, -0.22807455, 9.677696
1464897025961231, 6.513263, 0.99302137, 7.925029, -0.49867272, 0.18447065, 10.292331
1464897028370971, 6.3194447, 0.7752745, 7.9106717, -0.3269155, -0.003218174, 10.1493
1464897030780710, 6.1399827, -0.49052864, 7.5661054, 0.9019276, -0.22443819, 9.711957
1464897033190450, 6.518049, 1.4356936, 7.9657063, -0.93297696, 0.26857185, 10.34679
1464897035600138, 6.216553, 0.15074782, 7.7910304, 0.27463895, -0.15408373, 9.963396
1464897038009877, 6.2309103, -0.20578274, 7.704889, 0.6338625, -0.17388105, 9.889382
1464897040419617, 6.4701924, 1.6007984, 7.9106717, -1.0926428, 0.30404425, 10.281944
1464897042829356, 6.135197, -0.33020952, 7.661818, 0.7393307, -0.24808836, 9.790046
1464897045239096, 6.381658, 0.2632105, 7.838887, 0.19013476, -0.032186985, 10.10969
1464897047648835, 6.422336, 1.4141582, 7.908279, -0.9204191, 0.25036097, 10.240961
1464897050058575, 6.1184473, -0.58624154, 7.570891, 0.9845477, -0.28764296, 9.6977005
1464897052468263, 6.4773707, 0.8279166, 7.9369926, -0.34085625, 0.11924362, 10.271671
1464897054878002, 6.3290157, 0.9403793, 7.944171, -0.4883662, 0.028695583, 10.188784
1464897057287742, 6.1184473, -0.5455636, 7.556534, 0.950592, -0.25699377, 9.688374
1464897059697481, 6.515656, 1.3256238, 7.989635, -0.82556057, 0.23520947, 10.35898
1464897062107221, 6.2213387, 0.33499518, 7.8556366, 0.08453965, -0.14697313, 10.024948
1464897064516960, 6.1710896, -0.30388847, 7.678568, 0.71013904, -0.23321962, 9.82733
1464897066926648, 6.448657, 1.5840486, 7.946564, -1.0818924, 0.28691244, 10.295118
1464897069336388, 6.1399827, -0.22492532, 7.7240314, 0.62216735, -0.27160072, 9.846309
1464897071746127, 6.2979093, 0.09810573, 7.8436728, 0.33287895, -0.14535713, 10.053086
1464897074155867, 6.407979, 1.4979069, 7.948957, -1.0060831, 0.2342329, 10.267656
1464897076565606, 6.101698, -0.5407779, 7.6139617, 0.9336038, -0.315794, 9.722357
1464897078975346, 6.4295144, 0.64606214, 7.932207, -0.18260783, 0.040822506, 10.229415
1464897081385085, 6.343373, 1.0959128, 7.9704924, -0.64124084, 0.07063103, 10.225065
1464897083794825, 6.1040907, -0.57427746, 7.54457, 0.9700897, -0.2795539, 9.669076
1464897086204513, 6.501299, 1.2011969, 7.9513497, -0.6996949, 0.22519922, 10.314718
1464897088614252, 6.2811594, 0.5072784, 7.8628154, -0.06906599, -0.06313038, 10.075981
1464897091023992, 6.1878395, -0.3684947, 7.5924263, 0.78954417, -0.19200087, 9.767796
1464897093433731, 6.530013, 1.5720844, 7.9130645, -1.0472548, 0.36677027, 10.31978
1464897095843471, 6.202196, -0.047856454, 7.7096744, 0.46366072, -0.16807985, 9.882579
1464897098253210, 6.3194447, 0.04546363, 7.735996, 0.39675486, -0.073283195, 9.980996
1464897100662950, 6.4869423, 1.6319051, 7.874779, -1.1118716, 0.37095308, 10.265566
1464897103072638, 6.15434, -0.4019942, 7.6163545, 0.8098998, -0.23675966, 9.763932
1464897105482377, 6.4271216, 0.526421, 7.874779, -0.052567363, 0.044335842, 10.178038
1464897107892117, 6.4008007, 1.3040884, 7.9274216, -0.81223404, 0.21039343, 10.237721
1464897110301856, 6.1304116, -0.55034924, 7.5230346, 0.95354474, -0.25910187, 9.669773
1464897112711596, 6.5252275, 1.0863415, 7.9346, -0.57760596, 0.23874378, 10.311449
1464897115121335, 6.3050876, 0.74895346, 7.9034934, -0.30461037, -3.7622452E-4, 10.133484
1464897117531075, 6.1471615, -0.39481574, 7.5732837, 0.8022213, -0.22709084, 9.726407
1464897119940763, 6.5108705, 1.5337993, 7.941778, -1.014516, 0.3430891, 10.328063
1464897122350502, 6.206982, 0.14356937, 7.7742805, 0.27646482, -0.15904665, 9.944092
1464897124760242, 6.242874, -0.069391854, 7.745567, 0.49846852, -0.16248941, 9.934647
1464897127169981, 6.472585, 1.6390835, 7.9298143, -1.1241589, 0.3264985, 10.300125
1464897129579721, 6.1639113, -0.32303107, 7.6977105, 0.7275034, -0.25480604, 9.836601
1464897131989460, 6.3792653, 0.37328035, 7.9034934, 0.077195704, -0.04510212, 10.163247
1464897134399148, 6.381658, 1.4213367, 7.9704924, -0.9416636, 0.18981314, 10.264101
1464897136808888, 6.108876, -0.552742, 7.597212, 0.9489913, -0.30026674, 9.713433
1464897139218627, 6.465407, 0.9020941, 7.9657063, -0.41928715, 0.11827803, 10.289701
1464897141628367, 6.3194447, 0.9020941, 7.9633136, -0.44784462, 0.010593414, 10.196217
1464897144038106, 6.13759, -0.49052864, 7.5924263, 0.90195274, -0.2566824, 9.730168
1464897146447846, 6.5252275, 1.3974084, 7.9944205, -0.8853022, 0.27258015, 10.3722725
1464897148857585, 6.259624, 0.27038896, 7.850851, 0.15968597, -0.12806892, 10.042408
1464897151267273, 6.2213387, -0.22971097, 7.692925, 0.65117574, -0.18789053, 9.873175
1464897153677013, 6.4869423, 1.6127625, 7.9154572, -1.0903232, 0.34868526, 10.296868
1464897156086752, 6.161518, -0.25124636, 7.7072816, 0.6624803, -0.24143457, 9.8454275
1464897158496492, 6.350551, 0.21774685, 7.8484583, 0.23363864, -0.0703702, 10.095329
1464897160906231, 6.4295144, 1.4859428, 7.932207, -0.9828848, 0.25298834, 10.268229
1464897163315971, 6.111269, -0.5312066, 7.5996046, 0.9333128, -0.28333998, 9.717636
1464897165725710, 6.4606214, 0.7369894, 7.9346, -0.25673944, 0.0875268, 10.2551
1464897168135398, 6.3338017, 1.052842, 7.960921, -0.59360623, 0.05534649, 10.210111
1464897170545138, 6.108876, -0.552742, 7.5637126, 0.9589826, -0.26667166, 9.687253
1464897172954877, 6.530013, 1.253839, 7.984849, -0.7473162, 0.23595428, 10.361315
1464897175364617, 6.2811594, 0.45224348, 7.8963146, -0.01063925, -0.09540701, 10.099508
1464897177774356, 6.1974106, -0.33499518, 7.6737823, 0.7564937, -0.22625494, 9.837864
1464897180184096, 6.518049, 1.5816557, 7.948957, -1.0531563, 0.34347773, 10.341442
1464897182593835, 6.1902323, -0.1268196, 7.7479596, 0.54403424, -0.22336674, 9.90051
1464897185003523, 6.3314085, 0.10289137, 7.8053875, 0.34444165, -0.09313393, 10.044604
1464897187413263, 6.4773707, 1.5840486, 7.8987074, -1.0581156, 0.3453164, 10.276977
1464897189823002, 6.166304, -0.46181476, 7.6019974, 0.8857877, -0.21874905, 9.756765
1464897192232742, 6.4797635, 0.63170516, 7.8699937, -0.1383112, 0.11224508, 10.212318
1464897194642481, 6.407979, 1.2203395, 7.9154572, -0.7249091, 0.1704464, 10.229924
1464897197052221, 6.1495543, -0.55513483, 7.5326056, 0.9840776, -0.2182703, 9.687585
1464897199461960, 6.5515485, 1.1318051, 7.958528, -0.6141938, 0.23581886, 10.349352
1464897201871648, 6.3314085, 0.6412765, 7.8987074, -0.18089867, -0.012789249, 10.141728
1464897204281388, 6.195018, -0.40677986, 7.585248, 0.84055114, -0.17963457, 9.764268
1464897206691127, 6.5611196, 1.5314065, 7.9106717, -0.9908646, 0.37965298, 10.336649
1464897209100867, 6.2691956, 0.038285162, 7.7383885, 0.41221482, -0.11156273, 9.950104
1464897211510606, 6.3122663, -0.06699903, 7.7144604, 0.52837515, -0.09155226, 9.953618
1464897213920346, 6.515656, 1.5984055, 7.8580294, -1.0562373, 0.38359737, 10.271051
1464897216330085, 6.1878395, -0.39720857, 7.6019974, 0.83511627, -0.19070005, 9.772599
1464897218739773, 6.472585, 0.44027936, 7.82453, 0.055535853, 0.08963823, 10.163679
1464897221149513, 6.4438715, 1.3351951, 7.905886, -0.82573, 0.23627234, 10.250444
1464897223559252, 6.142376, -0.5766702, 7.5349984, 1.0038042, -0.22796726, 9.683901
1464897225968992, 6.5347986, 0.9810573, 7.925029, -0.4606036, 0.20304823, 10.306249
1464897228378731, 6.326623, 0.7752745, 7.9034934, -0.30435705, 0.010777473, 10.148875
1464897230788471, 6.1495543, -0.5072784, 7.568498, 0.93875515, -0.22759676, 9.717173
1464897233198210, 6.530013, 1.3950156, 7.9704924, -0.87042236, 0.27238798, 10.357802
1464897235607898, 6.2261243, 0.16510476, 7.8317084, 0.26393783, -0.17460299, 10.00137
1464897238017638, 6.2237315, -0.2009971, 7.7407813, 0.6281016, -0.21648502, 9.912293
1464897240427377, 6.489335, 1.5840486, 7.958528, -1.0588789, 0.3152833, 10.33142
1464897242837117, 6.161518, -0.32542387, 7.7096744, 0.7410605, -0.27660275, 9.842947
1464897245246856, 6.3768725, 0.2536392, 7.877172, 0.2140395, -0.068060875, 10.135494
1464897247656596, 6.4366927, 1.4356936, 7.9346, -0.92056596, 0.24463844, 10.273404
1464897250066335, 6.1208405, -0.57427746, 7.6139617, 0.98299813, -0.30794287, 9.73169
1464897252476023, 6.4773707, 0.79920274, 7.9680996, -0.3060295, 0.09237957, 10.294828
1464897254885763, 6.326623, 0.93320084, 7.9800634, -0.47193372, 0.0017795563, 10.215466
1464897257295502, 6.128019, -0.56470615, 7.597212, 0.9808563, -0.27630663, 9.72372
1464897259705242, 6.501299, 1.2969099, 8.013563, -0.78540254, 0.19980383, 10.368668
1464897262114981, 6.2285175, 0.33499518, 7.8891363, 0.10142189, -0.16145086, 10.055285
1464897264524721, 6.1639113, -0.31345975, 7.7001033, 0.73283124, -0.2650156, 9.837498
1464897266934460, 6.4701924, 1.564906, 7.958528, -1.0402827, 0.29729176, 10.318911
1464897269344148, 6.1328044, -0.19860429, 7.7383885, 0.60931456, -0.2807207, 9.853087
1464897271753888, 6.2979093, 0.11724831, 7.8460655, 0.3248788, -0.13968897, 10.055502
1464897274163627, 6.4151573, 1.5122639, 7.932207, -1.0035266, 0.26057005, 10.260904
1464897276573367, 6.099305, -0.5192425, 7.628319, 0.9232248, -0.31841612, 9.731837
1464897278983106, 6.4199433, 0.634098, 7.946564, -0.155586, 0.025074959, 10.234295
1464897281392846, 6.326623, 1.1246266, 7.9680996, -0.649241, 0.0701437, 10.215436
1464897283802585, 6.0897336, -0.567099, 7.578069, 0.969934, -0.31600094, 9.684678
1464897286212273, 6.4941206, 1.2011969, 7.9968133, -0.69025505, 0.20525599, 10.34635
1464897288622013, 6.242874, 0.51445687, 7.9226356, -0.08009803, -0.12132025, 10.098772
1464897291031752, 6.168697, -0.37806597, 7.664211, 0.79281664, -0.25902557, 9.810211
1464897293441492, 6.515656, 1.5529419, 7.999206, -1.0259567, 0.31650305, 10.377858
1464897295851231, 6.192625, -0.05742774, 7.812566, 0.47416842, -0.2452445, 9.955055
1464897298260971, 6.2811594, -0.014356935, 7.8197446, 0.4528693, -0.17251968, 10.01832
1464897300670658, 6.465407, 1.5864414, 7.941778, -1.0585617, 0.3201294, 10.303741
1464897303080398, 6.13759, -0.45224348, 7.652247, 0.85752404, -0.2934823, 9.778034
1464897305490138, 6.4295144, 0.47138608, 7.9011, 0.005253315, 0.01951933, 10.197443
1464897307899877, 6.381658, 1.2729816, 7.944171, -0.7835547, 0.17118311, 10.237804
1464897310309617, 6.113662, -0.5982057, 7.52782, 1.010425, -0.26953936, 9.659667
1464897312719356, 6.515656, 1.0145568, 7.920243, -0.49642473, 0.2149949, 10.291777
1464897315129096, 6.317052, 0.701097, 7.8867435, -0.23686749, 0.0014138222, 10.1262665
1464897317538783, 6.1567326, -0.46899325, 7.542177, 0.8977585, -0.19868994, 9.703829
1464897319948523, 6.5276203, 1.4691931, 7.9106717, -0.93876094, 0.33641148, 10.31274
1464897322358263, 6.2309103, 0.08853444, 7.7671022, 0.3428917, -0.14241314, 9.950987
1464897324768002, 6.283552, -0.1363909, 7.6953177, 0.58338267, -0.11658478, 9.917945
1464897327177742, 6.498906, 1.6079768, 7.877172, -1.0773101, 0.37019014, 10.2749
1464897329587481, 6.1495543, -0.36131623, 7.647461, 0.7774489, -0.24117613, 9.786144
1464897331997221, 6.3960147, 0.33260235, 7.8436728, 0.13677692, -0.006233692, 10.125416
1464897334406960, 6.424729, 1.4141582, 7.893922, -0.90727574, 0.25137568, 10.232529
1464897336816648, 6.1328044, -0.53599226, 7.5254273, 0.9571275, -0.23380709, 9.672637
1464897339226388, 6.5276203, 0.89730847, 7.8891363, -0.38672853, 0.20815516, 10.269401
1464897341636127, 6.364908, 0.930808, 7.8891363, -0.45755523, 0.0959034, 10.168499
1464897344045867, 6.1591253, -0.4833502, 7.520642, 0.90660447, -0.19846773, 9.688508
1464897346455606, 6.5611196, 1.4189439, 7.9106717, -0.8863316, 0.34158134, 10.331415
1464897348865346, 6.2883377, 0.32303107, 7.783852, 0.12967509, -0.053962708, 10.010802
1464897351275085, 6.245267, -0.18664017, 7.645068, 0.6301105, -0.12656355, 9.852524
1464897353684773, 6.5084777, 1.6606189, 7.881958, -1.1285475, 0.37937737, 10.28716
1464897356094513, 6.1878395, -0.2009971, 7.649854, 0.6273146, -0.1725502, 9.819712
1464897358504252, 6.3720865, 0.25842485, 7.771888, 0.20772094, 0.0012273788, 10.051336
1464897360913992, 6.4462643, 1.550549, 7.836494, -1.0332146, 0.33018732, 10.2074795
1464897363323731, 6.142376, -0.46899325, 7.503892, 0.8970547, -0.18139124, 9.665379
1464897365733471, 6.5084777, 0.7800602, 7.84128, -0.26909482, 0.18474674, 10.215083
1464897368143158, 6.3960147, 1.1222339, 7.8699937, -0.62844354, 0.16575956, 10.182475
1464897370552898, 6.1591253, -0.50488555, 7.4775705, 0.94341546, -0.16127014, 9.653381
1464897372962638, 6.5515485, 1.268196, 7.920243, -0.7449834, 0.28616238, 10.325912
1464897375372377, 6.309873, 0.4761717, 7.853244, -0.021913886, -0.04466772, 10.085247
1464897377782117, 6.218946, -0.33020952, 7.628319, 0.7648455, -0.16909456, 9.816414
1464897380191856, 6.546763, 1.5840486, 7.9130645, -1.0486615, 0.37517786, 10.33177
1464897382601596, 6.216553, -0.09332009, 7.7120676, 0.5276736, -0.17169094, 9.890517
1464897385011283, 6.32423, 0.07178468, 7.776674, 0.3857546, -0.093583584, 10.015995
1464897387421023, 6.472585, 1.5888343, 7.874779, -1.0559326, 0.3500657, 10.256384
1464897389830763, 6.142376, -0.45702913, 7.5996046, 0.8723529, -0.256155, 9.739867
1464897392240502, 6.4558353, 0.60059845, 7.865208, -0.10963875, 0.088078976, 10.192165
1464897394650242, 6.3720865, 1.2251252, 7.908279, -0.73555017, 0.16151047, 10.201872
1464897397059981, 6.1160545, -0.57906306, 7.5254273, 0.99730384, -0.25240612, 9.659978
1464897399469721, 6.5108705, 1.0863415, 7.9657063, -0.57368463, 0.18564558, 10.327657
1464897401879460, 6.276374, 0.63170516, 7.932207, -0.18225414, -0.0819087, 10.132715
1464897404289148, 6.13759, -0.44027936, 7.6546397, 0.8524333, -0.29641008, 9.7797165
1464897406698888, 6.4869423, 1.4859428, 8.025527, -0.97009885, 0.24812555, 10.377615
1464897409108627, 6.1974106, 0.02632105, 7.8436728, 0.39066732, -0.2441392, 9.98597
1464897411518367, 6.2548385, -0.076570325, 7.8221374, 0.50297, -0.21461773, 10.000784
1464897413928106, 6.4534426, 1.6199409, 7.9680996, -1.1093459, 0.26913452, 10.317882
1464897416337846, 6.128019, -0.38524446, 7.6953177, 0.7986158, -0.2923646, 9.80794
1464897418747533, 6.384051, 0.41874397, 7.908279, 0.05447918, -0.03815031, 10.171919
1464897421157273, 6.35773, 1.3447664, 7.9393854, -0.8523041, 0.14701605, 10.223255
1464897423567013, 6.084948, -0.5886344, 7.5661054, 1.0058722, -0.2929759, 9.670648
1464897425976752, 6.4797635, 0.96430755, 7.948957, -0.46172506, 0.14169359, 10.28931
1464897428386492, 6.283552, 0.81834537, 7.9346, -0.36133254, -0.03036499, 10.147863
1464897430796231, 6.111269, -0.50009996, 7.5661054, 0.92135066, -0.2534852, 9.691774
1464897433205971, 6.501299, 1.4261223, 7.9537425, -0.89948314, 0.2673664, 10.328707
1464897435615710, 6.206982, 0.20338993, 7.82453, 0.23576981, -0.17044592, 9.985321
1464897438025398, 6.2141604, -0.22492532, 7.728817, 0.6637275, -0.20963764, 9.895276
1464897440435138, 6.472585, 1.6247265, 7.941778, -1.096441, 0.3000002, 10.310856
1464897442844877, 6.1495543, -0.27756742, 7.704889, 0.70407885, -0.256289, 9.833512
1464897445254617, 6.355337, 0.25842485, 7.8556366, 0.2066533, -0.0672822, 10.105488
1464897447664356, 6.3768725, 1.4596218, 7.9130645, -0.95610446, 0.21820116, 10.22007
1464897450074096, 6.0729837, -0.55034924, 7.568498, 0.96213, -0.3052826, 9.666815
1464897452483783, 6.4366927, 0.8207382, 7.9298143, -0.32116455, 0.087798595, 10.240887
1464897454893575, 6.285945, 0.9882358, 7.9298143, -0.52068007, 0.012804031, 10.153837
1464897457303263, 6.084948, -0.5407779, 7.52782, 0.9644852, -0.25805044, 9.643147
1464897459713002, 6.489335, 1.3184453, 7.9513497, -0.7990432, 0.23116446, 10.314157
1464897462122742, 6.2213387, 0.37806597, 7.82453, 0.06585312, -0.11708212, 10.002661
1464897464532481, 6.168697, -0.30149564, 7.628319, 0.73843104, -0.2033019, 9.78511
1464897466942221, 6.4797635, 1.6151553, 7.905886, -1.0813836, 0.32942152, 10.286943
1464897469351908, 6.168697, -0.148355, 7.702496, 0.5813039, -0.21147299, 9.849906
1464897471761648, 6.34098, 0.11724831, 7.795816, 0.3524683, -0.07585049, 10.043235
1464897474171388, 6.463014, 1.564906, 7.879565, -1.0319636, 0.31993103, 10.253768
1464897476581127, 6.1495543, -0.49052864, 7.5613194, 0.9216882, -0.24258852, 9.711995
1464897478990867, 6.4773707, 0.6556334, 7.853244, -0.14841509, 0.12734318, 10.199087
1464897481400606, 6.367301, 1.146162, 7.9154572, -0.65533006, 0.13868093, 10.201077
1464897483810346, 6.1208405, -0.567099, 7.537391, 0.9854845, -0.27011967, 9.672353
1464897486220085, 6.532406, 1.1772687, 7.9704924, -0.65242505, 0.22651625, 10.3494
1464897488629773, 6.2955165, 0.5383851, 7.8867435, -0.079188585, -0.061657906, 10.105149
1464897491039513, 6.1854467, -0.37328035, 7.62114, 0.8069227, -0.2133317, 9.786942
1464897493449252, 6.518049, 1.564906, 7.946564, -1.0291321, 0.33095884, 10.33988
1464897495858992, 6.209375, -0.043070808, 7.759924, 0.4713168, -0.19556713, 9.925434
1464897498268731, 6.2979093, -0.03589234, 7.7671022, 0.47940576, -0.14735317, 9.987056
1464897500678471, 6.474978, 1.5840486, 7.893922, -1.0441159, 0.371449, 10.272312
1464897503088210, 6.15434, -0.44745782, 7.6307116, 0.8594731, -0.2877679, 9.771508
1464897505497898, 6.4366927, 0.45224348, 7.879565, 0.03645897, 0.024938107, 10.184357
1464897507907638, 6.4031935, 1.3064811, 7.925029, -0.7962822, 0.21595669, 10.238806
1464897510317377, 6.1232333, -0.567099, 7.5493555, 0.9769037, -0.29328108, 9.683388
1464897512727117, 6.518049, 1.0169497, 7.9369926, -0.49668127, 0.21236277, 10.306465
1464897515136856, 6.3338017, 0.73459655, 7.9154572, -0.2705825, 0.0131464, 10.160599
1464897517546596, 6.178268, -0.4546363, 7.570891, 0.87597096, -0.24334574, 9.7401
1464897519956283, 6.5515485, 1.4715859, 7.9680996, -0.9209086, 0.35811424, 10.373171
1464897522366023, 6.2524457, 0.11246266, 7.8149586, 0.32152784, -0.17006731, 10.002351
1464897524775763, 6.2883377, -0.12203395, 7.7479596, 0.56837845, -0.15963268, 9.96195
1464897527185502, 6.4821568, 1.6295122, 7.9106717, -1.0885515, 0.36500168, 10.292435
1464897529595242, 6.151947, -0.33499518, 7.664211, 0.74743557, -0.26622677, 9.801492
1464897532004981, 6.4271216, 0.3278167, 7.8604226, 0.15054822, -9.355545E-4, 10.1577015
1464897534414721, 6.4343, 1.4476577, 7.908279, -0.92318034, 0.3037591, 10.2514515
1464897536824460, 6.1328044, -0.5312066, 7.5493555, 0.9432224, -0.28386545, 9.691027
1464897539234148, 6.506085, 0.8805587, 7.8987074, -0.3603363, 0.19382238, 10.26288
1464897541643888, 6.3601227, 0.9403793, 7.920243, -0.45372456, 0.08979273, 10.190771
1464897544053627, 6.1639113, -0.51445687, 7.542177, 0.9470316, -0.22866154, 9.705347
1464897546463367, 6.546763, 1.3639089, 7.9776707, -0.82861996, 0.29714584, 10.372496
1464897548873106, 6.2811594, 0.3182454, 7.8556366, 0.1264962, -0.10809946, 10.061689
1464897551282846, 6.250053, -0.20578274, 7.704889, 0.64326084, -0.18117905, 9.900719
1464897553692585, 6.5276203, 1.6558332, 7.948957, -1.1087104, 0.37971497, 10.352011
1464897556102325, 6.1998034, -0.19860429, 7.728817, 0.62506044, -0.23131514, 9.887741
1464897558512013, 6.3792653, 0.22492532, 7.853244, 0.24457157, -0.05807829, 10.117107
1464897560921752, 6.4558353, 1.538585, 7.944171, -1.0123435, 0.28802872, 10.297917
1464897563331492, 6.13759, -0.4953143, 7.6307116, 0.9094167, -0.28953648, 9.7587
1464897565741231, 6.4677997, 0.71306115, 7.941778, -0.2185173, 0.08201933, 10.264416
1464897568150971, 6.35773, 1.079163, 7.9920278, -0.6030452, 0.06502867, 10.251339
1464897570560710, 6.1447687, -0.5623133, 7.6019974, 0.98068017, -0.2813325, 9.737755
1464897572970398, 6.5347986, 1.2251252, 8.02792, -0.70251334, 0.2110095, 10.397788
1464897575380138, 6.276374, 0.4761717, 7.9513497, -0.030099511, -0.12855005, 10.140323
1464897577789877, 6.1902323, -0.36610186, 7.716853, 0.79157823, -0.2662382, 9.8643465
1464897580199617, 6.5347986, 1.5672989, 8.018349, -1.0323322, 0.305696, 10.406477
1464897582609356, 6.178268, -0.11964113, 7.8197446, 0.53790164, -0.27462816, 9.948313
1464897585019096, 6.2931237, 0.033499517, 7.877172, 0.4107852, -0.17939901, 10.072411
1464897587428835, 6.439086, 1.550549, 7.9680996, -1.0350738, 0.25159025, 10.306405
1464897589838575, 6.108876, -0.47138608, 7.6666036, 0.8837005, -0.31229687, 9.769286
1464897592248263, 6.424729, 0.55752766, 7.9369926, -0.07401925, 0.01236105, 10.226349
1464897594658002, 6.3601227, 1.2011969, 7.989635, -0.71309465, 0.09090328, 10.257268
1464897597067742, 6.0634127, -0.58624154, 7.5924263, 0.9977987, -0.31934166, 9.677603
1464897599477481, 6.463014, 1.0719845, 7.984849, -0.5691887, 0.13407946, 10.311913
1464897601887221, 6.259624, 0.634098, 7.9537425, -0.18489826, -0.103719234, 10.139133
1464897604296960, 6.142376, -0.45702913, 7.63789, 0.87978905, -0.2694955, 9.768744
1464897606706648, 6.5252275, 1.4787644, 7.975278, -0.94597834, 0.29743147, 10.362773
1464897609116388, 6.2141604, 0.019142581, 7.8029947, 0.42068094, -0.19801235, 9.964271
1464897611526127, 6.2883377, -0.11724831, 7.7623167, 0.57422745, -0.15208435, 9.972845
1464897613935867, 6.4869423, 1.5984055, 7.8987074, -1.0545737, 0.34306335, 10.285673
1464897616345606, 6.166304, -0.38763726, 7.6546397, 0.82798153, -0.2268796, 9.799493
1464897618755346, 6.439086, 0.4211368, 7.874779, 0.0703488, 0.02752161, 10.180652
1464897621165085, 6.4127645, 1.3686945, 7.8987074, -0.85670435, 0.2106576, 10.227813
1464897623574825, 6.1232333, -0.5623133, 7.5182486, 1.0010145, -0.21603918, 9.658445
1464897625984513, 6.4941206, 0.95473623, 7.8867435, -0.42726547, 0.19009924, 10.250227
1464897628394252, 6.300302, 0.8350951, 7.874779, -0.35352248, 0.023299694, 10.113249
1464897630803992, 6.1328044, -0.4953143, 7.5110703, 0.9373236, -0.21008253, 9.661785
1464897633213731, 6.530013, 1.416551, 7.8867435, -0.8680073, 0.33222914, 10.294882
1464897635623471, 6.250053, 0.22492532, 7.757531, 0.23416513, -0.094815254, 9.961388
1464897638033210, 6.262017, -0.21774685, 7.63789, 0.67947, -0.12308073, 9.85499
1464897640442950, 6.513263, 1.6151553, 7.853244, -1.0624901, 0.39110613, 10.267567
1464897642852638, 6.1854467, -0.29671, 7.635497, 0.74250954, -0.19935799, 9.800895
1464897645262377, 6.3960147, 0.22971097, 7.793423, 0.2614423, -0.008579731, 10.081209
1464897647672117, 6.4343, 1.4548361, 7.879565, -0.92243147, 0.2822585, 10.231019
1464897650081856, 6.1304116, -0.5623133, 7.5732837, 0.98864794, -0.27933598, 9.705531
1464897652491596, 6.4773707, 0.8063812, 7.9106717, -0.29423308, 0.12590599, 10.250996
1464897654901335, 6.343373, 1.0001999, 7.9369926, -0.5163993, 0.06097889, 10.196287
1464897657311075, 6.125626, -0.5383851, 7.530213, 0.97383, -0.23103571, 9.670343
1464897659720763, 6.530013, 1.3208381, 7.941778, -0.7842073, 0.2638116, 10.333098
1464897662130502, 6.2787666, 0.40438703, 7.836494, 0.06195563, -0.078997135, 10.049228
1464897664540242, 6.216553, -0.30149564, 7.6426754, 0.75389117, -0.17532587, 9.825875
1464897666949981, 6.5084777, 1.605584, 7.893922, -1.0601078, 0.34783792, 10.295988
1464897669359721, 6.1878395, -0.15314065, 7.6809607, 0.59463555, -0.18327904, 9.844937
1464897671769460, 6.314659, 0.07178468, 7.7671022, 0.39421892, -0.087453365, 10.002245
1464897674179200, 6.4295144, 1.5290136, 7.865208, -0.99864334, 0.30294466, 10.220028
1464897676588940, 6.0921264, -0.53599226, 7.570891, 0.95640576, -0.29024696, 9.680946
1464897678998627, 6.4295144, 0.5838487, 7.867601, -0.082656205, 0.06128502, 10.176841
1464897681408367, 6.3290157, 1.1318051, 7.9130645, -0.64044726, 0.09719467, 10.175185
1464897683818106, 6.1040907, -0.61016977, 7.5230346, 1.0439395, -0.25430584, 9.647476
1464897686227846, 6.498906, 1.146162, 7.944171, -0.62750685, 0.20072603, 10.306565
1464897688637585, 6.257231, 0.5455636, 7.8891363, -0.09086257, -0.08964586, 10.083292
1464897691047325, 6.1734824, -0.41156548, 7.618747, 0.8476456, -0.2133689, 9.77561
1464897693457065, 6.501299, 1.5266209, 7.9561353, -0.99639934, 0.28711128, 10.335487
1464897695866804, 6.1567326, -0.03589234, 7.793423, 0.4628725, -0.24452162, 9.918167
1464897698276492, 6.2404814, -0.03589234, 7.8149586, 0.47851795, -0.1953516, 9.987558
1464897700686231, 6.407979, 1.5960127, 7.958528, -1.0830996, 0.23416519, 10.282008
1464897703095971, 6.087341, -0.4019942, 7.688139, 0.80982834, -0.31851625, 9.775866
1464897705505710, 6.3792653, 0.47856453, 7.9106717, -0.0061658025, -0.025112629, 10.173599
1464897707915450, 6.35773, 1.3447664, 7.9657063, -0.8561767, 0.13319683, 10.243577
1464897710325190, 6.0921264, -0.5407779, 7.5661054, 0.9610289, -0.2704444, 9.677588
1464897712734929, 6.4845495, 1.052842, 7.960921, -0.5408855, 0.15974665, 10.306117
1464897715144617, 6.2931237, 0.782453, 7.9298143, -0.3163855, -0.027551651, 10.148731
1464897717554356, 6.1471615, -0.44745782, 7.594819, 0.8827554, -0.22746944, 9.738485
1464897719964096, 6.501299, 1.4763715, 7.9776707, -0.9513941, 0.26731157, 10.34955
1464897722373835, 6.204589, 0.13878371, 7.82453, 0.29405177, -0.18430519, 9.980933
1464897724783575, 6.235696, -0.124426775, 7.759924, 0.5666321, -0.18585157, 9.937817
1464897727193315, 6.4558353, 1.6534405, 7.946564, -1.1311483, 0.28982973, 10.305149
1464897729603054, 6.125626, -0.30388847, 7.716853, 0.7229742, -0.2813444, 9.82668
1464897732012794, 6.367301, 0.3397808, 7.891529, 0.13339603, -0.05643654, 10.144615
1464897734422481, 6.4008007, 1.4476577, 7.960921, -0.94212383, 0.1891203, 10.272238
1464897736832221, 6.1040907, -0.53599226, 7.597212, 0.9560919, -0.27696085, 9.709482
1464897739241960, 6.5084777, 0.8662018, 7.941778, -0.35766143, 0.14369869, 10.297276
1464897741651700, 6.355337, 0.94277215, 7.9393854, -0.46431434, 0.04882574, 10.202697
1464897744061440, 6.1591253, -0.5240282, 7.530213, 0.9635088, -0.1914115, 9.692705
1464897746471179, 6.539584, 1.3734802, 7.932207, -0.83894664, 0.303236, 10.333283
1464897748880919, 6.276374, 0.3397808, 7.8173513, 0.12146503, -0.07952738, 10.029867
1464897751290606, 6.242874, -0.23688944, 7.647461, 0.69252634, -0.14202356, 9.849544
1464897753700346, 6.5204415, 1.6414764, 7.879565, -1.0918789, 0.3855648, 10.293557
1464897756110085, 6.1854467, -0.19142582, 7.6666036, 0.6365573, -0.17422485, 9.830445
1464897758519825, 6.3696938, 0.22253251, 7.810173, 0.25263524, -0.029785633, 10.07753
1464897760929565, 6.4414787, 1.5457634, 7.879565, -1.0235786, 0.28455877, 10.239183
1464897763339304, 6.135197, -0.50009996, 7.5613194, 0.936155, -0.2176094, 9.702604
1464897765749044, 6.4677997, 0.7298109, 7.865208, -0.21713477, 0.12740278, 10.206036
1464897768158731, 6.352944, 1.1485549, 7.9011, -0.6520947, 0.1208148, 10.181681
1464897770568471, 6.111269, -0.5192425, 7.5110703, 0.9536599, -0.22175312, 9.647526
1464897772978210, 6.489335, 1.2586247, 7.932207, -0.7359562, 0.23097897, 10.296626
1464897775387950, 6.262017, 0.51445687, 7.8628154, -0.05630946, -0.07631683, 10.064411
1464897777797690, 6.1854467, -0.33499518, 7.623533, 0.77679336, -0.18969154, 9.790344
1464897780207429, 6.4941206, 1.605584, 7.9393854, -1.0741388, 0.31310558, 10.321508
1464897782617169, 6.1639113, -0.059820566, 7.759924, 0.49422055, -0.22401237, 9.895422
1464897785026908, 6.283552, 0.06460621, 7.8053875, 0.39622498, -0.13322115, 10.01182
1464897787436596, 6.4295144, 1.6151553, 7.9106717, -1.0877783, 0.28252363, 10.259777
1464897789846335, 6.0921264, -0.44506502, 7.647461, 0.8677439, -0.2990389, 9.744402
1464897792256075, 6.4031935, 0.5623133, 7.9130645, -0.07753068, 0.010381222, 10.194487
1464897794665815, 6.32423, 1.2514462, 7.946564, -0.7666881, 0.09547472, 10.203575
1464897797075554, 6.0777693, -0.567099, 7.556534, 0.9909489, -0.27776814, 9.659346
1464897799485294, 6.472585, 1.0911272, 7.9657063, -0.57592845, 0.15338135, 10.304474
1464897801895033, 6.250053, 0.68195444, 7.925029, -0.22127312, -0.083810806, 10.113275
1464897804304773, 6.1184473, -0.43070808, 7.597212, 0.86362565, -0.25397205, 9.72256
1464897806714513, 6.491728, 1.5002998, 7.925029, -0.9614869, 0.30578852, 10.304443
1464897809124200, 6.1854467, 0.05742774, 7.7623167, 0.3846826, -0.1835084, 9.916398
1464897811533940, 6.2404814, -0.13878371, 7.745567, 0.5852313, -0.18065786, 9.928823
1464897813943679, 6.4534426, 1.6103697, 7.905886, -1.0744476, 0.31693935, 10.270754
1464897816353419, 6.128019, -0.39720857, 7.6737823, 0.82090575, -0.28817034, 9.789812
1464897818763158, 6.3720865, 0.3804588, 7.8987074, 0.09712118, -0.048116207, 10.155102
1464897821172898, 6.367301, 1.3399807, 7.9657063, -0.8363022, 0.14877844, 10.250319
1464897823582638, 6.0729837, -0.58624154, 7.6067834, 1.002359, -0.3364129, 9.693817
1464897825992325, 6.4606214, 0.92602235, 7.982456, -0.42261893, 0.1017108, 10.301836
