timestamp_acc,device_acc_x,device_acc_y,device_acc_z,earth_acc_x,earth_acc_y,earth_acc_z
97019713521621, -0.32063824, 7.4105716, 6.582655, 0.16984308, 0.08948183, 9.915336
97019723160371, -0.35533416, 7.367501, 6.576673, 0.1269362, 0.07881832, 9.8811245
97019732799225, -0.34576288, 7.3866434, 6.6125655, 0.13140357, 0.060920715, 9.919027
97019742437975, -0.357727, 7.4010005, 6.62094, 0.12076485, 0.06679058, 9.9358225
97019752076725, -0.36729828, 7.3459654, 6.5946193, 0.10214937, 0.05361557, 9.877945
97019761715579, -0.41874397, 7.300502, 6.5922265, 0.041713476, 0.041942596, 9.845132
97019771354329, -0.44506502, 7.2729845, 6.619744, 0.0043872595, 0.012309074, 9.844553
97019780993183, -0.47856453, 7.26102, 6.6424756, -0.032343626, -0.0014958382, 9.852556
97019790631933, -0.5204389, 7.227521, 6.650851, -0.08147943, -0.016861916, 9.835386
97019800270683, -0.53599226, 7.2299137, 6.652047, -0.09404361, -0.010630608, 9.838684
97019809909537, -0.5563313, 7.200003, 6.664011, -0.11805272, -0.029984951, 9.825668
97019819548287, -0.567099, 7.1892357, 6.666404, -0.13133395, -0.03511715, 9.819836
97019829187037, -0.5479564, 7.196414, 6.6927247, -0.11245549, -0.05166626, 9.842048
97019838825891, -0.5407779, 7.2119675, 6.704689, -0.102401376, -0.05122614, 9.86127
97019848464641, -0.56590253, 7.219146, 6.7094746, -0.12462723, -0.039284706, 9.870981
97019858103496, -0.55513483, 7.237092, 6.7058854, -0.10766554, -0.027789593, 9.881307
97019867742246, -0.5599205, 7.2586274, 6.721439, -0.10891855, -0.024476528, 9.9079
97019877380996, -0.4953143, 7.3112698, 6.7465634, -0.0398463, -0.029016018, 9.960608
97019887019850, -0.42831525, 7.3567333, 6.73101, 0.038365245, -0.00939846, 9.980476
97019896658600, -0.36490545, 7.38784, 6.7058854, 0.107856035, 0.007473469, 9.983514
97019906297350, -0.34337005, 7.4033933, 6.666404, 0.13686621, 0.039196014, 9.967386
97019915936204, -0.32422748, 7.411768, 6.6424756, 0.1593256, 0.054533005, 9.956581
97019925574954, -0.30029923, 7.426125, 6.6424756, 0.18217063, 0.05836439, 9.966114
97019935213808, -0.3062813, 7.4129643, 6.6161547, 0.17681646, 0.06686211, 9.938994
97019944852558, -0.3493521, 7.3866434, 6.550352, 0.1418339, 0.109735966, 9.877221
97019954491308, -0.37686956, 7.322037, 6.5084777, 0.10775387, 0.10394192, 9.802658
97019964130162, -0.37567315, 7.3028946, 6.524031, 0.100762844, 0.076636314, 9.798998
97019973768912, -0.4019942, 7.280163, 6.567102, 0.062624335, 0.038309574, 9.812432
97019983407766, -0.4749753, 7.245467, 6.6221366, -0.024949789, 6.2942505E-5, 9.827231
97019993046516, -0.55034924, 7.220342, 6.6855464, -0.115107775, -0.03793001, 9.854851
97020002685266, -0.5766702, 7.192825, 6.690332, -0.14537954, -0.049129486, 9.83902
97020012324121, -0.6017949, 7.1820574, 6.721439, -0.17444801, -0.06870365, 9.853258
97020021962871, -0.60777694, 7.186843, 6.7501526, -0.18118477, -0.083236694, 9.876481
97020031601621, -0.5706882, 7.207182, 6.7298136, -0.13436341, -0.06517267, 9.876095
97020041240475, -0.573081, 7.210771, 6.6975107, -0.12696505, -0.03768778, 9.857119
97020050879225, -0.5802595, 7.1976104, 6.674779, -0.13101268, -0.028213024, 9.832449
97020060518079, -0.552742, 7.1952176, 6.678368, -0.105376124, -0.040168285, 9.831815
97020070156829, -0.4833502, 7.2693954, 6.6759753, -0.01995182, -0.0132780075, 9.88159
97020079795579, -0.4546363, 7.304091, 6.631708, 0.026183605, 0.030369282, 9.875949
97020089434433, -0.465404, 7.2873416, 6.6532435, 0.0066258907, 0.007890224, 9.878638
97020099073183, -0.46779683, 7.3160553, 6.698707, 9.78589E-4, -0.0069646835, 9.930566
97020108711933, -0.46061835, 7.338787, 6.664011, 0.02057147, 0.02970028, 9.9235935
97020118350787, -0.41994038, 7.342376, 6.6424756, 0.064584136, 0.03439617, 9.909791
97020127989537, -0.39361933, 7.37109, 6.631708, 0.097463965, 0.051131725, 9.922466
97020137628287, -0.34576288, 7.3830543, 6.602994, 0.15214121, 0.06265116, 9.909666
97020147267141, -0.3493521, 7.3663044, 6.5479593, 0.15101647, 0.09145832, 9.860481
97020156905891, -0.357727, 7.344769, 6.530013, 0.14122975, 0.09359026, 9.832901
97020166544746, -0.38883367, 7.301698, 6.539584, 0.09668267, 0.06772995, 9.809088
97020176183496, -0.35174492, 7.3160553, 6.5850477, 0.12260282, 0.03172779, 9.848616
97020185822246, -0.3804588, 7.3340015, 6.6305118, 0.08923411, 0.019527912, 9.893821
97020195461100, -0.4235296, 7.359126, 6.660422, 0.04841149, 0.027393818, 9.934497
97020205099850, -0.45942193, 7.3292155, 6.7166533, -0.0046452284, -0.020251751, 9.951959
97020214738600, -0.50129634, 7.298109, 6.759724, -0.059868813, -0.057531357, 9.959953
97020224377454, -0.552742, 7.283752, 6.759724, -0.10801029, -0.049233913, 9.951801
97020234016204, -0.5838487, 7.2550383, 6.762117, -0.14227962, -0.058189392, 9.933733
97020243655058, -0.6017949, 7.2083783, 6.765706, -0.17153347, -0.084261894, 9.902582
97020253293808, -0.62093747, 7.1772714, 6.734599, -0.18803358, -0.07465935, 9.859648
97020262932558, -0.60658056, 7.1677003, 6.6556363, -0.15482104, -0.0251832, 9.798814
97020272571412, -0.57188463, 7.1581287, 6.5647087, -0.10503185, 0.021460056, 9.728811
97020282210162, -0.506082, 7.210771, 6.5491557, -0.023962379, 0.043203354, 9.75399
97020291848912, -0.47856453, 7.240681, 6.532406, 0.0138943195, 0.063396454, 9.763432
97020301487766, -0.4534399, 7.2358956, 6.501299, 0.04249096, 0.07253885, 9.737741
97020311126516, -0.4438686, 7.263413, 6.513263, 0.053334832, 0.07548857, 9.765667
97020320765266, -0.41874397, 7.298109, 6.5539412, 0.07688224, 0.06030035, 9.8174515
97020330404121, -0.40917268, 7.322037, 6.59103, 0.08237219, 0.04523897, 9.85964
97020340042871, -0.46779683, 7.3052874, 6.629315, 0.01217258, 0.027168274, 9.875879
97020349681621, -0.45942193, 7.318448, 6.6891356, 0.00916338, -0.0096178055, 9.925478
97020359320475, -0.45583272, 7.3304124, 6.6795645, 0.015071869, 0.005031109, 9.927692
97020368959225, -0.39601216, 7.3770723, 6.660422, 0.087026, 0.029420853, 9.946398
97020378598079, -0.3278167, 7.399804, 6.631708, 0.1588012, 0.04413271, 9.940674
97020388236829, -0.28713873, 7.409375, 6.6161547, 0.1993661, 0.050263405, 9.935417
97020397875579, -0.29072794, 7.4237323, 6.631708, 0.19308579, 0.050294876, 9.95671
97020407514433, -0.3361916, 7.4033933, 6.6687965, 0.13812041, 0.023919106, 9.968775
97020417153183, -0.45942193, 7.32443, 6.6891356, -0.0036427975, -0.005259514, 9.929897
97020426791933, -0.54675996, 7.2622166, 6.7011, -0.101115465, -0.026705265, 9.896088
97020436430787, -0.59700924, 7.2179494, 6.6975107, -0.15449381, -0.036777496, 9.8633995
97020446069537, -0.6149554, 7.1892357, 6.7094746, -0.18058908, -0.057941914, 9.85111
97020455708287, -0.6376872, 7.152147, 6.7501526, -0.21422124, -0.10221863, 9.852312
97020465347141, -0.6125626, 7.160522, 6.7465634, -0.18338859, -0.10057402, 9.854982
97020474985891, -0.58624154, 7.1688967, 6.719046, -0.14793229, -0.08065081, 9.84144
97020484624641, -0.5288138, 7.213164, 6.6939216, -0.07644379, -0.04949999, 9.8544235
97020494263496, -0.4977071, 7.26102, 6.6687965, -0.029898524, -0.010352135, 9.871271
97020503902246, -0.4761717, 7.2861447, 6.6532435, -0.0013422966, 0.009721756, 9.878268
97020513540996, -0.485743, 7.3112698, 6.652047, -0.006303549, 0.026658535, 9.896442
97020523179850, -0.45942193, 7.3100734, 6.660422, 0.017003298, 0.012181282, 9.89995
97020532818600, -0.5024927, 7.3064837, 6.6424756, -0.021812677, 0.034377098, 9.887266
97020542457350, -0.46779683, 7.2586274, 6.599405, 0.008388281, 0.024197578, 9.821304
97020552096204, -0.44745782, 7.24786, 6.524031, 0.040871024, 0.063951015, 9.761603
97020561734954, -0.40558344, 7.2729845, 6.5001025, 0.088774085, 0.08263111, 9.762041
97020571373704, -0.34337005, 7.3268228, 6.5204415, 0.15314114, 0.08152056, 9.812559
97020581012558, -0.30269206, 7.3842506, 6.579066, 0.19373453, 0.063957214, 9.892486
97020590651308, -0.28594232, 7.4249287, 6.62094, 0.20180368, 0.05250168, 9.950111
97020600290058, -0.33140594, 7.4010005, 6.6448684, 0.14814866, 0.034289837, 9.950668
97020609928912, -0.39840496, 7.37109, 6.664011, 0.070598125, 0.020329475, 9.944613
97020619567662, -0.4749753, 7.328019, 6.7022963, -0.020119548, -0.0101361275, 9.942119
97020629206412, -0.53240305, 7.2969127, 6.7334027, -0.088154435, -0.034713745, 9.942741
97020638845162, -0.5491528, 7.253842, 6.7202425, -0.1092602, -0.04674673, 9.902895
97020648484016, -0.5479564, 7.2179494, 6.690332, -0.10810256, -0.047400475, 9.856251
97020658122766, -0.53599226, 7.203593, 6.650851, -0.08923161, -0.031113148, 9.81855
97020667761516, -0.48933223, 7.253842, 6.634101, -0.029820919, -8.4114075E-4, 9.842158
97020677400371, -0.47138608, 7.2873416, 6.626922, -0.004256606, 0.018570423, 9.8612
97020687039121, -0.4426722, 7.332805, 6.617351, 0.03591299, 0.04506302, 9.886961
97020696677871, -0.41754755, 7.322037, 6.634101, 0.051154017, 0.014843464, 9.889138
97020706316725, -0.45224348, 7.3112698, 6.6185474, 0.018295169, 0.028347969, 9.872347
97020715955475, -0.5024927, 7.281359, 6.606583, -0.03419459, 0.032913685, 9.844562
97020725594225, -0.5371887, 7.2418776, 6.5946193, -0.07288134, 0.027004719, 9.808991
97020735233079, -0.5407779, 7.207182, 6.5778694, -0.08144903, 0.017802715, 9.772274
97020744871829, -0.5024927, 7.2705917, 6.573084, -0.025758028, 0.050245285, 9.814084
97020754510579, -0.56111693, 7.1449685, 6.5946193, -0.115461946, -0.027611732, 9.738602
97020764149329, -0.32542387, 7.4907312, 6.5431733, 0.19919348, 0.16026592, 9.948101
97020773788183, -0.56829536, 6.843473, 6.5347986, -0.18063688, -0.17286825, 9.476135
97020783426933, -0.31585258, 7.926225, 6.6891356, 0.27596533, 0.3279252, 10.367529
97020793065683, -0.50129634, 6.6149583, 6.579066, -0.17286325, -0.3713212, 9.334095
97020802704537, -0.37806597, 8.093722, 6.869794, 0.21424782, 0.32282543, 10.615799
97020812343287, -0.42711884, 6.68435, 6.5431733, -0.08843553, -0.31890583, 9.3577
97020821982037, -0.4749753, 7.8927255, 6.8111696, 0.088261485, 0.26440763, 10.432404
97020831620891, -0.37806597, 7.0348988, 6.5898337, 0.021736622, -0.14417076, 9.645588
97020841259641, -0.5922236, 7.3974113, 6.8315086, -0.14171207, -0.022589684, 10.0857
97020850898391, -0.34337005, 7.483553, 6.6352973, 0.15491831, 0.094258785, 10.005787
97020860537141, -0.5838487, 6.853044, 6.5742803, -0.21551597, -0.1814642, 9.510358
97020870175996, -0.27756742, 7.9106717, 6.661618, 0.3256768, 0.32099915, 10.335562
97020879814746, -0.48095736, 6.599405, 6.552745, -0.1820327, -0.35111284, 9.304058
97020889453496, -0.3074777, 8.111669, 6.7872415, 0.31666648, 0.36027145, 10.570255
97020899092246, -0.41635114, 6.65444, 6.407979, -0.08387625, -0.24486542, 9.243923
97020908731100, -0.4869394, 7.8484583, 6.686743, 0.089540124, 0.32730198, 10.3166275
97020918369850, -0.40917268, 6.88774, 6.4773707, -0.030090928, -0.15354109, 9.46257
97020928008600, -0.587438, 7.37109, 6.754938, -0.13452232, 0.011388302, 10.014441
97020937647350, -0.3182454, 7.432107, 6.606583, 0.16714168, 0.07264948, 9.947422
97020947286204, -0.57906306, 6.876972, 6.5276203, -0.20192504, -0.13838053, 9.496208
97020956924954, -0.31585258, 7.8604226, 6.567102, 0.2835598, 0.37065554, 10.236945
97020966563704, -0.5419743, 6.556334, 6.4761744, -0.24336457, -0.3122387, 9.222979
97020976202558, -0.39481574, 8.012366, 6.7932234, 0.20055282, 0.3211279, 10.505161
97020985841308, -0.506082, 6.503692, 6.495317, -0.2197324, -0.36758995, 9.195644
97020995480058, -0.51206404, 7.8233337, 6.762117, 0.04462242, 0.27479553, 10.349661
97021005118808, -0.46660042, 6.8482585, 6.532406, -0.10176587, -0.19002438, 9.473238
97021014757662, -0.6448657, 7.409375, 6.862615, -0.20255172, -0.011724949, 10.117757
97021024396412, -0.3361916, 7.3806615, 6.71426, 0.11332989, -0.026307106, 9.982731
97021034035162, -0.54436713, 7.0205417, 6.7011, -0.16885507, -0.17502737, 9.717506
97021043673912, -0.25962126, 7.921439, 6.6759753, 0.3188064, 0.3244009, 10.352697
97021053312662, -0.52283174, 6.6592255, 6.5455666, -0.20280182, -0.2986474, 9.345201
97021062951516, -0.35294133, 8.0614195, 6.8075805, 0.24241805, 0.34567833, 10.548741
97021072590266, -0.4235296, 6.558727, 6.5168524, -0.12942791, -0.37155867, 9.247208
97021082229016, -0.3912265, 7.946564, 6.7573314, 0.19071686, 0.31218433, 10.432098
97021091867766, -0.31585258, 6.863812, 6.4570317, 0.04870546, -0.17363405, 9.427218
97021101506621, -0.4989035, 7.5326056, 6.739385, -0.014961839, 0.105021, 10.119145
97021111145371, -0.27158538, 7.3770723, 6.5718875, 0.19450152, 0.053784847, 9.8814945
97021120784121, -0.5479564, 7.0348988, 6.6017976, -0.16378808, -0.09026623, 9.6612015
97021130422871, -0.2620141, 7.850851, 6.640083, 0.3016504, 0.30004215, 10.276876
97021140061725, -0.5814559, 6.5982084, 6.573084, -0.28958166, -0.3378873, 9.321043
97021149700475, -0.45583272, 7.9657063, 6.769295, 0.1206795, 0.34718513, 10.456984
97021159339225, -0.6017949, 6.428318, 6.4737816, -0.3226636, -0.37128162, 9.129806
97021168977975, -0.5623133, 7.800602, 6.735796, -0.010067701, 0.3032956, 10.317191
97021178616829, -0.47138608, 6.6963143, 6.4570317, -0.13178742, -0.22718573, 9.310593
97021188255579, -0.5910272, 7.463214, 6.7573314, -0.12395501, 0.07895708, 10.084085
97021197894329, -0.29910284, 7.2849483, 6.6221366, 0.1398828, -0.019202232, 9.848487
97021207533079, -0.5312066, 7.0540414, 6.680761, -0.15121937, -0.13962173, 9.727892
97021217171829, -0.25603202, 7.7910304, 6.647261, 0.29227126, 0.2673483, 10.236938
97021226810683, -0.5347959, 6.7118673, 6.5958157, -0.22251248, -0.2894106, 9.418424
97021236449433, -0.3290131, 8.100901, 6.8506513, 0.25256395, 0.33451605, 10.606064
97021246088183, -0.50129634, 6.567102, 6.559923, -0.22178411, -0.37159586, 9.285658
97021255726933, -0.43070808, 7.9860454, 6.8315086, 0.1268785, 0.31002712, 10.5128355
97021265365683, -0.36490545, 6.789634, 6.506085, -0.027570128, -0.23173141, 9.407814
97021275004537, -0.48215377, 7.605587, 6.7405815, 0.0046896935, 0.15293932, 10.1729765
97021284643287, -0.30029923, 7.1856465, 6.5144596, 0.12520397, -0.0024142265, 9.702896
97021294282037, -0.56590253, 7.0528445, 6.6041903, -0.17793393, -0.07085848, 9.676854
97021303920787, -0.25722843, 7.7144604, 6.552745, 0.28177083, 0.28907585, 10.117044
97021313559537, -0.47976094, 6.664011, 6.4773707, -0.16974401, -0.25262547, 9.300694
97021323198391, -0.20817557, 8.054241, 6.7322063, 0.36978757, 0.3587017, 10.486723
97021332837141, -0.33020952, 6.6352973, 6.538388, -0.053392053, -0.35491896, 9.314394
97021342475891, -0.28235307, 8.10449, 6.8099732, 0.28935874, 0.3617196, 10.579397
97021352114641, -0.2943172, 6.8303123, 6.4701924, 0.035998464, -0.19650936, 9.410805
97021361753391, -0.45224348, 7.7479596, 6.7645097, 0.047524214, 0.22092581, 10.292856
97021371392141, -0.29671, 7.2849483, 6.6149583, 0.11152518, -0.015843868, 9.843958
97021381030996, -0.5563313, 7.155736, 6.754938, -0.19480515, -0.113951206, 9.853542
97021390669746, -0.30269206, 7.631908, 6.6711893, 0.18104601, 0.16404009, 10.138181
97021400308496, -0.58265233, 6.5946193, 6.5754766, -0.31570113, -0.32530212, 9.319866
97021409947246, -0.36610186, 7.861619, 6.7968125, 0.15109384, 0.24371624, 10.39488
97021419585996, -0.53240305, 6.407979, 6.6245294, -0.32888508, -0.48428965, 9.213432
97021429224850, -0.40558344, 7.9573317, 6.875776, 0.13123345, 0.2694397, 10.519986
97021438863600, -0.37447673, 6.7202425, 6.512067, -0.077305436, -0.2638693, 9.361267
97021448502350, -0.47377887, 7.776674, 6.818348, 0.033527017, 0.21746016, 10.350969
97021458141100, -0.30269206, 7.223932, 6.640083, 0.09007168, -0.06559658, 9.816063
97021467779850, -0.56590253, 7.2789664, 6.7932234, -0.17696023, -0.046055317, 9.9708605
97021477418600, -0.317049, 7.6713896, 6.6592255, 0.18767416, 0.2073698, 10.159616
97021487057454, -0.59581286, 6.6759753, 6.5898337, -0.30634975, -0.27550983, 9.390409
97021496696204, -0.357727, 7.865208, 6.741778, 0.1875534, 0.2899294, 10.359624
97021506334954, -0.55513483, 6.3541408, 6.539584, -0.32777178, -0.45541286, 9.117819
97021515973704, -0.45583272, 7.8484583, 6.8111696, 0.0825181, 0.2661066, 10.3981
97021525612454, -0.46301118, 6.521638, 6.4965134, -0.18437123, -0.34948492, 9.208403
97021535251204, -0.5288138, 7.676175, 6.8099732, -0.03581667, 0.17632437, 10.27359
97021544890058, -0.3493521, 7.131808, 6.611369, 0.051932454, -0.07498407, 9.730704
97021554528808, -0.52522457, 7.365108, 6.780063, -0.09699416, 4.6682358E-4, 10.023997
97021564167558, -0.20338993, 7.749156, 6.640083, 0.32252407, 0.2493267, 10.19879
97021573806308, -0.43070808, 6.908079, 6.539584, -0.06831348, -0.14812899, 9.520852
97021583445058, -0.12083755, 8.084151, 6.6676, 0.46796536, 0.4145155, 10.461081
97021593083808, -0.3290131, 6.626922, 6.501299, -0.029654741, -0.3328352, 9.283297
97021602722558, -0.21655045, 8.085348, 6.768099, 0.353374, 0.36953974, 10.534016
97021612361412, -0.32542387, 6.6592255, 6.4199433, -0.004888892, -0.25681067, 9.252075
97021622000162, -0.44985065, 7.7994056, 6.686743, 0.07876289, 0.3064723, 10.2783985
97021631638912, -0.34576288, 7.070791, 6.501299, 0.04370296, -0.05597925, 9.6113205
97021641277662, -0.5599205, 7.3100734, 6.7011, -0.14345217, 0.018846512, 9.93149
97021650916412, -0.29312077, 7.52782, 6.521638, 0.20380354, 0.19761467, 9.96018
97021660555162, -0.58624154, 6.7573314, 6.465407, -0.254735, -0.14707613, 9.365905
97021670193912, -0.38524446, 7.7994056, 6.634101, 0.16527879, 0.31127405, 10.240421
97021679832766, -0.6735796, 6.337391, 6.5575304, -0.46108615, -0.44519663, 9.121769
97021689471516, -0.5886344, 7.818548, 6.8542404, -0.053028464, 0.2473917, 10.411185
97021699110266, -0.64247286, 6.4151573, 6.559923, -0.40308177, -0.40777874, 9.179915
97021708749016, -0.66041905, 7.672586, 6.879365, -0.16229868, 0.16739655, 10.323567
97021718387766, -0.45224348, 6.9248285, 6.666404, -0.11322975, -0.22165251, 9.619604
97021728026516, -0.60059845, 7.389036, 6.867401, -0.17747486, -0.021396637, 10.103851
97021737665266, -0.27996024, 7.585248, 6.698707, 0.20801735, 0.1191864, 10.1207485
97021747304016, -0.526421, 6.9248285, 6.68435, -0.18816233, -0.21249008, 9.634851
97021756942871, -0.28115666, 7.958528, 6.74776, 0.2904482, 0.3146677, 10.429097
97021766581621, -0.4941179, 6.5850477, 6.5778694, -0.22427762, -0.36143732, 9.310984
97021776220371, -0.28713873, 8.10808, 6.836294, 0.29736686, 0.3432169, 10.599627
97021785859121, -0.36251262, 6.6424756, 6.501299, -0.07444811, -0.3061118, 9.296318
97021795497871, -0.3804588, 7.881958, 6.727421, 0.18222106, 0.3059163, 10.363466
97021805136621, -0.31944183, 6.9332037, 6.4594245, 0.04950714, -0.11549139, 9.480492
97021814775371, -0.52522457, 7.3579297, 6.680761, -0.08100486, 0.06649256, 9.951713
97021824414121, -0.25722843, 7.4213395, 6.5252275, 0.22098088, 0.1292777, 9.88208
97021834052975, -0.5024927, 6.8889365, 6.580262, -0.15433669, -0.16542006, 9.537223
97021843691725, -0.22372891, 7.8831544, 6.666404, 0.33699906, 0.31064463, 10.316252
97021853330475, -0.485743, 6.59103, 6.558727, -0.20638967, -0.3418126, 9.3024235
97021862969225, -0.34097722, 8.065009, 6.8422766, 0.22019255, 0.3387766, 10.574221
97021872607975, -0.4235296, 6.5982084, 6.573084, -0.14628446, -0.37447453, 9.31448
97021882246725, -0.4211368, 7.9106717, 6.8458657, 0.101953626, 0.2649789, 10.466202
97021891885475, -0.35294133, 6.897311, 6.5204415, 0.0016652346, -0.16201973, 9.496706
97021901524225, -0.5563313, 7.432107, 6.8051877, -0.12298477, 0.031110287, 10.091591
97021911162975, -0.31345975, 7.3866434, 6.6819572, 0.12384009, 0.018587112, 9.964619
97021920801829, -0.5778667, 6.928418, 6.6999035, -0.23812437, -0.20112228, 9.650309
97021930440579, -0.31345975, 7.800602, 6.6927247, 0.22089636, 0.274498, 10.276968
97021940079329, -0.5419743, 6.541977, 6.5778694, -0.27156973, -0.37219, 9.281556
97021949718079, -0.37686956, 8.014759, 6.814759, 0.19040215, 0.34757042, 10.519615
97021959356829, -0.50009996, 6.513263, 6.4941206, -0.2266494, -0.3405733, 9.202116
97021968995579, -0.47258246, 7.847262, 6.7405815, 0.0697031, 0.32380056, 10.350293
97021978634329, -0.3385844, 6.8243303, 6.4366927, 0.021689177, -0.14991665, 9.385849
97021988273079, -0.45702913, 7.500303, 6.666404, 0.018831253, 0.14597607, 10.044038
97021997911829, -0.19142582, 7.3495545, 6.498906, 0.26996553, 0.093123436, 9.808508
97022007550683, -0.42711884, 6.9894347, 6.532406, -0.046629786, -0.08985996, 9.57584
97022017189433, -0.16271193, 7.816155, 6.518049, 0.4021709, 0.36382103, 10.164134
97022026828183, -0.44745782, 6.634101, 6.410372, -0.13220358, -0.21736574, 9.232533
97022036466933, -0.29312077, 8.073383, 6.7441707, 0.29551673, 0.3964939, 10.512123
97022046105683, -0.46181476, 6.582655, 6.5611196, -0.18634582, -0.3532548, 9.296957
97022055744433, -0.45224348, 7.9884386, 6.9128647, 0.08850217, 0.28818274, 10.569603
97022065383183, -0.41515473, 6.855437, 6.658029, -0.10006094, -0.25787163, 9.561497
97022075021933, -0.5491528, 7.5589266, 6.9906316, -0.12517333, -0.008840084, 10.309808
97022084660683, -0.38165522, 7.2346992, 6.802795, -0.0011097193, -0.12801838, 9.93721
97022094299433, -0.67836523, 6.940382, 6.855437, -0.3659711, -0.25416088, 9.768703
97022103938287, -0.3792624, 7.6713896, 6.820741, 0.113505244, 0.14311838, 10.270502
97022113577037, -0.65682983, 6.5491557, 6.6999035, -0.3926577, -0.39886093, 9.375409
97022123215787, -0.43908295, 7.972885, 6.9020967, 0.123610854, 0.29824543, 10.549616
97022132854537, -0.55513483, 6.503692, 6.6161547, -0.2879523, -0.39855194, 9.281054
97022142493287, -0.47976094, 7.945368, 6.835098, 0.08804679, 0.33550453, 10.486052
97022152132037, -0.39960137, 6.725028, 6.472585, -0.052236915, -0.20057201, 9.34008
97022161770787, -0.49292147, 7.564909, 6.728617, 0.005788803, 0.17246914, 10.134857
97022171409537, -0.2943172, 7.220342, 6.535995, 0.14994991, 0.035857677, 9.7424555
97022181048287, -0.52283174, 7.036095, 6.6257257, -0.12821817, -0.0821867, 9.677657
97022190687037, -0.21774685, 7.672586, 6.599405, 0.31513476, 0.2498784, 10.114662
97022200325891, -0.5204389, 6.6257257, 6.617351, -0.21983624, -0.34124184, 9.369933
97022209964641, -0.317049, 8.036295, 6.926025, 0.23630846, 0.28090763, 10.607431
97022219603391, -0.4941179, 6.570691, 6.7058854, -0.22598779, -0.44683552, 9.388094
97022229242141, -0.4354937, 8.054241, 6.928418, 0.13110924, 0.3295641, 10.627213
97022238880891, -0.3493521, 6.843473, 6.573084, -2.641678E-4, -0.21419048, 9.492878
97022248519641, -0.4354937, 7.743174, 6.8135624, 0.08048701, 0.20827961, 10.3209095
97022258158391, -0.2416751, 7.2442703, 6.5982084, 0.18867278, -0.017582893, 9.799914
97022267797141, -0.48454657, 7.1581287, 6.7022963, -0.08300507, -0.07348776, 9.817438
97022277435891, -0.2440679, 7.682157, 6.5958157, 0.2880844, 0.2634015, 10.120649
97022287074641, -0.5168497, 6.6592255, 6.530013, -0.19279635, -0.25974512, 9.335355
97022296713391, -0.27756742, 7.975278, 6.7166533, 0.30189657, 0.3679533, 10.419645
97022306352246, -0.46779683, 6.519245, 6.502496, -0.17762756, -0.3516159, 9.2112255
97022315990996, -0.40438703, 7.9776707, 6.7525454, 0.1776681, 0.38349056, 10.4510765
97022325629746, -0.4319045, 6.658029, 6.4175506, -0.09107041, -0.21550798, 9.2545185
97022335268496, -0.57547385, 7.60798, 6.7202425, -0.06277776, 0.21907759, 10.164755
97022344907246, -0.4438686, 7.001399, 6.5659056, -0.047857046, -0.095451355, 9.608139
97022354545996, -0.695115, 7.0372915, 6.748956, -0.3101983, -0.12571478, 9.769495
97022364184746, -0.41515473, 7.483553, 6.6891356, 0.07593441, 0.11313915, 10.044992
97022373823496, -0.67836523, 6.579066, 6.6352973, -0.38271946, -0.33192682, 9.354936
97022383462246, -0.43070808, 7.874779, 6.836294, 0.13878465, 0.26843882, 10.432701
97022393100996, -0.6269195, 6.4666033, 6.695118, -0.387475, -0.44742584, 9.310438
97022402739746, -0.53599226, 7.984849, 6.9738817, 0.04353714, 0.2776041, 10.61137
97022412378496, -0.5419743, 6.623333, 6.6281185, -0.24642396, -0.33111, 9.376773
97022422017350, -0.56829536, 7.7204423, 6.897311, -0.040113807, 0.17162704, 10.3667755
97022431656100, -0.357727, 7.079166, 6.643672, 0.050722122, -0.116885185, 9.714149
97022441294850, -0.55034924, 7.2179494, 6.7573314, -0.119431615, -0.05034828, 9.901838
97022450933600, -0.28115666, 7.5349984, 6.570691, 0.25346208, 0.19587278, 9.996332
97022460572350, -0.53240305, 6.690332, 6.5048885, -0.18389285, -0.20969248, 9.342365
97022470211100, -0.27158538, 7.8903327, 6.6352973, 0.33047938, 0.374866, 10.3009
97022479849850, -0.44745782, 6.4965134, 6.532406, -0.15671289, -0.37369537, 9.214825
97022489488600, -0.2656033, 8.085348, 6.826723, 0.34662426, 0.3631487, 10.573339
97022499127350, -0.25603202, 6.778867, 6.515656, 0.086500645, -0.25085783, 9.402231
97022508766100, -0.30867413, 7.9513497, 6.795616, 0.27227926, 0.30586624, 10.456192
97022518404954, -0.2105684, 7.210771, 6.5850477, 0.21343827, -0.04942751, 9.764957
97022528043704, -0.47377887, 7.4656067, 6.802795, -0.020080924, 0.04493189, 10.111149
97022537682454, -0.24646074, 7.672586, 6.6735826, 0.2726016, 0.1949482, 10.166302
97022547321204, -0.5407779, 6.820741, 6.6089764, -0.20198107, -0.20304012, 9.508495
97022556959954, -0.31226337, 7.8592257, 6.661618, 0.26785076, 0.34052372, 10.298271
97022566598704, -0.55034924, 6.4067826, 6.502496, -0.28707337, -0.38381577, 9.132494
97022576237454, -0.4223332, 7.885547, 6.7764735, 0.14757454, 0.30583858, 10.400265
97022585876204, -0.4941179, 6.4677997, 6.4881387, -0.20948482, -0.3503542, 9.165474
97022595514954, -0.5802595, 7.672586, 6.7728844, -0.049821377, 0.2300086, 10.248018
97022605153704, -0.4989035, 6.884151, 6.5347986, -0.117042065, -0.11840582, 9.5034895
97022614792558, -0.7405786, 7.2382884, 6.7872415, -0.31025076, 0.0039372444, 9.945434
97022624431308, -0.46779683, 7.3698936, 6.652047, 0.011558175, 0.091742516, 9.938578
97022634070058, -0.7082755, 6.7322063, 6.658029, -0.37790263, -0.23189688, 9.484567
97022643708808, -0.37328035, 7.8029947, 6.7525454, 0.19215429, 0.26835394, 10.320562
97022653347558, -0.5814559, 6.437889, 6.6795645, -0.3197723, -0.4809456, 9.277258
97022662986308, -0.4019942, 7.9537425, 6.96431, 0.1575365, 0.22938967, 10.575811
97022672625058, -0.47138608, 6.5491557, 6.6568327, -0.18625903, -0.42147636, 9.338882
97022682263808, -0.4749753, 7.832905, 6.9128647, 0.062956095, 0.21666813, 10.455467
97022691902558, -0.3278167, 6.983453, 6.623333, 0.05512297, -0.16630745, 9.628806
97022701541308, -0.48215377, 7.483553, 6.820741, -0.012910128, 0.05776167, 10.136816
97022711180162, -0.22851457, 7.539784, 6.6125655, 0.27650607, 0.1733098, 10.025971
97022720818912, -0.46061835, 6.96431, 6.6424756, -0.086117744, -0.15568638, 9.633516
97022730457662, -0.1591227, 7.944171, 6.650851, 0.4301927, 0.36843157, 10.34641
97022740096412, -0.4211368, 6.587441, 6.5048885, -0.10849905, -0.30672073, 9.26172
97022749735162, -0.25842485, 8.019546, 6.8015985, 0.31648862, 0.33748674, 10.508453
97022759373912, -0.3589234, 6.5371914, 6.5431733, -0.077629924, -0.38920116, 9.247665
97022769012662, -0.39960137, 7.8592257, 6.748956, 0.14530694, 0.32750845, 10.360847
97022778651412, -0.36610186, 6.8578296, 6.489335, 0.0024305582, -0.13774157, 9.447559
97022788290162, -0.5455636, 7.472785, 6.856633, -0.10242617, 0.04624939, 10.155832
97022797929016, -0.26081768, 7.513463, 6.789634, 0.19089162, 0.03455305, 10.12826
97022807567766, -0.5479564, 7.025327, 6.792027, -0.19314647, -0.19521713, 9.7832365
97022817206516, -0.29072794, 7.8664045, 6.7609205, 0.2545824, 0.29028082, 10.369467
97022826845266, -0.6089734, 6.5455666, 6.672386, -0.3420683, -0.3903365, 9.352362
97022836484016, -0.42831525, 7.9346, 6.9128647, 0.1163007, 0.27000952, 10.528181
97022846122766, -0.5479564, 6.4151573, 6.579066, -0.29756916, -0.4228282, 9.190826
97022855761516, -0.54436713, 7.7671022, 6.7812595, 0.003937483, 0.29594517, 10.320955
97022865400266, -0.47856453, 6.7226353, 6.546763, -0.14725232, -0.2186346, 9.392204
97022875039016, -0.63529444, 7.402197, 6.8518476, -0.1903975, 0.037465096, 10.104765
97022884677871, -0.3804588, 7.259824, 6.641279, 0.06348801, 0.021178246, 9.846416
97022894316621, -0.6161518, 6.942775, 6.68435, -0.24506247, -0.137681, 9.65315
97022903955371, -0.25722843, 7.8029947, 6.68435, 0.29531574, 0.30368567, 10.269078
97022913594121, -0.4881358, 6.626922, 6.640083, -0.18091023, -0.34774113, 9.385704
97022923232871, -0.30269206, 8.051848, 6.8913293, 0.26802337, 0.33354378, 10.593924
97022932871621, -0.44626144, 6.538388, 6.6041903, -0.1608864, -0.38869333, 9.294516
97022942510371, -0.41874397, 7.932207, 6.8542404, 0.12879229, 0.31156254, 10.486288
97022952149121, -0.357727, 6.7932234, 6.5407805, -0.007941961, -0.2067976, 9.434767
97022961787975, -0.46181476, 7.5756764, 6.8243303, 0.01233995, 0.11942577, 10.205939
97022971426725, -0.24885355, 7.365108, 6.690332, 0.19380867, 0.016398907, 9.951354
97022981065475, -0.5096712, 7.111469, 6.7465634, -0.13189316, -0.10929394, 9.814253
97022990704225, -0.19621146, 7.8257265, 6.707082, 0.34536278, 0.27431297, 10.299074
97023000342975, -0.45942193, 6.686743, 6.5838513, -0.1545732, -0.2768469, 9.389898
97023009981725, -0.2955136, 8.055437, 6.8255267, 0.2791865, 0.36877203, 10.552312
97023019620475, -0.47138608, 6.5001025, 6.5647087, -0.20714426, -0.38012362, 9.240214
97023029259225, -0.44147578, 7.9274216, 6.802795, 0.11756122, 0.34555197, 10.4491005
97023038898079, -0.41635114, 6.719046, 6.4438715, -0.076709986, -0.18091965, 9.316856
97023048536829, -0.56350976, 7.5433736, 6.739385, -0.077411175, 0.17953253, 10.129221
97023058175579, -0.34576288, 7.176075, 6.556334, 0.07811046, 0.0053391457, 9.725996
97023067814329, -0.5922236, 7.018149, 6.6484575, -0.21479154, -0.08270645, 9.6826725
97023077453079, -0.3074777, 7.6366935, 6.6041903, 0.21611404, 0.2511878, 10.095503
97023087091829, -0.5312066, 6.6017976, 6.5635123, -0.24889481, -0.30349445, 9.316197
97023096730579, -0.31345975, 7.9716887, 6.778867, 0.25839233, 0.33180475, 10.460508
97023106369433, -0.46181476, 6.515656, 6.5850477, -0.20285583, -0.3929186, 9.264683
97023116008183, -0.40797627, 7.9968133, 6.8650084, 0.1513834, 0.32066584, 10.541256
97023125646933, -0.4019942, 6.728617, 6.5312095, -0.08168805, -0.2446394, 9.382221
97023135285683, -0.5395815, 7.647461, 6.8015985, -0.045521498, 0.19335508, 10.24681
97023144924433, -0.34576288, 7.1808605, 6.617351, 0.06385946, -0.03372717, 9.770794
97023154563183, -0.5814559, 7.135397, 6.7872415, -0.20523643, -0.11141443, 9.862255
97023164201933, -0.26799613, 7.6666036, 6.71426, 0.2351172, 0.18506527, 10.19021
97023173840683, -0.5084748, 6.649654, 6.6364937, -0.21685624, -0.33362722, 9.400063
97023183479537, -0.25842485, 7.9836526, 6.8339014, 0.29443395, 0.29288578, 10.504057
97023193118287, -0.47018966, 6.5252275, 6.650851, -0.21708083, -0.42957067, 9.3167515
97023202757037, -0.39361933, 8.007581, 6.9296145, 0.1589253, 0.28959656, 10.591824
97023212395787, -0.41994038, 6.6963143, 6.6053867, -0.122752905, -0.300632, 9.409712
97023222034537, -0.5383851, 7.68455, 6.869794, -0.04131961, 0.17588139, 10.320059
97023231673287, -0.38165522, 7.1425757, 6.6484575, 0.015469909, -0.064575195, 9.765225
97023241312141, -0.60777694, 7.1629148, 6.799206, -0.22584784, -0.08363867, 9.891811
97023250950891, -0.30987054, 7.5936227, 6.6364937, 0.20029354, 0.20277119, 10.08568
97023260589641, -0.526421, 6.7022963, 6.5539412, -0.2111988, -0.22588396, 9.383839
97023270228391, -0.25722843, 7.9393854, 6.704689, 0.3237821, 0.35467863, 10.383748
97023279867141, -0.45822555, 6.4773707, 6.532406, -0.20086563, -0.38384962, 9.200594
97023289505891, -0.36610186, 7.9920278, 6.799206, 0.20742905, 0.351583, 10.491383
97023299144746, -0.40917268, 6.62094, 6.478567, -0.1041646, -0.27079582, 9.267789
97023308783496, -0.5240282, 7.6797643, 6.802795, -0.023170114, 0.20639515, 10.270748
97023318422246, -0.37806597, 7.024131, 6.593423, -0.0010026693, -0.10132551, 9.640762
97023328060996, -0.6017949, 7.216753, 6.7848487, -0.20540237, -0.04841137, 9.921357
97023337699746, -0.30987054, 7.580462, 6.6711893, 0.18118453, 0.17377043, 10.099564
97023347338496, -0.54675996, 6.782456, 6.6041903, -0.22363734, -0.21451998, 9.477339
97023356977350, -0.21894327, 8.009974, 6.780063, 0.35304308, 0.33618498, 10.48519
97023366616100, -0.41635114, 6.5886374, 6.6676, -0.15906501, -0.42526865, 9.371992
97023376254850, -0.31345975, 8.07458, 6.971489, 0.22669101, 0.2821126, 10.6662
97023385893600, -0.39601216, 6.643672, 6.602994, -0.1111846, -0.34930897, 9.36805
97023395532350, -0.49651068, 7.749156, 6.8721867, -0.0012704134, 0.19941425, 10.367407
97023405171100, -0.39361933, 7.0265236, 6.650851, -0.025743604, -0.13769054, 9.682001
97023414809954, -0.60777694, 7.2873416, 6.836294, -0.20639443, -0.04077196, 10.008266
97023424448704, -0.33140594, 7.5110703, 6.6424756, 0.15003407, 0.16014957, 10.029971
97023434087454, -0.5778667, 6.7728844, 6.550352, -0.2418338, -0.17322302, 9.435282
97023443726204, -0.317049, 7.8723865, 6.640083, 0.2412467, 0.38666058, 10.293591
97023453364954, -0.4869394, 6.4761744, 6.491728, -0.21469772, -0.34299707, 9.173698
97023463003704, -0.2739782, 8.013563, 6.7561345, 0.30287158, 0.3677454, 10.474285
97023472642558, -0.3505485, 6.602994, 6.4462643, -0.048969865, -0.2735362, 9.230358
97023482281308, -0.46899325, 7.7850485, 6.754938, 0.059094667, 0.28655672, 10.31361
97023491920058, -0.39720857, 6.9451675, 6.539584, -0.03146708, -0.11412239, 9.547004
97023501558808, -0.6221339, 7.292127, 6.814759, -0.21698403, -0.023220062, 9.997774
97023511197558, -0.37328035, 7.450053, 6.687939, 0.082016826, 0.097082615, 10.017735
97023520836412, -0.6197411, 6.8171515, 6.71426, -0.30640638, -0.2445302, 9.580463
97023530475162, -0.32303107, 7.881958, 6.769295, 0.21665883, 0.29828835, 10.388313
97023540113912, -0.53599226, 6.5204415, 6.647261, -0.2894944, -0.41226387, 9.313204
97023549752662, -0.32063824, 8.051848, 6.9224358, 0.22823894, 0.3040166, 10.616529
97023559391412, -0.37088752, 6.619744, 6.6364937, -0.11394584, -0.3907485, 9.372084
97023569030266, -0.3493521, 7.932207, 6.930811, 0.16653633, 0.23025513, 10.535528
97023578669016, -0.2835495, 7.025327, 6.6532435, 0.06431401, -0.16977215, 9.67824
97023588307766, -0.53599226, 7.456035, 6.8721867, -0.116343975, 0.02569437, 10.153447
97023597946516, -0.3182454, 7.4715886, 6.669993, 0.13864267, 0.106138706, 10.019194
97023607585266, -0.573081, 6.8685975, 6.623333, -0.23891687, -0.16596079, 9.554577
97023617224121, -0.25842485, 7.8520474, 6.611369, 0.29697978, 0.37587404, 10.256811
97023626862871, -0.4749753, 6.5276203, 6.4905314, -0.20370734, -0.30979633, 9.210047
97023636501621, -0.24526432, 8.01117, 6.7405815, 0.31876087, 0.37354994, 10.461037
97023646140371, -0.3182454, 6.533602, 6.4331036, -0.036926746, -0.31742764, 9.169075
97023655779121, -0.31345975, 7.8831544, 6.6711893, 0.23740947, 0.3598752, 10.322853
97023665417975, -0.24047868, 6.937989, 6.4642105, 0.11909151, -0.10885334, 9.484382
97023675056725, -0.4354937, 7.524231, 6.7908306, 0.0028258562, 0.08625841, 10.144539
97023684695475, -0.27517462, 7.4416785, 6.6568327, 0.15908825, 0.08103466, 9.986784
97023694334225, -0.59342, 6.9762745, 6.735796, -0.27164602, -0.17219782, 9.710205
97023703972975, -0.35653058, 7.8197446, 6.768099, 0.14723516, 0.26229143, 10.343704
97023713611829, -0.6197411, 6.5276203, 6.664011, -0.37250054, -0.40810204, 9.332612
97023723250579, -0.41874397, 7.948957, 6.88774, 0.101389766, 0.29002142, 10.52178
97023732889329, -0.5024927, 6.4701924, 6.5718875, -0.25096977, -0.40636587, 9.223743
97023742528079, -0.45822555, 7.440482, 6.7226353, -0.020764112, 0.098698616, 10.037649
97023752166933, -0.46660042, 7.1389866, 6.686743, -0.084981084, -0.068535805, 9.79201
97023761805683, -0.4534399, 7.24786, 6.7166533, -0.054544568, -0.023375034, 9.891766
97023771444433, -0.49651068, 7.210771, 6.741778, -0.107842445, -0.052862644, 9.883263
97023781083183, -0.51565325, 7.2263246, 6.759724, -0.12523437, -0.052562714, 9.907627
97023790721933, -0.50488555, 7.240681, 6.7645097, -0.112712026, -0.04723072, 9.92099
97023800360787, -0.4546363, 7.2765737, 6.769295, -0.056203723, -0.040507317, 9.948557
97023809999537, -0.4019942, 7.3100734, 6.7381887, 0.005770445, -0.011034012, 9.949965
97023819638287, -0.33499518, 7.3292155, 6.71426, 0.07844031, -0.0018496513, 9.945087
97023829277037, -0.24885355, 7.389036, 6.6831536, 0.17779922, 0.033022404, 9.9645195
97023838915891, -0.20338993, 7.4189467, 6.6532435, 0.23058248, 0.057563305, 9.964503
97023848554641, -0.18783657, 7.432107, 6.6305118, 0.24819505, 0.07588959, 9.958303
97023858193391, -0.19381863, 7.4309106, 6.6305118, 0.23466587, 0.0687356, 9.957907
97023867832141, -0.26919255, 7.4548388, 6.643672, 0.16304493, 0.09558821, 9.98748
97023877470996, -0.31944183, 7.4237323, 6.6771717, 0.100445986, 0.06381941, 9.98921
97023887109746, -0.35413775, 7.3806615, 6.7465634, 0.042212963, -0.001074791, 10.005694
97023896748496, -0.37208393, 7.347162, 6.7465634, 0.01792419, -0.01950264, 9.981716
97023906387246, -0.38644084, 7.30768, 6.7166533, 8.8608265E-4, -0.018584728, 9.933006
97023916026100, -0.38285163, 7.2765737, 6.680761, 0.0061399937, -0.0146842, 9.885717
97023925664850, -0.40558344, 7.213164, 6.634101, -0.018757582, -0.01464653, 9.808414
97023935303600, -0.4438686, 7.186843, 6.6352973, -0.056753874, -0.020948887, 9.791386
97023944942350, -0.49651068, 7.1617184, 6.640083, -0.113722205, -0.023612022, 9.778238
97023954581204, -0.5168497, 7.183254, 6.6388865, -0.1250745, -0.0053167343, 9.794151
97023964219954, -0.5240282, 7.2083783, 6.669993, -0.12977052, -0.0099954605, 9.833982
97023973858704, -0.50368917, 7.2622166, 6.708278, -0.103969574, -0.010378838, 9.898666
97023983497454, -0.50009996, 7.268199, 6.707082, -0.09802115, -0.0075354576, 9.902126
97023993136308, -0.5096712, 7.2646093, 6.6891356, -0.1034888, 0.0036058426, 9.887775
97024002775058, -0.5192425, 7.2418776, 6.690332, -0.11631751, -0.010212421, 9.8722515
97024012413808, -0.51206404, 7.196414, 6.687939, -0.11402404, -0.03998089, 9.836896
97024022052558, -0.5072784, 7.1820574, 6.669993, -0.10933435, -0.037722588, 9.814007
97024031691412, -0.4833502, 7.1880393, 6.6281185, -0.07337022, -0.008476734, 9.78918
97024041330162, -0.4941179, 7.1748786, 6.617351, -0.08441532, -0.0061044693, 9.772677
97024050968912, -0.47377887, 7.1892357, 6.6053867, -0.059604883, 0.0052375793, 9.774309
97024060607662, -0.42831525, 7.2466636, 6.626922, -0.0069998503, 0.012557507, 9.829216
97024070246516, -0.3696911, 7.2933235, 6.6364937, 0.05523801, 0.015134811, 9.867574
97024079885266, -0.39720857, 7.3268228, 6.6305118, 0.036730766, 0.048452377, 9.889393
97024089524016, -0.35174492, 7.314859, 6.6352973, 0.075874805, 0.022785664, 9.881891
97024099162871, -0.3505485, 7.3232336, 6.6460648, 0.07469511, 0.018716812, 9.895296
97024108801621, -0.35174492, 7.3304124, 6.6448684, 0.07401562, 0.025008202, 9.899841
97024118440371, -0.32063824, 7.367501, 6.664011, 0.10613835, 0.025700092, 9.938814
97024128079121, -0.31944183, 7.3746796, 6.672386, 0.10398686, 0.024125576, 9.949738
97024137717975, -0.30867413, 7.3902326, 6.6999035, 0.109206915, 0.010358334, 9.979353
97024147356725, -0.3074777, 7.409375, 6.6771717, 0.11947584, 0.038243294, 9.978088
97024156995475, -0.33020952, 7.4213395, 6.678368, 0.09493017, 0.051143646, 9.9887085
97024166634329, -0.3074777, 7.432107, 6.6927247, 0.11604357, 0.041319847, 10.005407
97024176273079, -0.3481557, 7.3950186, 6.678368, 0.07038784, 0.03929615, 9.970036
97024185911829, -0.36251262, 7.344769, 6.6771717, 0.04423642, 0.012073517, 9.932753
97024195550579, -0.37806597, 7.3375907, 6.695118, 0.024055004, -9.326935E-4, 9.94018
97024205189433, -0.38165522, 7.298109, 6.666404, 0.017408133, -0.004649639, 9.8918495
97024214828183, -0.40797627, 7.268199, 6.6448684, -0.009674907, -5.764961E-4, 9.856337
97024224466933, -0.42592242, 7.2442703, 6.6149583, -0.025393248, 0.010972977, 9.819256
97024234105787, -0.44745782, 7.1892357, 6.5288167, -0.039961696, 0.0443635, 9.721481
97024243744537, -0.5168497, 7.200003, 6.5814586, -0.11129272, 0.035663128, 9.767758
97024253383287, -0.51206404, 7.1545396, 6.77767, -0.15239, -0.13248634, 9.866392
97024263022037, -0.5168497, 7.2119675, 6.7262244, -0.13069189, -0.05471897, 9.874293
97024272660891, -0.51206404, 7.216753, 6.7130637, -0.118845224, -0.0380764, 9.868809
97024282299641, -0.48933223, 7.2215385, 6.7022963, -0.0941751, -0.03364706, 9.86412
97024291938391, -0.45224348, 7.251449, 6.6759753, -0.047774673, -0.00914669, 9.866829
97024301577246, -0.45583272, 7.2693954, 6.7011, -0.051730752, -0.015286446, 9.897158
97024311215996, -0.47856453, 7.237092, 6.741778, -0.08896232, -0.05933857, 9.901751
97024320854746, -0.50009996, 7.237092, 6.7405815, -0.108481884, -0.052217007, 9.901845
97024330493600, -0.47856453, 7.239485, 6.7094746, -0.07932198, -0.03266716, 9.881744
97024340132350, -0.44626144, 7.245467, 6.6687965, -0.03660214, -0.006354332, 9.857355
97024349771100, -0.3924229, 7.320841, 6.6855464, 0.026753426, 0.015908241, 9.921908
97024359409850, -0.30149564, 7.3746796, 6.68435, 0.12604475, 0.025775433, 9.956947
97024369048704, -0.21894327, 7.4548388, 6.6532435, 0.22505188, 0.07642603, 9.991583
97024378687454, -0.20697916, 7.4548388, 6.6759753, 0.22837925, 0.055700302, 10.00654
97024388326204, -0.27876383, 7.411768, 6.664011, 0.14787424, 0.053907394, 9.969769
97024397965058, -0.33140594, 7.359126, 6.6735826, 0.08050573, 0.024852753, 9.939627
97024407603808, -0.3804588, 7.3579297, 6.68435, 0.03118956, 0.030016422, 9.947992
97024417242558, -0.4031906, 7.3435726, 6.680761, 0.009469509, 0.029211044, 9.935907
97024426881412, -0.3924229, 7.314859, 6.6532435, 0.018603325, 0.027503014, 9.895742
97024436520162, -0.38524446, 7.288538, 6.5898337, 0.033807874, 0.052765846, 9.833268
97024446158912, -0.39960137, 7.2562346, 6.5575304, 0.018755198, 0.05912876, 9.788257
97024455797766, -0.41994038, 7.239485, 6.5922265, -0.00975883, 0.026918888, 9.80016
97024465436516, -0.4103691, 7.24786, 6.617351, -0.0033916235, 0.011545658, 9.822885
97024475075266, -0.42951167, 7.2442703, 6.6329045, -0.025525928, 0.0034737587, 9.831516
97024484714121, -0.39361933, 7.2622166, 6.629315, 0.013430834, 0.0061540604, 9.84085
97024494352871, -0.4127619, 7.298109, 6.6089764, 0.007769108, 0.049101353, 9.8543825
97024503991621, -0.43669012, 7.2957163, 6.6125655, -0.016183734, 0.052419186, 9.856022
97024513630475, -0.48454657, 7.2418776, 6.649654, -0.08099365, 0.0077614784, 9.843315
97024523269225, -0.5312066, 7.1916285, 6.7130637, -0.14909041, -0.053065777, 9.850985
97024532907975, -0.55513483, 7.1629148, 6.7465634, -0.17892575, -0.082128525, 9.853571
97024542546725, -0.5563313, 7.1820574, 6.775277, -0.17748106, -0.08771181, 9.8871975
97024552185579, -0.5096712, 7.2215385, 6.7932234, -0.12472856, -0.0885911, 9.926474
97024561824329, -0.50488555, 7.2658057, 6.7872415, -0.10724795, -0.056704998, 9.954838
97024571463079, -0.45822555, 7.3064837, 6.802795, -0.055858612, -0.05674982, 9.993317
97024581101933, -0.4031906, 7.361519, 6.8303123, 0.004557371, -0.05843258, 10.050088
97024590740683, -0.3684947, 7.38784, 6.7848487, 0.051020145, -0.019618988, 10.037289
97024600379433, -0.35653058, 7.3842506, 6.698707, 0.07611215, 0.035520077, 9.975965
97024610018287, -0.30269206, 7.3974113, 6.643672, 0.14030898, 0.06863022, 9.94622
97024619657037, -0.26799613, 7.391429, 6.5647087, 0.1826458, 0.107114315, 9.887142
97024629295787, -0.23330021, 7.38784, 6.5072813, 0.22564626, 0.13587093, 9.844282
97024638934641, -0.19860429, 7.3842506, 6.45105, 0.2619307, 0.15705633, 9.802519
97024648573391, -0.20937198, 7.355537, 6.3924255, 0.25647128, 0.18316078, 9.742256
97024658212141, -0.2536392, 7.3172517, 6.3768725, 0.20166206, 0.17808867, 9.705599
97024667850996, -0.2883351, 7.304091, 6.422336, 0.15507853, 0.14720583, 9.727979
97024677489746, -0.3684947, 7.27777, 6.5072813, 0.057207108, 0.09205341, 9.769068
97024687128496, -0.43788654, 7.2215385, 6.562316, -0.031668544, 0.03697729, 9.767497
97024696767350, -0.5383851, 7.1545396, 6.660422, -0.15472388, -0.045094013, 9.788389
97024706406100, -0.6221339, 7.111469, 6.771688, -0.26380128, -0.12976074, 9.83511
