timestamp_acc,device_acc_x,device_acc_y,device_acc_z,earth_acc_x,earth_acc_y,earth_acc_z
270567886096286, 1.1449656, 3.0843484, 10.095319, 0.15437293, 0.25390625, 10.613733
270567895736390, 0.9236295, 2.9778678, 9.68495, 0.15367699, 0.077079356, 10.172978
270567905376598, 0.64606214, 2.9312077, 9.257831, 0.08587766, -0.1717461, 9.730361
270567915016702, 0.47976094, 2.9180472, 8.933603, 0.00888896, -0.30594385, 9.405358
270567924656806, 0.43070808, 2.92044, 8.687142, -0.0638845, -0.3300834, 9.168855
270567934297015, 0.567099, 3.0125637, 8.648857, -0.16190004, -0.1920999, 9.172608
270567943937119, 0.7429714, 3.103491, 8.811569, -0.20848727, -0.03421539, 9.369247
270567953577327, 0.93320084, 3.1860433, 9.1465645, -0.18836164, 0.12905896, 9.727756
270567963217431, 1.1162517, 3.2470603, 9.517452, -0.1412623, 0.2768411, 10.113096
270567972857536, 1.1593226, 3.2614172, 9.785448, -0.07786274, 0.29511064, 10.375101
270567982497744, 1.1030912, 3.2398818, 9.894321, -0.02544403, 0.22659558, 10.467054
270567992137848, 1.0205388, 3.190829, 9.897911, 0.025106907, 0.14161915, 10.448484
270568001778056, 0.9762716, 3.2027931, 9.961321, 0.0365448, 0.08898872, 10.508552
270568011418161, 1.0719845, 3.1800613, 10.065409, 0.09300971, 0.18610847, 10.6080675
270568021058265, 1.1856437, 3.1070802, 10.063016, 0.15627503, 0.30448908, 10.5927725
270568030698473, 0.91525465, 2.926422, 9.326026, 0.11892629, 0.12506628, 9.815632
270568040338577, 0.15194423, 3.050849, 8.29113, -0.26701283, -0.5743712, 8.813196
270568049978786, 0.12323037, 2.9479575, 8.825927, 0.015422344, -0.61880416, 9.285445
270568059618890, 0.54317075, 2.8438697, 9.080762, 0.1730833, -0.20405775, 9.527396
270568069258994, 0.634098, 2.792424, 9.086744, 0.21680117, -0.11710927, 9.524071
270568078899202, 0.6795616, 3.0436704, 9.345169, 0.05871272, -0.10811496, 9.85103
270568088539306, 0.9487542, 3.2937205, 9.848858, -0.038949013, 0.103765965, 10.427678
270568098179411, 1.0911272, 3.2602208, 10.220942, 0.094462395, 0.22108108, 10.780976
270568107819619, 1.1365907, 3.2566316, 10.21137, 0.0893867, 0.2679898, 10.774497
270568117459723, 1.1557333, 3.290131, 10.00798, -0.0074944496, 0.29611433, 10.59399
270568127099931, 1.0935199, 3.2590244, 9.674182, -0.0772872, 0.25809288, 10.263248
270568136740036, 1.0719845, 3.2853456, 9.385847, -0.16857481, 0.25710607, 9.997112
270568146380140, 1.0205388, 3.3260236, 9.150154, -0.2779355, 0.2179938, 9.782868
270568156020348, 0.92602235, 3.2913275, 8.939586, -0.29068542, 0.13380218, 9.565782
270568165660452, 0.76331043, 3.2243285, 8.8187475, -0.24205256, -0.013580769, 9.4175625
270568175300661, 0.7537391, 3.2267213, 8.748159, -0.25564623, -0.010595888, 9.351186
270568184940765, 0.73100734, 3.2279177, 8.846265, -0.22598362, -0.03505075, 9.4423485
270568194580869, 0.7920243, 3.2434711, 9.123833, -0.15902996, 0.012212366, 9.7142315
270568204221077, 0.762114, 3.1561332, 9.373882, 0.0054125786, -0.028892964, 9.920222
270568213861181, 0.65922266, 3.0855448, 9.498309, 0.12241602, -0.14128694, 10.006904
270568223501390, 0.6221339, 3.0400813, 9.656236, 0.2176559, -0.18424082, 10.1385765
270568233141494, 0.63529444, 3.0149565, 9.723235, 0.2690246, -0.18516266, 10.19452
270568242781598, 0.6089734, 3.0041888, 9.659825, 0.27498198, -0.23174092, 10.128126
270568252421806, 0.6113662, 3.0448668, 9.559326, 0.20285177, -0.22727633, 10.0465355
270568262061911, 0.6197411, 3.048456, 9.52822, 0.18880367, -0.22637904, 10.018845
270568271702015, 0.6329016, 3.0077782, 9.442079, 0.1993401, -0.20405167, 9.925661
270568281342223, 0.6723832, 3.0472596, 9.226724, 0.09040761, -0.15300107, 9.738517
270568290982327, 0.7920243, 3.12383, 9.144172, -0.019982338, -0.032454967, 9.695362
270568300622536, 0.9200403, 3.2446675, 9.152547, -0.13910174, 0.082804084, 9.752806
270568310262640, 0.94636136, 3.2398818, 9.206385, -0.11813903, 0.09751278, 9.804412
270568319902744, 0.8805587, 3.2159536, 9.269794, -0.07233691, 0.029514968, 9.8509245
270568329542952, 0.7908279, 3.1286156, 9.306884, 0.027778864, -0.0837245, 9.850073
270568339183056, 0.77647096, 3.068795, 9.504292, 0.1495812, -0.12528902, 10.015683
270568348823161, 0.7860422, 3.0376883, 9.479167, 0.17120957, -0.12752718, 9.982708
270568358463369, 0.863809, 3.0795627, 9.456435, 0.122372866, -0.06652784, 9.981716
270568368103473, 0.9774681, 3.176472, 9.35833, -0.0025763512, 0.05030644, 9.930821
270568377743577, 1.2514462, 3.3990045, 9.353543, -0.21643758, 0.29947376, 10.02355
270568387383786, 1.4141582, 3.5497525, 9.372686, -0.3525741, 0.43609613, 10.106102
270568397023890, 1.4488541, 3.534199, 9.381062, -0.3212142, 0.42742407, 10.114752
270568406664098, 1.4763715, 3.5712879, 9.32483, -0.38311315, 0.45122916, 10.0765
270568416304202, 1.3950156, 3.548556, 9.220742, -0.3818605, 0.3673314, 9.963919
270568425944306, 1.2969099, 3.4947174, 9.332008, -0.28907442, 0.24813455, 10.041728
270568435584515, 1.1497513, 3.394219, 9.578469, -0.10649228, 0.079298556, 10.226049
270568445224619, 1.0372887, 3.2793634, 9.753145, 0.058517456, -0.038737297, 10.34162
270568454864723, 0.92482597, 3.1597223, 9.737592, 0.17158484, -0.13988072, 10.276713
270568464504931, 0.9020941, 3.1022944, 9.6993065, 0.19645977, -0.13865685, 10.220408
270568474145036, 0.92482597, 3.0664022, 9.6993065, 0.22830606, -0.116075635, 10.2112255
270568483785244, 0.9798609, 3.07717, 9.850055, 0.25695562, -0.06854373, 10.362526
270568493425348, 1.0193424, 3.0616167, 9.957731, 0.30269384, -0.021611094, 10.46312
270568503065452, 0.80877405, 3.01376, 9.902697, 0.33495665, -0.21261805, 10.375106
270568512705661, 0.6963114, 3.0233314, 9.692128, 0.264745, -0.27620322, 10.169384
270568522345765, 0.6029913, 3.0436704, 9.381062, 0.14704728, -0.34383604, 9.873804
270568531985869, 0.60777694, 3.050849, 9.06162, 0.037833452, -0.2933843, 9.576143
270568541626077, 0.6472585, 3.0903304, 8.839087, -0.06403661, -0.20457149, 9.383633
270568551266181, 0.71425754, 3.1848469, 8.79123, -0.16562009, -0.1309483, 9.37521
270568560906286, 0.7513463, 3.1573296, 8.924032, -0.0928576, -0.09935206, 9.494901
270568570546494, 0.78364944, 3.1740792, 9.104691, -0.049634695, -0.08077037, 9.673433
270568580186598, 0.8566305, 3.219543, 9.201599, -0.062841654, -0.01854682, 9.78593
270568589826806, 0.90448695, 3.2709885, 9.306884, -0.08000541, 0.016327739, 9.906003
270568599466911, 0.99661064, 3.3020952, 9.530613, -0.038312674, 0.089025974, 10.135101
270568609107015, 1.0695918, 3.3212378, 9.806984, 0.029088497, 0.13320035, 10.408314
270568618747223, 1.1102697, 3.345166, 10.057034, 0.087133884, 0.15239316, 10.655325
270568628387327, 1.1473584, 3.3176486, 10.222138, 0.16483307, 0.17681128, 10.80541
270568638027431, 1.0025927, 3.2075787, 10.201799, 0.27254272, 0.0450747, 10.737512
270568647667640, 0.8925229, 3.1334012, 10.034302, 0.2973683, -0.037597597, 10.545719
270568657307744, 0.9882358, 3.2063823, 9.879965, 0.18573546, 0.08345604, 10.43215
270568666947848, 0.76570326, 3.178865, 9.431311, 0.08195114, -0.08908188, 9.981306
270568676588056, 0.6257231, 3.150151, 9.046066, -0.015657187, -0.1982778, 9.597225
270568686228161, 0.56590253, 3.1453655, 8.679964, -0.10843682, -0.1971727, 9.246876
270568695868265, 0.54317075, 3.1716864, 8.43111, -0.21254086, -0.20599759, 9.019459
270568705508473, 0.5778667, 3.2039895, 8.335398, -0.26596475, -0.14136577, 8.943581
270568715148577, 0.6364908, 3.2410784, 8.370093, -0.2904601, -0.085214615, 8.993139
270568724788786, 0.8530413, 3.3463624, 8.58784, -0.31497812, 0.11116332, 9.250148
270568734428890, 1.0875379, 3.5030923, 9.007781, -0.32193613, 0.2956366, 9.716145
270568744068994, 1.2634103, 3.6047873, 9.475577, -0.26244378, 0.4323954, 10.20399
270568753709202, 1.3531412, 3.621537, 9.741181, -0.19440675, 0.4726022, 10.467856
270568763349306, 1.3339987, 3.5820556, 9.879965, -0.10736418, 0.4446056, 10.583723
270568772989411, 1.2358929, 3.4947174, 9.859626, -0.038392544, 0.3399861, 10.527851
270568782629619, 1.0648061, 3.4133615, 9.736395, -0.0070872307, 0.18116409, 10.370602
270568792269723, 0.8757731, 3.2769706, 9.553345, 0.05393529, 0.020469487, 10.137484
270568801909827, 0.70947194, 3.1537402, 9.427721, 0.13052225, -0.13052166, 9.964801
270568811550036, 0.54317075, 3.0699914, 9.281759, 0.1644361, -0.2704605, 9.786254
270568821190140, 0.44865423, 2.9958138, 9.133404, 0.1890881, -0.34944886, 9.614436
270568830830244, 0.3900301, 2.9587252, 9.031709, 0.19163823, -0.3895015, 9.50208
270568840470452, 0.39720857, 2.973082, 9.097511, 0.19377661, -0.38323462, 9.569604
270568850110556, 0.4881358, 2.9838498, 9.280562, 0.23493028, -0.2989654, 9.75325
270568859750661, 0.6448657, 3.1058838, 9.562916, 0.1979456, -0.16333055, 10.072034
270568869390869, 0.802792, 3.2733815, 9.848858, 0.12835741, -0.034149706, 10.408739
270568879030973, 0.8650054, 3.3559337, 10.028319, 0.09852767, 0.011667848, 10.6098
270568888671077, 0.8602197, 3.3439696, 9.993624, 0.09635639, 0.008849919, 10.572855
270568898311286, 0.84347, 3.318845, 9.785448, 0.055780172, 0.0058155656, 10.367161
270568907951390, 0.88414794, 3.3284163, 9.480363, -0.03738761, 0.067566335, 10.0862
270568917591494, 0.8243274, 3.2877383, 9.150154, -0.1065371, 0.032851517, 9.7571335
270568927231702, 0.7286145, 3.21715, 8.882157, -0.10735488, -0.03928715, 9.474206
270568936871806, 0.6903293, 3.2243285, 8.792427, -0.13851953, -0.069388926, 9.389123
270568946511911, 0.81834537, 3.3523445, 8.857033, -0.23963141, 0.049550474, 9.502371
270568956152119, 0.7262217, 3.1669009, 8.766106, -0.09239507, -0.02800858, 9.348366
270568965792223, 1.125823, 3.743571, 9.426525, -0.42583346, 0.2924199, 10.1918745
270568975432327, 0.78843504, 2.8917263, 9.138189, 0.2870636, 0.013687968, 9.612887
270568985072536, 1.160519, 4.0977087, 10.023534, -0.56335807, 0.25215435, 10.873283
270568994712640, 0.86979103, 2.693122, 9.58804, 0.6160455, 0.06292635, 9.977801
270569004352744, 1.0851451, 4.037888, 10.155139, -0.46140885, 0.1640135, 10.971288
270569013992952, 0.8997013, 2.7684958, 9.689735, 0.5731962, 0.08481628, 10.100955
270569023633056, 0.79441714, 3.6107693, 9.680164, -0.20988917, -0.07167673, 10.359786
270569033273161, 0.78843504, 3.0520453, 9.426525, 0.23429179, -0.011860073, 9.936848
270569042913369, 0.50488555, 3.0675986, 8.878569, 0.05096984, -0.255894, 9.40351
270569052553473, 0.8063812, 3.4432719, 9.083155, -0.24835968, 0.0046798587, 9.744145
270569062193577, 0.4031906, 2.556731, 8.544769, 0.42674518, -0.29607725, 8.913066
270569071833786, 0.79920274, 3.842873, 9.24826, -0.57606626, -0.025105596, 10.030167
270569081473890, 0.48454657, 2.510071, 8.7673025, 0.53256917, -0.22150695, 9.114174
270569091113994, 0.76689965, 3.9493537, 9.6071825, -0.5715971, -0.08462685, 10.3995
270569100754202, 0.7465607, 2.7074788, 9.5665045, 0.5896065, -0.027065456, 9.952763
270569110394306, 0.93679005, 3.76391, 10.061819, -0.262861, 0.061746478, 10.780162
270569120034411, 1.0887343, 3.1369905, 10.191031, 0.37156224, 0.24093443, 10.709205
270569129674619, 0.82911307, 3.249453, 9.88475, 0.1745224, -0.0037593842, 10.436674
270569139314723, 1.032503, 3.5234313, 10.027123, -0.042514563, 0.17315155, 10.676706
270569148954827, 0.552742, 2.7003005, 9.104691, 0.4588635, -0.17950243, 9.499988
270569158595036, 0.93320084, 3.8380876, 9.413364, -0.53331614, 0.09514403, 10.194103
270569168235140, 0.6161518, 2.5914268, 8.595019, 0.3871653, -0.0677861, 8.989717
270569177875244, 0.8781659, 4.0151563, 8.961121, -0.8331201, 0.033076227, 9.823398
270569187515452, 0.6305088, 2.6285157, 8.530413, 0.3483951, -0.049233407, 8.941522
270569197155556, 0.6843473, 3.7339997, 9.020942, -0.510237, -0.1424411, 9.772812
270569206795661, 0.8817552, 3.0388846, 9.241081, 0.19534135, 0.110048115, 9.765226
270569216435869, 0.802792, 3.4169507, 9.4229355, -0.09490299, -0.026204437, 10.054951
270569226075973, 1.1246266, 3.641876, 10.113265, -0.09775758, 0.2363435, 10.804664
270569235716077, 0.7609176, 2.9096723, 9.716056, 0.47771525, -0.037018776, 10.1595955
270569245356286, 1.1318051, 4.004389, 10.353744, -0.36241508, 0.2011165, 11.150979
270569254996390, 0.7178468, 2.6129622, 9.493524, 0.6856139, -0.042962134, 9.848754
270569264636494, 0.9870393, 3.9649072, 9.677772, -0.53878903, 0.106745005, 10.4905815
270569274276702, 0.75254273, 2.5758736, 8.867801, 0.5215807, 0.03709948, 9.250185
270569283916806, 0.7405786, 3.7363925, 8.997013, -0.52387667, -0.08378816, 9.75571
270569293556911, 0.7728817, 2.949154, 8.915657, 0.19284344, 0.026952147, 9.420504
270569303197015, 0.57547385, 3.353541, 8.816355, -0.20876646, -0.19893304, 9.445759
270569312837223, 0.951147, 3.4839497, 9.372686, -0.16680312, 0.13246906, 10.042134
270569322477327, 0.701097, 2.9778678, 9.01137, 0.20708776, -0.06644961, 9.514028
270569332117431, 1.1006985, 3.9924245, 9.826126, -0.49661613, 0.19350171, 10.649869
270569341757640, 0.74895346, 2.6919255, 9.193225, 0.5386276, -0.012757003, 9.593357
270569351397744, 1.1138589, 4.199404, 9.885947, -0.661006, 0.16997713, 10.776909
270569361037848, 0.8171489, 2.7696922, 9.562916, 0.5885713, 0.024596155, 9.972026
270569370678056, 0.9415757, 3.912265, 10.091729, -0.31782937, 0.03529185, 10.8597
270569380318161, 1.0624132, 3.0400813, 9.942178, 0.44732904, 0.22245282, 10.438779
270569389958265, 0.8913264, 3.528217, 9.792626, -0.05659914, 0.061342895, 10.446594
270569399598473, 0.8350951, 3.418147, 9.786645, 0.04764986, 0.013309836, 10.39986
270569409238577, 0.45583272, 2.902494, 9.134601, 0.33123493, -0.27520782, 9.58581
270569418878681, 0.8243274, 3.7950168, 9.518648, -0.38603187, 0.03579849, 10.273073
270569428518890, 0.38524446, 2.544767, 8.644072, 0.5235126, -0.2586301, 9.000182
270569438158994, 0.68075806, 4.0103707, 8.976674, -0.7465303, -0.04864779, 9.826877
270569447799098, 0.3804588, 2.585445, 8.396415, 0.40945387, -0.2332541, 8.781059
270569457439306, 0.5132605, 3.8739798, 8.754142, -0.6847167, -0.19693682, 9.560259
270569467079411, 0.4749753, 2.8965118, 8.768498, 0.22971869, -0.15886459, 9.242507
270569476719515, 0.4941179, 3.4887354, 8.974281, -0.28693748, -0.17030284, 9.635447
270569486359619, 0.8961121, 3.4253256, 9.536594, -0.05308938, 0.2041769, 10.170445
270569495999827, 0.74895346, 3.0987053, 9.408579, 0.20063066, 0.07791567, 9.9316635
270569505639931, 1.2358929, 3.9756749, 10.301102, -0.34161758, 0.46157056, 11.095782
270569515280036, 0.8530413, 2.7900312, 9.873982, 0.64376426, 0.164558, 10.274532
270569524920244, 1.125823, 4.1467614, 10.462617, -0.44326425, 0.3268001, 11.297177
270569534560348, 0.72741807, 2.6608188, 9.650253, 0.70893645, 0.066715, 10.011464
270569544200452, 0.98584294, 4.042674, 9.923036, -0.5055289, 0.2462737, 10.745487
270569553840661, 0.75972116, 2.9240294, 9.349955, 0.36316013, 0.112442434, 9.818566
270569563480765, 0.35413775, 3.4408789, 9.0233345, -0.219702, -0.27692467, 9.657158
270569573120869, 0.30149564, 3.1154552, 8.825927, 0.02669692, -0.2903895, 9.359963
270569582760973, -0.1363909, 2.8773692, 8.196614, 0.06107807, -0.6744207, 8.661626
270569592401181, 0.20219351, 3.6167514, 8.590233, -0.50733304, -0.38923478, 9.300806
270569602041286, -0.08853444, 2.489732, 8.050652, 0.3750856, -0.60210955, 8.397403
270569611681390, 0.613759, 3.9038901, 8.94796, -0.66750073, -0.018235475, 9.758952
270569621321598, 0.6771688, 2.6476583, 8.796016, 0.4468472, 0.08234203, 9.199571
270569630961702, 1.1964114, 4.1850467, 9.836894, -0.68589044, 0.44780526, 10.725649
270569640601806, 1.2574283, 3.080759, 10.246066, 0.48339558, 0.558445, 10.747489
270569650242015, 1.032503, 3.7100716, 10.803595, 0.06672335, 0.24581677, 11.466623
270569659882119, 1.0767702, 3.2626138, 11.0811615, 0.5776813, 0.30125052, 11.583252
270569669522223, 0.6448657, 2.9910283, 10.486546, 0.6498227, -0.07756406, 10.904193
270569679162431, 0.81954175, 3.6143587, 10.389636, 0.035860777, 0.09250808, 11.030409
270569688802536, 0.27876383, 2.5351956, 9.160921, 0.66794324, -0.31425348, 9.4806385
270569698442640, 0.47138608, 3.778267, 9.272188, -0.44520044, -0.18536165, 10.011913
270569708082848, -0.010767702, 2.3030918, 8.274381, 0.6255417, -0.5291071, 8.549765
270569717722952, 0.1794617, 3.7220356, 8.482556, -0.63098, -0.43045282, 9.233424
270569727363056, 0.16869399, 2.6285157, 8.1679, 0.296283, -0.35425746, 8.569647
270569737003265, 0.38404804, 3.6933217, 8.5016985, -0.59981084, -0.2181071, 9.255251
270569746643369, 0.7178468, 3.3607194, 9.06162, -0.11683726, 0.10074124, 9.6901455
270569756283473, 0.57906306, 3.3607194, 9.202796, -0.06259155, -0.04395944, 9.814039
270569765923577, 1.0899308, 3.9158542, 10.034302, -0.33957076, 0.38231528, 10.814232
270569775563786, 0.8350951, 2.9790642, 9.745967, 0.4542973, 0.19088867, 10.213387
270569785203890, 1.1964114, 4.1443686, 10.470992, -0.41165352, 0.45059192, 11.308245
270569794843994, 0.80518484, 2.5962126, 9.705289, 0.8038995, 0.17106411, 10.045185
270569804484202, 0.9451649, 4.004389, 9.833304, -0.47629476, 0.23721278, 10.646089
270569814124306, 0.7178468, 2.7003005, 9.209974, 0.5505786, 0.1152865, 9.608025
270569823764411, 0.5982057, 3.6490545, 9.243474, -0.32417583, -0.052907825, 9.950245
270569833404619, 0.5886344, 3.121437, 9.1465645, 0.1411531, -0.022892743, 9.681376
270569843044723, 0.3182454, 3.2685957, 8.775677, -0.11197138, -0.27695823, 9.36527
270569852684827, 0.6735796, 3.7280176, 9.223135, -0.40671444, 0.02602008, 9.962528
270569862325036, 0.32063824, 2.8522446, 8.797213, 0.28886604, -0.24628817, 9.245808
270569871965140, 0.74416786, 4.0366917, 9.54138, -0.5937965, 0.06243652, 10.369672
270569881605244, 0.44027936, 2.638087, 9.036494, 0.56316805, -0.12963027, 9.406254
270569891245348, 0.76689965, 4.0642095, 9.625129, -0.59258986, 0.0700683, 10.459111
270569900885556, 0.5946164, 2.7230322, 9.288938, 0.5616894, -0.013393134, 9.681796
270569910525661, 0.67118675, 3.743571, 9.524631, -0.32085133, -0.010795891, 10.25087
270569920165765, 0.9056834, 3.141776, 9.646665, 0.27094126, 0.25486103, 10.178938
270569929805973, 0.82313097, 3.4025939, 9.468399, -0.033077, 0.16130558, 10.093495
270569939446077, 1.0660025, 3.7411783, 9.850055, -0.24371767, 0.3602397, 10.581456
270569949086181, 0.54675996, 2.8965118, 9.281759, 0.38958478, -0.065128, 9.730559
270569958726390, 0.86141616, 3.9888353, 9.767502, -0.48917413, 0.1343087, 10.573534
270569968366494, 0.45224348, 2.6129622, 8.985049, 0.56651735, -0.11552425, 9.350345
270569978006598, 0.6687939, 4.0677986, 9.473185, -0.6444037, -0.042670816, 10.311082
270569987646806, 0.43070808, 2.6285157, 8.983852, 0.55657935, -0.13429344, 9.352882
270569997286911, 0.43908295, 3.7555351, 9.263813, -0.4064834, -0.22908735, 9.994866
270570006927015, 0.50009996, 3.0161529, 9.292527, 0.29143238, -0.10639891, 9.777633
270570016567223, 0.4546363, 3.3499517, 9.175279, -0.057745695, -0.1763109, 9.776513
270570026207327, 0.84107715, 3.5509489, 9.5760765, -0.13403988, 0.17642486, 10.24543
270570035847431, 0.4881358, 2.8785655, 9.140582, 0.36491537, -0.11978322, 9.587866
270570045487640, 0.8877372, 3.9649072, 9.858429, -0.4302299, 0.18525642, 10.652595
270570055127744, 0.56470615, 2.638087, 9.255438, 0.62486696, -0.030279279, 9.620299
270570064767848, 0.8853444, 4.106084, 9.853643, -0.5675914, 0.1666576, 10.695239
270570074408056, 0.654437, 2.6751757, 9.378669, 0.6287632, 0.05325207, 9.754287
270570084048161, 0.6867401, 3.8656049, 9.549755, -0.43345928, -0.003365159, 10.316223
270570093688265, 0.61016977, 2.981457, 9.375079, 0.34356356, -0.0105060935, 9.850654
270570103328369, 0.49651068, 3.3930225, 9.183653, -0.097862005, -0.14271349, 9.801463
270570112968577, 0.73459655, 3.5090744, 9.394221, -0.14460254, 0.07709128, 10.053745
270570122608681, 0.35294133, 2.932404, 8.85823, 0.2353313, -0.2390129, 9.331628
270570132248890, 0.7298109, 3.8895333, 9.499506, -0.46366405, 0.041078627, 10.280325
270570141888994, 0.39720857, 2.6153553, 9.042477, 0.59502554, -0.18745014, 9.400802
270570151529098, 0.80997044, 4.0977087, 9.687343, -0.5971205, 0.08668336, 10.532228
270570161169202, 0.62931234, 2.6668007, 9.263813, 0.60969734, 0.030740947, 9.641233
270570170809411, 0.79441714, 3.9864426, 9.687343, -0.4987483, 0.08094433, 10.493433
270570180449515, 0.7788638, 3.0029924, 9.567701, 0.38534355, 0.14253178, 10.049711
270570190089723, 0.6161518, 3.475575, 9.45165, -0.08712721, -0.053403646, 10.088733
270570199729827, 0.78723866, 3.4217365, 9.61795, 0.009804487, 0.114373714, 10.238156
270570209369931, 0.3804588, 2.9216363, 9.05803, 0.32228827, -0.22660425, 9.517007
270570219010140, 0.782453, 3.8536408, 9.658628, -0.3745334, 0.06684676, 10.421474
270570228650244, 0.4127619, 2.6656044, 9.022138, 0.55080223, -0.17004058, 9.399071
270570238290348, 0.73459655, 4.085745, 9.573684, -0.61347055, 0.0137189925, 10.416903
270570247930556, 0.55393845, 2.6739793, 9.014959, 0.533659, -0.02943933, 9.404301
270570257570661, 0.77407813, 4.0271206, 9.41456, -0.61284494, 0.064531565, 10.250418
270570267210765, 0.6855437, 2.9659038, 9.292527, 0.33750343, 0.065834194, 9.772377
270570276850973, 0.5886344, 3.5796626, 9.281759, -0.23538303, -0.07793328, 9.962431
270570286491077, 0.86141616, 3.4013975, 9.567701, 0.015460968, 0.19269001, 10.18897
270570296131181, 0.56829536, 3.0580273, 9.243474, 0.24612713, -0.062302083, 9.749453
270570305771390, 0.930808, 3.871587, 9.85484, -0.33069253, 0.21041381, 10.621667
270570315411494, 0.52522457, 2.7230322, 9.253045, 0.5626688, -0.08975598, 9.642872
270570325051598, 0.8530413, 4.0977087, 9.820144, -0.542609, 0.11303112, 10.660531
270570334691806, 0.5383851, 2.6344976, 9.192028, 0.63822246, -0.07727897, 9.555654
270570344331911, 0.73579293, 4.0271206, 9.48156, -0.5855255, 0.022086382, 10.310953
270570353972015, 0.60059845, 2.8785655, 9.102298, 0.38241363, -0.02308029, 9.557819
270570363612223, 0.573081, 3.656233, 9.041281, -0.3744719, -0.089074224, 9.761816
270570373252327, 0.7896315, 3.4193435, 9.260223, -0.0770576, 0.1270054, 9.901773
270570382892431, 0.4977071, 3.150151, 8.95155, 0.07342839, -0.13713315, 9.501433
270570392532640, 0.8530413, 3.8177485, 9.6682, -0.318496, 0.14671928, 10.423724
270570402172744, 0.48454657, 2.7445676, 9.266206, 0.5568414, -0.14619672, 9.659118
270570411812952, 0.863809, 4.0677986, 10.039087, -0.43345618, 0.12538415, 10.856925
270570421453056, 0.5096712, 2.57707, 9.51147, 0.7964258, -0.11885676, 9.834668
270570431093161, 0.6771688, 3.9433718, 9.827323, -0.39634562, -0.037988126, 10.603135
270570440733369, 0.54436713, 2.751746, 9.420543, 0.6012502, -0.08409032, 9.81053
270570450373473, 0.53240305, 3.6526437, 9.361918, -0.26879668, -0.13979194, 10.058776
270570460013577, 0.6723832, 3.2362926, 9.333204, 0.11535168, 0.030752122, 9.900511
270570469653786, 0.4354937, 3.1477582, 8.8701935, 0.048962116, -0.17757872, 9.420428
270570479293890, 0.73459655, 3.7471602, 9.357133, -0.3571527, 0.06643307, 10.099742
270570488934098, 0.38165522, 2.7696922, 8.866604, 0.40412974, -0.2100914, 9.285798
270570498574202, 0.77766734, 4.092923, 9.54497, -0.6145246, 0.08218458, 10.396096
270570508214306, 0.51565325, 2.6105695, 9.036494, 0.613363, -0.08305514, 9.399791
270570517854515, 0.8327023, 4.0773697, 9.663414, -0.55984807, 0.13054532, 10.505685
270570527494619, 0.7645068, 2.9168508, 9.479167, 0.46892166, 0.1201258, 9.935431
270570537134723, 0.7716853, 3.8572302, 9.674182, -0.35457087, 0.06577259, 10.43712
270570546774931, 0.89371926, 3.3463624, 9.722038, 0.13766432, 0.2111857, 10.317527
270570556415036, 0.5982057, 3.3260236, 9.333204, 0.040929317, -0.062284857, 9.925899
270570566055244, 0.8877372, 3.7674992, 9.583255, -0.30115962, 0.18522704, 10.329371
270570575695348, 0.46061835, 2.7960134, 8.852247, 0.38669395, -0.13833284, 9.28566
270570585335452, 0.7920243, 4.0187454, 9.430114, -0.5767491, 0.08926082, 10.264701
270570594975661, 0.39840496, 2.57707, 8.810373, 0.57487845, -0.18360806, 9.168342
270570604615765, 0.65084773, 3.9972103, 9.318848, -0.5835686, -0.03623742, 10.143981
270570614255973, 0.485743, 2.6991038, 9.090333, 0.5656557, -0.120153695, 9.477387
270570623896077, 0.53240305, 3.7710886, 9.471989, -0.30976963, -0.16572037, 10.202926
270570633536181, 0.72382885, 3.2063823, 9.696914, 0.27966595, 0.052124858, 10.2349415
270570643176390, 0.56590253, 3.426522, 9.460024, 7.536411E-4, -0.11230829, 10.076742
270570652816494, 0.9738788, 3.81057, 9.804591, -0.27076507, 0.24821264, 10.557651
270570662456702, 0.6652047, 2.9563324, 9.280562, 0.36759067, 0.026446372, 9.75579
270570672096806, 0.9343972, 4.0737805, 9.835697, -0.5105984, 0.19893569, 10.672836
270570681736911, 0.5168497, 2.6189444, 9.120243, 0.6299615, -0.08857486, 9.481568
270570691377119, 0.8458628, 4.028317, 9.531809, -0.56133103, 0.12522674, 10.36665
270570701017223, 0.695115, 2.7469604, 9.123833, 0.5242424, 0.06553763, 9.539088
270570710657431, 0.6855437, 3.8344984, 9.431311, -0.3917811, -0.012151659, 10.196537
270570720297536, 0.73579293, 3.1429725, 9.479167, 0.27302718, 0.072077334, 10.009722
270570729937640, 0.60059845, 3.438486, 9.4636135, -0.006356001, -0.07588661, 10.08653
270570739577848, 0.8769695, 3.6837504, 9.671789, -0.18113804, 0.19015524, 10.383334
270570749217952, 0.38165522, 2.8666015, 9.062816, 0.39786196, -0.22713304, 9.50199
270570758858161, 0.762114, 3.9433718, 9.579665, -0.44856858, 0.0700911, 10.377616
270570768498265, 0.34337005, 2.548356, 8.848659, 0.6346295, -0.22530122, 9.190063
270570778138473, 0.6556334, 4.0354953, 9.376275, -0.5928848, -0.03264442, 10.211613
270570787778577, 0.40797627, 2.5842485, 8.959925, 0.6401274, -0.1699395, 9.310554
270570797418786, 0.4881358, 3.7663028, 9.383454, -0.32606912, -0.18536955, 10.115921
270570807058890, 0.5240282, 3.0053852, 9.416953, 0.3854134, -0.10777524, 9.890693
270570816698994, 0.5096712, 3.4456646, 9.38824, -0.03295827, -0.14476714, 10.012462
270570826339202, 0.94755775, 3.6993039, 9.845269, -0.13648343, 0.25648707, 10.555929
270570835979306, 0.66400826, 3.0999017, 9.407382, 0.28285313, 0.022028089, 9.923135
270570845619515, 0.99661064, 4.091727, 9.956535, -0.46559978, 0.28104043, 10.796865
270570855259619, 0.6472585, 2.7792635, 9.23151, 0.52467704, 0.026082218, 9.648216
270570864899827, 1.0085747, 4.229314, 9.678967, -0.6818049, 0.29848623, 10.584554
270570874539931, 0.71665037, 2.7828526, 9.092726, 0.47895336, 0.10245621, 9.523426
270570884180036, 0.7609176, 3.9696927, 9.311669, -0.5524926, 0.09287411, 10.135618
270570893820244, 0.6412765, 3.0161529, 9.105886, 0.27464652, 0.020510197, 9.609878
270570903460348, 0.41994038, 3.4624143, 8.927621, -0.1896174, -0.2074236, 9.580609
270570913100556, 0.62811595, 3.4827533, 9.186047, -0.12836146, -0.011866599, 9.843319
270570922740661, 0.357727, 3.010171, 8.793623, 0.18809938, -0.23925075, 9.296466
270570932380869, 0.7585248, 3.9421754, 9.485149, -0.45649266, 0.09056151, 10.289197
270570942020973, 0.3912265, 2.7338, 9.031709, 0.52038383, -0.21078694, 9.427792
270570951661181, 0.78843504, 4.1982074, 9.787841, -0.61389947, 0.08277708, 10.661365
270570961301286, 0.59700924, 2.6955147, 9.428918, 0.68573165, -0.02852127, 9.8008
270570970941494, 0.8578269, 3.9900317, 9.980463, -0.36067247, 0.14105886, 10.775709
270570980581598, 0.82911307, 3.0041888, 9.926624, 0.5463376, 0.16365427, 10.388706
270570990221806, 0.6269195, 3.5353954, 9.802198, 0.015112877, -0.063513756, 10.438911
270570999861911, 0.73100734, 3.3726835, 9.728021, 0.14231873, 0.059031785, 10.320853
270571009502119, 0.36011982, 2.993421, 9.037691, 0.28010368, -0.2453409, 9.520055
270571019142223, 0.6939186, 3.845266, 9.409775, -0.40966177, 0.022446275, 10.180529
270571028782431, 0.2632105, 2.652444, 8.662018, 0.4809382, -0.29726142, 9.045198
270571038422536, 0.59700924, 4.0534415, 9.215957, -0.65681577, -0.07659191, 10.063964
270571048062744, 0.3397808, 2.6620152, 8.657232, 0.46219587, -0.21965568, 9.049176
270571057702848, 0.65922266, 4.082155, 9.219545, -0.677238, -0.018209636, 10.081647
270571067343056, 0.7932207, 3.071188, 9.285348, 0.27832198, 0.17479321, 9.806685
270571076983161, 0.86859465, 3.7962132, 9.567701, -0.29958463, 0.18165013, 10.323944
270571086623369, 1.0049855, 3.5174494, 9.911072, 0.060096264, 0.3127179, 10.559849
270571096263473, 0.68075806, 3.1669009, 9.665807, 0.32465482, 0.027911186, 10.188931
270571105903681, 1.0289137, 3.9110687, 10.208978, -0.21195173, 0.29135185, 10.974904
270571115543786, 0.59700924, 2.8295128, 9.454042, 0.57491183, -0.025973499, 9.869666
270571125183994, 0.8817552, 4.141976, 9.772287, -0.56361866, 0.15223023, 10.634388
270571134824098, 0.46061835, 2.6285157, 8.950353, 0.59301853, -0.12782922, 9.319982
270571144464306, 0.52522457, 4.0031924, 9.136993, -0.6264539, -0.15690437, 9.9684
270571154104411, 0.36610186, 2.8139594, 8.725428, 0.3591528, -0.20989545, 9.16583
270571163744619, 0.30987054, 3.595216, 8.799605, -0.34748387, -0.31720793, 9.49912
270571173384723, 0.57547385, 3.2709885, 9.073584, 0.03708601, -0.050067365, 9.662121
270571183024931, 0.40079778, 3.1692936, 8.906086, 0.07567954, -0.21628883, 9.458907
270571192665036, 0.83030945, 3.8488553, 9.6275215, -0.32434654, 0.14352608, 10.395502
270571202305244, 0.54675996, 2.8438697, 9.341579, 0.5198407, -0.091783494, 9.76591
270571211945348, 0.97866446, 4.182654, 10.249656, -0.43647122, 0.22841161, 11.102485
270571221585556, 0.68195444, 2.751746, 9.724431, 0.7293949, 0.01040256, 10.102948
270571231225661, 0.94277215, 4.213761, 10.090533, -0.5224838, 0.20540649, 10.961218
270571240865869, 0.802792, 2.9718857, 9.578469, 0.47717905, 0.13737923, 10.048734
270571250506077, 0.74536425, 3.8153558, 9.400204, -0.37622094, 0.062357724, 10.165182
270571260146181, 0.79920274, 3.3020952, 9.218349, 0.05482769, 0.15367246, 9.823132
270571269786390, 0.44626144, 3.2470603, 8.668, -0.07523942, -0.16614926, 9.265178
270571279426494, 0.77766734, 3.7746778, 9.078369, -0.43474317, 0.118460596, 9.852244
270571289066702, 0.424726, 2.8402805, 8.622537, 0.29772067, -0.15631667, 9.081995
270571298706806, 0.7716853, 4.1383867, 9.439685, -0.6523249, 0.07304749, 10.314967
270571308347015, 0.4426722, 2.6751757, 9.030513, 0.5869279, -0.1430996, 9.409449
270571317987119, 0.7537391, 4.112066, 9.676575, -0.5527401, 0.036468208, 10.5264635
270571327627327, 0.72263247, 2.8761728, 9.493524, 0.5389097, 0.099380165, 9.930824
270571337267536, 0.79920274, 3.8668015, 9.780663, -0.2967379, 0.08706075, 10.543084
270571346907640, 0.86261255, 3.2889347, 9.894321, 0.2811489, 0.1833871, 10.456869
270571356547848, 0.50368917, 3.3056846, 9.556933, 0.16458654, -0.16207492, 10.122394
270571366187952, 0.7178468, 3.6777685, 9.828519, -0.09916592, 0.029360354, 10.518097
270571375828161, 0.30149564, 2.7768707, 9.066405, 0.49907923, -0.29506087, 9.469185
270571385468369, 0.6520442, 3.940979, 9.513863, -0.4491508, -0.019867033, 10.308635
270571395108473, 0.27517462, 2.5627131, 8.76491, 0.59826446, -0.29043657, 9.111783
270571404748681, 0.567099, 4.0438704, 9.287741, -0.61954546, -0.081846416, 10.126504
270571414388786, 0.42711884, 2.7230322, 8.928818, 0.49975443, -0.1548106, 9.32992
270571424028994, 0.54436713, 3.8321054, 9.32483, -0.4071281, -0.10588354, 10.08746
270571433669098, 0.7513463, 3.2446675, 9.49472, 0.1864829, 0.122716635, 10.059439
270571443309306, 0.6759724, 3.5042887, 9.379865, -0.09748387, 0.03766495, 10.035336
270571452949515, 1.0169497, 3.7974095, 9.830912, -0.23201513, 0.33583575, 10.579921
270571462589619, 0.66999036, 3.0089746, 9.340384, 0.3547461, 0.05907774, 9.829356
270571472229827, 1.0001999, 4.1443686, 9.954143, -0.5063729, 0.29673165, 10.812801
270571481869931, 0.5587241, 2.7601209, 9.221938, 0.5628083, -0.025101513, 9.625861
270571491510140, 0.81834537, 4.182654, 9.55813, -0.6688063, 0.12698498, 10.443118
270571501150348, 0.5455636, 2.7553353, 8.913264, 0.4617591, -0.015050441, 9.333937
270571510790452, 0.5072784, 3.851248, 9.101101, -0.49967122, -0.12949893, 9.881957
270571520430661, 0.49651068, 3.0496526, 9.035298, 0.22627568, -0.083180875, 9.545962
270571530070765, 0.35294133, 3.3415768, 8.95155, -0.073598385, -0.24048766, 9.558121
270571539710973, 0.6520442, 3.5784662, 9.48156, -0.12792873, 0.017607689, 10.1545
270571549351181, 0.40079778, 2.9766715, 9.233903, 0.35694408, -0.19187105, 9.701648
270571558991286, 0.83389866, 4.0510488, 10.0881405, -0.37776423, 0.14580089, 10.89555
270571568631494, 0.48933223, 2.705086, 9.592826, 0.72628355, -0.111472666, 9.951851
270571578271702, 0.8111669, 4.126423, 10.153943, -0.42474222, 0.12515265, 10.981432
270571587911806, 0.5802595, 2.7003005, 9.42174, 0.6678643, -0.027081668, 9.7954445
270571597552015, 0.62931234, 3.900301, 9.450453, -0.44376636, -0.005944252, 10.233402
270571607192223, 0.57547385, 3.048456, 9.129815, 0.25341606, -0.021551132, 9.639145
270571616832327, 0.39481574, 3.4564323, 8.845069, -0.21861649, -0.19595781, 9.500097
270571626472536, 0.6771688, 3.5006995, 9.049655, -0.18895864, 0.072597444, 9.724647
270571636112744, 0.33379877, 3.0089746, 8.617751, 0.12883449, -0.2299377, 9.130253
270571645752848, 0.8243274, 4.0594234, 9.44806, -0.5929594, 0.18007112, 10.297585
270571655393056, 0.552742, 2.8295128, 9.05803, 0.4337616, -0.021506011, 9.495838
270571665033161, 0.8673982, 4.2245283, 9.873982, -0.61287904, 0.18415192, 10.755697
270571674673369, 0.6305088, 2.7481568, 9.499506, 0.6458616, 0.04598847, 9.887936
270571684313577, 0.8279166, 4.0211387, 9.933804, -0.4104116, 0.13539949, 10.740049
270571693953681, 0.8219346, 3.0532417, 9.802198, 0.45680833, 0.1940966, 10.287596
270571703593890, 0.59700924, 3.5102708, 9.634701, -0.020170212, -0.05122283, 10.271458
270571713234098, 0.6987042, 3.379862, 9.688539, 0.12112546, 0.062195897, 10.284011
270571722874202, 0.27038896, 2.9036903, 9.02453, 0.36403275, -0.30092904, 9.472253
270571732514411, 0.61016977, 3.8201413, 9.548559, -0.33464313, -0.04682806, 10.296922
270571742154619, 0.26799613, 2.6703901, 8.751749, 0.48320508, -0.2693508, 9.1372795
270571751794723, 0.58983076, 4.1228333, 9.280562, -0.70674205, -0.055354595, 10.14751
270571761434931, 0.31226337, 2.7122645, 8.768498, 0.44965935, -0.23603584, 9.169654
270571771075140, 0.6017949, 4.0701914, 9.3104725, -0.65211844, -0.036501765, 10.158097
270571780715348, 0.7405786, 3.0747771, 9.329616, 0.28279257, 0.14337677, 9.84601
270571790355452, 0.78723866, 3.757928, 9.5868435, -0.27402115, 0.14320886, 10.322487
270571799995661, 0.96789676, 3.5210385, 9.940982, 0.060855865, 0.31796324, 10.585504
270571809635869, 0.62452674, 3.1357942, 9.471989, 0.2720425, 0.013398856, 9.993379
270571819275973, 0.9798609, 3.9302113, 9.91466, -0.33829975, 0.2981163, 10.700647
270571828916181, 0.5383851, 2.774478, 9.156136, 0.50592184, -0.034240186, 9.5689745
270571838556390, 0.7788638, 4.080959, 9.6071825, -0.56900954, 0.09261227, 10.451145
270571848196494, 0.35294133, 2.5950162, 8.805588, 0.57493615, -0.18091956, 9.166993
270571857836702, 0.57427746, 4.0151563, 9.26142, -0.61137795, -0.09252846, 10.091722
270571867476911, 0.57547385, 2.981457, 9.073584, 0.28986597, 0.0024150312, 9.563793
270571877117119, 0.48454657, 3.7124643, 9.156136, -0.36260533, -0.14575028, 9.8842945
270571886757223, 0.6029913, 3.3523445, 9.394221, 0.049027443, -0.012988269, 9.992529
270571896397431, 0.32542387, 3.121437, 9.183653, 0.20254803, -0.26706958, 9.699299
270571906037640, 0.72263247, 3.7914274, 9.866804, -0.21375489, 0.053968966, 10.592562
270571915677744, 0.4103691, 3.056831, 9.505488, 0.35736275, -0.19590217, 9.985031
270571925317952, 0.6376872, 3.4289148, 9.817751, 0.098939896, -0.001216203, 10.418377
270571934958161, 0.6867401, 3.3643086, 9.626326, 0.09363842, 0.058479548, 10.2197895
270571944598369, 0.7082755, 3.3786657, 9.560523, 0.057881832, 0.08248353, 10.164175
270571954238473, 0.6017949, 3.3523445, 9.442079, 0.05006194, -0.018751502, 10.037449
270571963878681, 0.57427746, 3.32722, 9.211171, -0.0010943413, -0.032414794, 9.810445
270571973518890, 0.5587241, 3.3810585, 9.09153, -0.09260106, -0.04284686, 9.715412
270571983159098, 0.62811595, 3.4504502, 9.098708, -0.15083766, 0.022804528, 9.750044
270571992799202, 0.6652047, 3.487539, 9.138189, -0.1725545, 0.056945205, 9.801986
270572002439411, 0.65084773, 3.4743786, 9.232706, -0.12503171, 0.03618419, 9.885384
270572012079619, 0.69152576, 3.487539, 9.381062, -0.08662772, 0.062735856, 10.031652
270572021719827, 0.6987042, 3.426522, 9.52822, 0.021715403, 0.0604015, 10.149489
270572031359931, 0.6664011, 3.397808, 9.513863, 0.044965982, 0.021402836, 10.124244
270572041000140, 0.64606214, 3.397808, 9.470792, 0.030512571, 0.0033463836, 10.082533
270572050640348, 0.6364908, 3.4229329, 9.492328, 0.010243177, -0.008171976, 10.110673
270572060280556, 0.6855437, 3.4073794, 9.480363, 0.020555735, 0.041886628, 10.097292
270572069920661, 0.6053841, 3.4289148, 9.437292, -0.014886618, -0.03497845, 10.059076
270572079560869, 0.5623133, 3.4085758, 9.400204, -0.0076682568, -0.07479951, 10.014628
270572089201077, 0.5766702, 3.397808, 9.385847, -0.0012760162, -0.05597952, 9.998432
270572098841286, 0.6125626, 3.406183, 9.378669, -0.011791468, -0.020108044, 9.996809
270572108481494, 0.65682983, 3.406183, 9.370294, -0.0141227245, 0.028755784, 9.991742
270572118121598, 0.6759724, 3.3726835, 9.38824, 0.023379326, 0.047923326, 9.998408
270572127761806, 0.6472585, 3.3631122, 9.410972, 0.040808678, 0.01950699, 10.014681
270572137402015, 0.6161518, 3.3547373, 9.370294, 0.03585267, -0.008501947, 9.971708
270572147042223, 0.6269195, 3.3667014, 9.316455, 0.0069537163, 0.004027009, 9.925924
270572156682327, 0.60059845, 3.394219, 9.2793665, -0.03137088, -0.02092141, 9.898821
270572166322536, 0.5982057, 3.3834512, 9.2997055, -0.011723518, -0.028256834, 9.91409
270572175962744, 0.5838487, 3.400201, 9.335598, -0.013618231, -0.047994763, 9.952545
270572185602952, 0.58265233, 3.4157543, 9.369097, -0.01630807, -0.053967297, 9.989177
270572195243161, 0.6029913, 3.4169507, 9.408579, -0.0037283897, -0.036123514, 10.027921
270572204883265, 0.61734825, 3.4253256, 9.474381, 0.011707544, -0.028108537, 10.0934105
270572214523473, 0.60777694, 3.3702908, 9.415757, 0.043578386, -0.034288168, 10.019065
270572224163681, 0.64845496, 3.3726835, 9.335598, 0.011877775, 0.012133777, 9.94729
270572233803890, 0.721436, 3.446861, 9.406186, -0.0342412, 0.0788154, 10.04342
270572243444098, 0.78843504, 3.487539, 9.48156, -0.04959917, 0.14057434, 10.132241
270572253084306, 0.84347, 3.4995031, 9.542577, -0.039446592, 0.18953764, 10.197119
270572262724411, 0.762114, 3.5030923, 9.549755, -0.040436506, 0.107541025, 10.199859
270572272364619, 0.68195444, 3.463611, 9.474381, -0.022012949, 0.03175974, 10.110592
270572282004827, 0.6472585, 3.4229329, 9.326026, -0.031351566, 0.009033084, 9.955356
270572291645036, 0.5778667, 3.4025939, 9.1669035, -0.06602216, -0.050528824, 9.794734
270572301285244, 0.45104706, 3.3176486, 9.0747795, -0.012627363, -0.16494253, 9.671323
270572310925452, 0.44506502, 3.330809, 9.092726, -0.02021885, -0.17097405, 9.692286
270572320565556, 0.54317075, 3.3523445, 9.209974, -3.221035E-4, -0.08151466, 9.815816
270572330205765, 0.5371887, 3.347559, 9.385847, 0.06440115, -0.097560614, 9.978736
270572339845973, 0.5347959, 3.35713, 9.515059, 0.09995222, -0.110734195, 10.102993
270572349486181, 0.613759, 3.397808, 9.659825, 0.10845971, -0.04267156, 10.257702
270572359126390, 0.6867401, 3.418147, 9.772287, 0.122923374, 0.024449885, 10.374836
270572368766598, 0.6687939, 3.4169507, 9.716056, 0.09892368, 0.01418072, 10.320589
270572378406702, 0.6149554, 3.4109688, 9.529416, 0.040745735, -0.028030872, 10.140028
270572388046911, 0.6795616, 3.4396825, 9.355937, -0.038465023, 0.04741752, 9.991148
270572397687119, 0.69272214, 3.4408789, 9.245867, -0.0766139, 0.0675748, 9.889141
270572407327327, 0.6436693, 3.4085758, 9.142975, -0.06621742, 0.018438816, 9.778648
270572416967536, 0.634098, 3.4253256, 9.0436735, -0.1118412, 0.0124614835, 9.690734
270572426607744, 0.6891329, 3.501896, 9.0233345, -0.1908207, 0.06472945, 9.70145
270572436247952, 0.7692925, 3.5605202, 9.157332, -0.20095444, 0.13530314, 9.852266
270572445888056, 0.8207382, 3.5904303, 9.3104725, -0.17813134, 0.17672342, 10.009332
270572455528265, 0.79920274, 3.6011982, 9.395418, -0.16150188, 0.14800748, 10.091248
270572465168473, 0.73459655, 3.528217, 9.468399, -0.06789374, 0.08012605, 10.130522
270572474808681, 0.67118675, 3.4337006, 9.507881, 0.035870552, 0.017534614, 10.131092
270572484448890, 0.61734825, 3.367898, 9.552148, 0.11419201, -0.034860104, 10.146584
270572494089098, 0.54675996, 3.3439696, 9.570094, 0.14191842, -0.108466506, 10.150659
270572503729306, 0.5024927, 3.2997024, 9.548559, 0.1739788, -0.15173417, 10.112478
270572513369515, 0.47856453, 3.2877383, 9.506684, 0.17002225, -0.17191732, 10.067615
270572523009723, 0.46660042, 3.2877383, 9.4229355, 0.14411426, -0.16994277, 9.988445
270572532649827, 0.5084748, 3.3140593, 9.332008, 0.08777952, -0.12379661, 9.914882
270572542290036, 0.55752766, 3.367898, 9.270991, 0.014673948, -0.06846678, 9.879269
270572551930244, 0.613759, 3.3918262, 9.245867, -0.01726365, -0.007721305, 9.867467
270572561570452, 0.60777694, 3.3966117, 9.235099, -0.02520132, -0.011185408, 9.858632
270572571210661, 0.6412765, 3.4408789, 9.2590275, -0.05756426, 0.01898992, 9.898324
270572580850869, 0.73100734, 3.5186458, 9.318848, -0.10810304, 0.09754717, 9.98674
270572590491077, 0.8458628, 3.5988052, 9.412168, -0.15018845, 0.2020613, 10.109027
270572600131286, 0.8147561, 3.5988052, 9.4839525, -0.12528896, 0.16690719, 10.174334
270572609771494, 0.7728817, 3.5473595, 9.537791, -0.05360627, 0.12124491, 10.204557
270572619411598, 0.7178468, 3.4851463, 9.489935, -0.012410879, 0.0701735, 10.134857
270572629051806, 0.6520442, 3.458825, 9.343972, -0.036381245, 0.014174521, 9.984836
270572638692015, 0.5946164, 3.4205399, 9.202796, -0.044192076, -0.032707512, 9.835753
270572648332223, 0.5180461, 3.3463624, 9.1669035, 0.0140788555, -0.104928255, 9.771766
270572657972431, 0.47856453, 3.3032916, 9.219545, 0.07452035, -0.1445711, 9.80379
270572667612640, 0.4534399, 3.298506, 9.275777, 0.09431052, -0.16769478, 9.853363
270572677252848, 0.45942193, 3.3176486, 9.400204, 0.11913848, -0.16910148, 9.976917
270572686893056, 0.5204389, 3.3643086, 9.523434, 0.11222887, -0.11459938, 10.112344
270572696533265, 0.5288138, 3.3966117, 9.5868435, 0.09754157, -0.10909107, 10.183456
270572706173473, 0.6329016, 3.4205399, 9.572487, 0.06889677, -0.005289018, 10.184715
270572715813681, 0.6795616, 3.4672, 9.492328, -0.0039031506, 0.04570073, 10.1284485
270572725453890, 0.68075806, 3.4779677, 9.438489, -0.031849384, 0.05023241, 10.081726
270572735093994, 0.695115, 3.5042887, 9.323633, -0.093692064, 0.07016337, 9.98397
270572744734202, 0.7322037, 3.5270207, 9.209974, -0.15032601, 0.11264032, 9.887585
270572754374411, 0.7645068, 3.5473595, 9.147761, -0.18181944, 0.14258707, 9.838515
270572764014619, 0.6975078, 3.5198421, 9.104691, -0.1666789, 0.076037884, 9.784562
270572773654827, 0.6305088, 3.4504502, 9.086744, -0.10607314, 0.013228953, 9.739643
270572783295036, 0.6436693, 3.4157543, 9.182457, -0.040304422, 0.021427989, 9.818204
270572792935244, 0.6652047, 3.4420755, 9.341579, -0.01200676, 0.033247888, 9.977687
270572802575452, 0.66400826, 3.4277184, 9.491131, 0.048508644, 0.021347404, 10.112809
270572812215661, 0.6113662, 3.3846476, 9.579665, 0.1127255, -0.04151863, 10.17768
270572821855869, 0.60658056, 3.3619158, 9.625129, 0.15011501, -0.04761243, 10.212185
270572831496077, 0.6221339, 3.400201, 9.639486, 0.11736965, -0.033348918, 10.239785
270572841136286, 0.61734825, 3.4037902, 9.568898, 0.088015795, -0.03389889, 10.174568
270572850776494, 0.5706882, 3.3786657, 9.420543, 0.061988115, -0.06706312, 10.023938
270572860416702, 0.54317075, 3.3906298, 9.328419, 0.019253016, -0.08953783, 9.93994
270572870056911, 0.51565325, 3.3966117, 9.213564, -0.022698164, -0.10371676, 9.832667
270572879697119, 0.5838487, 3.4767714, 9.177671, -0.11171794, -0.038318038, 9.830794
