timestamp_acc,device_acc_x,device_acc_y,device_acc_z,earth_acc_x,earth_acc_y,earth_acc_z
774547059215039, 4.267599, 0.4354937, 9.1465645, -0.023177624, 0.0053759217, 10.1025305
774547068855352, 4.237689, 0.43070808, 9.126225, -0.0034999847, 0.010212958, 10.071316
774547078495769, 4.249653, 0.4426722, 9.073584, -0.035300016, -0.006010473, 10.029165
774547088136081, 4.2508492, 0.4833502, 9.069994, -0.03387308, -0.0460878, 10.028202
774547097776498, 4.2460637, 0.5419743, 9.067601, -0.024842024, -0.10366362, 10.0266075
774547107416810, 4.253242, 0.55393845, 9.062816, -0.031671524, -0.115053535, 10.025831
774547117057227, 4.254439, 0.5563313, 9.113065, -0.011288166, -0.11169183, 10.071997
774547126697539, 4.223332, 0.5288138, 9.163314, 0.035138607, -0.07648486, 10.103238
774547136337956, 4.1898327, 0.4833502, 9.177671, 0.06705046, -0.027215242, 10.100137
774547145978269, 4.2329035, 0.43429732, 9.103494, -0.007856846, 0.017110705, 10.048848
774547155618685, 4.2077785, 0.43429732, 9.156136, 0.035378933, 0.022641301, 10.085982
774547165258998, 4.194618, 0.3924229, 9.142975, 0.039120674, 0.06439662, 10.066635
774547174899414, 4.2053857, 0.39361933, 9.06162, -0.005389452, 0.05813074, 9.997487
774547184539727, 4.2448673, 0.36490545, 9.06162, -0.04268694, 0.0856657, 10.012783
774547194180144, 4.229314, 0.37447673, 9.068798, -0.025391102, 0.07663834, 10.013187
774547203820456, 4.2364926, 0.39960137, 9.067601, -0.030005932, 0.049147964, 10.016267
774547213460873, 4.229314, 0.4331009, 9.115458, -0.0014262199, 0.018439114, 10.058126
774547223101185, 4.1958146, 0.48454657, 9.093923, 0.022311449, -0.033288717, 10.026837
774547232741602, 4.2041893, 0.506082, 9.084352, 0.012577534, -0.054706752, 10.022655
774547242381914, 4.1814575, 0.50368917, 9.093923, 0.03613496, -0.049936652, 10.021674
774547252022331, 4.2125645, 0.47138608, 9.131011, 0.021460533, -0.01638782, 10.066904
774547261662644, 4.2364926, 0.43070808, 9.135797, -0.0011913776, 0.024357915, 10.079463
774547271303060, 4.2364926, 0.4235296, 9.122637, -0.006991148, 0.030669272, 10.067211
774547280943373, 4.254439, 0.43070808, 9.107083, -0.028671265, 0.021707654, 10.0609865
774547290583789, 4.2484565, 0.42831525, 9.079565, -0.033528328, 0.022289991, 10.03343
774547300224102, 4.2352962, 0.45583272, 9.064013, -0.02652812, -0.0061603785, 10.015043
774547309864519, 4.237689, 0.4881358, 9.046066, -0.033526182, -0.040142775, 10.001244
774547319504831, 4.2388854, 0.4881358, 9.064013, -0.027181864, -0.03890747, 10.01801
774547329145248, 4.2364926, 0.46779683, 9.0747795, -0.019901037, -0.018033445, 10.025846
774547338785664, 4.2352962, 0.47138608, 9.097511, -0.008989096, -0.019848108, 10.046103
774547348425977, 4.2329035, 0.46061835, 9.150154, 0.015023708, -0.0055965185, 10.09231
774547358066394, 4.223332, 0.45104706, 9.132208, 0.016062737, 0.0021765828, 10.071589
774547367706706, 4.219743, 0.4331009, 9.123833, 0.014209747, 0.019547999, 10.061686
774547377347123, 4.2221355, 0.44027936, 9.12503, 0.012957811, 0.012364924, 10.064102
774547386987435, 4.2341, 0.4438686, 9.083155, -0.015725374, 0.0048663616, 10.031353
774547396627852, 4.208975, 0.4426722, 9.085547, 0.008836508, 0.007115841, 10.022899
774547406268164, 4.214957, 0.4761717, 9.099904, 0.0117714405, -0.025633156, 10.039925
774547415908581, 4.2329035, 0.49172506, 9.129815, 0.010270596, -0.040044248, 10.075272
774547425548894, 4.2388854, 0.5084748, 9.114262, -7.097721E-4, -0.058085084, 10.064447
774547435189310, 4.240082, 0.5192425, 9.085547, -0.013844967, -0.06943625, 10.039427
774547444829623, 4.2352962, 0.4881358, 9.065208, -0.019501686, -0.038429916, 10.017592
774547454470039, 4.2341, 0.49292147, 9.090333, -0.007857323, -0.041095495, 10.040068
774547464110352, 4.2592244, 0.4331009, 9.107083, -0.028066397, 0.01922214, 10.063121
774547473750769, 4.2460637, 0.43429732, 9.093923, -0.021683693, 0.018744648, 10.045709
774547483391081, 4.26401, 0.4331009, 9.093923, -0.038116932, 0.018137097, 10.053208
774547493031498, 4.2364926, 0.4534399, 9.078369, -0.017828941, -0.0014760494, 10.028458
774547502671810, 4.2317066, 0.4642076, 9.064013, -0.018179178, -0.012720406, 10.013925
774547512312227, 4.220939, 0.46181476, 9.073584, -0.004734993, -0.008939147, 10.017956
774547521952539, 4.214957, 0.45104706, 9.083155, 0.0035238266, 0.0028095245, 10.023622
774547531592956, 4.2257247, 0.43429732, 9.114262, 0.0048320293, 0.020656884, 10.055581
774547541233269, 4.220939, 0.41156548, 9.127422, 0.0120539665, 0.04361832, 10.064469
774547550873685, 4.2317066, 0.424726, 9.139386, 0.008056164, 0.030902863, 10.080432
774547560513998, 4.2329035, 0.4354937, 9.120243, -9.639263E-4, 0.01754105, 10.064077
774547570154414, 4.226921, 0.4426722, 9.089137, -0.008460522, 0.0078856945, 10.033699
774547579794727, 4.2257247, 0.46660042, 9.084352, -0.0077819824, -0.016246974, 10.029935
774547589435144, 4.2077785, 0.48095736, 9.055637, -0.002761364, -0.031759024, 9.997014
774547599075560, 4.2185464, 0.46660042, 9.0747795, -0.006679535, -0.016409397, 10.018242
774547608715873, 4.219743, 0.46660042, 9.099904, 0.0022079945, -0.014679611, 10.041513
774547618356289, 4.21735, 0.47018966, 9.123833, 0.014549732, -0.016472459, 10.062354
774547627996602, 4.2460637, 0.45822555, 9.133404, -0.009315729, -0.0052682757, 10.082558
774547637637019, 4.2424746, 0.45822555, 9.131011, -0.0072972775, -0.005071938, 10.07888
774547647277331, 4.2077785, 0.4953143, 9.110672, 0.017143965, -0.041980088, 10.047539
774547656917748, 4.206582, 0.49052864, 9.065208, -8.111E-4, -0.03994614, 10.005616
774547666558060, 4.2041893, 0.4941179, 9.046066, -0.0072715282, -0.043728292, 9.987428
774547676198477, 4.199404, 0.4977071, 9.078369, 0.010279417, -0.044461787, 10.014858
774547685838789, 4.219743, 0.465404, 9.086744, -0.006859541, -0.011880815, 10.029534
774547695479206, 4.2508492, 0.44865423, 9.122637, -0.022268057, 0.006376624, 10.074372
774547705119519, 4.229314, 0.42951167, 9.156136, 0.009474516, 0.02847588, 10.094825
774547714759935, 4.211368, 0.4331009, 9.12503, 0.012881279, 0.023631334, 10.059256
774547724400248, 4.2041893, 0.4534399, 9.08794, 0.0052366257, 2.604723E-5, 10.023545
774547734040664, 4.1898327, 0.4534399, 9.084352, 0.01674962, 6.0379505E-4, 10.014265
774547743680977, 4.1958146, 0.44506502, 9.062816, 3.8313866E-4, 0.007426083, 9.996876
774547753321394, 4.2053857, 0.4319045, 9.075976, -0.005017042, 0.02080977, 10.012228
774547762961706, 4.2352962, 0.44147578, 9.056833, -0.039150238, 0.007827163, 10.00786
774547772602123, 4.260421, 0.4749753, 9.06162, -0.05642581, -0.026920438, 10.024262
774547782242435, 4.258028, 0.48454657, 9.075976, -0.04584074, -0.035068512, 10.036713
774547791882852, 4.254439, 0.46779683, 9.079565, -0.04093051, -0.017077029, 10.037709
774547801523164, 4.2520456, 0.47018966, 9.060423, -0.04651189, -0.020819485, 10.019463
774547811163581, 4.2281175, 0.47138608, 9.075976, -0.01657486, -0.020339131, 10.023563
774547820803894, 4.2364926, 0.45583272, 9.098708, -0.016991615, -0.003672719, 10.046982
774547830444310, 4.226921, 0.42951167, 9.102298, -0.009191036, 0.02334857, 10.045025
774547840084623, 4.2006, 0.43908295, 9.127422, 0.025150537, 0.016836405, 10.057175
774547849725039, 4.2221355, 0.4223332, 9.115458, -0.0013363361, 0.030129015, 10.054623
774547859365352, 4.2221355, 0.43070808, 9.114262, -0.0020780563, 0.020611584, 10.05392
774547869005769, 4.2185464, 0.4103691, 9.075976, -0.01696825, 0.036572635, 10.0168
774547878646081, 4.1958146, 0.41874397, 9.080762, 0.0074341297, 0.028108835, 10.011972
774547888286498, 4.1838503, 0.42592242, 9.068798, 0.01407671, 0.020784676, 9.996424
774547897926810, 4.1922255, 0.4534399, 9.071191, 0.009729624, -0.008355558, 10.003334
774547907567227, 4.1982074, 0.48095736, 9.098708, 0.016600609, -0.036862254, 10.032004
774547917207539, 4.1694937, 0.4881358, 9.11785, 0.051414967, -0.040661097, 10.037622
774547926847956, 4.1898327, 0.48095736, 9.126225, 0.033429623, -0.034285843, 10.053444
774547936488269, 4.2317066, 0.47856453, 9.128618, -0.005974531, -0.03465092, 10.073073
774547946128685, 4.243671, 0.49052864, 9.162118, -0.003414631, -0.045048118, 10.108992
774547955768998, 4.2352962, 0.49292147, 9.105886, -0.018661976, -0.05103779, 10.054598
774547965409414, 4.2281175, 0.47018966, 9.089137, -0.02110672, -0.028817832, 10.035398
774547975049727, 4.182654, 0.42711884, 9.085547, 0.01725626, 0.016481638, 10.011173
774547984690144, 4.2053857, 0.40797627, 9.055637, -0.017252684, 0.033085406, 9.992742
774547994330456, 4.208975, 0.42592242, 9.079565, -0.009868383, 0.015724957, 10.016738
774548003970873, 4.194618, 0.44745782, 9.107083, 0.0153160095, -0.003952563, 10.036622
774548013611185, 4.2053857, 0.44626144, 9.140582, 0.01946354, -7.675886E-4, 10.07146
774548023251602, 4.2077785, 0.465404, 9.115458, 0.007094145, -0.021378338, 10.050527
774548032891914, 4.173083, 0.46660042, 9.15494, 0.052917957, -0.01755923, 10.07185
774548042532227, 4.191029, 0.46181476, 9.107083, 0.015323877, -0.016486347, 10.035759
774548052172644, 4.1790648, 0.44027936, 9.101101, 0.022222042, 0.005085826, 10.024367
774548061812956, 4.1982074, 0.43788654, 9.086744, -0.0013668537, 0.00637275, 10.01926
774548071453373, 4.208975, 0.42711884, 9.072387, -0.018161297, 0.015734673, 10.010272
774548081093685, 4.241278, 0.46660042, 9.066405, -0.046650648, -0.026062846, 10.020131
774548090734102, 4.206582, 0.36610186, 9.093923, -0.011919498, 0.07776731, 10.026095
774548100374414, 4.29392, 0.8961121, 9.159725, -0.009829044, -0.45001292, 10.145872
774548110014831, 4.098905, -0.17347965, 9.049655, 0.0137889385, 0.61667776, 9.917001
774548119655144, 4.338187, 0.96909314, 9.084352, -0.07499051, -0.5261955, 10.099603
774548129295560, 4.089334, 0.029910283, 9.0951185, 0.056216955, 0.41633743, 9.963346
774548138935873, 4.2975097, 0.6472585, 9.006584, -0.10367942, -0.2112807, 9.997535
774548148576289, 4.152744, 0.49651068, 9.21476, 0.09696126, -0.041521013, 10.1189165
774548158216602, 4.2759743, 0.19740787, 8.962317, -0.14739537, 0.23127884, 9.928285
774548167857019, 4.241278, 0.9056834, 9.239884, 0.061287165, -0.44998926, 10.196957
774548177497331, 4.139583, -0.1698904, 8.977871, -0.026165247, 0.60329485, 9.869274
774548187137748, 4.281956, 1.1425728, 9.23151, 0.028363705, -0.6864189, 10.217114
774548196778060, 4.061816, -0.21296121, 9.029316, 0.047506332, 0.65003896, 9.881674
774548206418373, 4.325027, 1.0779666, 9.12144, -0.053299427, -0.6437544, 10.131695
774548216058789, 4.0534415, 0.0071784677, 9.119047, 0.098368645, 0.4387188, 9.969218
774548225699102, 4.325027, 0.6723832, 9.0436735, -0.113624096, -0.23786497, 10.04373
774548235339519, 4.1312084, 0.40677986, 9.194421, 0.094014645, 0.04730171, 10.087548
774548244979831, 4.284349, 0.19501504, 8.952746, -0.1656735, 0.22691113, 9.923025
774548254620248, 4.219743, 0.8745767, 9.225528, 0.07883334, -0.4249338, 10.173235
774548264260560, 4.1838503, -0.13040884, 8.973084, -0.10606027, 0.553818, 9.885337
774548273900977, 4.2915273, 1.1437693, 9.238688, 0.058302402, -0.69868726, 10.22679
774548283541289, 4.058227, -0.24526432, 9.006584, 0.014754057, 0.67937857, 9.858302
774548293181706, 4.328616, 1.0959128, 9.116654, -0.0480206, -0.6652784, 10.129483
774548302822019, 4.0331025, -0.061016977, 9.133404, 0.11444712, 0.5177331, 9.970335
774548312462331, 4.3118663, 0.7262217, 9.083155, -0.08452749, -0.28781205, 10.076374
774548322102748, 4.085745, 0.35653058, 9.200403, 0.13453245, 0.09375793, 10.071789
774548331743060, 4.261617, 0.25244278, 8.95155, -0.14179921, 0.16693705, 9.915007
774548341383477, 4.2041893, 0.8243274, 9.235099, 0.08915019, -0.37573826, 10.173134
774548351023789, 4.1874394, -0.11724831, 8.967103, -0.0998559, 0.5398191, 9.882103
774548360664206, 4.3034916, 1.1234303, 9.24467, 0.027123451, -0.67330337, 10.236797
774548370304519, 4.1001015, -0.25722843, 9.0029955, -0.029030085, 0.6845948, 9.872255
774548379944831, 4.358526, 1.1006985, 9.140582, -0.052229643, -0.6734516, 10.163773
774548389585248, 4.0773697, -0.101694964, 9.109476, 0.05352044, 0.54124045, 9.966045
774548399225560, 4.3525443, 0.77766734, 9.069994, -0.11467075, -0.34649503, 10.083699
774548408865977, 4.092923, 0.29910284, 9.150154, 0.10454631, 0.14458638, 10.026713
774548418506289, 4.2508492, 0.2883351, 8.91805, -0.13370848, 0.1298207, 9.881787
774548428146706, 4.1587257, 0.7716853, 9.196814, 0.11760998, -0.3260951, 10.116902
774548437787019, 4.1838503, -0.0849452, 8.920443, -0.112481356, 0.49939537, 9.839922
774548447427331, 4.2759743, 1.105484, 9.267402, 0.05770111, -0.657888, 10.244738
774548457067748, 4.1180477, -0.25962126, 9.071191, -0.010953188, 0.68622494, 9.941892
774548466708060, 4.371687, 1.0899308, 9.221938, -0.03560257, -0.6626959, 10.242231
774548476348477, 4.1240296, -0.15074782, 9.110672, 0.015475512, 0.5799077, 9.984896
774548485988789, 4.3848476, 0.8171489, 9.035298, -0.14455986, -0.39849544, 10.067352
774548495629206, 4.104887, 0.28953153, 9.09153, 0.07121158, 0.14533156, 9.978158
774548505269519, 4.3238306, 0.4031906, 8.904889, -0.18769622, 0.001988411, 9.905549
774548514909831, 4.17069, 0.782453, 9.164511, 0.104103565, -0.33922994, 10.093028
774548524550248, 4.202993, -0.04546363, 8.924032, -0.12489724, 0.4572572, 9.8529625
774548534190560, 4.24726, 1.0552348, 9.274581, 0.11077523, -0.6097688, 10.236527
774548543830977, 4.095316, -0.29192436, 9.059227, -0.0091814995, 0.7310312, 9.9192705
774548553471289, 4.269992, 1.0707881, 9.23151, 0.082864285, -0.6196659, 10.208298
774548563111602, 3.979264, -0.22612174, 9.156136, 0.15311718, 0.6817435, 9.961538
774548572752019, 4.269992, 0.802792, 9.114262, -0.010499716, -0.37881857, 10.089768
774548582392331, 4.0390844, 0.16749759, 9.200403, 0.1552887, 0.2805593, 10.044244
774548592032748, 4.2759743, 0.4127619, 8.991031, -0.11644626, 0.00197649, 9.963904
774548601673060, 4.1491547, 0.6831509, 9.200403, 0.116012335, -0.23920405, 10.112315
774548611313477, 4.229314, 0.02751746, 8.916854, -0.1509552, 0.3833052, 9.860447
774548620953789, 4.290331, 1.0755738, 9.247063, 0.054296732, -0.6390749, 10.230376
774548630594102, 4.1467614, -0.21655045, 8.980264, -0.074127674, 0.63268125, 9.873292
774548640234519, 4.369294, 1.1485549, 9.176475, -0.03397727, -0.71342325, 10.203309
774548649874831, 4.091727, -0.19501504, 9.109476, 0.021190643, 0.62794286, 9.968352
774548659515248, 4.369294, 0.9020941, 9.111869, -0.09452033, -0.48280686, 10.133539
774548669155560, 4.0438704, 0.11724831, 9.162118, 0.12669945, 0.33943564, 10.008985
774548678795873, 4.2963133, 0.46660042, 8.963513, -0.13413143, -0.050570667, 9.949877
774548688436289, 4.121637, 0.6149554, 9.1872425, 0.13518596, -0.16547793, 10.085924
774548698076602, 4.206582, 0.04546363, 8.945567, -0.10945511, 0.3693323, 9.877864
774548707716914, 4.24726, 1.0301101, 9.281759, 0.10808873, -0.58490264, 10.241955
774548717357331, 4.1551366, -0.23330021, 9.025727, -0.058620453, 0.65459734, 9.917229
774548726997644, 4.3609195, 1.1533405, 9.193225, -0.019113779, -0.71522266, 10.215248
774548736638060, 4.0881376, -0.20338993, 9.004191, -0.010242701, 0.63943017, 9.870195
774548746278373, 4.3537407, 0.9499506, 9.06162, -0.0907948, -0.52259046, 10.0841
774548755918685, 4.071388, 0.08973085, 9.12144, 0.09171271, 0.35033083, 9.982674
774548765559102, 4.3118663, 0.5407779, 8.9826565, -0.13067698, -0.11953473, 9.977043
774548775199414, 4.165904, 0.56470615, 9.218349, 0.10464692, -0.11738706, 10.130493
774548784839831, 4.2520456, 0.07537391, 8.987442, -0.12288189, 0.3410584, 9.936212
774548794480144, 4.2795634, 0.9726824, 9.284152, 0.0798955, -0.53064287, 10.255159
774548804120456, 4.1587257, -0.22253251, 9.02453, -0.06544709, 0.64236945, 9.918154
774548813760873, 4.3334017, 1.1294123, 9.192028, 0.011819601, -0.7015158, 10.200737
774548823401185, 4.068995, -0.24526432, 9.018549, 0.011769533, 0.682479, 9.873459
774548833041498, 4.3322053, 1.006182, 9.086744, -0.04609847, -0.5877313, 10.099593
774548842681914, 4.066602, 0.07178468, 9.102298, 0.0860641, 0.3655482, 9.962591
774548852322227, 4.362116, 0.6149554, 8.979067, -0.16877174, -0.20459396, 9.997975
774548861962644, 4.1790648, 0.49651068, 9.189635, 0.073111534, -0.058038414, 10.107017
774548871602956, 4.2723846, 0.124426775, 8.969496, -0.13959193, 0.28884596, 9.930643
774548881243269, 4.240082, 0.9284152, 9.2590275, 0.09559703, -0.48108292, 10.21417
774548890883685, 4.159922, -0.2213361, 8.962317, -0.06364679, 0.63853353, 9.862317
774548900523998, 4.3202415, 1.1222339, 9.186047, 0.012893438, -0.68339103, 10.190201
774548910164310, 4.0438704, -0.2656033, 9.016156, 0.046216488, 0.69158536, 9.860735
774548919804727, 4.334598, 1.0444671, 9.126225, -0.026765823, -0.62523246, 10.137851
774548929445039, 4.0390844, 0.0059820567, 9.170493, 0.13722944, 0.43514904, 10.010196
774548939085352, 4.3034916, 0.68195444, 9.078369, -0.05339551, -0.25891477, 10.06638
774548948725769, 4.0941195, 0.46660042, 9.273384, 0.18177795, -0.012604415, 10.146033
774548958366081, 4.2664027, 0.18903299, 8.977871, -0.12854719, 0.22262967, 9.93851
774548968006498, 4.219743, 0.8985049, 9.2590275, 0.122554064, -0.4515732, 10.204126
774548977646810, 4.1754756, -0.17228323, 8.962317, -0.09577608, 0.5861862, 9.870899
774548987287123, 4.325027, 1.1150553, 9.202796, 0.018934965, -0.68410945, 10.206484
774548996927539, 4.1276193, -0.276371, 9.001799, -0.027860403, 0.7089499, 9.88143
774549006567852, 4.3728833, 1.0492527, 9.103494, -0.08003974, -0.63036764, 10.13375
774549016208164, 4.0773697, -0.020338992, 9.080762, 0.08008027, 0.4511028, 9.943625
774549025848581, 4.3609195, 0.73100734, 9.01137, -0.14360547, -0.31549686, 10.031779
774549035488894, 4.1312084, 0.3792624, 9.206385, 0.11422682, 0.0635578, 10.097087
774549045129206, 4.2687955, 0.22372891, 8.99462, -0.1122694, 0.19878453, 9.956091
774549054769623, 4.2077785, 0.8350951, 9.236296, 0.10419011, -0.38552696, 10.176073
774549064409935, 4.1754756, -0.13998012, 8.973084, -0.07664275, 0.56040823, 9.881827
774549074050248, 4.2652063, 1.0815558, 9.23151, 0.08030963, -0.6312935, 10.20674
774549083690664, 4.061816, -0.2727818, 9.008977, 0.024780989, 0.7117566, 9.860388
774549093330977, 4.3130627, 1.1030912, 9.12144, 0.017880201, -0.67781633, 10.127203
774549102971289, 4.0331025, -0.07298109, 9.083155, 0.088811636, 0.52306217, 9.924388
774549112611706, 4.3357944, 0.7573284, 9.062816, -0.07234144, -0.33404118, 10.069284
774549122252019, 4.0845485, 0.32542387, 9.221938, 0.15527892, 0.12674505, 10.089273
774549131892435, 4.284349, 0.29671, 8.99821, -0.11941099, 0.11866689, 9.96911
774549141532748, 4.2006, 0.7812566, 9.272188, 0.12351322, -0.3310132, 10.203139
774549151173060, 4.2221355, -0.13758731, 8.952746, -0.13506317, 0.5483819, 9.883222
774549160813477, 4.328616, 1.0971092, 9.208778, 0.020175457, -0.6658127, 10.212662
774549170453789, 4.1515474, -0.25722843, 8.965906, -0.07555437, 0.67238224, 9.860588
774549180094102, 4.4039903, 1.1270195, 9.077172, -0.10266924, -0.70094883, 10.127115
774549189734519, 4.1001015, -0.0849452, 9.042477, 0.030459404, 0.5122318, 9.915702
774549199374831, 4.3800616, 0.849452, 9.040084, -0.12477851, -0.4350583, 10.070987
774549209015144, 4.0881376, 0.2739782, 9.220742, 0.15756392, 0.17247403, 10.087391
774549218655560, 4.2999024, 0.3182454, 8.991031, -0.128613, 0.096157014, 9.970119
774549228295873, 4.1671004, 0.70229346, 9.2793665, 0.15074873, -0.2508384, 10.1921015
774549237936185, 4.1790648, -0.09930214, 9.02812, -0.05519533, 0.52613103, 9.934865
774549247576602, 4.2424746, 1.0600204, 9.29133, 0.13348866, -0.6064857, 10.250142
774549257216914, 4.0881376, -0.2727818, 9.010174, -0.0034468174, 0.70633495, 9.872769
774549266857227, 4.339384, 1.1437693, 9.139386, -0.008645296, -0.70984215, 10.156914
774549276497644, 4.0354953, -0.124426775, 9.079565, 0.09754324, 0.5580278, 9.920601
774549286137956, 4.3704906, 0.8961121, 9.056833, -0.09581065, -0.48349017, 10.084022
774549295778269, 4.095316, 0.22851457, 9.175279, 0.12363434, 0.22157413, 10.047149
774549305418685, 4.3058844, 0.40917268, 8.977871, -0.12749982, 0.0069363117, 9.964634
774549315058998, 4.199404, 0.66400826, 9.236296, 0.105187416, -0.21782333, 10.164967
774549324699310, 4.2341, -0.05503492, 8.963513, -0.121534586, 0.47361624, 9.901319
774549334339727, 4.2915273, 1.0360922, 9.245867, 0.07479882, -0.59724057, 10.228121
774549343980039, 4.141976, -0.2656033, 8.993423, -0.0658555, 0.6836918, 9.881113
774549353620352, 4.375276, 1.14018, 9.109476, -0.03671217, -0.7221452, 10.144101
774549363260769, 4.0761733, -0.17108682, 9.0341015, 0.027560234, 0.6116713, 9.893662
774549372901081, 4.368098, 0.9320044, 9.068798, -0.06784201, -0.50810266, 10.096004
774549382541394, 4.095316, 0.17467605, 9.199206, 0.11896229, 0.27470005, 10.066673
774549392181810, 4.334598, 0.4642076, 9.017352, -0.12671661, -0.049735904, 10.014905
774549401822123, 4.1431723, 0.61854464, 9.265009, 0.1680069, -0.15878779, 10.165403
774549411462435, 4.220939, -0.008374879, 8.962317, -0.11111164, 0.42273366, 9.8968935
774549421102852, 4.267599, 0.9954142, 9.227921, 0.09460211, -0.55412525, 10.200087
774549430743164, 4.132405, -0.2548356, 8.961121, -0.05552745, 0.68256545, 9.847558
774549440383477, 4.3441696, 1.1246266, 9.164511, 0.019506454, -0.69772965, 10.180258
774549450023894, 4.106084, -0.2105684, 9.065208, 0.014640331, 0.6393868, 9.933439
774549459664206, 4.395615, 0.9667004, 9.085547, -0.08233261, -0.5540294, 10.123705
774549469304519, 4.0845485, 0.12323037, 9.195618, 0.13434482, 0.33191597, 10.056335
774549478944935, 4.325027, 0.5383851, 9.005388, -0.10738182, -0.12125456, 10.0033245
774549488585248, 4.15394, 0.5694918, 9.23151, 0.14563584, -0.11585772, 10.1373415
774549498225560, 4.2185464, 0.034695927, 8.965906, -0.09339428, 0.38118625, 9.901051
774549507865977, 4.243671, 0.95712906, 9.266206, 0.13291287, -0.50325316, 10.22333
774549517506289, 4.17069, -0.2416751, 8.986245, -0.074965954, 0.6655721, 9.887216
774549527146602, 4.3764725, 1.1569297, 9.1669035, -0.01002574, -0.72394615, 10.198033
774549536787019, 4.095316, -0.2428715, 9.038888, 0.014416933, 0.6670801, 9.903882
774549546427331, 4.3764725, 1.0013963, 9.085547, -0.06507802, -0.5772183, 10.117611
774549556067644, 4.1084766, 0.08853444, 9.1465645, 0.08613086, 0.34751654, 10.020922
774549565707956, 4.35733, 0.613759, 9.016156, -0.12797451, -0.20475906, 10.029744
774549575348373, 4.1551366, 0.53240305, 9.229117, 0.13691139, -0.080638945, 10.1341
774549584988685, 4.2592244, 0.09930214, 8.940782, -0.13679576, 0.307944, 9.898228
774549594628998, 4.2484565, 0.9212367, 9.230313, 0.10015154, -0.4807303, 10.190957
774549604269414, 4.1814575, -0.2213361, 8.983852, -0.096892595, 0.6423326, 9.890461
774549613909727, 4.3298125, 1.1162517, 9.193225, 0.051004887, -0.68709695, 10.199705
774549623550039, 4.095316, -0.27756742, 9.032906, -0.0019378662, 0.7126459, 9.896169
774549633190456, 4.3645086, 1.026521, 9.127422, -0.034056187, -0.60895514, 10.150889
774549642830769, 4.0534415, 0.010767702, 9.176475, 0.1335845, 0.44367796, 10.0211525
774549652471081, 4.3501515, 0.6376872, 9.040084, -0.105710745, -0.22085059, 10.04956
774549662111498, 4.1347976, 0.44865423, 9.229117, 0.13696027, -0.0018134713, 10.122039
774549671751810, 4.2592244, 0.16390835, 8.969496, -0.118667126, 0.24875754, 9.926922
774549681392123, 4.213761, 0.8961121, 9.275777, 0.13701797, -0.4508589, 10.2164955
774549691032539, 4.156333, -0.21774685, 8.989835, -0.0627532, 0.64254135, 9.885486
774549700672852, 4.321438, 1.1282159, 9.2075815, 0.033862352, -0.6991311, 10.209669
774549710313164, 4.068995, -0.25004998, 9.014959, 0.018212557, 0.67453253, 9.870837
774549719953581, 4.3872404, 1.0588241, 9.120243, -0.06272054, -0.6317677, 10.156019
774549729593894, 4.095316, -0.015553347, 9.147761, 0.085110664, 0.45104796, 10.012127
774549739234206, 4.377669, 0.7286145, 9.069994, -0.11355734, -0.30907172, 10.092137
774549748874623, 4.150351, 0.41515473, 9.232706, 0.11960673, 0.02717036, 10.130429
774549758514935, 4.2759743, 0.21415763, 8.950353, -0.13119817, 0.19863307, 9.918768
774549768155248, 4.2006, 0.85184485, 9.217153, 0.11213565, -0.41085076, 10.156044
774549777795664, 4.15394, -0.15074782, 8.949157, -0.059488535, 0.5675351, 9.850874
774549787435977, 4.301099, 1.1126626, 9.218349, 0.041244507, -0.6814262, 10.2102585
774549797076289, 4.1072803, -0.30987054, 9.036494, -0.0074629784, 0.7434087, 9.903096
774549806716706, 4.3728833, 1.0229317, 9.174082, -0.031059027, -0.59055525, 10.1971855
774549816357019, 4.0797625, -0.07298109, 9.18126, 0.1048491, 0.51079553, 10.033615
774549825997331, 4.365705, 0.75613195, 9.071191, -0.10114956, -0.3452971, 10.089012
774549835637748, 4.113262, 0.36370903, 9.190832, 0.12851334, 0.08538586, 10.074661
774549845278060, 4.2759743, 0.30149564, 8.94796, -0.12543225, 0.1097281, 9.920339
774549854918373, 4.223332, 0.81595254, 9.194421, 0.0793879, -0.37805724, 10.143494
774549864558789, 4.208975, -0.12203395, 8.944371, -0.10623479, 0.5415946, 9.870539
774549874199102, 4.3154554, 1.1174482, 9.208778, 0.030118227, -0.68644494, 10.207907
774549883839414, 4.1491547, -0.2620141, 8.973084, -0.04138136, 0.68965566, 9.865245
774549893479831, 4.406383, 1.0959128, 9.12503, -0.087327, -0.6793792, 10.169278
774549903120144, 4.0594234, -0.11365908, 9.145369, 0.12096572, 0.5595094, 9.990091
774549912760456, 4.3298125, 0.79441714, 9.083155, -0.06252289, -0.3770752, 10.086426
774549922400873, 4.0737805, 0.28115666, 9.238688, 0.18011141, 0.16530454, 10.097938
774549932041185, 4.261617, 0.32542387, 9.01137, -0.0825789, 0.09117639, 9.972811
774549941681498, 4.1611185, 0.7405786, 9.29133, 0.17562842, -0.28578526, 10.201945
774549951321914, 4.2041893, -0.08973085, 8.980264, -0.095198154, 0.50159854, 9.902914
774549960962227, 4.281956, 1.0779666, 9.268599, 0.09876561, -0.6319431, 10.246704
774549970602539, 4.1407795, -0.27038896, 9.044869, -0.039497137, 0.68837684, 9.927406
774549980242956, 4.3908296, 1.1222339, 9.123833, -0.054586887, -0.6979855, 10.163313
774549989883269, 4.104887, -0.14476576, 9.055637, 0.016109705, 0.5792787, 9.926723
774549999523581, 4.3848476, 0.8602197, 9.050852, -0.1175406, -0.44264644, 10.083404
774550009163998, 4.1084766, 0.2656033, 9.176475, 0.1171124, 0.17249185, 10.055563
774550018804310, 4.3118663, 0.41994038, 8.969496, -0.13532782, -0.008223355, 9.960021
774550028444623, 4.152744, 0.7118647, 9.233903, 0.15376925, -0.26380688, 10.145137
774550038085039, 4.226921, -0.019142581, 8.959925, -0.10003257, 0.43397835, 9.896927
774550047725352, 4.2867417, 1.0636097, 9.267402, 0.06748366, -0.6187664, 10.247181
774550057365769, 4.141976, -0.25722843, 9.046066, -0.007930994, 0.6802093, 9.929284
774550067006081, 4.358526, 1.154537, 9.205189, -0.010632515, -0.7158427, 10.225099
774550076646394, 4.089334, -0.14955142, 9.105886, 0.06243372, 0.580531, 9.966006
774550086286706, 4.421936, 0.92602235, 9.066405, -0.14753652, -0.5139836, 10.115573
774550095927123, 4.092923, 0.19142582, 9.192028, 0.12781835, 0.2511971, 10.059952
774550105567435, 4.3058844, 0.47258246, 8.991031, -0.114382505, -0.05317545, 9.979314
774550115207852, 4.1407795, 0.66400826, 9.213564, 0.1502974, -0.21469486, 10.119687
774550124848164, 4.2329035, -0.0047856453, 8.959925, -0.11478782, 0.42373717, 9.899748
774550134488477, 4.2915273, 0.9774681, 9.293723, 0.082393885, -0.5354856, 10.269003
774550144128894, 4.165904, -0.33738798, 9.052048, -0.05781889, 0.7678085, 9.940588
774550153769206, 4.3537407, 1.0468599, 9.201599, -0.011889935, -0.6220735, 10.214367
774550163409519, 4.024728, -0.32063824, 9.102298, 0.10601854, 0.75360984, 9.928439
774550173049935, 4.254439, 0.8422736, 9.08794, 0.01402688, -0.42091203, 10.060964
774550182690248, 4.011567, 0.06699903, 9.147761, 0.16931558, 0.3747142, 9.980462
774550192330560, 4.3094735, 0.45104706, 8.969496, -0.13135505, -0.03966981, 9.960323
774550201970977, 4.165904, 0.5455636, 9.263813, 0.12921, -0.09928244, 10.170746
774550211611289, 4.2999024, 0.010767702, 9.02453, -0.15211797, 0.39918658, 9.987438
774550221251602, 4.3357944, 0.9822537, 9.303294, 0.028161526, -0.54219884, 10.296623
774550230892019, 4.2161536, -0.23928227, 9.007781, -0.0937624, 0.6518327, 9.926713
774550240532331, 4.3812585, 1.14018, 9.110672, -0.06195879, -0.71475595, 10.148154
774550250172748, 4.0642095, -0.21774685, 8.973084, 0.029616117, 0.6377491, 9.832287
774550259813060, 4.298706, 1.0097711, 8.965906, -0.06788254, -0.5970968, 9.976213
774550269453373, 4.082155, 0.11964113, 9.152547, 0.12188339, 0.31698725, 10.016591
774550279093789, 4.4171505, 0.6269195, 9.127422, -0.15019584, -0.20764595, 10.1562
774550288734102, 4.139583, 0.6412765, 9.309277, 0.17627525, -0.19149798, 10.205011
774550298374414, 4.261617, 0.17108682, 9.040084, -0.08731508, 0.25068945, 9.992162
774550308014831, 4.345366, 0.9798609, 9.3511505, 0.048868418, -0.5313459, 10.34416
774550317655144, 4.089334, -0.20338993, 8.902496, -0.02533102, 0.62692434, 9.778793
774550327295560, 4.2891345, 1.1473584, 9.109476, 0.01106596, -0.703986, 10.109399
774550336935873, 4.1168513, -0.2416751, 9.007781, -0.021406412, 0.68235534, 9.883366
774550346576185, 4.2711883, 1.0229317, 9.0341015, -3.6907196E-4, -0.5962596, 10.027409
774550356216602, 4.028317, 0.022731815, 9.169296, 0.14930892, 0.43961856, 10.004415
774550365856914, 4.389633, 0.6376872, 9.105886, -0.13005471, -0.2187972, 10.125607
774550375497331, 4.113262, 0.4881358, 9.27817, 0.17176056, -0.026781201, 10.159303
774550385137644, 4.2628136, 0.10887343, 9.062816, -0.09718394, 0.31730786, 10.01039
774550394777956, 4.290331, 0.86261255, 9.341579, 0.0790391, -0.41346687, 10.307229
774550404418373, 4.1467614, -0.21894327, 8.971889, -0.06889248, 0.64702964, 9.864836
774550414058685, 4.304688, 1.1174482, 9.1669035, 0.015411377, -0.6867932, 10.16559
774550423698998, 4.1108694, -0.22731815, 8.965906, -0.02178359, 0.65840316, 9.844006
774550433339414, 4.3441696, 1.1449656, 9.038888, -0.07089496, -0.71695065, 10.06803
774550442979727, 4.0773697, 0.104087785, 9.116654, 0.09858942, 0.3418402, 9.9811125
774550452620144, 4.402794, 0.76570326, 9.09153, -0.13073802, -0.35310358, 10.123488
774550462260456, 4.1288157, 0.4426722, 9.285348, 0.15422726, 0.011011183, 10.170391
774550471900769, 4.2652063, 0.19381863, 9.0341015, -0.10061288, 0.2268219, 9.989143
774550481541185, 4.2317066, 0.849452, 9.327223, 0.12727976, -0.39435124, 10.2690935
774550491181498, 4.156333, -0.20578274, 9.000603, -0.068002224, 0.6318749, 9.895677
774550500821914, 4.2771707, 1.0731809, 9.24467, 0.07956219, -0.62548745, 10.2231245
774550510462227, 4.1024942, -0.29671, 9.042477, -0.016191721, 0.7198064, 9.9079
774550520102539, 4.3764725, 1.0755738, 9.102298, -0.076568365, -0.6629239, 10.1349325
774550529742956, 4.0869412, -0.04546363, 9.105886, 0.069749355, 0.47361076, 9.969612
774550539383269, 4.365705, 0.7573284, 9.048459, -0.12786698, -0.33758736, 10.068626
774550549023685, 4.1036906, 0.37088752, 9.217153, 0.14287567, 0.06924987, 10.094976
774550558663998, 4.2795634, 0.22971097, 8.96471, -0.13414836, 0.17981005, 9.933939
774550568304310, 4.2017965, 0.7501499, 9.276974, 0.11891699, -0.30557597, 10.206494
774550577944727, 4.197011, -0.21894327, 9.0029955, -0.10082364, 0.63049185, 9.915095
774550587585039, 4.314259, 1.0313065, 9.284152, 0.054310083, -0.5897365, 10.272348
774550597225456, 4.109673, -0.30388847, 9.047262, -0.024434805, 0.7218857, 9.915292
774550606865769, 4.369294, 1.1030912, 9.135797, -0.029343605, -0.6917097, 10.163218
774550616506081, 4.072584, -0.069391854, 9.11785, 0.06781602, 0.49911514, 9.973577
774550626146498, 4.386044, 0.8542377, 9.067601, -0.10270667, -0.44268382, 10.098614
774550635786810, 4.1072803, 0.34217364, 9.224331, 0.13847566, 0.10084319, 10.10177
774550645427227, 4.3034916, 0.32422748, 8.99462, -0.13623285, 0.08320588, 9.975114
774550655067539, 4.214957, 0.7645068, 9.268599, 0.111940145, -0.3212303, 10.204977
774550664707956, 4.1718864, -0.124426775, 8.989835, -0.0749948, 0.5393152, 9.896503
774550674348269, 4.2556353, 1.0683953, 9.2793665, 0.11086893, -0.61976016, 10.245103
774550683988581, 4.095316, -0.26799613, 9.038888, -6.532669E-5, 0.6909236, 9.902905
774550693628998, 4.3274198, 1.1234303, 9.177671, 0.003887415, -0.6871701, 10.185583
774550703269310, 4.06062, -0.13758731, 9.104691, 0.07521081, 0.58119535, 9.952864
774550712909727, 4.341777, 0.8566305, 9.098708, -0.069244385, -0.42997515, 10.108494
774550722550039, 4.072584, 0.29192436, 9.229117, 0.16523552, 0.1605258, 10.089336
774550732190352, 4.2891345, 0.41754755, 8.993423, -0.11831617, -0.0012542605, 9.971895
774550741830769, 4.1958146, 0.7178468, 9.2590275, 0.10605574, -0.27150488, 10.186501
774550751471081, 4.2221355, -0.07058827, 8.939586, -0.12139726, 0.48587677, 9.874046
774550761111498, 4.304688, 1.0456635, 9.256635, 0.033550024, -0.6009459, 10.244352
774550770751810, 4.126423, -0.3074777, 9.042477, -0.01603055, 0.7321016, 9.917259
774550780392227, 4.3609195, 1.079163, 9.180064, -0.034376383, -0.654591, 10.199319
774550790032539, 4.0677986, -0.18185452, 9.09153, 0.07333088, 0.6124712, 9.942609
774550799672852, 4.362116, 0.91166544, 9.103494, -0.0843575, -0.48379868, 10.123816
774550809313269, 4.048656, 0.24765715, 9.226724, 0.18000937, 0.19856268, 10.075395
774550818953581, 4.28076, 0.44027936, 9.006584, -0.10492277, -0.020505607, 9.981277
774550828593998, 4.1443686, 0.6795616, 9.24467, 0.14364815, -0.22740716, 10.15033
774550838234310, 4.186243, -0.013160525, 8.973084, -0.07713342, 0.43479803, 9.891715
774550847874727, 4.269992, 1.0432707, 9.285348, 0.07993436, -0.5916529, 10.255852
774550857515039, 4.1551366, -0.27756742, 9.035298, -0.03702402, 0.7029822, 9.923873
774550867155456, 4.365705, 1.1066805, 9.175279, -0.057904243, -0.6666562, 10.199122
774550876795769, 4.0977087, -0.19860429, 9.081959, 0.04039073, 0.62916744, 9.945611
774550886436185, 4.3848476, 0.8961121, 9.05803, -0.13299775, -0.46928245, 10.091576
774550896076498, 4.095316, 0.096909314, 9.174082, 0.09650469, 0.34510443, 10.040735
774550905716810, 4.3070807, 0.50488555, 9.000603, -0.122755766, -0.08991748, 9.989673
774550915357227, 4.1587257, 0.64845496, 9.239884, 0.12914753, -0.19860262, 10.150609
774550924997539, 4.243671, 0.09332009, 8.939586, -0.13332152, 0.31959078, 9.890084
774550934637956, 4.2652063, 1.0468599, 9.274581, 0.095326185, -0.6019747, 10.243744
774550944278269, 4.130012, -0.21655045, 9.041281, -0.032940865, 0.6528616, 9.920753
774550953918685, 4.3298125, 1.1724831, 9.19801, 0.0167346, -0.740022, 10.206737
774550963558998, 4.065406, -0.19860429, 9.0544405, 0.037685156, 0.6429244, 9.906316
774550973199414, 4.325027, 0.971486, 9.101101, -0.04731536, -0.5362387, 10.108902
774550982839727, 4.0594234, 0.0849452, 9.206385, 0.13979053, 0.36301035, 10.054469
774550992480144, 4.3465624, 0.5312066, 9.042477, -0.1443944, -0.11346185, 10.045271
774551002120456, 4.150351, 0.5168497, 9.250652, 0.117639065, -0.06769794, 10.15129
774551011760873, 4.2448673, 0.047856454, 8.970692, -0.13269472, 0.36990607, 9.916656
774551021401185, 4.26401, 0.9523434, 9.262616, 0.06560969, -0.51320785, 10.2282505
774551031041498, 4.1587257, -0.2213361, 9.006584, -0.076592684, 0.6390442, 9.901935
774551040681914, 4.3178487, 1.1521441, 9.213564, 0.025553226, -0.7113106, 10.215401
774551050322227, 4.0761733, -0.22612174, 9.084352, 0.02691269, 0.6548095, 9.93792
774551059962644, 4.3669014, 1.0109676, 9.120243, -0.073890686, -0.5956597, 10.14448
774551069602956, 4.0390844, 0.039481573, 9.19801, 0.13696957, 0.40556806, 10.036729
774551079243373, 4.28076, 0.7716853, 9.111869, -0.026661158, -0.34194547, 10.091032
774551088883685, 4.17069, 0.3469593, 9.103494, 0.018253565, 0.086939275, 10.019017
774551098524102, 4.188636, 0.4534399, 9.11785, 0.020404339, -0.019055605, 10.044137
774551108164414, 4.1874394, 0.4127619, 9.148957, 0.029382229, 0.021506071, 10.070109
774551117804831, 4.2125645, 0.44865423, 9.108279, -0.0071048737, -0.02039659, 10.045259
774551127445144, 4.2352962, 0.43788654, 9.086744, -0.03729987, -0.01312834, 10.034781
774551137085560, 4.237689, 0.44865423, 9.12144, -0.023511648, -0.021745026, 10.067718
774551146725873, 4.213761, 0.4354937, 9.136993, 0.0032889843, -0.005873561, 10.07125
774551156366289, 4.2329035, 0.42711884, 9.134601, -0.015927076, 6.9737434E-4, 10.076734
774551166006602, 4.2341, 0.40917268, 9.120243, -0.025100231, 0.016946197, 10.063446
774551175647019, 4.202993, 0.4103691, 9.15494, 0.017625809, 0.019476414, 10.081954
774551185287331, 4.2053857, 0.42592242, 9.133404, 0.0073816776, 0.0012004375, 10.064076
774551194927748, 4.1898327, 0.44147578, 9.103494, 0.009177923, -0.016153872, 10.031096
774551204568060, 4.1874394, 0.4534399, 9.110672, 0.014411449, -0.027884007, 10.037113
774551214208477, 4.182654, 0.44626144, 9.144172, 0.031549692, -0.018917143, 10.065202
774551223848789, 4.186243, 0.4319045, 9.159725, 0.033032894, -0.0034906268, 10.08021
774551233489206, 4.186243, 0.42831525, 9.171689, 0.034926176, 0.0011137128, 10.090923
774551243129519, 4.17069, 0.4354937, 9.148957, 0.038931847, -0.0075915456, 10.064102
774551252769935, 4.1850467, 0.424726, 9.135797, 0.019916534, 0.00269562, 10.057703
774551262410248, 4.202993, 0.43070808, 9.132208, 0.0023052692, -0.0035623312, 10.0622
774551272050664, 4.2317066, 0.4319045, 9.099904, -0.036994457, -0.006097883, 10.044935
774551281690977, 4.24726, 0.4534399, 9.097511, -0.05122876, -0.028207242, 10.05018
774551291331394, 4.260421, 0.44985065, 9.09153, -0.063658, -0.025858343, 10.050112
774551300971706, 4.243671, 0.44985065, 9.0951185, -0.047118902, -0.024721265, 10.046366
774551310612123, 4.229314, 0.43669012, 9.105886, -0.02984643, -0.009890139, 10.049577
774551320252435, 4.213761, 0.4354937, 9.110672, -0.013890982, -0.008101702, 10.047364
774551329892852, 4.1838503, 0.4211368, 9.128618, 0.020237207, 0.007705033, 10.0505295
774551339533269, 4.150351, 0.40797627, 9.177671, 0.069488525, 0.02410686, 10.080482
774551349173581, 4.152744, 0.41754755, 9.178867, 0.068379164, 0.013958156, 10.0829735
774551358813998, 4.162315, 0.4235296, 9.162118, 0.050683737, 0.0058432817, 10.072042
774551368454310, 4.1671004, 0.4127619, 9.201599, 0.0607028, 0.017412215, 10.109429
774551378094727, 4.1575294, 0.42592242, 9.1669035, 0.05405736, 0.003247857, 10.074503
774551387735039, 4.210171, 0.43429732, 9.126225, -0.011988163, -0.0070239604, 10.059917
774551397375456, 4.1922255, 0.42951167, 9.096315, -0.009659767, -0.002861917, 10.025074
774551407015769, 4.1922255, 0.4331009, 9.062816, -0.023531914, -0.008068174, 9.994816
774551416656185, 4.1958146, 0.43788654, 9.103494, -0.009555578, -0.010945201, 10.0334425
774551426296498, 4.1754756, 0.43070808, 9.139386, 0.024072409, -0.0016685724, 10.057232
774551435936914, 4.202993, 0.43669012, 9.129815, -0.0062429905, -0.008618772, 10.060282
774551445577227, 4.2161536, 0.44745782, 9.115458, -0.023902655, -0.020564198, 10.053196
774551455217644, 4.206582, 0.43788654, 9.136993, -0.006585598, -0.009634137, 10.068348
774551464857956, 4.1958146, 0.45104706, 9.132208, 0.0025398731, -0.022305667, 10.060072
774551474498373, 4.188636, 0.4331009, 9.12503, 0.004242182, -0.0041936636, 10.049795
774551484138789, 4.1790648, 0.44147578, 9.107083, 0.0044238567, -0.012739778, 10.029869
774551493779102, 4.182654, 0.43070808, 9.110672, 0.0013406277, -0.0020362735, 10.034164
774551503419519, 4.173083, 0.43908295, 9.158528, 0.02999425, -0.007051587, 10.073981
774551513059831, 4.1778684, 0.44865423, 9.19801, 0.04277444, -0.013771296, 10.112232
774551522700248, 4.1850467, 0.44147578, 9.177671, 0.025259972, -0.008295298, 10.096458
774551532340560, 4.210171, 0.43788654, 9.140582, -0.0131242275, -0.009095788, 10.073096
774551541980977, 4.2017965, 0.41874397, 9.12503, -0.013494492, 0.010065258, 10.054668
774551551621289, 4.2161536, 0.4235296, 9.096315, -0.03740883, 0.0034983158, 10.034783
774551561261706, 4.213761, 0.41994038, 9.072387, -0.04522276, 0.005427301, 10.011906
774551570902123, 4.214957, 0.4319045, 9.097511, -0.034749508, -0.00499928, 10.03573
774551580542435, 4.2017965, 0.44147578, 9.105886, -0.018266201, -0.013758123, 10.03826
774551590182852, 4.186243, 0.43908295, 9.145369, 0.012117863, -0.008606911, 10.06752
774551599823164, 4.194618, 0.43788654, 9.131011, -0.0019700527, -0.009178162, 10.057926
774551609463581, 4.174279, 0.4438686, 9.139386, 0.019269705, -0.014374316, 10.057306
774551619103894, 4.162315, 0.44506502, 9.15494, 0.036450386, -0.014471412, 10.066495
774551628744310, 4.182654, 0.43788654, 9.145369, 0.011539698, -0.008322835, 10.065977
774551638384623, 4.1814575, 0.424726, 9.144172, 0.010594606, 0.004591346, 10.063833
774551648025039, 4.174279, 0.4223332, 9.138189, 0.014488697, 0.0068874955, 10.055308
774551657665456, 4.1718864, 0.44506502, 9.135797, 0.016443014, -0.016121626, 10.053107
774551667305769, 4.1838503, 0.46660042, 9.12503, 2.4080276E-5, -0.038724154, 10.049227
774551676946185, 4.188636, 0.4331009, 9.147761, 0.0039639473, -0.0041536987, 10.070439
774551686586498, 4.173083, 0.43908295, 9.116654, 0.0041778088, -0.011180639, 10.035968
774551696226914, 4.193422, 0.43669012, 9.11785, -0.013777256, -0.009316027, 10.045417
774551705867227, 4.206582, 0.44147578, 9.120243, -0.024921656, -0.014132619, 10.05327
774551715507644, 4.199404, 0.4331009, 9.139386, -0.010873318, -0.004311383, 10.067313
774551725148060, 4.165904, 0.4235296, 9.123833, 0.012669325, 0.0052080154, 10.038839
774551734788373, 4.180261, 0.40917268, 9.144172, 0.006440401, 0.020163, 10.062677
774551744428789, 4.168297, 0.41874397, 9.119047, 0.0068295, 0.008914471, 10.035286
774551754069102, 4.1671004, 0.4235296, 9.142975, 0.017677069, 0.0051460266, 10.056727
774551763709519, 4.1551366, 0.43070808, 9.15135, 0.032421112, -0.0012407303, 10.059665
774551773349935, 4.1551366, 0.45224348, 9.150154, 0.031378984, -0.023367882, 10.059498
774551782990248, 4.197011, 0.44027936, 9.139386, -0.012608051, -0.012946725, 10.066619
774551792630664, 4.182654, 0.4354937, 9.152547, 0.005648613, -0.006876707, 10.072404
774551802270977, 4.182654, 0.4223332, 9.131011, -0.004161358, 0.0054593086, 10.0522785
774551811911394, 4.1754756, 0.40558344, 9.12503, -0.0010204315, 0.02204901, 10.043146
774551821551810, 4.168297, 0.39481574, 9.114262, 5.891323E-4, 0.032619894, 10.029919
774551831192123, 4.159922, 0.40558344, 9.115458, 0.008567572, 0.022201598, 10.027984
774551840832539, 4.152744, 0.43669012, 9.119047, 0.018066406, -0.008847356, 10.029586
774551850472852, 4.1754756, 0.4642076, 9.150154, 0.011182547, -0.03608936, 10.068466
774551860113269, 4.1635113, 0.4761717, 9.153743, 0.023449183, -0.046634436, 10.067266
774551869753685, 4.1718864, 0.48095736, 9.156136, 0.016378164, -0.050669253, 10.07313
774551879393998, 4.202993, 0.47258246, 9.150154, -0.015339613, -0.043408513, 10.080262
774551889034414, 4.2017965, 0.4438686, 9.128618, -0.025465012, -0.016369402, 10.0589695
774551898674727, 4.1958146, 0.42831525, 9.123833, -0.021373272, 5.9729815E-4, 10.051477
774551908315144, 4.208975, 0.4139583, 9.103494, -0.042877913, 0.012786686, 10.03785
774551917955560, 4.2041893, 0.4031906, 9.108279, -0.036486626, 0.02457738, 10.039749
774551927595873, 4.210171, 0.42711884, 9.101101, -0.04133129, -5.131364E-4, 10.036748
774551937236289, 4.2041893, 0.4331009, 9.111869, -0.031029463, -0.005521357, 10.0443
774551946876602, 4.2017965, 0.45942193, 9.133404, -0.016583204, -0.03097719, 10.063995
774551956517019, 4.173083, 0.44027936, 9.142975, 0.011882544, -0.009875655, 10.059931
774551966157435, 4.174279, 0.43429732, 9.153743, 0.01505065, -0.0032584667, 10.069954
774551975797748, 4.115655, 0.4235296, 9.160921, 0.06975412, 0.00994122, 10.051642
774551985438164, 4.119244, 0.41994038, 9.1681, 0.069173574, 0.014058173, 10.0595045
774551995078477, 4.135994, 0.41515473, 9.178867, 0.055715084, 0.017944634, 10.076059
774552004718894, 4.1551366, 0.4235296, 9.15135, 0.026443958, 0.00664407, 10.059374
774552014359310, 4.156333, 0.43908295, 9.12503, 0.015400887, -0.010769546, 10.03662
774552023999623, 4.176672, 0.44985065, 9.090333, -0.016559124, -0.024722159, 10.014
774552033640039, 4.1814575, 0.45583272, 9.109476, -0.01190424, -0.029233396, 10.03364
774552043280352, 4.1790648, 0.44745782, 9.109476, -0.010288477, -0.020492852, 10.0322895
774552052920769, 4.1958146, 0.44506502, 9.126225, -0.01826477, -0.017736673, 10.054367
