timestamp_acc,device_acc_x,device_acc_y,device_acc_z,earth_acc_x,earth_acc_y,earth_acc_z
268545891622687, 5.7188463, -0.48454657, 8.114061, 0.05140257, 0.07268691, 9.9383135
268545901261958, 5.7655063, -0.39720857, 8.129615, -0.004451275, -0.005745411, 9.97444
268545910901229, 5.773881, -0.33260235, 8.097312, -0.05583906, -0.055990934, 9.950305
268545920540500, 5.81097, -0.31465617, 8.047063, -0.1173377, -0.05005145, 9.930022
268545930179771, 5.8097734, -0.32542387, 8.04467, -0.11311865, -0.040830612, 9.927821
268545939819041, 5.8013983, -0.37088752, 8.103293, -0.05606413, -0.015398264, 9.972651
268545949458312, 5.791827, -0.3900301, 8.189436, 0.0036211014, -0.021633983, 10.038116
268545959097583, 5.800202, -0.4211368, 8.263613, 0.047226906, -0.00809598, 10.104688
268545968736854, 5.808577, -0.43908295, 8.289934, 0.057840347, 0.0048060417, 10.131733
268545978376125, 5.8097734, -0.41156548, 8.286345, 0.039440632, -0.018354654, 10.128399
268545988015291, 5.79422, -0.37567315, 8.281559, 0.03131771, -0.053551197, 10.114074
268545997654562, 5.7930236, -0.33738798, 8.281559, 0.0137376785, -0.08665919, 10.111848
268546007293833, 5.8217373, -0.36610186, 8.237292, -0.019844055, -0.03835845, 10.093452
268546016933104, 5.8241305, -0.39601216, 8.184649, -0.03725481, 0.004745722, 10.053079
268546026572375, 5.831309, -0.4319045, 8.129615, -0.05582142, 0.054208994, 10.013755
268546036211646, 5.814559, -0.46899325, 8.117651, -0.033177376, 0.08601403, 9.995841
268546045850916, 5.7894344, -0.4546363, 8.136793, -0.010834217, 0.05740857, 9.996412
268546055490187, 5.782256, -0.40917268, 8.143971, -0.021761417, 0.008876562, 9.996281
268546065129458, 5.7762737, -0.39361933, 8.178668, -0.0065073967, -0.0200696, 10.020502
268546074768729, 5.7810597, -0.36370903, 8.2145605, -0.004425049, -0.05539775, 10.0513115
268546084408000, 5.770292, -0.32542387, 8.226524, -0.005739689, -0.09686136, 10.053282
268546094047271, 5.7990055, -0.30149564, 8.364112, 0.029328823, -0.14161515, 10.181201
268546103686541, 5.8097734, -0.25962126, 8.489735, 0.06996584, -0.20927215, 10.288235
268546113325708, 5.782256, -0.22013968, 8.433503, 0.041385174, -0.23408628, 10.22499
268546122964979, 5.8767724, -0.19980069, 8.392825, -0.07168102, -0.20842338, 10.245356
268546132604250, 5.9413786, -0.14356937, 8.407183, -0.14299488, -0.24124825, 10.291874
268546142243521, 5.849255, -0.18305093, 8.4012, -0.067620754, -0.2285161, 10.235754
268546151882791, 5.7248282, -0.18185452, 8.045866, -0.15907383, -0.17706001, 9.873503
268546161522062, 5.633901, -0.29790643, 7.926225, -0.1106019, -0.06993079, 9.728182
268546171161333, 5.956932, -0.4881358, 6.157929, -1.1780486, 0.643667, 8.4759245
268546180800604, 6.3864436, -0.6520442, 7.223932, -0.8461673, 0.60813344, 9.60787
268546190439875, 5.9318075, -0.587438, 8.622537, 0.1969862, 0.04168296, 10.48041
268546200079146, 5.602794, -0.6939186, 9.1681, 0.8295145, -0.13481402, 10.734087
268546209718416, 5.548956, -0.762114, 8.8905325, 0.76164794, -0.015269995, 10.480123
268546219357583, 5.578866, -0.7537391, 8.525627, 0.54654884, 0.07851362, 10.201634
268546228996854, 5.692525, -0.6149554, 8.27797, 0.2546339, 0.0720191, 10.061699
268546238636125, 5.615955, -0.45702913, 8.165507, 0.15932608, -0.033920765, 9.9195175
268546248275396, 5.6446686, -0.34576288, 8.250452, 0.13602209, -0.14929247, 10.000551
268546257914666, 5.7355957, -0.43429732, 8.233703, 0.09208393, -0.0239048, 10.04343
268546267553937, 5.800202, -0.57547385, 8.222935, 0.101622105, 0.13480306, 10.077781
268546277193208, 5.8803616, -0.6975078, 8.116454, 0.036977768, 0.28830767, 10.042784
268546286832479, 5.9473605, -0.60658056, 8.059027, -0.084964275, 0.23131073, 10.031261
268546296471750, 5.9342003, -0.4749753, 8.172686, -0.008198738, 0.04546976, 10.110935
268546306111021, 5.922236, -0.41635114, 8.230113, 0.015245914, -0.024962902, 10.147914
268546315750291, 5.9210396, -0.33260235, 8.062616, -0.07724714, -0.080212116, 10.008132
268546325389562, 5.8731833, -0.3074777, 7.7551384, -0.19853401, -0.045085073, 9.730855
268546335028729, 5.851648, -0.30388847, 7.6343007, -0.21740723, -0.027472377, 9.621262
268546344668000, 5.8600225, -0.317049, 7.6953177, -0.17412424, -0.026404738, 9.67612
268546354307271, 5.9174504, -0.34097722, 7.7874413, -0.15499973, -0.008330584, 9.785327
268546363946541, 5.962914, -0.39361933, 7.98126, -0.06695318, 0.007909298, 9.97032
268546373585812, 5.992824, -0.46899325, 8.112865, 0.011402607, 0.052126646, 10.0970125
268546383225083, 6.038288, -0.5706882, 8.045866, -0.028927326, 0.1821692, 10.074153
268546392864354, 5.9784675, -0.5802595, 8.078169, 0.03344488, 0.16124153, 10.065211
268546402503625, 5.966503, -0.5096712, 8.2145605, 0.09041548, 0.050367117, 10.165001
268546412142896, 5.9784675, -0.3481557, 8.379665, 0.10219574, -0.13732481, 10.298193
268546421782166, 5.925825, -0.33020952, 8.368897, 0.13701487, -0.16986823, 10.257449
268546431421333, 5.936593, -0.31226337, 8.191829, 0.030243397, -0.13187528, 10.120691
268546441060604, 5.9066825, -0.31465617, 8.082955, -0.004286289, -0.10886502, 10.015499
268546450699875, 5.877969, -0.3074777, 8.017152, -0.011146545, -0.104368925, 9.945288
268546460339146, 5.845666, -0.34217364, 7.9836526, 0.015228748, -0.07255602, 9.900612
268546469978416, 5.855237, -0.35174492, 8.07458, 0.059318542, -0.08641124, 9.979748
268546479617687, 5.9318075, -0.46779683, 8.093722, 0.06584072, 0.03993678, 10.045277
268546489256958, 5.916254, -0.5192425, 8.055437, 0.07544565, 0.09947181, 10.007305
268546498896229, 5.9904313, -0.53599226, 7.9764743, -0.021817684, 0.16424179, 9.988457
268546508535500, 6.067002, -0.54436713, 7.91785, -0.1115675, 0.21257472, 9.98697
268546518174771, 6.033502, -0.5192425, 7.9501534, -0.0803504, 0.17019534, 9.992111
268546527814041, 5.959325, -0.4869394, 7.9357963, -0.041256428, 0.11536026, 9.935419
268546537453208, 5.875576, -0.424726, 7.926225, -0.009717941, 0.035359383, 9.875551
268546547092479, 5.845666, -0.36729828, 7.921439, -0.0074477196, -0.028290987, 9.851653
268546556731750, 5.8707905, -0.33020952, 7.921439, -0.027751446, -0.059925556, 9.865093
268546566371021, 5.889933, -0.32542387, 7.9860454, -0.001127243, -0.079662085, 9.928131
268546576010291, 5.901897, -0.34337005, 8.177471, 0.09908533, -0.11142969, 10.089554
268546585649562, 5.9712887, -0.33738798, 8.252846, 0.09143925, -0.120204926, 10.191015
268546595288833, 6.0083776, -0.3385844, 8.210971, 0.046979427, -0.09498501, 10.179591
268546604928104, 6.0454664, -0.35174492, 8.169097, 0.0027990341, -0.059874296, 10.168674
268546614567375, 6.111269, -0.3589234, 8.13799, -0.05591631, -0.02040577, 10.183309
268546624206646, 6.15434, -0.37328035, 8.013563, -0.14433956, 0.04139352, 10.10989
268546633845812, 6.1328044, -0.41515473, 7.9884386, -0.11728287, 0.0765903, 10.078649
268546643485083, 6.099305, -0.39840496, 8.048259, -0.0679245, 0.034134626, 10.105886
268546653124354, 6.0921264, -0.39960137, 8.053044, -0.051801205, 0.027609587, 10.105532
268546662763625, 6.009574, -0.3589234, 7.9968133, -0.03241062, -0.023173094, 10.009558
268546672402896, 5.9820566, -0.3924229, 7.87119, -0.058611393, 0.031221151, 9.8939495
268546682042166, 5.919843, -0.4031906, 7.8927255, 0.003088951, 0.014995575, 9.87431
268546691681437, 5.9210396, -0.38285163, 7.9190464, 0.0133571625, -0.013290644, 9.895264
268546701320708, 5.9150577, -0.4127619, 7.9274216, 0.037252426, 0.00887537, 9.899538
268546710959979, 5.9246287, -0.37447673, 8.100901, 0.105424404, -0.07204294, 10.0423975
268546720599250, 5.9724855, -0.33738798, 8.220542, 0.115392685, -0.12138152, 10.1653185
268546730238416, 6.053841, -0.35653058, 8.169097, 0.030325413, -0.0577085, 10.17379
268546739877687, 6.134001, -0.38644084, 8.038688, -0.08435297, 0.032458305, 10.118678
268546749516958, 6.155536, -0.38644084, 7.952546, -0.15385866, 0.070990324, 10.062516
268546759156229, 6.122037, -0.3792624, 7.911868, -0.15211725, 0.061065674, 10.009694
268546768795500, 6.0394845, -0.4031906, 8.017152, -0.018784523, 0.023372173, 10.045484
268546778434771, 6.0083776, -0.41156548, 8.078169, 0.044469357, 0.0015118122, 10.075953
268546788074041, 5.936593, -0.39601216, 8.017152, 0.059009075, -0.017114878, 9.983533
268546797713312, 5.898308, -0.37806597, 7.9633136, 0.053666115, -0.0341599, 9.916819
268546807352583, 5.9150577, -0.38165522, 7.938189, 0.028977871, -0.019414902, 9.906927
268546816991854, 5.898308, -0.37208393, 7.9908314, 0.06598425, -0.04680133, 9.938578
268546826631021, 5.953343, -0.36131623, 8.029117, 0.04147768, -0.0493567, 10.001771
268546836270291, 6.0215383, -0.34337005, 8.088937, 0.009009838, -0.05502677, 10.089827
268546845909562, 6.076573, -0.3900301, 8.079366, -0.018688679, 0.0065755844, 10.116947
268546855548833, 6.099305, -0.40797627, 8.072187, -0.038117886, 0.03720212, 10.125479
268546865188104, 6.0658054, -0.42831525, 8.017152, -0.04077196, 0.065167665, 10.06212
268546874827375, 6.017949, -0.40438703, 8.038688, -0.011356354, 0.029812574, 10.049811
268546884466646, 5.938986, -0.38763726, 8.039884, 0.037243366, -0.008386135, 10.003004
268546894105916, 5.928218, -0.3385844, 8.07458, 0.044321537, -0.06561923, 10.022524
268546903745187, 5.989235, -0.2835495, 8.099705, -0.016628742, -0.10375047, 10.076981
268546913384458, 6.0107703, -0.30388847, 8.097312, -0.02617073, -0.07714033, 10.088684
268546923023625, 6.0119667, -0.33140594, 8.063812, -0.03388214, -0.042309284, 10.063583
268546932662896, 6.0346985, -0.37567315, 7.989635, -0.06838608, 0.026722908, 10.019361
268546942302166, 6.0526447, -0.2321038, 7.921439, -0.17667389, -0.07803893, 9.969969
268546951941437, 5.9916277, -0.6843473, 7.9190464, 0.058558464, 0.31046104, 9.948841
268546961580708, 6.0394845, 0.03589234, 7.946564, -0.26113462, -0.34031153, 9.971989
268546971219979, 5.834898, -1.0049855, 7.789834, 0.23005319, 0.5885906, 9.764128
268546980859250, 5.973682, 0.29910284, 8.094919, -0.21797228, -0.6422577, 10.042014
268546990498521, 5.7894344, -0.97866446, 7.960921, 0.32300377, 0.5146533, 9.873318
268547000137791, 6.094519, 0.2835495, 8.333005, -0.17197418, -0.65311885, 10.30565
268547009776958, 5.933004, -0.7393822, 8.158329, 0.21909142, 0.2913431, 10.108049
268547019416229, 6.1232333, -0.086141616, 8.333005, -0.070970535, -0.3027383, 10.336523
268547029055500, 6.0753765, -0.3469593, 8.096115, -0.07246494, -0.010251522, 10.127798
268547038694771, 6.0622163, -0.6987042, 8.005188, 0.017451286, 0.33531213, 10.060265
268547048334041, 6.023931, -0.023928227, 8.015956, -0.19069242, -0.31282413, 10.020461
268547057973312, 5.8037915, -1.0576276, 7.8484583, 0.2718222, 0.62577665, 9.7946615
268547067612583, 5.9748783, 0.24885355, 8.02792, -0.24961329, -0.5878631, 9.990032
268547077251854, 5.741578, -1.1186446, 7.8113694, 0.32594037, 0.6662524, 9.730595
268547086891021, 6.0394845, 0.22492532, 8.112865, -0.23363304, -0.56161606, 10.098246
268547096530291, 5.895915, -0.8135597, 7.8987074, 0.13735437, 0.40532458, 9.880796
268547106169562, 6.064609, -0.02871387, 8.163115, -0.14171505, -0.3362981, 10.162852
268547115808833, 5.968896, -0.31226337, 8.118847, 0.012277603, -0.087767124, 10.081321
268547125448104, 5.977271, -0.51445687, 8.26481, 0.15166998, 0.078231096, 10.2112875
268547135087375, 6.096912, 0.08973085, 8.236095, -0.17536783, -0.44856977, 10.236292
268547144726646, 5.986842, -0.9415757, 8.038688, 0.16251087, 0.53430676, 10.051738
268547154365916, 6.141179, 0.30149564, 8.228917, -0.284791, -0.63760924, 10.248532
268547164005187, 5.852844, -1.1222339, 7.9274216, 0.27558088, 0.68847644, 9.889856
268547173644458, 6.0634127, 0.16031912, 8.078169, -0.25288296, -0.49517667, 10.086543
268547183283625, 5.8037915, -0.9834501, 7.735996, 0.1720047, 0.59133625, 9.70142
268547192922896, 5.940182, -0.14117654, 8.053044, -0.05877638, -0.23514163, 10.004923
268547202562166, 5.8863435, -0.47258246, 8.024331, 0.08473444, 0.053398967, 9.962542
268547212201437, 5.9353967, -0.4881358, 8.085348, 0.091759205, 0.06661093, 10.041275
268547221840708, 5.98086, -0.014356935, 8.015956, -0.15096617, -0.34752893, 9.994143
268547231479979, 5.9700923, -0.9667004, 7.914261, 0.1553731, 0.56770945, 9.94312
268547241119250, 6.212964, 0.22851457, 8.112865, -0.36162186, -0.5331497, 10.200819
268547250758521, 5.9042897, -1.154537, 7.926225, 0.28599358, 0.71005154, 9.921323
268547260397791, 6.142376, 0.16869399, 8.120044, -0.2700653, -0.49150276, 10.16749
268547270036958, 5.905486, -0.991825, 7.8891363, 0.22188234, 0.5745194, 9.885224
268547279676229, 6.029913, -0.08733802, 8.122437, -0.09309101, -0.28408897, 10.111979
268547289315500, 5.912665, -0.49292147, 7.9298143, 0.04290867, 0.098006964, 9.903186
268547298954771, 6.046663, -0.4869394, 8.013563, -0.011241436, 0.11118722, 10.050072
268547308594041, 6.1651077, -0.031106694, 8.096115, -0.21822166, -0.30702925, 10.169304
268547318233312, 6.01436, -0.9343972, 8.007581, 0.1811924, 0.5056981, 10.043825
268547327872583, 6.108876, 0.25004998, 8.177471, -0.20617914, -0.61795425, 10.189581
268547337511854, 5.8887367, -1.0767702, 7.921439, 0.29949236, 0.62025225, 9.905123
268547347151021, 6.0693946, 0.2883351, 8.085348, -0.21768093, -0.6529931, 10.090578
268547356790291, 5.808577, -0.8650054, 7.749156, 0.19226122, 0.44271684, 9.71104
268547366429562, 6.0167527, 0.12083755, 7.920243, -0.19462776, -0.48176813, 9.933588
268547376068833, 5.9030933, -0.45822555, 7.624729, -0.07985687, 0.11599672, 9.652624
268547385708104, 5.962914, -0.4019942, 7.6570325, -0.124620914, 0.07079303, 9.712236
268547395347375, 6.0119667, -0.062213387, 7.7443705, -0.21452808, -0.25315666, 9.798611
268547404986646, 5.9090757, -0.8422736, 7.85444, 0.20384312, 0.4324503, 9.853441
268547414625916, 6.1603217, 0.29671, 8.181061, -0.20409584, -0.64651823, 10.222903
268547424265187, 6.047859, -1.0037891, 8.047063, 0.27049208, 0.5716646, 10.096506
268547433904354, 6.2644095, 0.3397808, 8.377272, -0.17478561, -0.7114409, 10.440319
268547443543625, 6.0729837, -0.9451649, 8.04467, 0.23802805, 0.50433505, 10.10842
268547453182896, 6.2261243, 0.02751746, 8.244471, -0.0987854, -0.42290425, 10.322212
268547462822166, 6.013163, -0.6723832, 8.01117, 0.19542933, 0.23158085, 10.034802
268547472461437, 6.070591, -0.5288138, 7.946564, 0.06577253, 0.12792552, 10.012938
268547482100708, 6.1160545, -0.28235307, 7.739585, -0.14863682, -0.065176606, 9.867151
268547491739979, 6.0717874, -0.9667004, 7.773084, 0.15559864, 0.5481713, 9.894303
268547501379250, 6.2117677, 0.12562318, 7.9034934, -0.22961855, -0.4989655, 10.038195
268547511018416, 5.9784675, -1.1365907, 7.676175, 0.2612548, 0.682634, 9.768487
268547520657687, 6.212964, 0.23449662, 7.911868, -0.24690676, -0.604864, 10.041252
268547530296958, 6.0011992, -0.98943216, 7.6139617, 0.16961956, 0.54364777, 9.728385
268547539936229, 6.2691956, 0.18903299, 7.9501534, -0.22080278, -0.589602, 10.106784
268547549575500, 6.1196437, -0.58624154, 7.6713896, 0.003423214, 0.17703831, 9.82917
268547559214771, 6.2883377, -0.3290131, 7.8376904, -0.113735676, -0.06312239, 10.053056
268547568854041, 6.245267, -0.19621146, 7.773084, -0.14526463, -0.19148815, 9.970202
268547578493312, 6.1734824, -0.8171489, 7.944171, 0.21826649, 0.34130585, 10.085898
268547588132583, 6.302695, 0.13160525, 7.999206, -0.16205597, -0.5351919, 10.169361
268547597771854, 6.0550375, -1.1294123, 7.77787, 0.3185711, 0.6548859, 9.894642
268547607411021, 6.2919273, 0.20697916, 7.962117, -0.21314716, -0.59479856, 10.130512
268547617050291, 6.06102, -1.0839486, 7.737192, 0.28478622, 0.6239071, 9.864313
268547626689562, 6.3888364, 0.083748795, 8.111669, -0.17071438, -0.48646593, 10.3129835
268547636328833, 6.256035, -0.7082755, 7.9597244, 0.15832567, 0.25046778, 10.14441
268547645968104, 6.4331036, -0.24047868, 8.280363, 0.030875683, -0.22660208, 10.485931
268547655607375, 6.355337, -0.20578274, 8.073383, -0.03843355, -0.22242403, 10.2743
268547665246646, 6.2177496, -0.7860422, 7.9980097, 0.26219273, 0.29278493, 10.15342
268547674885916, 6.290731, 0.0634098, 7.9477606, -0.1508956, -0.45559573, 10.124914
268547684525187, 6.046663, -1.160519, 7.8317084, 0.4410367, 0.63278747, 9.932253
268547694164354, 6.24766, 0.17108682, 7.885547, -0.17290878, -0.5448692, 10.045776
268547703803625, 6.0251274, -1.1712867, 7.587641, 0.3343439, 0.7036171, 9.728284
268547713442896, 6.3421764, 0.062213387, 7.836494, -0.20485592, -0.41071534, 10.0711
268547723082166, 6.1710896, -0.8362915, 7.594819, 0.11428976, 0.43025696, 9.811464
268547732721437, 6.431907, -0.22851457, 7.8400836, -0.1310978, -0.13833511, 10.14161
268547742360708, 6.24766, -0.2943172, 7.793423, 0.0174222, -0.11631775, 9.992172
268547751999979, 6.3326054, -0.6113662, 7.8891363, 0.12177324, 0.17770708, 10.132507
268547761639250, 6.512067, 0.26081768, 7.8723865, -0.30764675, -0.5927001, 10.198214
268547771278521, 6.2787666, -0.9128618, 7.800602, 0.25342607, 0.45571637, 10.041601
268547780917791, 6.5204415, 0.4642076, 8.043473, -0.23319483, -0.8272983, 10.3291
268547790556958, 6.262017, -0.8458628, 7.7814593, 0.25558662, 0.3968786, 10.012821
268547800196229, 6.587441, 0.49292147, 7.920243, -0.3347516, -0.8036599, 10.276657
268547809835500, 6.3110695, -0.54317075, 7.463214, -0.054383755, 0.21613121, 9.786446
268547819474771, 6.48096, 0.021535404, 7.5661054, -0.29929256, -0.2853669, 9.953806
268547829114041, 6.439086, -0.19621146, 7.3100734, -0.3512187, -0.021650434, 9.737232
268547838753312, 6.526424, -0.57906306, 7.4033933, -0.22416067, 0.3461089, 9.877739
268547848392583, 6.562316, 0.21296121, 7.658229, -0.35038614, -0.46534026, 10.070677
268547858031854, 6.37089, -0.95712906, 7.728817, 0.20964909, 0.5900712, 10.042252
268547867671125, 6.5431733, 0.33379877, 7.9680996, -0.19686317, -0.6589129, 10.292824
268547877310291, 6.2081785, -1.134198, 7.645068, 0.35063982, 0.7195252, 9.881005
268547886949562, 6.401997, 0.17587246, 7.8927255, -0.09330654, -0.5274776, 10.150106
268547896588833, 6.1902323, -0.8805587, 7.560123, 0.22995758, 0.492033, 9.795654
268547906228104, 6.418747, -0.16630118, 7.7886376, -0.048732758, -0.16935909, 10.092561
268547915867375, 6.2213387, -0.47138608, 7.59123, 0.078145504, 0.10879159, 9.825278
268547925506646, 6.1830535, -0.7118647, 7.838887, 0.33177662, 0.268448, 10.000145
268547935145916, 6.3385873, 0.040677983, 7.9154572, 0.0058078766, -0.42342985, 10.131855
268547944785187, 6.3421764, -0.97866446, 7.832905, 0.28215408, 0.55970883, 10.106558
268547954424458, 6.5682983, 0.3589234, 8.036295, -0.21779251, -0.6923473, 10.359858
268547964063729, 6.3278193, -1.0408778, 7.8424764, 0.3068285, 0.6062155, 10.107797
268547973703000, 6.5778694, 0.35653058, 8.008778, -0.2576232, -0.68259025, 10.344259
268547983342271, 6.2811594, -0.8039884, 7.6630144, 0.1597805, 0.41706824, 9.930845
268547992981437, 6.4366927, 0.016749758, 7.881958, -0.11793947, -0.3570199, 10.169325
268548002620708, 6.270392, -0.3804588, 7.597212, -0.014562607, 0.048895955, 9.85787
268548012259979, 6.2871413, -0.552742, 7.560123, 0.018366337, 0.22263241, 9.845774
268548021899250, 6.3074803, -0.016749758, 7.57448, -0.18821526, -0.27661383, 9.851163
268548031538521, 6.256035, -1.0133604, 7.597212, 0.23828316, 0.6314024, 9.870516
268548041177791, 6.40439, 0.27517462, 7.9070826, -0.17682791, -0.61614096, 10.158886
268548050817062, 6.2009997, -1.1162517, 7.7503524, 0.3956976, 0.6645329, 9.9583235
268548060456333, 6.5515485, 0.29790643, 7.9776707, -0.2314148, -0.6124934, 10.3066025
268548070095604, 6.3326054, -0.9631111, 7.7587276, 0.24401093, 0.5518538, 10.04307
268548079734875, 6.502496, -0.034695927, 7.960921, -0.08501434, -0.32556033, 10.273593
268548089374146, 6.3338017, -0.40079778, 7.713264, 0.021151066, 0.04177797, 9.98849
268548099013416, 6.45105, -0.41156548, 7.6259255, -0.110868454, 0.10245991, 9.995869
268548108652687, 6.5001025, 0.17347965, 7.475178, -0.43072414, -0.4041046, 9.889939
268548118291854, 6.285945, -0.7716853, 7.509874, 0.07537699, 0.43041635, 9.814065
268548127931125, 6.4127645, 0.38763726, 7.8580294, -0.20478868, -0.7125255, 10.122886
268548137570396, 6.2787666, -1.0671989, 7.6139617, 0.25403166, 0.6708697, 9.900486
268548147209666, 6.5276203, 0.33379877, 7.7587276, -0.31953, -0.6067283, 10.121703
268548156848937, 6.2321067, -0.9846465, 7.664211, 0.28310728, 0.5729859, 9.906581
268548166488208, 6.4761744, 0.019142581, 8.054241, -0.009573936, -0.39470112, 10.327444
268548176127479, 6.320641, -0.506082, 7.920243, 0.20433855, 0.08172524, 10.143393
268548185766750, 6.4211397, -0.4426722, 7.90469, 0.09163666, 0.06287646, 10.193075
268548195406021, 6.4091754, -0.040677983, 7.77787, -0.11640215, -0.28533208, 10.073703
268548205045291, 6.3194447, -0.91884387, 7.6594253, 0.17998743, 0.5460994, 9.955694
268548214684562, 6.4773707, 0.3062813, 7.8460655, -0.23802042, -0.6066245, 10.158062
268548224323833, 6.2344995, -1.0875379, 7.585248, 0.26101398, 0.69650745, 9.850607
268548233963104, 6.489335, 0.41635114, 7.7826557, -0.33008862, -0.70202434, 10.112011
268548243602375, 6.276374, -0.9128618, 7.436893, 0.087440014, 0.5751524, 9.756799
268548253241646, 6.4498534, 0.09092726, 7.7312098, -0.20077562, -0.38967752, 10.059242
268548262880916, 6.2715883, -0.55513483, 7.6713896, 0.10726595, 0.18226671, 9.922022
268548272520187, 6.431907, -0.40438703, 7.8723865, 0.061062336, 0.033067465, 10.173623
268548282159458, 6.393622, -0.07537391, 7.826923, -0.053401947, -0.27382147, 10.102821
268548291798729, 6.323034, -0.8542377, 7.722835, 0.2059412, 0.4688294, 10.004522
268548301438000, 6.4594245, 0.29671, 7.952546, -0.16706228, -0.63865435, 10.228363
268548311077166, 6.2668023, -1.0863415, 7.7874413, 0.3552413, 0.65089417, 10.02733
268548320716437, 6.546763, 0.3912265, 8.003992, -0.236732, -0.7195009, 10.320045
268548330355708, 6.317052, -0.9379865, 7.806584, 0.2888155, 0.5113394, 10.068905
268548339994979, 6.533602, 0.20458634, 8.066205, -0.12952375, -0.5604775, 10.366415
268548349634250, 6.2751775, -0.58504516, 7.884351, 0.24675274, 0.16272533, 10.089389
268548359273521, 6.390033, -0.2847459, 7.9836526, 0.113331795, -0.113176584, 10.228716
268548368912791, 6.413961, -0.12203395, 7.940582, 0.021557331, -0.2518443, 10.205034
268548378552062, 6.472585, -0.8458628, 7.8592257, 0.19300938, 0.45747995, 10.204448
268548388191333, 6.5659056, 0.23330021, 8.033902, -0.13052368, -0.57997334, 10.361262
268548397830604, 6.3421764, -1.1006985, 7.759924, 0.33585644, 0.68375754, 10.053399
268548407469875, 6.602994, 0.34456646, 7.8664045, -0.23275137, -0.65021956, 10.252884
268548417109146, 6.3086767, -1.052842, 7.4237323, 0.18281841, 0.7030667, 9.771999
268548426748416, 6.501299, 0.16630118, 7.564909, -0.2291627, -0.4431063, 9.96361
268548436387687, 6.296713, -0.62931234, 7.4010005, 0.11450577, 0.2974198, 9.73231
268548446026958, 6.530013, -0.19980069, 7.5493555, -0.10787201, -0.08832419, 9.982701
268548455666229, 6.519245, -0.07178468, 7.5182486, -0.14465714, -0.21485817, 9.947999
268548465305500, 6.562316, -0.69152576, 7.4847493, 0.03776598, 0.37901068, 9.970886
268548474944771, 6.725028, 0.3361916, 7.624729, -0.33487415, -0.5947982, 10.149364
268548484584041, 6.5491557, -0.9631111, 7.496713, 0.16437197, 0.6117544, 9.980905
268548494223312, 6.735796, 0.42831525, 7.7623167, -0.2531581, -0.7279061, 10.257389
268548503862583, 6.4677997, -1.0564312, 7.416554, 0.2557068, 0.69683874, 9.869284
268548513501854, 6.6927247, 0.13878371, 7.560123, -0.21948576, -0.41147363, 10.0871105
268548523141125, 6.4199433, -0.81595254, 7.222735, 0.10410833, 0.49830794, 9.684535
268548532780396, 6.5575304, -0.33499518, 7.304091, -0.09734678, 0.055492997, 9.820928
268548542419666, 6.509674, -0.30269206, 7.143772, -0.16241646, 0.03816843, 9.66815
268548552058937, 6.5048885, -0.7465607, 7.115058, -0.011996746, 0.44789386, 9.658894
268548561698208, 6.5778694, 0.24646074, 7.368697, -0.23705006, -0.53320277, 9.863382
268548571337479, 6.4199433, -0.9738788, 7.3698936, 0.281456, 0.5756211, 9.801474
268548580976750, 6.7238317, 0.50368917, 7.751549, -0.19633865, -0.85170865, 10.236511
268548590616021, 6.567102, -0.9619147, 7.479964, 0.23767805, 0.5593115, 9.981616
268548600255291, 6.8458657, 0.29671, 7.6941214, -0.26634455, -0.5904827, 10.282696
268548609894562, 6.567102, -0.72382885, 7.55773, 0.18572235, 0.33376253, 10.03116
268548619533833, 6.7202425, -0.14596218, 7.751549, -0.0038237572, -0.21086514, 10.257923
268548629173104, 6.5778694, -0.27876383, 7.609176, 0.056494713, -0.08329821, 10.061585
268548638812375, 6.5886374, -0.69272214, 7.556534, 0.14554787, 0.3307625, 10.042938
268548648451646, 6.7058854, 0.09571291, 7.6666036, -0.1296997, -0.41342402, 10.176792
268548658091021, 6.5312095, -1.1006985, 7.5146594, 0.29351044, 0.7109884, 9.987328
268548667730291, 6.7298136, 0.3505485, 7.7108707, -0.21803379, -0.67301905, 10.216179
268548677369562, 6.458228, -1.1042876, 7.385447, 0.26761913, 0.713125, 9.843415
268548687008833, 6.704689, 0.2847459, 7.5720873, -0.25999594, -0.5877017, 10.097399
268548696648104, 6.478567, -0.74177504, 7.3627152, 0.11755514, 0.38937902, 9.826811
268548706287375, 6.6927247, -0.04546363, 7.5553374, -0.15238714, -0.2635206, 10.088861
268548715926646, 6.6017976, -0.24047868, 7.4476604, -0.08362055, -0.07686758, 9.954712
268548725565916, 6.631708, -0.56350976, 7.4416785, 0.004178524, 0.23638582, 9.980971
268548735205187, 6.68435, 0.16510476, 7.6259255, -0.16290665, -0.48311424, 10.129294
268548744844458, 6.5515485, -0.9667004, 7.5529447, 0.27123356, 0.5629828, 10.025655
268548754483729, 6.7561345, 0.37208393, 7.725228, -0.21452188, -0.69643307, 10.243629
268548764123000, 6.503692, -1.0827522, 7.4273214, 0.26139832, 0.6913917, 9.9039955
268548773762271, 6.7585278, 0.28594232, 7.713264, -0.20740318, -0.60891426, 10.239145
268548783401541, 6.533602, -0.87218386, 7.476374, 0.19774723, 0.49921203, 9.952715
268548793040812, 6.7058854, -0.1052842, 7.62114, -0.090051174, -0.22818482, 10.148969
268548802680083, 6.5347986, -0.40079778, 7.452446, 0.02750063, 0.052222013, 9.919662
268548812319354, 6.570691, -0.5946164, 7.3603225, 0.018012047, 0.26890075, 9.880753
268548821958729, 6.586244, 0.07298109, 7.393822, -0.1973424, -0.36517537, 9.893445
268548831598000, 6.4773707, -0.9882358, 7.2753773, 0.17449188, 0.62975967, 9.769187
268548841237271, 6.6652074, 0.37567315, 7.5026956, -0.28963423, -0.6714183, 10.01608
268548850876541, 6.4067826, -1.0588241, 7.314859, 0.2524643, 0.66943467, 9.755166
268548860515812, 6.6963143, 0.35294133, 7.647461, -0.21856785, -0.67843676, 10.145975
268548870155083, 6.4677997, -0.80877405, 7.5326056, 0.2521019, 0.39611852, 9.950188
268548879794354, 6.802795, 0.14117654, 7.7886376, -0.14283371, -0.48131633, 10.329992
268548889433625, 6.6676, -0.2213361, 7.7682986, 0.053484917, -0.16192043, 10.238323
268548899072896, 6.8051877, -0.36729828, 7.8963146, 0.080209255, -0.00920701, 10.430281
268548908712166, 6.820741, 0.08973085, 7.8580294, -0.11009455, -0.42589188, 10.396425
268548918351541, 6.649654, -1.0743774, 7.6462646, 0.2813635, 0.68135333, 10.163373
268548927990812, 6.759724, 0.13519448, 7.7204423, -0.15506983, -0.45466208, 10.251177
268548937630083, 6.4414787, -1.3411771, 7.399804, 0.38736725, 0.93412125, 9.850172
268548947269354, 6.6424756, 0.18783657, 7.5613194, -0.17736721, -0.48821616, 10.052936
268548956908625, 6.3684974, -0.89730847, 7.30768, 0.24579763, 0.50486493, 9.718528
268548966547896, 6.634101, 0.19381863, 7.560123, -0.1476388, -0.5271121, 10.045132
268548976187166, 6.4977098, -0.23688944, 7.4010005, -0.007341385, -0.10281849, 9.850916
268548985826437, 6.6305118, -0.15792629, 7.463214, -0.090779305, -0.15894878, 9.98272
268548995465812, 6.719046, 0.2440679, 7.4644103, -0.2844329, -0.5192392, 10.028562
268549005105083, 6.7058854, -0.7704889, 7.460821, 0.055930614, 0.44181347, 10.051272
268549014744354, 6.88774, 0.31106696, 7.7443705, -0.2600236, -0.60030365, 10.348189
268549024383625, 6.6125655, -1.2215359, 7.533802, 0.31228352, 0.846825, 10.057919
268549034022896, 6.8518476, 0.13998012, 7.7503524, -0.16270542, -0.43980062, 10.335157
268549043662166, 6.4845495, -1.1952149, 7.442875, 0.34220648, 0.8083782, 9.904734
268549053301437, 6.6329045, -0.104087785, 7.676175, 0.01939106, -0.26082003, 10.142067
268549062940812, 6.410372, -0.55752766, 7.4380894, 0.18817902, 0.1751467, 9.831724
268549072580083, 6.5898337, -0.2739782, 7.501499, 0.0027651787, -0.06423247, 9.988459
268549082219354, 6.6532435, 0.1698904, 7.520642, -0.18031454, -0.47561765, 10.029747
268549091858625, 6.669993, -0.61734825, 7.426125, 0.0078029633, 0.2935623, 9.9965515
268549101497896, 6.873383, 0.47018966, 7.617551, -0.37246513, -0.7257998, 10.238459
268549111137166, 6.6221366, -1.0025927, 7.3160553, 0.10550022, 0.6786345, 9.894992
268549120776541, 6.8709903, 0.34097722, 7.618747, -0.3174715, -0.59301805, 10.243029
268549130415812, 6.5659056, -1.0396814, 7.3842506, 0.2110095, 0.68563735, 9.909823
268549140055083, 6.762117, 0.043070808, 7.708478, -0.0925374, -0.3682363, 10.247175
268549149694354, 6.498906, -0.6520442, 7.5326056, 0.22187805, 0.26690793, 9.963968
268549159333625, 6.6053867, -0.38524446, 7.5900335, 0.09168196, 0.03273654, 10.068697
268549168972896, 6.5479593, -0.09930214, 7.560123, 0.0109734535, -0.24891996, 9.99895
268549178612271, 6.5048885, -0.76689965, 7.4333034, 0.19589043, 0.40406907, 9.897175
268549188251541, 6.698707, 0.31345975, 7.60798, -0.1976881, -0.61088574, 10.121265
268549197890812, 6.509674, -1.0109676, 7.408179, 0.26733494, 0.6413152, 9.8892
268549207530083, 6.820741, 0.42831525, 7.664211, -0.28682327, -0.71375394, 10.239842
268549217169354, 6.5551376, -0.9822537, 7.4033933, 0.22260284, 0.6142489, 9.9155445
268549226808729, 6.808777, 0.16869399, 7.678568, -0.16843128, -0.46618652, 10.251956
268549236448000, 6.6364937, -0.6029913, 7.4584284, 0.071484566, 0.27506685, 9.9977
268549246087271, 6.7429743, -0.23090738, 7.501499, -0.10106516, -0.06199026, 10.08858
268549255726541, 6.649654, -0.09212367, 7.4416785, -0.12358713, -0.19973242, 9.977467
268549265365812, 6.597012, -0.7513463, 7.420143, 0.13351488, 0.411031, 9.947706
268549275005187, 6.721439, 0.2955136, 7.647461, -0.17036009, -0.59511316, 10.166883
268549284644458, 6.4869423, -1.0073783, 7.420143, 0.313653, 0.6165377, 9.88308
268549294283729, 6.762117, 0.43429732, 7.665407, -0.23710108, -0.72849214, 10.202273
268549303923000, 6.5288167, -1.0145568, 7.3806615, 0.26715994, 0.6413214, 9.881613
268549313562375, 6.7812595, 0.16271193, 7.6510506, -0.16464901, -0.45165086, 10.213688
268549323201646, 6.5539412, -0.71425754, 7.4883385, 0.21313667, 0.3392818, 9.968901
268549332840916, 6.719046, -0.2428715, 7.62114, 0.009059906, -0.087953806, 10.162604
268549342480187, 6.686743, -0.17826529, 7.4644103, -0.08683634, -0.11422253, 10.022034
268549352119458, 6.669993, -0.65324056, 7.331609, 0.02236557, 0.36127484, 9.926581
268549361758833, 6.7908306, 0.31585258, 7.4919276, -0.32875252, -0.5460031, 10.096432
268549371398104, 6.600601, -0.91525465, 7.2873416, 0.1578126, 0.5956311, 9.855521
268549381037375, 6.798009, 0.4977071, 7.6271224, -0.32540274, -0.73255014, 10.197603
268549390676750, 6.5072813, -0.9451649, 7.37109, 0.299119, 0.58783937, 9.855759
268549400316021, 6.7764735, 0.2955136, 7.7001033, -0.17801666, -0.5698366, 10.244175
268549409955291, 6.559923, -0.70947194, 7.4907312, 0.22806168, 0.34992766, 9.973593
268549419594562, 6.708278, -0.15792629, 7.7072816, 0.049884796, -0.17226958, 10.217435
268549429233937, 6.652047, -0.24526432, 7.6031938, 0.058059216, -0.078127265, 10.104898
268549438873208, 6.686743, -0.64965135, 7.4476604, 0.08476734, 0.3589629, 10.023283
268549448512479, 6.7441707, 0.24885355, 7.5696945, -0.20953035, -0.4992404, 10.126841
268549458151750, 6.5742803, -0.92602235, 7.3627152, 0.2074709, 0.6191329, 9.892517
268549467791125, 6.812366, 0.50368917, 7.690532, -0.2708912, -0.74001443, 10.25599
268549477430396, 6.580262, -0.9391829, 7.342376, 0.18586779, 0.63158274, 9.882256
268549487069666, 6.8255267, 0.3290131, 7.617551, -0.26360035, -0.5572326, 10.2148485
268549496709041, 6.5491557, -0.721436, 7.367501, 0.15391397, 0.4183507, 9.873867
268549506348312, 6.704689, -0.083748795, 7.624729, -0.021763325, -0.19244206, 10.151791
268549515987583, 6.579066, -0.2428715, 7.499106, 0.044119835, -0.047164083, 9.978752
268549525626854, 6.597012, -0.56111693, 7.4356966, 0.1011796, 0.28341365, 9.951607
268549535266229, 6.6963143, 0.21894327, 7.501499, -0.21230364, -0.4373641, 10.046128
268549544905500, 6.5682983, -0.9176475, 7.3435726, 0.1895876, 0.6425028, 9.872382
268549554544771, 6.8111696, 0.4869394, 7.765906, -0.23461103, -0.71209407, 10.31389
268549564184146, 6.582655, -0.92482597, 7.4775705, 0.27146864, 0.61891687, 9.982182
268549573823416, 6.8602223, 0.45583272, 7.7886376, -0.2285347, -0.6785556, 10.364393
268549583462687, 6.5742803, -0.6628119, 7.5086775, 0.19310045, 0.356305, 9.993824
268549593102062, 6.765706, 0.010767702, 7.7276206, -0.036900997, -0.27235162, 10.267204
268549602741333, 6.641279, -0.30388847, 7.496713, 0.017614841, 0.04317987, 10.019855
268549612380604, 6.6592255, -0.5587241, 7.448857, 0.071985245, 0.30139482, 10.002344
268549622019979, 6.6855464, 0.1471586, 7.4847493, -0.17133284, -0.3657093, 10.028788
268549631659250, 6.532406, -0.8997013, 7.3639116, 0.23309278, 0.61323607, 9.86299
268549641298521, 6.7645097, 0.5096712, 7.668997, -0.24235868, -0.7238804, 10.210246
268549650937896, 6.506085, -0.8961121, 7.3986077, 0.2763524, 0.5803703, 9.8721
268549660577166, 6.838687, 0.4642076, 7.670193, -0.29153585, -0.6676414, 10.260811
268549670216437, 6.5539412, -0.77766734, 7.355537, 0.16811419, 0.49670577, 9.868528
268549679855812, 6.782456, -0.038285162, 7.6402826, -0.068825245, -0.19980729, 10.214325
268549689495083, 6.6281185, -0.38644084, 7.429714, 0.024384975, 0.13951397, 9.963026
268549699134354, 6.727421, -0.4761717, 7.426125, -0.017835617, 0.2467717, 10.028513
268549708773729, 6.789634, 0.16031912, 7.429714, -0.27098417, -0.33985198, 10.056667
268549718413000, 6.631708, -0.80159557, 7.3543406, 0.11943388, 0.54282534, 9.919653
268549728052271, 6.780063, 0.485743, 7.6510506, -0.23926115, -0.69616747, 10.2079315
268549737691646, 6.502496, -0.94636136, 7.399804, 0.3064909, 0.62783563, 9.871527
268549747330916, 6.7932234, 0.4881358, 7.7587276, -0.17730951, -0.73454773, 10.296263
268549756970291, 6.5048885, -0.7178468, 7.4847493, 0.29199982, 0.3969878, 9.93013
268549766609562, 6.7836523, 0.17467605, 7.8173513, -0.02882433, -0.44566488, 10.342148
268549776248833, 6.666404, -0.3385844, 7.475178, 0.02636242, 0.08457887, 10.021278
268549785888208, 6.7441707, -0.40079778, 7.513463, 0.018043041, 0.16014564, 10.103001
268549795527479, 6.727421, 0.029910283, 7.4440713, -0.16539621, -0.23278761, 10.029543
268549805166750, 6.6125655, -0.910469, 7.3567333, 0.19508886, 0.63964987, 9.911069
268549814806125, 6.7561345, 0.37567315, 7.5996046, -0.20679855, -0.5963366, 10.155888
268549824445396, 6.501299, -0.9343972, 7.328019, 0.27032137, 0.6331463, 9.816612
268549834084771, 6.7728844, 0.5515456, 7.6199436, -0.2793975, -0.7454506, 10.178701
268549843724041, 6.5144596, -0.7322037, 7.2957163, 0.17264605, 0.45525444, 9.796158
268549853363416, 6.8255267, 0.21296121, 7.6678, -0.16698313, -0.42405903, 10.25771
268549863002687, 6.6329045, -0.38644084, 7.4715886, 0.06715965, 0.12678313, 9.99744
268549872641958, 6.765706, -0.36370903, 7.5900335, 0.040533543, 0.11660504, 10.173515
268549882281333, 6.715457, 0.032303106, 7.542177, -0.10410261, -0.2521032, 10.094971
268549891920604, 6.599405, -0.78723866, 7.476374, 0.2521968, 0.49331713, 9.988048
268549901559979, 6.762117, 0.4354937, 7.6594253, -0.21068382, -0.6431911, 10.204145
268549911199250, 6.521638, -0.9726824, 7.338787, 0.27851772, 0.67767286, 9.838641
268549920838521, 6.707082, 0.11724831, 7.5828547, -0.113301754, -0.34650028, 10.117583
268549930477896, 6.6687965, -0.3505485, 7.3627152, -0.045464993, 0.14410233, 9.938938
268549940117166, 6.664011, -0.23688944, 7.3459654, -0.09588385, 0.043260574, 9.920549
268549949756541, 6.6532435, -0.2548356, 7.4679995, -0.008398533, 0.021784544, 10.005052
268549959395812, 6.6891356, -0.16630118, 7.6259255, 0.030613422, -0.094148636, 10.144808
268549969035187, 6.715457, -0.14117654, 7.708478, 0.056120872, -0.13010073, 10.223398
268549978674458, 6.7058854, -0.12921242, 7.6773715, 0.040786266, -0.13468814, 10.19352
268549988313833, 6.735796, -0.19501504, 7.5828547, -0.01879549, -0.028537273, 10.144335
268549997953104, 6.74776, -0.276371, 7.4847493, -0.056741714, 0.08024192, 10.080699
268550007592479, 6.704689, -0.29671, 7.420143, -0.05817175, 0.10388732, 10.004262
268550017231750, 6.629315, -0.29192436, 7.4309106, 8.006096E-4, 0.0719347, 9.962243
268550026871021, 6.606583, -0.27038896, 7.452446, 0.020848274, 0.039520025, 9.962782
268550036510396, 6.6161547, -0.2416751, 7.4584284, 0.009176254, 0.010404587, 9.972958
268550046149666, 6.6687965, -0.24885355, 7.4416785, -0.029631615, 0.03421831, 9.995564
268550055789041, 6.687939, -0.22731815, 7.452446, -0.033065796, 0.011782408, 10.0158825
268550065428312, 6.7561345, -0.17467605, 7.533802, -0.04591322, -0.041546345, 10.120781
268550075067687, 6.7405815, -0.1363909, 7.5517483, -0.034280777, -0.087264776, 10.1229515
268550084706958, 6.7178497, -0.12203395, 7.519445, -0.03758478, -0.097812176, 10.0834255
268550094346333, 6.7298136, -0.1591227, 7.48116, -0.047543526, -0.049946785, 10.063734
268550103985604, 6.7322063, -0.20578274, 7.475178, -0.027460575, -0.0077934265, 10.06193
268550113624979, 6.687939, -0.21535404, 7.550552, 0.057194233, -0.036981106, 10.088661
268550123264250, 6.7381887, -0.25962126, 7.598408, 0.069606304, 0.003935814, 10.158816
268550132903625, 6.690332, -0.27756742, 7.5720873, 0.09557009, 0.011987448, 10.107661
268550142542896, 6.6927247, -0.24526432, 7.507481, 0.041064262, 0.0013186932, 10.060484
268550152182271, 6.686743, -0.25124636, 7.4476604, 0.011713505, 0.022825718, 10.012125
268550161821541, 6.6771717, -0.22253251, 7.4189467, -0.0119924545, 0.0033619404, 9.983726
268550171460916, 6.6891356, -0.2213361, 7.3770723, -0.04489708, 0.018618345, 9.960541
268550181100187, 6.6927247, -0.22851457, 7.3782687, -0.043451786, 0.026225567, 9.963988
268550190739562, 6.6759753, -0.25124636, 7.446464, 0.021295547, 0.020156384, 10.004036
268550200378833, 6.7465634, -0.2620141, 7.537391, 0.040299892, 0.018586874, 10.119045
268550210018208, 6.754938, -0.23569304, 7.554141, 0.036241055, -0.0096719265, 10.136486
268550219657583, 6.7609205, -0.20219351, 7.5146594, -0.0038952827, -0.027960539, 10.110402
268550229296854, 6.7704916, -0.2105684, 7.4452677, -0.04928875, 0.0021932125, 10.06546
268550238936229, 6.7609205, -0.22372891, 7.440482, -0.039166927, 0.013611078, 10.055801
268550248575500, 6.728617, -0.21774685, 7.432107, -0.023928642, 7.271767E-5, 10.027827
268550258214875, 6.6927247, -0.2213361, 7.4452677, 0.009860992, -0.011330128, 10.013659
268550267854146, 6.695118, -0.23688944, 7.452446, 0.01875496, -5.078316E-4, 10.020945
268550277493521, 6.7011, -0.2117648, 7.429714, -0.008525372, -0.016010046, 10.007492
268550287132791, 6.7094746, -0.18305093, 7.442875, -0.015098095, -0.04505968, 10.022209
268550296772166, 6.745367, -0.19740787, 7.4656067, -0.013285637, -0.029450178, 10.0634575
268550306411437, 6.775277, -0.19980069, 7.440482, -0.040204525, -0.011981726, 10.064955
268550316050812, 6.8099732, -0.21894327, 7.37109, -0.09697056, 0.036948442, 10.037224
268550325690187, 6.798009, -0.21655045, 7.3770723, -0.07956505, 0.027479649, 10.03364
268550335329458, 6.7585278, -0.1902294, 7.409375, -0.03511381, -0.022282362, 10.030503
268550344968833, 6.7298136, -0.1902294, 7.457232, 0.013498306, -0.04513645, 10.046624
268550354608104, 6.7740808, -0.15433706, 7.5182486, 0.007990837, -0.08375168, 10.120721
268550364247479, 6.8446693, -0.1591227, 7.466803, -0.06223154, -0.04674363, 10.130247
268550373886750, 6.8315086, -0.23569304, 7.479964, -0.005830288, 0.013060808, 10.132853
268550383526125, 6.8099732, -0.30029923, 7.536195, 0.06866789, 0.050946236, 10.161341
268550393165500, 6.7932234, -0.35413775, 7.4679995, 0.06830883, 0.11062527, 10.1008625
268550402804771, 6.7178497, -0.30388847, 7.3974113, 0.07002926, 0.05160284, 9.996799
268550412444146, 6.6975107, -0.20937198, 7.3435726, 0.01432848, -0.02621603, 9.94121
268550422083416, 6.7441707, -0.14237295, 7.3567333, -0.02577877, -0.08851802, 9.980839
268550431722791, 6.7525454, -0.11006984, 7.409375, -0.008253574, -0.13162994, 10.024492
268550441362166, 6.768099, -0.16031912, 7.389036, -0.011778355, -0.07326031, 10.021238
268550451001437, 6.782456, -0.22612174, 7.3579297, -0.016033173, 0.0026016235, 10.009582
268550460640812, 6.8135624, -0.28594232, 7.3830543, 2.3651123E-4, 0.06050968, 10.050485
268550470280083, 6.836294, -0.2632105, 7.4069824, -0.010092258, 0.039132595, 10.082954
268550479919458, 6.843473, -0.23928227, 7.460821, 0.00371027, 0.005833149, 10.126904
268550489558833, 6.7932234, -0.22253251, 7.4584284, 0.0268054, -0.020278454, 10.090809
268550499198104, 6.7836523, -0.19740787, 7.4656067, 0.024055481, -0.045181274, 10.089081
268550508837479, 6.7740808, -0.20937198, 7.4548388, 0.02859974, -0.033761024, 10.074951
268550518476854, 6.759724, -0.18305093, 7.4177504, -0.0023770332, -0.04523444, 10.037349
268550528116125, 6.7465634, -0.1471586, 7.368697, -0.037690163, -0.067944765, 9.991468
268550537755500, 6.7645097, -0.15792629, 7.391429, -0.034053326, -0.056762934, 10.020597
268550547394771, 6.7525454, -0.18664017, 7.442875, 0.015222073, -0.044440508, 10.051163
268550557034146, 6.7728844, -0.21774685, 7.4883385, 0.04172182, -0.023326635, 10.099125
268550566673521, 6.798009, -0.29671, 7.450053, 0.030620575, 0.069203615, 10.089526
268550576312791, 6.77767, -0.3900301, 7.5122666, 0.112336636, 0.13454247, 10.123852
268550585952166, 6.799206, -0.38285163, 7.48116, 0.07552433, 0.14237309, 10.115215
268550595591541, 6.7968125, -0.29671, 7.385447, -0.021062374, 0.08562446, 10.041004
268550605230812, 6.7968125, -0.21296121, 7.2897344, -0.11178303, 0.035022974, 9.968374
268550614870187, 6.7812595, -0.10767702, 7.2897344, -0.13964748, -0.066627026, 9.95557
268550624509562, 6.788438, -0.086141616, 7.350751, -0.11572456, -0.101602435, 10.005005
268550634148833, 6.79442, -0.12203395, 7.37109, -0.08875275, -0.06862974, 10.0249405
268550643788208, 6.754938, -0.22851457, 7.426125, 0.014052391, 0.0035390854, 10.041342
268550653427583, 6.74776, -0.31585258, 7.470392, 0.08359337, 0.065898895, 10.071119
268550663066854, 6.7429743, -0.35174492, 7.48116, 0.10591221, 0.0937016, 10.076666
268550672706229, 6.7501526, -0.29192436, 7.459625, 0.056571007, 0.04911208, 10.0643015
268550682345604, 6.765706, -0.21296121, 7.4333034, -0.014139175, -0.007163763, 10.053551
268550691984875, 6.759724, -0.13399807, 7.436893, -0.043247223, -0.08086419, 10.050413
268550701624250, 6.7609205, -0.09332009, 7.416554, -0.07671547, -0.10890198, 10.035253
268550711263625, 6.751349, -0.10289137, 7.4213395, -0.06432629, -0.102926016, 10.032591
268550720902896, 6.7764735, -0.12921242, 7.4033933, -0.08140659, -0.063801765, 10.036772
268550730542271, 6.7645097, -0.2117648, 7.4333034, -0.021600246, 4.107952E-4, 10.05271
268550740181646, 6.7633133, -0.26799613, 7.416554, -0.008790016, 0.058830738, 10.040714
268550749820916, 6.741778, -0.3290131, 7.4213395, 0.031931877, 0.10741019, 10.031129
268550759460291, 6.748956, -0.32422748, 7.422536, 0.02612114, 0.104759455, 10.036728
268550769099666, 6.7501526, -0.2727818, 7.399804, -0.012213707, 0.06658983, 10.019556
268550778738937, 6.77767, -0.23330021, 7.3543406, -0.08020306, 0.05706191, 10.003393
268550788378312, 6.79442, -0.21296121, 7.274181, -0.14772654, 0.06963134, 9.954724
268550798017687, 6.739385, -0.16869399, 7.263413, -0.13143015, 0.018924713, 9.908951
268550807657062, 6.799206, -0.09571291, 7.312466, -0.17386627, -0.04345846, 9.983908
268550817296333, 6.8243303, -0.02871387, 7.288538, -0.22772264, -0.08839059, 9.981754
268550826935708, 6.741778, -0.039481573, 7.2622166, -0.17581654, -0.0924449, 9.907242
268550836575083, 6.8195443, -0.07776674, 7.3028946, -0.16366911, -0.045057774, 9.99078
268550846214354, 6.9092755, -0.032303106, 7.365108, -0.20572424, -0.07839203, 10.096311
268550855853729, 6.9224358, -0.03589234, 7.396215, -0.16122389, -0.08292174, 10.128798
268550865493104, 6.882954, -0.12562318, 7.476374, -0.04839039, -0.036549807, 10.162841
268550875132375, 6.8015985, -0.17826529, 7.507481, 0.08165312, -0.023545265, 10.131563
268550884771750, 6.778867, -0.2321038, 7.4919276, 0.12425089, 0.020671606, 10.105446
268550894411125, 6.7118673, -0.2440679, 7.463214, 0.17136002, 0.016607761, 10.0388565
