timestamp_acc,device_acc_x,device_acc_y,device_acc_z,earth_acc_x,earth_acc_y,earth_acc_z
701752310508897, 0.19980069, 2.4849463, 9.582058, 0.019515902, -0.016302824, 9.901012
701752320147855, 0.21415763, 2.481357, 9.603594, 0.033947736, -0.020590782, 9.921211
701752329786605, 0.18065812, 2.4921248, 9.65504, -2.2998452E-4, -0.029585123, 9.973075
701752339425460, 0.16390835, 2.4825535, 9.713663, -0.016175047, -0.050299883, 10.027083
701752349064314, 0.17228323, 2.498107, 9.779466, -0.010107636, -0.050503254, 10.094826
701752358703168, 0.17228323, 2.528017, 9.804591, -0.014410675, -0.024841785, 10.126686
701752368342022, 0.18424734, 2.5591238, 9.766306, -0.0071882457, 0.018052816, 10.097694
701752377980876, 0.18903299, 2.5734808, 9.710074, -0.005085647, 0.046771526, 10.046983
701752387619730, 0.19381863, 2.5698915, 9.663414, -7.8190863E-4, 0.052467585, 10.001037
701752397258585, 0.18305093, 2.5507488, 9.631111, -0.009000272, 0.03844285, 9.9647665
701752406897439, 0.18065812, 2.5339992, 9.589237, -0.009180367, 0.03108263, 9.919991
701752416536293, 0.15553348, 2.5148566, 9.602397, -0.030605525, 0.004498005, 9.927424
701752426175147, 0.17108682, 2.4789643, 9.635897, -0.0069027245, -0.034240484, 9.951071
701752435814001, 0.17228323, 2.4717858, 9.700503, -0.0021272004, -0.056948185, 10.011788
701752445452855, 0.19142582, 2.4837499, 9.769895, 0.013874531, -0.055147648, 10.082324
701752455091710, 0.22971097, 2.5351956, 9.804591, 0.042997465, -0.008412361, 10.129564
701752464730564, 0.2548356, 2.5603201, 9.781859, 0.061998516, 0.026173592, 10.1143675
701752474369418, 0.20338993, 2.5495524, 9.723235, 0.011184901, 0.01892662, 10.053976
701752484008272, 0.17587246, 2.5435705, 9.640682, -0.01656276, 0.02616191, 9.972084
701752493647126, 0.15314065, 2.5375884, 9.562916, -0.040340424, 0.03561449, 9.894912
701752503285980, 0.15314065, 2.524428, 9.512667, -0.0376814, 0.034130335, 9.84299
701752512924835, 0.16390835, 2.53041, 9.533006, -0.026514396, 0.035579443, 9.864384
701752522563689, 0.17347965, 2.5052853, 9.5868435, -0.011702985, 0.0015084743, 9.910297
701752532202543, 0.20219351, 2.5124638, 9.702896, 0.017828047, -0.013233423, 10.024922
701752541841397, 0.22013968, 2.5172493, 9.784252, 0.035898045, -0.023493052, 10.105185
701752551480251, 0.22851457, 2.5268207, 9.833304, 0.042862847, -0.02324915, 10.155223
701752561119105, 0.22253251, 2.5256243, 9.805787, 0.036498576, -0.01843214, 10.128182
701752570757960, 0.20697916, 2.528017, 9.725628, 0.017612189, 7.328987E-4, 10.050932
701752580396814, 0.18185452, 2.5112674, 9.634701, -0.0067673624, 0.0018076897, 9.9582615
701752590035668, 0.148355, 2.5148566, 9.602397, -0.041235775, 0.007130146, 9.927275
701752599674522, 0.148355, 2.5040889, 9.584451, -0.03986129, 0.0015950203, 9.907198
701752609313376, 0.15194423, 2.4885356, 9.605987, -0.03255683, -0.018814325, 9.924186
701752618952230, 0.14237295, 2.5028925, 9.670592, -0.042405292, -0.022511244, 9.990134
701752628591085, 0.18664017, 2.4993033, 9.730413, 0.0030736327, -0.032672167, 10.047945
701752638229939, 0.2105684, 2.5292134, 9.749556, 0.022450224, -0.0039298534, 10.074451
701752647868793, 0.20937198, 2.544767, 9.71486, 0.018248633, 0.019943714, 10.044773
701752657507647, 0.23330021, 2.5674987, 9.68495, 0.037860185, 0.051966906, 10.022007
701752667146501, 0.2416751, 2.5794628, 9.665807, 0.04324384, 0.06851363, 10.006662
701752676785355, 0.21535404, 2.5639095, 9.62154, 0.017557487, 0.056482553, 9.959444
701752686424210, 0.17228323, 2.4945176, 9.579665, -0.014699757, -0.005995989, 9.900607
701752696063064, 0.13758731, 2.4969103, 9.60479, -0.048874646, -0.017130375, 9.924858
701752705701918, 0.15314065, 2.4825535, 9.657433, -0.029642984, -0.041733265, 9.972458
701752715340772, 0.15792629, 2.481357, 9.705289, -0.023320496, -0.049168587, 10.018571
701752724979626, 0.17347965, 2.4909284, 9.756734, -0.0078015625, -0.04821396, 10.071062
701752734618480, 0.22253251, 2.53041, 9.731609, 0.032863885, 0.0056483746, 10.057615
701752744257335, 0.23569304, 2.548356, 9.7196455, 0.041896194, 0.0270257, 10.050805
701752753896189, 0.22253251, 2.5555346, 9.730413, 0.027069032, 0.027332783, 10.062789
701752763535043, 0.22851457, 2.5806592, 9.664611, 0.026233897, 0.06677818, 10.005577
701752773173897, 0.17587246, 2.5603201, 9.57488, -0.024356157, 0.0606215, 9.912629
701752782812751, 0.18664017, 2.5399811, 9.552148, -0.010762274, 0.046333075, 9.885726
701752792451605, 0.17706887, 2.5064816, 9.597611, -0.012721211, 3.156662E-4, 9.921079
701752802090460, 0.16031912, 2.4921248, 9.653843, -0.025001407, -0.029103994, 9.971541
701752811729314, 0.1471586, 2.4801607, 9.712467, -0.032234967, -0.057119608, 10.024997
701752821368064, 0.14476576, 2.487339, 9.763913, -0.03430471, -0.063715935, 10.076535
701752831006918, 0.13998012, 2.5052853, 9.810573, -0.03925842, -0.0584774, 10.126126
701752840645772, 0.19381863, 2.5292134, 9.790234, 0.008079231, -0.017503023, 10.113496
701752850284626, 0.22372891, 2.5615165, 9.675379, 0.026242107, 0.04829693, 10.011062
701752859923480, 0.22492532, 2.548356, 9.553345, 0.026466131, 0.06235218, 9.889718
701752869562335, 0.21415763, 2.5316064, 9.536594, 0.018854469, 0.048449755, 9.869085
701752879201189, 0.24526432, 2.5184457, 9.553345, 0.052042782, 0.036913633, 9.882563
701752888840043, 0.24047868, 2.5507488, 9.598808, 0.043796867, 0.05343938, 9.934611
701752898478897, 0.19262223, 2.5040889, 9.665807, 0.0052125454, -0.01564908, 9.986747
701752908117751, 0.15672988, 2.4837499, 9.738789, -0.027393043, -0.058650255, 10.0515375
701752917756605, 0.12203395, 2.4921248, 9.779466, -0.06297605, -0.062339306, 10.092357
701752927395460, 0.12083755, 2.5208387, 9.754341, -0.068101496, -0.027300358, 10.075269
701752937034314, 0.16271193, 2.5507488, 9.720842, -0.030587465, 0.01590681, 10.051187
701752946673168, 0.25124636, 2.589034, 9.635897, 0.047684565, 0.08830261, 9.980312
701752956312022, 0.2213361, 2.5782664, 9.5868435, 0.020214811, 0.084055424, 9.929581
701752965950876, 0.19860429, 2.5663023, 9.592826, -0.0014468133, 0.0629735, 9.931954
701752975589730, 0.21655045, 2.5435705, 9.5964155, 0.021323964, 0.042979002, 9.930031
701752985228585, 0.20338993, 2.481357, 9.611969, 0.019632995, -0.022742271, 9.929128
701752994867439, 0.1794617, 2.455036, 9.645468, 0.0010532141, -0.057264566, 9.954455
701753004506293, 0.14237295, 2.4335005, 9.7196455, -0.031262934, -0.10230732, 10.020093
701753014145147, 0.09451649, 2.449054, 9.798609, -0.077970296, -0.11031389, 10.099568
701753023784001, 0.11006984, 2.510071, 9.827323, -0.07220554, -0.056740522, 10.142999
701753033422855, 0.148355, 2.5806592, 9.784252, -0.04617092, 0.029736042, 10.119802
701753043061710, 0.21296121, 2.617748, 9.723235, 0.011440814, 0.08769059, 10.07132
701753052700564, 0.25004998, 2.6081767, 9.592826, 0.04499297, 0.11830306, 9.943412
701753062339418, 0.24646074, 2.5639095, 9.510274, 0.047564328, 0.087569, 9.852398
701753071978272, 0.2656033, 2.510071, 9.506684, 0.07627407, 0.041330576, 9.835676
701753081617126, 0.2632105, 2.4837499, 9.556933, 0.080295086, 4.7683716E-5, 9.877593
701753091255980, 0.24646074, 2.4538395, 9.659825, 0.071442574, -0.056253195, 9.969255
701753100894835, 0.21894327, 2.4502504, 9.730413, 0.0466592, -0.08030176, 10.036135
701753110533689, 0.17587246, 2.4705894, 9.798609, 0.0010372698, -0.08427882, 10.106453
701753120172439, 0.11724831, 2.4993033, 9.796216, -0.0632503, -0.065939665, 10.110279
701753129811293, 0.061016977, 2.5423741, 9.74836, -0.12869287, -0.023144722, 10.073768
701753139450147, 0.016749758, 2.5663023, 9.696914, -0.17732766, 1.4805794E-4, 10.0292015
701753149089001, 0.02632105, 2.5710878, 9.637094, -0.16563547, 0.011946678, 9.972823
701753158727855, 0.1160519, 2.5830522, 9.594023, -0.08460447, 0.05340624, 9.935839
701753168366710, 0.21894327, 2.5866413, 9.547362, 0.016270012, 0.0890162, 9.893562
701753178005564, 0.2955136, 2.5579274, 9.534202, 0.098543465, 0.083842516, 9.8749485
701753187644418, 0.36251262, 2.5256243, 9.543773, 0.16985983, 0.060536385, 9.87731
701753197283272, 0.37088752, 2.477768, 9.595219, 0.18707445, 0.0046675205, 9.915146
701753206922126, 0.3493521, 2.4442682, 9.649057, 0.17063889, -0.046649933, 9.958389
701753216560980, 0.276371, 2.4705894, 9.728021, 0.09275463, -0.053493977, 10.040076
701753226199835, 0.14955142, 2.5040889, 9.77468, -0.036731243, -0.05941081, 10.0912
701753235838689, 0.046660043, 2.5328028, 9.797412, -0.14375621, -0.05423832, 10.118444
701753245477543, 0.019142581, 2.5866413, 9.787841, -0.18178147, -0.006583214, 10.122244
701753255116397, 0.03589234, 2.6117659, 9.652647, -0.17265138, 0.053021193, 9.99818
701753264755251, 0.0526421, 2.6309085, 9.515059, -0.16259399, 0.10539079, 9.870323
701753274394105, 0.13758731, 2.5722845, 9.44806, -0.06660172, 0.07987881, 9.7923765
701753284032960, 0.20697916, 2.5399811, 9.499506, 0.011319727, 0.05544424, 9.835232
701753293671814, 0.27756742, 2.4933212, 9.592826, 0.09488943, 0.010238647, 9.914984
701753303310564, 0.33738798, 2.4717858, 9.687343, 0.1603725, -0.014456272, 10.002112
701753312949418, 0.36251262, 2.455036, 9.795019, 0.19341835, -0.05399537, 10.102509
701753322588272, 0.31585258, 2.4454648, 9.878768, 0.1500949, -0.0935297, 10.180318
701753332227126, 0.24047868, 2.4586253, 9.902697, 0.06720933, -0.10268402, 10.2054405
701753341865980, 0.14596218, 2.5423741, 9.847662, -0.045306712, -0.031064272, 10.171452
701753351504835, 0.01794617, 2.6201408, 9.745967, -0.18789202, 0.038247824, 10.090221
701753361143689, 0.15433706, 2.652444, 9.578469, -0.068891555, 0.13776636, 9.938945
701753370782543, -0.09930214, 2.3318057, 9.486345, -0.24454182, -0.20763683, 9.763967
701753380421397, 0.17587246, 3.0747771, 9.430114, -0.13946581, 0.56599236, 9.903153
701753390060251, 0.011964113, 1.8867407, 9.37149, -0.028299749, -0.5746802, 9.542206
701753399699105, 0.28953153, 3.2362926, 9.560523, -0.06488162, 0.7121062, 10.072226
701753409337960, 0.24885355, 1.7084754, 9.55813, 0.24915016, -0.73235667, 9.681955
701753418976814, 0.37567315, 3.1118658, 9.828519, 0.077127755, 0.5536072, 10.301078
701753428615564, 0.42831525, 1.9944177, 9.798609, 0.3497741, -0.4894812, 9.990594
701753438254418, 0.27517462, 2.778067, 9.952946, 0.052467957, 0.17781639, 10.335383
701753447893272, 0.37806597, 2.5423741, 9.801002, 0.18241581, 0.015465021, 10.13078
701753457532126, 0.04426722, 2.3222344, 9.700503, -0.116994664, -0.22422051, 9.971486
701753467170980, 0.19501504, 3.0592237, 9.5665045, -0.103955925, 0.52835274, 10.031199
701753476809835, -0.12921242, 1.9298115, 9.476774, -0.21347994, -0.5904684, 9.651731
701753486448689, 0.07298109, 3.3284163, 9.547362, -0.28277743, 0.7566514, 10.0788555
701753496087543, -0.034695927, 1.7946169, 9.393025, -0.06773952, -0.6763514, 9.538802
701753505726397, 0.09332009, 3.1884363, 9.580862, -0.22574475, 0.6082542, 10.077043
701753515365251, 0.21655045, 1.9369899, 9.562916, 0.14999054, -0.53898895, 9.743469
701753525004001, 0.22971097, 2.7900312, 9.823733, 0.0043135285, 0.2185154, 10.212493
701753534642855, 0.4833502, 2.4215364, 9.816555, 0.32019216, -0.083586216, 10.116952
701753544281710, 0.27876383, 2.2779672, 9.85484, 0.1430749, -0.26953888, 10.113931
701753553920564, 0.5132605, 2.9563324, 9.8117695, 0.25166774, 0.42896414, 10.24826
701753563559418, 0.18065812, 1.9082761, 9.692128, 0.09584914, -0.60292363, 9.860973
701753573198272, 0.2955136, 3.290131, 9.678967, -0.043667674, 0.7349131, 10.200623
701753582837126, 0.013160525, 1.8101703, 9.416953, -0.053521663, -0.6506933, 9.567111
701753592475980, -0.0047856453, 3.3008988, 9.49472, -0.34831047, 0.7326901, 10.019357
701753602114835, -0.034695927, 1.9908284, 9.404989, -0.11877447, -0.4932574, 9.600054
701753611753585, -0.050249275, 2.8989046, 9.61795, -0.32114553, 0.2935629, 10.036027
701753621392439, 0.21296121, 2.4275186, 9.61795, 0.047131777, -0.08268976, 9.921396
701753631031293, 0.10887343, 2.3748765, 9.777073, -0.038338155, -0.19526911, 10.059993
701753640670147, 0.4749753, 2.8905299, 9.844072, 0.2218051, 0.35823917, 10.262018
701753650309001, 0.2632105, 1.8867407, 9.835697, 0.17813262, -0.64717877, 9.99597
701753659947855, 0.4642076, 3.251846, 9.88475, 0.15276489, 0.6787143, 10.392993
701753669586710, 0.25842485, 1.753939, 9.646665, 0.19383366, -0.71700704, 9.780059
701753679225564, 0.2632105, 3.2925239, 9.641879, -0.08402908, 0.74349546, 10.164447
701753688864418, 0.13758731, 1.9597218, 9.4229355, 0.022431374, -0.5054637, 9.612241
701753698503168, -0.015553347, 2.969493, 9.510274, -0.29129773, 0.4028225, 9.950695
701753708142022, 0.08973085, 2.3892334, 9.432507, -0.081555575, -0.100976944, 9.729945
701753717780876, -0.10289137, 2.4311078, 9.537791, -0.2691293, -0.13302827, 9.83871
701753727419730, 0.23449662, 2.8785655, 9.597611, -0.0140450895, 0.35326743, 10.016501
701753737058585, 0.076570325, 1.9262222, 9.659825, 0.01967913, -0.59589493, 9.832239
701753746697439, 0.4103691, 3.225525, 9.850055, 0.08389792, 0.65214014, 10.351989
701753756336293, 0.2632105, 1.7312071, 9.809377, 0.24595028, -0.7673625, 9.931812
701753765975147, 0.38285163, 3.2446675, 9.913465, 0.049717456, 0.6661048, 10.416576
701753775613897, 0.32303107, 1.8628124, 9.698111, 0.24505347, -0.6203922, 9.858134
701753785252751, 0.19740787, 2.9718857, 9.706485, -0.08019373, 0.41724825, 10.1442795
701753794891605, 0.25004998, 2.353341, 9.505488, 0.07912268, -0.111008644, 9.794717
701753804530460, -0.032303106, 2.4681966, 9.52822, -0.21614498, -0.06492829, 9.840178
701753814169314, 0.18544376, 2.8390841, 9.504292, -0.06468058, 0.3329425, 9.915205
701753823808168, -0.08255238, 1.9920249, 9.530613, -0.18384895, -0.52473617, 9.72103
701753833447022, 0.16151553, 3.2075787, 9.705289, -0.16130024, 0.631304, 10.202094
701753843085772, 0.05383851, 1.753939, 9.700503, 0.004696399, -0.7746278, 9.827456
701753852724626, 0.28953153, 3.290131, 9.847662, -0.020658895, 0.6913519, 10.363728
701753862363480, 0.29192436, 1.8747765, 9.658628, 0.2194927, -0.59371257, 9.822853
701753872002335, 0.28115666, 3.0173492, 9.731609, -6.213784E-4, 0.45979118, 10.182156
701753881641189, 0.38763726, 2.2743778, 9.58804, 0.24393576, -0.18325973, 9.857001
701753891280043, 0.13280165, 2.524428, 9.631111, -0.059467643, -0.0080628395, 9.957161
701753900918793, 0.31465617, 2.7768707, 9.564112, 0.06781259, 0.2832172, 9.959791
701753910557647, 0.025124637, 2.0075781, 9.550952, -0.075583726, -0.5022907, 9.74647
701753920196501, 0.25124636, 3.1692936, 9.678967, -0.06077361, 0.6097846, 10.169289
701753929835355, 0.0035892338, 1.747957, 9.650253, -0.01355347, -0.77920914, 9.776267
701753939474210, 0.13519448, 3.2745779, 9.812965, -0.2158505, 0.65992737, 10.32247
701753949112960, 0.1052842, 1.861616, 9.628718, 0.06648764, -0.64203334, 9.786332
701753958751814, 0.16869399, 3.1070802, 9.742377, -0.13982525, 0.51736474, 10.213183
701753968390668, 0.3505485, 2.268396, 9.595219, 0.2161845, -0.1814413, 9.861899
701753978029522, 0.1794617, 2.5902305, 9.628718, -0.02603203, 0.062083244, 9.972422
701753987668376, 0.41754755, 2.7314072, 9.55813, 0.16881272, 0.26738548, 9.944488
701753997307230, 0.13519448, 2.0685952, 9.55813, 0.046622247, -0.42262542, 9.771103
701754006945980, 0.35653058, 3.1310084, 9.683753, 0.04160309, 0.59942794, 10.165843
701754016584835, 0.05623133, 1.7599211, 9.68136, 0.013722748, -0.76707673, 9.810232
701754026223689, 0.16630118, 3.2614172, 9.798609, -0.14169656, 0.66642094, 10.305972
701754035862543, 0.07178468, 1.8029919, 9.639486, 0.008953318, -0.7114668, 9.781074
701754045501397, 0.07178468, 3.117848, 9.775877, -0.20034595, 0.51181316, 10.246551
701754055140251, 0.20937198, 2.213361, 9.614362, 0.07375327, -0.2909763, 9.863501
701754064779001, 0.06819545, 2.6691937, 9.669396, -0.13902347, 0.11086464, 10.029698
701754074417855, 0.3361916, 2.725425, 9.540184, 0.11337213, 0.23821044, 9.924036
701754084056710, 0.14476576, 2.1128623, 9.525827, 0.016802981, -0.38056493, 9.750972
701754093695564, 0.4019942, 3.1022944, 9.611969, 0.1256555, 0.5814538, 10.090684
701754103334418, 0.14117654, 1.7324036, 9.598808, 0.0828463, -0.7553886, 9.725266
701754112973168, 0.26679972, 3.2733815, 9.779466, -0.043397844, 0.6946933, 10.2927
701754122612022, 0.15314065, 1.7694924, 9.664611, 0.067035764, -0.74100363, 9.79825
701754132250876, 0.14596218, 3.1453655, 9.806984, -0.13837053, 0.53624964, 10.285177
701754141889730, 0.2117648, 2.1547368, 9.641879, 0.07179254, -0.35587263, 9.875311
701754151528585, 0.050249275, 2.745764, 9.702896, -0.1695519, 0.17536712, 10.081093
701754161167335, 0.276371, 2.678765, 9.608379, 0.063583136, 0.16802049, 9.977016
701754170806189, 0.041874398, 2.181058, 9.564112, -0.075708985, -0.34307146, 9.803447
701754180445043, 0.32662028, 3.083152, 9.609575, 0.029782176, 0.5617585, 10.081665
701754190083897, 0.08853444, 1.8197416, 9.577272, 0.05441481, -0.6727358, 9.725633
701754199722751, 0.28953153, 3.269792, 9.689735, -0.062288284, 0.7133696, 10.205566
701754209361501, 0.16630118, 1.7383857, 9.619147, 0.124939576, -0.75428855, 9.746438
701754219000355, 0.22612174, 3.1286156, 9.757931, -0.07025179, 0.5412874, 10.235168
701754228639210, 0.26679972, 2.0805593, 9.669396, 0.16219708, -0.40905452, 9.884509
701754238278064, 0.096909314, 2.7433712, 9.777073, -0.12836987, 0.14960504, 10.153214
701754247916918, 0.29671, 2.589034, 9.672985, 0.09662023, 0.06825471, 10.017176
701754257555668, 0.02871387, 2.2671995, 9.641879, -0.122579515, -0.2708552, 9.900429
701754267194522, 0.26799613, 3.0939198, 9.629914, -0.0037550032, 0.5587206, 10.102833
701754276833376, 0.029910283, 1.8604196, 9.57488, -0.07889333, -0.63984287, 9.732663
701754286472230, 0.23449662, 3.2949169, 9.696914, -0.07072654, 0.72925735, 10.217865
701754296111085, 0.13280165, 1.7491534, 9.565309, 0.07613169, -0.74038947, 9.696306
701754305749835, 0.22612174, 3.1884363, 9.692128, -0.07409829, 0.6261287, 10.186121
701754315388689, 0.28594232, 2.0518453, 9.615558, 0.1687295, -0.44054413, 9.824879
701754325027543, 0.1902294, 2.7948167, 9.780663, -0.03405571, 0.21299124, 10.17163
701754334666397, 0.35294133, 2.5459633, 9.706485, 0.15917686, 0.03003335, 10.039727
701754344305251, 0.08853444, 2.2671995, 9.675379, -0.0589277, -0.27959347, 9.933748
701754353944001, 0.34097722, 3.0352955, 9.639486, 0.066986755, 0.5055535, 10.098959
701754363582855, 0.05623133, 1.8999012, 9.531809, -0.020700067, -0.6059017, 9.700547
701754373221710, 0.25603202, 3.3224342, 9.622736, -0.06461303, 0.76017356, 10.154759
701754382860564, 0.09092726, 1.7431713, 9.524631, 0.024973303, -0.7495333, 9.654174
701754392499314, 0.14237295, 3.196811, 9.696914, -0.122847684, 0.6077876, 10.192424
701754402138168, 0.17108682, 2.0051854, 9.664611, 0.0699977, -0.51729405, 9.858106
701754411777022, 0.08135597, 2.8486555, 9.797412, -0.15332712, 0.23878455, 10.19952
701754421415876, 0.29671, 2.4765713, 9.705289, 0.115596965, -0.048793077, 10.0198965
701754431054730, 0.06699903, 2.3521447, 9.659825, -0.09230034, -0.19665933, 9.939925
701754440693480, 0.3505485, 2.9874392, 9.597611, 0.07841441, 0.4703722, 10.046612
701754450332335, 0.0849452, 1.8867407, 9.559326, 0.009514242, -0.6201035, 9.724356
701754459971189, 0.32422748, 3.251846, 9.658628, 0.010250092, 0.70547676, 10.172066
701754469610043, 0.12921242, 1.7395821, 9.590433, 0.090607, -0.7595049, 9.717727
701754479248793, 0.2117648, 3.229114, 9.736395, -0.071660876, 0.63643956, 10.240082
701754488887647, 0.23808585, 1.9525433, 9.637094, 0.12814234, -0.5424292, 9.81998
701754498526501, 0.12323037, 2.9048867, 9.77468, -0.11296643, 0.3092835, 10.192621
701754508165355, 0.2739782, 2.475375, 9.65145, 0.090830475, -0.037507534, 9.9671135
701754517804105, 0.06580263, 2.4430718, 9.611969, -0.11273896, -0.09490538, 9.916711
701754527442960, 0.3278167, 2.9790642, 9.595219, 0.055583954, 0.4589219, 10.041755
701754537081814, 0.0634098, 1.902294, 9.556933, -0.03248982, -0.6087785, 9.725536
701754546720668, 0.27996024, 3.1932218, 9.702896, -0.029952198, 0.6293845, 10.199226
701754556359522, 0.13040884, 1.7108682, 9.641879, 0.08803913, -0.79099154, 9.760968
701754565998272, 0.23090738, 3.196811, 9.796216, -0.08473644, 0.5894127, 10.290004
701754575637126, 0.2440679, 1.9106688, 9.687343, 0.17777342, -0.58226705, 9.858205
701754585275980, 0.17347965, 2.9862428, 9.772287, -0.101133406, 0.40082383, 10.211485
701754594914835, 0.32183465, 2.469393, 9.62154, 0.13658272, -0.0368495, 9.93758
701754604553585, 0.06580263, 2.501696, 9.561719, -0.12154907, -0.034359932, 9.882982
701754614192439, 0.34097722, 2.926422, 9.510274, 0.0711976, 0.43214178, 9.946543
701754623831293, 0.043070808, 1.9453648, 9.51147, -0.04507482, -0.5533972, 9.692578
701754633470147, 0.22372891, 3.162115, 9.687343, -0.0823181, 0.59694433, 10.174995
701754643108897, 0.033499517, 1.6450655, 9.670592, -0.0023819506, -0.8817538, 9.769863
701754652747751, 0.18544376, 3.249453, 9.878768, -0.13864294, 0.6337652, 10.380874
701754662386605, 0.20458634, 1.9238294, 9.768699, 0.124123365, -0.59353876, 9.93996
701754672025460, 0.15074782, 3.0436704, 9.827323, -0.14603284, 0.43941212, 10.278546
701754681664210, 0.30867413, 2.3904297, 9.623933, 0.1383985, -0.09536362, 9.919743
701754691303064, 0.13998012, 2.528017, 9.560523, -0.052429736, 0.009908676, 9.889956
701754700941918, 0.38524446, 2.8546374, 9.456435, 0.1250734, 0.38956523, 9.87695
701754710580772, 0.096909314, 1.9537396, 9.468399, -0.015633404, -0.52753544, 9.653939
701754720219522, 0.2943172, 3.121437, 9.695718, 0.009386554, 0.5712464, 10.174011
701754729858376, 0.03708875, 1.6917256, 9.749556, -0.07019548, -0.8509985, 9.858398
701754739497230, 0.15194423, 3.2267213, 9.998409, -0.13854545, 0.56828785, 10.490991
701754749136085, 0.15792629, 1.8747765, 9.877572, 0.026354715, -0.690727, 10.031369
701754758774835, 0.18065812, 3.0903304, 9.911072, -0.09277153, 0.475837, 10.371939
701754768413689, 0.32662028, 2.400001, 9.620343, 0.14448749, -0.0912807, 9.919099
701754778052543, 0.1160519, 2.6404798, 9.476774, -0.09871946, 0.13191819, 9.837057
701754787691397, 0.35174492, 2.8570302, 9.273384, 0.100655675, 0.41449666, 9.700518
701754797330147, 0.061016977, 2.0279171, 9.219545, -0.061014876, -0.41410744, 9.430853
701754806969001, 0.31465617, 3.1453655, 9.482756, 0.012190253, 0.6356518, 9.97551
701754816607855, 0.08853444, 1.7180467, 9.62154, 0.008891597, -0.79742086, 9.74154
701754826246710, 0.25842485, 3.2482567, 9.945767, -0.054939777, 0.62242603, 10.447289
701754835885564, 0.1902294, 1.8281165, 9.887143, 0.091618896, -0.7371274, 10.02906
701754845524314, 0.16510476, 3.0855448, 10.025927, -0.120910734, 0.42359185, 10.482034
701754855163168, 0.2632105, 2.239682, 9.857233, 0.11105353, -0.3102665, 10.106528
701754864802022, 0.07058827, 2.5866413, 9.760324, -0.13428047, 1.7857552E-4, 10.096613
701754874440876, 0.30987054, 2.754139, 9.542577, 0.06237167, 0.2570436, 9.933384
701754884079626, 0.083748795, 2.085345, 9.359526, -0.0256553, -0.38269794, 9.581717
701754893718480, 0.3912265, 3.1549366, 9.407382, 0.050488204, 0.686007, 9.9061775
701754903357335, 0.1591227, 1.7599211, 9.409775, 0.11824486, -0.6807382, 9.549299
701754912996189, 0.2883351, 3.290131, 9.710074, -0.067549884, 0.70606613, 10.23184
701754922634939, 0.17108682, 1.7934206, 9.725628, 0.121605024, -0.7217052, 9.863967
701754932273793, 0.15553348, 3.068795, 9.966106, -0.13006923, 0.4321847, 10.419274
701754941912647, 0.23928227, 2.1619153, 9.851251, 0.109197676, -0.386822, 10.080512
701754951551501, 0.07776674, 2.6751757, 9.833304, -0.13976394, 0.07248926, 10.189784
701754961190251, 0.32303107, 2.7326035, 9.644272, 0.08763662, 0.21740055, 10.026392
701754970829105, 0.062213387, 2.1774685, 9.461221, -0.07760927, -0.31332684, 9.70339
701754980467960, 0.33020952, 3.1740792, 9.467203, 0.0173489, 0.6739495, 9.967811
701754990106814, 0.1052842, 1.82692, 9.425328, 0.044593066, -0.64113843, 9.579796
701754999745564, 0.27996024, 3.2961133, 9.659825, -0.072461426, 0.7379384, 10.183574
701755009384418, 0.1591227, 1.7635103, 9.633504, 0.14734763, -0.7333014, 9.766281
701755019023272, 0.18424734, 3.1070802, 9.836894, -0.13699973, 0.48183608, 10.3054085
701755028662126, 0.24885355, 2.1355941, 9.787841, 0.15467483, -0.39246345, 10.012323
701755038300876, 0.08135597, 2.6919255, 9.835697, -0.1448901, 0.07273579, 10.196458
701755047939730, 0.30987054, 2.638087, 9.7196455, 0.086787075, 0.11194134, 10.0750675
701755057578585, 0.07776674, 2.1834507, 9.623933, -0.043251723, -0.34591556, 9.862661
701755067217439, 0.34337005, 3.1334012, 9.601201, 0.009781241, 0.60969806, 10.086989
701755076856189, 0.06580263, 1.8460627, 9.49472, 0.0012419522, -0.6338755, 9.651953
701755086495043, 0.29671, 3.3212378, 9.639486, -0.018844396, 0.7755821, 10.170373
701755096133897, 0.1794617, 1.7958134, 9.571291, 0.114416525, -0.6893654, 9.714857
701755105772751, 0.20937198, 3.1477582, 9.763913, -0.06327659, 0.5703294, 10.244849
701755115411501, 0.2644069, 2.0135603, 9.686146, 0.14231037, -0.49682105, 9.883252
701755125050355, 0.07776674, 2.7110682, 9.834501, -0.14003102, 0.10572243, 10.200126
701755134689210, 0.25244278, 2.548356, 9.754341, 0.054889634, 0.00423193, 10.084741
701755144328064, 0.01794617, 2.2037897, 9.716056, -0.124127075, -0.35363507, 9.955817
701755153966918, 0.29671, 3.0496526, 9.71127, 0.018312886, 0.4988017, 10.170942
701755163605668, 0.0849452, 1.8484555, 9.5760765, -0.0010654628, -0.64365077, 9.731956
701755173244522, 0.29671, 3.3547373, 9.659825, -0.0309764, 0.7951877, 10.19908
701755182883376, 0.19142582, 1.8065811, 9.509077, 0.086094484, -0.65496325, 9.658495
701755192522230, 0.28235307, 3.2554352, 9.595219, -0.02587615, 0.7095032, 10.111465
701755202160980, 0.28713873, 2.0542383, 9.506684, 0.16102321, -0.41462088, 9.720162
701755211799835, 0.10887343, 2.7984061, 9.68136, -0.13257533, 0.23081994, 10.074761
701755221438689, 0.26799613, 2.4681966, 9.712467, 0.083253905, -0.06566882, 10.0242
701755231077543, 0.014356935, 2.2181466, 9.765109, -0.11213997, -0.3627205, 10.006677
701755240716293, 0.2727818, 2.9838498, 9.820144, -0.007413745, 0.40940475, 10.258915
701755250355147, 0.04426722, 1.8628124, 9.775877, 1.9997358E-5, -0.69406044, 9.927643
701755259994001, 0.27996024, 3.3080773, 9.846465, -0.0728949, 0.7129104, 10.366343
701755269632855, 0.15074782, 1.7862421, 9.640682, 0.12723836, -0.6977469, 9.780241
701755279271710, 0.21535404, 3.2685957, 9.649057, -0.14427033, 0.6941576, 10.165223
701755288910460, 0.25962126, 2.0255244, 9.455238, 0.16135752, -0.42590582, 9.662519
701755298549314, 0.12921242, 2.8283165, 9.553345, -0.122127175, 0.28314638, 9.959286
701755308188168, 0.30149564, 2.4430718, 9.5557375, 0.12099102, -0.04497528, 9.866861
701755317827022, 0.04546363, 2.3162522, 9.633504, -0.09998801, -0.23735523, 9.904805
701755327465772, 0.3397808, 2.9682965, 9.743574, 0.061104804, 0.41404486, 10.182746
701755337104626, 0.09332009, 1.9094725, 9.77468, 0.025082797, -0.63935494, 9.939303
701755346743480, 0.30149564, 3.3260236, 9.890733, -0.046265423, 0.7186196, 10.41448
701755356382335, 0.1471586, 1.7850457, 9.689735, 0.09880097, -0.7211231, 9.826965
701755366021189, 0.21894327, 3.2542388, 9.700503, -0.11593157, 0.667974, 10.211667
701755375659939, 0.21894327, 1.9812572, 9.54497, 0.15513909, -0.48065877, 9.737797
701755385298793, 0.124426775, 2.9276185, 9.623933, -0.169245, 0.3540361, 10.052488
701755394937647, 0.2620141, 2.42034, 9.584451, 0.08589208, -0.07858515, 9.888115
701755404576501, 0.020338992, 2.3425734, 9.626326, -0.13339934, -0.21857977, 9.90397
701755414215251, 0.34456646, 2.902494, 9.675379, 0.07356155, 0.36833334, 10.10025
701755423854105, 0.13878371, 1.9477576, 9.671789, 0.051605538, -0.582909, 9.849572
701755433492960, 0.3493521, 3.2889347, 9.845269, 0.019695908, 0.68525124, 10.363325
701755443131814, 0.15194423, 1.8029919, 9.749556, 0.11864632, -0.7244997, 9.888819
701755452770668, 0.22971097, 3.3116665, 9.77468, -0.0976218, 0.7008581, 10.298717
701755462409418, 0.22612174, 1.9740787, 9.595219, 0.12578909, -0.53092206, 9.78359
701755472048272, 0.11365908, 2.9766715, 9.633504, -0.15729997, 0.3936963, 10.074628
701755481687126, 0.2416751, 2.379662, 9.527023, 0.074229464, -0.12546515, 9.821614
701755491325980, 0.02632105, 2.4179473, 9.5353985, -0.14641234, -0.13118482, 9.835259
701755500964730, 0.3074777, 2.8510482, 9.6071825, 0.0531483, 0.31385446, 10.02096
701755510603585, 0.08255238, 1.9286151, 9.608379, 0.016863495, -0.60302126, 9.781789
701755520242439, 0.317049, 3.2159536, 9.862019, 0.015644833, 0.59711266, 10.360766
701755529881293, 0.13758731, 1.7814565, 9.8321085, 0.07691783, -0.7789593, 9.96244
701755539520147, 0.25962126, 3.3367913, 9.8835535, -0.04724826, 0.7143302, 10.410271
701755549159001, 0.22731815, 1.9597218, 9.628718, 0.12664682, -0.5550176, 9.812254
701755558797751, 0.16869399, 3.0747771, 9.594023, -0.088932194, 0.51175046, 10.062715
701755568436605, 0.2644069, 2.3856442, 9.4636135, 0.09340276, -0.1048038, 9.762249
701755578075460, 0.05503492, 2.4909284, 9.493524, -0.13212296, -0.043790817, 9.81404
701755587714314, 0.2943172, 2.821138, 9.560523, 0.050867736, 0.29142642, 9.968025
701755597353064, 0.038285162, 1.9764715, 9.592826, -0.057535127, -0.56393003, 9.777979
701755606991918, 0.2943172, 3.2004004, 9.820144, -0.0150003135, 0.598897, 10.315305
701755616630772, 0.09930214, 1.7790636, 9.792626, 0.06910372, -0.7857797, 9.922108
701755626269626, 0.27038896, 3.330809, 9.893126, -0.0759328, 0.69042826, 10.419159
701755635908480, 0.20937198, 1.9082761, 9.692128, 0.14833099, -0.60121596, 9.860996
701755645547335, 0.16749759, 3.0819557, 9.698111, -0.13892594, 0.49135017, 10.164601
701755655186085, 0.29790643, 2.321038, 9.550952, 0.15138137, -0.1670773, 9.83086
701755664824939, 0.10049855, 2.5722845, 9.543773, -0.101807, 0.026514053, 9.8842945
701755674463793, 0.33379877, 2.812763, 9.487542, 0.07030514, 0.31940508, 9.895936
701755684102647, 0.047856454, 2.0470598, 9.498309, -0.0445216, -0.46985793, 9.705043
701755693741501, 0.29910284, 3.1800613, 9.717253, -0.027918994, 0.60852265, 10.210591
701755703380251, 0.059820566, 1.7551354, 9.747163, 0.033931553, -0.7950957, 9.872079
701755713019105, 0.2321038, 3.306881, 9.929018, -0.122755975, 0.6523731, 10.446725
701755722657960, 0.16390835, 1.8927227, 9.796216, 0.09552941, -0.6482091, 9.9572
701755732296814, 0.20219351, 3.0999017, 9.839287, -0.09631595, 0.49066472, 10.305912
701755741935668, 0.29192436, 2.251646, 9.663414, 0.1451849, -0.25483942, 9.922232
701755751574522, 0.11724831, 2.6129622, 9.653843, -0.08591083, 0.052219152, 10.001395
701755761213272, 0.33499518, 2.7182465, 9.546165, 0.10351083, 0.21886158, 9.928331
701755770852126, 0.016749758, 2.0386848, 9.513863, -0.09110509, -0.4817462, 9.717495
701755780490980, 0.2632105, 3.1357942, 9.687343, -0.03345941, 0.5605731, 10.170139
701755790129835, 0.0634098, 1.8053846, 9.683753, -0.03965319, -0.7287619, 9.823739
701755799768689, 0.23928227, 3.3427732, 9.822537, -0.08761294, 0.7200606, 10.353138
701755809407439, 0.1794617, 1.8652053, 9.676575, 0.08090514, -0.64967597, 9.834566
701755819046293, 0.21535404, 3.1513474, 9.747163, -0.07813038, 0.56283164, 10.23043
701755828685147, 0.30987054, 2.2229323, 9.61795, 0.16624618, -0.27298307, 9.871183
701755838324001, 0.12921242, 2.6907291, 9.620343, -0.088934675, 0.13046455, 9.989135
701755847962855, 0.2955136, 2.7038896, 9.559326, 0.06956944, 0.18977308, 9.93671
701755857601710, 0.025124637, 2.1355941, 9.549755, -0.09327254, -0.39807606, 9.77712
701755867240460, 0.27876383, 3.0999017, 9.682557, -0.037560374, 0.53921676, 10.156123
701755876879314, 0.043070808, 1.7946169, 9.6682, -0.007706821, -0.73908997, 9.805624
701755886518168, 0.25004998, 3.3176486, 9.847662, -0.082797766, 0.693336, 10.371027
701755896157022, 0.18065812, 1.8424734, 9.695718, 0.1303813, -0.6745626, 9.846942
701755905795876, 0.22971097, 3.1812577, 9.795019, -0.10092348, 0.5865092, 10.284037
701755915434730, 0.2835495, 2.1571295, 9.662218, 0.17002401, -0.3454392, 9.896657
701755925073480, 0.11844472, 2.7361927, 9.71845, -0.11107147, 0.15795231, 10.095136
701755934712335, 0.3062813, 2.6392834, 9.643075, 0.08662355, 0.12664843, 10.001248
701755944351189, 0.02632105, 2.160719, 9.608379, -0.08195749, -0.38457704, 9.840516
701755953990043, 0.27756742, 3.0675986, 9.695718, -0.030281156, 0.5031085, 10.160716
701755963628897, 0.047856454, 1.820938, 9.644272, 0.01577118, -0.712273, 9.788896
701755973267751, 0.25603202, 3.3044882, 9.757931, -0.089699835, 0.7156136, 10.280188
701755982906605, 0.16390835, 1.7682959, 9.634701, 0.12841275, -0.7371142, 9.768387
701755992545355, 0.2321038, 3.1872396, 9.726824, -0.07469961, 0.60950303, 10.219903
701756002184210, 0.32183465, 2.1164517, 9.611969, 0.21171728, -0.35823512, 9.838687
701756011823064, 0.16630118, 2.784049, 9.688539, -0.07176164, 0.21930265, 10.079341
701756021461918, 0.33260235, 2.5986054, 9.633504, 0.1267215, 0.084150314, 9.982216
701756031100772, 0.040677983, 2.2360928, 9.614362, -0.095377, -0.3076825, 9.865796
701756040739626, 0.276371, 3.0388846, 9.6682, -0.0062864423, 0.48998666, 10.126458
701756050378480, 0.009571291, 1.8185452, 9.659825, -0.03669095, -0.71686065, 9.803273
701756060017335, 0.22971097, 3.2745779, 9.816555, -0.094337255, 0.6606324, 10.3293295
701756069656085, 0.12083755, 1.7204394, 9.707682, 0.09425625, -0.8035828, 9.826442
701756079294939, 0.22612174, 3.2063823, 9.847662, -0.07542558, 0.60435414, 10.341061
701756088933793, 0.2536392, 2.0697916, 9.687343, 0.11824516, -0.43940902, 9.898785
701756098572647, 0.17347965, 2.865405, 9.7196455, -0.0664133, 0.29232264, 10.130266
701756108211501, 0.32183465, 2.568695, 9.5665045, 0.120734975, 0.07460117, 9.909574
701756117850355, 0.046660043, 2.3461626, 9.5353985, -0.116970316, -0.17780566, 9.8175955
701756127489210, 0.3074777, 3.0293136, 9.561719, 0.047701046, 0.50826263, 10.021834
701756137127960, 0.078963146, 1.8723837, 9.573684, -0.0015828162, -0.6404346, 9.734337
701756146766814, 0.31106696, 3.3152559, 9.738789, 0.020296343, 0.74402237, 10.265367
701756156405668, 0.1591227, 1.7802601, 9.662218, 0.08598614, -0.7251148, 9.798977
701756166044522, 0.23090738, 3.2338998, 9.80818, -0.08153197, 0.62486196, 10.310904
701756175683376, 0.20578274, 1.969293, 9.693324, 0.10822116, -0.5398028, 9.878152
701756185322230, 0.10049855, 2.8462625, 9.805787, -0.15116468, 0.23335695, 10.207227
701756194961085, 0.25124636, 2.4717858, 9.723235, 0.069354445, -0.06562185, 10.035192
701756204599939, 0.049052864, 2.3557339, 9.700503, -0.103309214, -0.20971274, 9.979831
701756214238689, 0.31226337, 2.9970105, 9.688539, 0.033295542, 0.4530089, 10.136126
701756223877543, 0.076570325, 1.9298115, 9.635897, -0.00681147, -0.5883559, 9.809911
701756233516397, 0.2943172, 3.2913275, 9.734002, -0.059422016, 0.71922326, 10.254241
701756243155251, 0.09212367, 1.7587247, 9.54138, 0.039960817, -0.73612833, 9.674505
701756252794105, 0.1698904, 3.2673993, 9.640682, -0.17216244, 0.6947322, 10.155553
701756262432960, 0.18664017, 1.9286151, 9.564112, 0.083227724, -0.5644852, 9.741717
701756272071814, 0.1268196, 2.8630123, 9.742377, -0.12785906, 0.27902532, 10.1505
701756281710668, 0.28594232, 2.361716, 9.71127, 0.12332225, -0.16317368, 9.996321
701756291349522, 0.0741775, 2.3700907, 9.77827, -0.082236946, -0.20611048, 10.059232
701756300988376, 0.32542387, 2.952743, 9.8117695, 0.04696554, 0.38714623, 10.2441845
701756310627230, 0.08733802, 1.9477576, 9.76152, 0.02398333, -0.59583116, 9.936452
701756320265980, 0.32542387, 3.3008988, 9.826126, -0.017470688, 0.70873404, 10.346592
701756329904835, 0.12203395, 1.8831514, 9.611969, 0.028966412, -0.63008153, 9.775136
701756339543689, 0.2428715, 2.8366911, 9.567701, -5.362779E-4, 0.31019855, 9.9775
701756349182543, 0.21774685, 2.536392, 9.506684, 0.022997886, 0.035228014, 9.841544
701756358821397, 0.18903299, 2.5387847, 9.518648, -0.0056943, 0.030167818, 9.853167
701756368460251, 0.13399807, 2.4885356, 9.571291, -0.053318985, -0.03763008, 9.890203
701756378099105, 0.13280165, 2.4945176, 9.674182, -0.053431213, -0.053147793, 9.991216
701756387737960, 0.15074782, 2.507678, 9.760324, -0.03789463, -0.054865837, 10.078227
701756397376814, 0.18783657, 2.5328028, 9.8321085, -0.0019173343, -0.04656124, 10.154732
701756407015668, 0.2440679, 2.5758736, 9.836894, 0.049973533, 0.0040311813, 10.171365
701756416654418, 0.23330021, 2.585445, 9.750752, 0.037157, 0.033825636, 10.090273
701756426293272, 0.21415763, 2.5902305, 9.657433, 0.013675302, 0.056114912, 10.000893
701756435932126, 0.21774685, 2.5950162, 9.571291, 0.015204743, 0.08306837, 9.918873
701756445570980, 0.2009971, 2.5734808, 9.529416, 6.7320466E-4, 0.06810951, 9.872605
701756455209835, 0.15433706, 2.524428, 9.57488, -0.037663177, -6.484985E-5, 9.903205
701756464848689, 0.14596218, 2.498107, 9.652647, -0.039845765, -0.044657707, 9.971553
701756474487543, 0.15314065, 2.5256243, 9.757931, -0.033576578, -0.045003653, 10.08049
701756484126397, 0.19142582, 2.544767, 9.821341, 0.003605038, -0.03379178, 10.147415
701756493765251, 0.2321038, 2.568695, 9.804591, 0.039534166, 0.0014669895, 10.138075
701756503404105, 0.25004998, 2.5938199, 9.749556, 0.05135356, 0.042029142, 10.091575
701756513042960, 0.22971097, 2.5639095, 9.669396, 0.033975765, 0.02385974, 10.006093
701756522681814, 0.21296121, 2.5387847, 9.579665, 0.02009572, 0.019603968, 9.912619
701756532320668, 0.17228323, 2.5579274, 9.54497, -0.023356229, 0.038789988, 9.88317
701756541959522, 0.16749759, 2.5339992, 9.550952, -0.024948515, 0.013501167, 9.882767
701756551598376, 0.19980069, 2.5148566, 9.5760765, 0.0094923, -0.007817268, 9.902803
701756561237230, 0.17108682, 2.5148566, 9.688539, -0.017910846, -0.03554225, 10.010993
701756570875980, 0.148355, 2.548356, 9.775877, -0.043525547, -0.02509141, 10.103533
701756580514835, 0.16510476, 2.5639095, 9.827323, -0.027824827, -0.01933837, 10.157559
701756590153689, 0.20697916, 2.5794628, 9.826126, 0.0123229325, 2.8038025E-4, 10.161155
701756599792543, 0.2321038, 2.5998018, 9.751948, 0.032336146, 0.041318417, 10.0950775
701756609431397, 0.22492532, 2.5734808, 9.643075, 0.027025402, 0.04266739, 9.982973
701756619070251, 0.1698904, 2.5615165, 9.556933, -0.02703698, 0.040638924, 9.895597
701756628709105, 0.16271193, 2.5184457, 9.510274, -0.028108925, 0.0077946186, 9.839386
701756638347960, 0.15672988, 2.4837499, 9.5353985, -0.027428702, -0.03255105, 9.854726
701756647986814, 0.17467605, 2.4741786, 9.613165, -0.0067626387, -0.055467367, 9.9278345
701756657625668, 0.19262223, 2.5088747, 9.701699, 0.008483499, -0.042055607, 10.022609
701756667264522, 0.22372891, 2.5555346, 9.783055, 0.0321033, -0.00406909, 10.11375
701756676903376, 0.24885355, 2.5998018, 9.836894, 0.05045417, 0.028878689, 10.177525
701756686542230, 0.2105684, 2.62373, 9.8117695, 0.007168293, 0.053441286, 10.158554
701756696181085, 0.20578274, 2.6081767, 9.737592, 0.0037910044, 0.053732872, 10.082794
701756705819939, 0.16271193, 2.5543382, 9.663414, -0.031744972, 0.014005661, 9.996574
701756715458793, 0.13280165, 2.5004997, 9.614362, -0.05209656, -0.033812046, 9.934898
701756725097647, 0.14476576, 2.4729822, 9.611969, -0.03626021, -0.05745721, 9.92582
701756734736501, 0.16510476, 2.501696, 9.61795, -0.018291421, -0.028563023, 9.939295
701756744375355, 0.2105684, 2.548356, 9.6682, 0.022123426, 0.009428978, 10.000599
701756754014210, 0.25722843, 2.6105695, 9.724431, 0.061256513, 0.061086178, 10.071659
701756763653064, 0.27038896, 2.626123, 9.742377, 0.073697865, 0.07198548, 10.093213
701756773291918, 0.2632105, 2.6069803, 9.6993065, 0.06500386, 0.06306052, 10.046591
701756782930772, 0.24526432, 2.57707, 9.613165, 0.048834875, 0.055165768, 9.955347
701756792569626, 0.2105684, 2.5256243, 9.613165, 0.01903867, -5.7935715E-4, 9.941614
701756802208480, 0.16390835, 2.4933212, 9.658628, -0.023294829, -0.048099518, 9.9764595
701756811847335, 0.13040884, 2.4586253, 9.724431, -0.049680218, -0.10206962, 10.03063
701756821486189, 0.12323037, 2.4538395, 9.805787, -0.055720612, -0.12342882, 10.108001
701756831124939, 0.1471586, 2.4921248, 9.8321085, -0.034776956, -0.0911448, 10.143628
701756840763793, 0.13280165, 2.5435705, 9.784252, -0.05499521, -0.03028512, 10.110145
701756850402751, 0.16869399, 2.5603201, 9.677772, -0.021090105, 0.015463114, 10.012108
701756860041501, 0.19621146, 2.6201408, 9.578469, -0.0047801584, 0.101783514, 9.931785
701756869680355, 0.24646074, 2.638087, 9.519845, 0.043255493, 0.13603401, 9.880654
701756879319210, 0.25124636, 2.6081767, 9.527023, 0.052082345, 0.106426954, 9.880074
701756888958064, 0.2105684, 2.565106, 9.58804, 0.018282816, 0.041869164, 9.927363
701756898596918, 0.16869399, 2.5316064, 9.696914, -0.01582089, -0.025034666, 10.02331
701756908235772, 0.16390835, 2.5256243, 9.809377, -0.017279118, -0.058657408, 10.130438
701756917874626, 0.18305093, 2.536392, 9.836894, -2.7120113E-5, -0.048751116, 10.160162
701756927513480, 0.2009971, 2.556731, 9.777073, 0.012998968, -0.011374235, 10.107824
701756937152335, 0.21535404, 2.5746772, 9.680164, 0.022197902, 0.03157115, 10.018953
701756946791189, 0.25842485, 2.5950162, 9.556933, 0.059378237, 0.08629584, 9.905802
701756956430043, 0.25842485, 2.5938199, 9.509077, 0.05647491, 0.09373093, 9.859272
701756966068897, 0.19501504, 2.5375884, 9.523434, 0.0029928237, 0.025748491, 9.857612
701756975707751, 0.12203395, 2.5208387, 9.626326, -0.06561294, -0.024751663, 9.951419
701756985346605, 0.08853444, 2.5399811, 9.724431, -0.09876901, -0.03239584, 10.050527
701756994985460, 0.08135597, 2.5423741, 9.798609, -0.10404788, -0.04532647, 10.122755
701757004624314, 0.106480606, 2.5471597, 9.830912, -0.07705517, -0.044313192, 10.155702
701757014263168, 0.16869399, 2.5579274, 9.790234, -0.01775454, -0.014825106, 10.120256
701757023902022, 0.2213361, 2.5435705, 9.743574, 0.036910906, -0.008784533, 10.072466
701757033540876, 0.24526432, 2.5256243, 9.693324, 0.062197834, -0.011000395, 10.019755
701757043179730, 0.27517462, 2.5112674, 9.625129, 0.091566294, -0.0041046143, 9.950724
701757052818585, 0.2536392, 2.528017, 9.609575, 0.066508204, 0.014065981, 9.939545
701757062457439, 0.20219351, 2.5172493, 9.638289, 0.018046767, -0.016830444, 9.963606
701757072096293, 0.17228323, 2.5411777, 9.637094, -0.015498728, -9.651184E-4, 9.967978
701757081735147, 0.12921242, 2.5543382, 9.680164, -0.058291703, -0.008841276, 10.012166
701757091374001, 0.13399807, 2.5758736, 9.689735, -0.0566642, 0.010312319, 10.027
701757101012855, 0.1268196, 2.5962126, 9.669396, -0.068056434, 0.034023046, 10.012386
701757110651710, 0.17587246, 2.5902305, 9.680164, -0.017133176, 0.034493923, 10.022192
701757120290564, 0.22612174, 2.5734808, 9.649057, 0.03457749, 0.03526759, 9.988785
701757129929522, 0.2727818, 2.5722845, 9.59163, 0.078956276, 0.05563259, 9.933836
701757139568376, 0.24885355, 2.544767, 9.579665, 0.058275133, 0.028084517, 9.914816
701757149207230, 0.20697916, 2.4945176, 9.638289, 0.025633544, -0.041668892, 9.957894
701757158846085, 0.1698904, 2.4646072, 9.766306, -0.004870698, -0.105804205, 10.073364
701757168484939, 0.11964113, 2.4861426, 9.829716, -0.054938227, -0.10990906, 10.139203
701757178123793, 0.10887343, 2.5220351, 9.828519, -0.06955725, -0.0748117, 10.147012
701757187762647, 0.12921242, 2.5758736, 9.763913, -0.05989507, -0.0042481422, 10.098625
701757197401501, 0.18903299, 2.6021945, 9.674182, -0.0059553087, 0.052574635, 10.019688
701757207040355, 0.2428715, 2.6189444, 9.577272, 0.041635185, 0.102115154, 9.931256
701757216679210, 0.24885355, 2.6141586, 9.499506, 0.04498893, 0.111873865, 9.855041
701757226318064, 0.21655045, 2.5734808, 9.488738, 0.020107165, 0.0701952, 9.833642
701757235956918, 0.19740787, 2.5423741, 9.543773, 0.007240653, 0.021785736, 9.87855
701757245595772, 0.15314065, 2.5004997, 9.6682, -0.026294649, -0.057235956, 9.987297
701757255234626, 0.15433706, 2.4717858, 9.781859, -0.019692421, -0.110414505, 10.089882
701757264873480, 0.16510476, 2.477768, 9.87159, -0.00829038, -0.118513584, 10.178445
701757274512335, 0.16510476, 2.5220351, 9.9015, -0.013845429, -0.08240032, 10.218642
701757284151189, 0.16390835, 2.5698915, 9.820144, -0.02414982, -0.016222715, 10.1521225
701757293790043, 0.2117648, 2.6105695, 9.680164, 0.014237449, 0.064327, 10.028017
701757303428897, 0.23688944, 2.6620152, 9.538987, 0.026198566, 0.15030384, 9.905122
