timestamp_acc,device_acc_x,device_acc_y,device_acc_z,earth_acc_x,earth_acc_y,earth_acc_z
778361380820460, 6.101698, -0.98943216, 7.9310107, 0.0051703453, 0.06383455, 10.055175
778361390459939, 6.1244297, -0.9667004, 7.9573317, 0.015128136, 0.040170312, 10.087638
778361400099314, 6.134001, -0.94636136, 7.9477606, 0.011274338, 0.015184879, 10.084051
778361409738689, 6.148358, -0.9523434, 7.9477606, -0.0012903214, 0.014512539, 10.093362
778361419378064, 6.155536, -0.92602235, 7.938189, 0.0027446747, -0.013553858, 10.087755
778361429017439, 6.1567326, -0.90807617, 7.9357963, 0.0111551285, -0.02893424, 10.084932
778361438656918, 6.1567326, -0.90807617, 7.905886, -0.00430727, -0.035818815, 10.061396
778361448296293, 6.148358, -0.8997013, 7.8783684, -0.0090351105, -0.045374632, 10.033859
778361457935668, 6.1567326, -0.92243314, 7.884351, -0.022134304, -0.027818918, 10.045793
778361467575043, 6.157929, -0.9272188, 7.91785, -0.0056295395, -0.01541388, 10.073328
778361477214418, 6.1328044, -0.94277215, 7.9190464, 0.005335808, 0.008709669, 10.060383
778361486853898, 6.128019, -0.94636136, 7.899904, -0.0041799545, 0.00930047, 10.04274
778361496493273, 6.128019, -0.95832545, 7.881958, -0.018611431, 0.014142036, 10.029741
778361506132648, 6.1435723, -0.9523434, 7.895118, -0.01745987, 0.0045678616, 10.04903
778361515772023, 6.1675005, -0.94396853, 7.9166536, -0.01696062, -0.008080006, 10.079791
778361525411398, 6.174679, -0.93559366, 7.928618, -0.009619713, -0.016345024, 10.0928
778361535050877, 6.13759, -0.9236295, 7.9130645, 0.011940002, -0.013623118, 10.056807
778361544690252, 6.131608, -0.9320044, 7.925029, 0.018497467, -8.453131E-4, 10.063349
778361554329627, 6.134001, -0.91884387, 7.914261, 0.01742506, -0.015097618, 10.055109
778361563969002, 6.151947, -0.9020941, 7.9094753, 0.011490345, -0.03693497, 10.060741
778361573608377, 6.131608, -0.9176475, 7.9274216, 0.027186394, -0.01005733, 10.063889
778361583247856, 6.135197, -0.9320044, 7.9274216, 0.017164707, 0.0026830435, 10.067423
778361592887231, 6.151947, -0.92602235, 7.8867435, -0.015302181, -0.020227194, 10.045101
778361602526606, 6.145965, -0.9403793, 7.8891363, -0.017336369, -0.0044252872, 10.044668
778361612165981, 6.1531434, -0.9451649, 7.905886, -0.015537262, 8.2552433E-4, 10.062668
778361621805356, 6.131608, -0.9499506, 7.926225, 0.008543968, 0.01954639, 10.065964
778361631444731, 6.1387863, -0.9499506, 7.9226356, 0.0017728806, 0.01554215, 10.067524
778361641084210, 6.1471615, -0.9403793, 7.921439, 9.403229E-4, 0.0028825998, 10.070804
778361650723585, 6.1531434, -0.93559366, 7.8987074, -0.013669014, -0.009222269, 10.056132
778361660362960, 6.161518, -0.9343972, 7.880761, -0.028851986, -0.01777339, 10.047022
778361670002335, 6.134001, -0.93559366, 7.873583, -0.015060902, -0.005795479, 10.024687
778361679641710, 6.145965, -0.9499506, 7.91785, -0.0046362877, 0.012228727, 10.068142
778361689281189, 6.142376, -0.9236295, 7.932207, 0.01886177, -0.0055607557, 10.074791
778361698920564, 6.131608, -0.90448695, 7.920243, 0.028476238, -0.020053983, 10.057026
778361708559939, 6.134001, -0.9056834, 7.9022965, 0.015683651, -0.023731232, 10.044486
778361718199314, 6.1651077, -0.9296116, 7.899904, -0.018252373, -0.01581645, 10.0638275
778361727838689, 6.155536, -0.92482597, 7.8963146, -0.011654854, -0.016517878, 10.054716
778361737478168, 6.1435723, -0.92482597, 7.895118, -0.004076481, -0.010920286, 10.046469
778361747117543, 6.135197, -0.93320084, 7.905886, 0.0029587746, 0.002407074, 10.050598
778361756756918, 6.1387863, -0.94396853, 7.9429746, 0.016142845, 0.019252777, 10.082955
778361766396293, 6.1387863, -0.951147, 7.9357963, 0.006412983, 0.0226506, 10.077981
778361776035668, 6.131608, -0.9451649, 7.90469, -0.0033478737, 0.012986541, 10.048577
778361785675148, 6.1399827, -0.96789676, 7.8759756, -0.037973404, 0.021162868, 10.033211
778361795314523, 6.1387863, -0.9415757, 7.8723865, -0.025989532, -0.0018059015, 10.027216
778361804953898, 6.151947, -0.91884387, 7.9106717, -7.4481964E-4, -0.017887354, 10.063256
778361814593273, 6.1363935, -0.89730847, 7.891529, 0.009687424, -0.033388853, 10.036708
778361824232648, 6.1184473, -0.9284152, 7.8963146, 0.008256435, 0.0025681257, 10.032401
778361833872127, 6.1232333, -0.93559366, 7.885547, -0.004623413, 0.00530231, 10.027518
778361843511502, 6.1160545, -0.9212367, 7.9011, 0.016106606, 7.557869E-5, 10.034038
778361853150877, 6.1328044, -0.9200403, 7.9166536, 0.015159607, -0.0042705536, 10.056386
778361862790252, 6.1651077, -0.9272188, 7.945368, 0.006644249, -0.0054217577, 10.0993595
778361872429627, 6.1698933, -0.93320084, 7.9274216, -0.009675503, -0.006792903, 10.088722
778361882069106, 6.1639113, -0.9499506, 7.891529, -0.034745216, 7.417202E-4, 10.058392
778361891708481, 6.155536, -0.92602235, 7.884351, -0.021483421, -0.017850995, 10.045415
778361901347856, 6.1651077, -0.9379865, 7.8831544, -0.03323269, -0.012165785, 10.051429
778361910987231, 6.1363935, -0.94396853, 7.9094753, 1.244545E-4, 0.010851741, 10.055152
778361920626606, 6.1328044, -0.94755775, 7.879565, -0.016285896, 0.008453846, 10.029774
778361930265981, 6.13759, -0.94277215, 7.861619, -0.027212143, -0.0048724413, 10.018139
778361939905460, 6.122037, -0.9212367, 7.8891363, 0.009278297, -0.010266185, 10.028274
778361949544835, 6.1399827, -0.92482597, 7.928618, 0.019247532, -0.0059791803, 10.070613
778361959184210, 6.1591253, -0.9272188, 7.921439, 0.0013480186, -0.013921738, 10.076881
778361968823585, 6.148358, -0.9415757, 7.905886, -0.0077266693, -1.7642975E-5, 10.059416
778361978462960, 6.151947, -0.92482597, 7.885547, -0.014228344, -0.019993424, 10.044053
778361988102439, 6.151947, -0.930808, 7.8831544, -0.018830776, -0.014671683, 10.042728
778361997741814, 6.1435723, -0.930808, 7.8903327, -0.009174824, -0.009325147, 10.043261
778362007381189, 6.1471615, -0.9128618, 7.911868, 0.009512901, -0.020691752, 10.060717
778362017020564, 6.1268225, -0.9176475, 7.921439, 0.025513649, -0.004877448, 10.056269
778362026659939, 6.117251, -0.93559366, 7.8891363, 0.0042972565, 0.0071309805, 10.02669
778362036299314, 6.1447687, -0.951147, 7.905886, -0.011467934, 0.012251973, 10.058112
778362045938793, 6.1495543, -0.9559326, 7.9166536, -0.010930538, 0.016838789, 10.069946
778362055578168, 6.148358, -0.9523434, 7.9238324, -0.0024981499, 0.014921546, 10.074531
778362065217543, 6.142376, -0.9403793, 7.9106717, -1.1634827E-4, 0.0040607452, 10.059414
778362074856918, 6.1627145, -0.9296116, 7.8867435, -0.021288872, -0.021038413, 10.052017
778362084496293, 6.155536, -0.9236295, 7.884351, -0.014577389, -0.024448276, 10.045193
778362094135773, 6.172286, -0.930808, 7.8699937, -0.03690052, -0.028980255, 10.044805
778362103775148, 6.1399827, -0.951147, 7.884351, -0.017632484, 0.0067191124, 10.038262
778362113414523, 6.125626, -0.9619147, 7.9034934, -0.0024323463, 0.026856184, 10.045549
778362123053898, 6.1447687, -0.94396853, 7.926225, 0.0061016083, 0.007949352, 10.073441
778362132693273, 6.1387863, -0.91884387, 7.9034934, 0.008719444, -0.017115593, 10.049567
778362142332648, 6.1363935, -0.9272188, 7.9130645, 0.01132822, -0.006447792, 10.056415
778362151972127, 6.1447687, -0.9379865, 7.905886, -0.004306793, -0.00126791, 10.056889
778362161611502, 6.1435723, -0.95712906, 7.893922, -0.019726276, 0.013022184, 10.0485325
778362171250877, 6.1292152, -0.9619147, 7.9011, -0.008513451, 0.02480352, 10.045858
778362180890252, 6.145965, -0.9320044, 7.897511, -0.007039547, -0.009330392, 10.050476
778362190529627, 6.1603217, -0.9296116, 7.9154572, -0.005340576, -0.014674783, 10.073131
778362200169002, 6.13759, -0.9391829, 7.9106717, 0.0022025108, 0.0024375916, 10.05638
778362209808481, 6.1651077, -0.951147, 7.8963146, -0.02971363, -0.0030847788, 10.063009
778362219447856, 6.1531434, -0.8769695, 7.905886, 0.021579266, -0.059000015, 10.056309
778362229087231, 6.108876, -0.86261255, 7.8891363, 0.047261238, -0.05433011, 10.014776
778362238726606, 6.1196437, -0.93679005, 7.873583, -0.00573349, 8.947849E-4, 10.016031
778362248365981, 6.1399827, -0.95473623, 7.864012, -0.035280704, 0.0056016445, 10.02259
778362258005356, 6.15434, -0.9798609, 7.8891363, -0.04453087, 0.025230885, 10.053452
778362267644835, 6.13759, -0.9798609, 7.925029, -0.012639999, 0.04081571, 10.071464
778362277284210, 6.1328044, -0.9631111, 7.9310107, 0.003273964, 0.02967465, 10.07169
778362286923585, 6.1363935, -0.95473623, 7.908279, -0.0077118874, 0.0156002045, 10.055219
778362296562960, 6.128019, -0.93320084, 7.893922, 1.4305115E-4, -0.002820015, 10.036806
778362306202335, 6.131608, -0.9020941, 7.881958, 0.0061998367, -0.034008145, 10.026688
778362315841710, 6.141179, -0.89730847, 7.880761, 0.0015611649, -0.041520715, 10.031148
778362325481085, 6.1387863, -0.8985049, 7.877172, 2.9468536E-4, -0.040285945, 10.026976
778362335120564, 6.13759, -0.9212367, 7.8831544, -0.00638628, -0.017774224, 10.033068
778362344759939, 6.155536, -0.9296116, 7.8903327, -0.01832056, -0.015933752, 10.050451
778362354399314, 6.148358, -0.95473623, 7.897511, -0.021701336, 0.010710716, 10.05405
778362364038689, 6.1567326, -0.95353985, 7.905886, -0.021784306, 0.007816792, 10.0656395
778362373678064, 6.142376, -0.9559326, 7.905886, -0.012049675, 0.01490736, 10.057099
778362383317439, 6.1363935, -0.9559326, 7.9298143, 0.0055704117, 0.023147225, 10.072264
778362392956814, 6.1387863, -0.94636136, 7.921439, 0.0047688484, 0.011062145, 10.066248
778362402596293, 6.125626, -0.9403793, 7.88794, -0.0022788048, 0.0029546022, 10.03131
778362412235668, 6.1064835, -0.89371926, 7.8580294, 0.016742706, -0.036308646, 9.991742
778362421875043, 6.056234, -1.2957134, 7.737192, -0.22640848, 0.29781902, 9.903587
778362431514418, 6.2117677, -0.33379877, 8.033902, 0.34116268, -0.5124173, 10.142096
778362441153793, 6.0430737, -1.585245, 7.7826557, -0.3489828, 0.55170906, 9.958679
778362450793168, 6.2679987, -0.2883351, 8.04467, 0.34198523, -0.5756304, 10.180342
778362460432543, 6.07418, -1.4596218, 7.856833, -0.2655034, 0.4639486, 10.023484
778362470072023, 6.1914287, -0.59700924, 7.8580294, 0.11732817, -0.31836367, 10.016172
778362479711398, 6.131608, -1.0648061, 7.9920278, -0.018081188, 0.13753712, 10.128362
778362489350773, 6.1627145, -1.0719845, 7.728817, -0.1889677, 0.05807376, 9.941013
778362498990148, 6.1902323, -0.6029913, 8.066205, 0.22697926, -0.2652521, 10.179605
778362508629523, 6.046663, -1.4943178, 7.6713896, -0.36950922, 0.45432866, 9.864198
778362518268898, 6.227321, -0.28594232, 8.117651, 0.40595293, -0.5445328, 10.212554
778362527908273, 6.029913, -1.6247265, 7.746763, -0.379364, 0.5828655, 9.92614
778362537547648, 6.245267, -0.2644069, 8.005188, 0.3508401, -0.5963681, 10.132994
778362547187127, 6.046663, -1.477568, 7.826923, -0.27428675, 0.48034358, 9.984995
778362556826502, 6.224928, -0.5371887, 7.8556366, 0.14075279, -0.39166284, 10.028766
778362566465877, 6.1028943, -1.0600204, 7.9573317, -0.012148857, 0.13010764, 10.083205
778362576105252, 6.1363935, -1.0205388, 7.7312098, -0.14008951, 0.023699999, 9.922109
778362585744627, 6.186643, -0.62093747, 8.079366, 0.24015284, -0.2359438, 10.189353
778362595384002, 6.078966, -1.4321043, 7.7108707, -0.3303771, 0.39522493, 9.909436
778362605023377, 6.218946, -0.30508488, 8.109276, 0.40207672, -0.50391865, 10.203585
778362614662752, 6.0167527, -1.6510476, 7.7204423, -0.42323637, 0.5959239, 9.899406
778362624302231, 6.236892, -0.26679972, 8.021938, 0.37152147, -0.55830145, 10.142572
778362633941606, 6.0598235, -1.5230316, 7.8484583, -0.3031993, 0.50704443, 10.014507
778362643580981, 6.2285175, -0.5455636, 7.9130645, 0.16816473, -0.36586738, 10.07703
778362653220356, 6.1064835, -1.1533405, 7.9657063, -0.06570482, 0.21612859, 10.100534
778362662859731, 6.1304116, -0.96550393, 7.732406, -0.104994774, -0.015223265, 9.914282
778362672499106, 6.157929, -0.66759753, 7.993224, 0.18878412, -0.2063868, 10.108372
778362682138481, 6.078966, -1.3986049, 7.648658, -0.35300875, 0.34530532, 9.857385
778362691777856, 6.245267, -0.27876383, 8.123632, 0.42172527, -0.5323813, 10.22806
778362701417231, 6.038288, -1.605584, 7.751549, -0.37170553, 0.5622492, 9.933329
778362711056606, 6.2380886, -0.22731815, 8.060223, 0.42409372, -0.5969658, 10.168402
778362720696085, 6.0430737, -1.5302101, 7.8113694, -0.30745983, 0.52487624, 9.975357
778362730335460, 6.2213387, -0.45942193, 7.8927255, 0.20787716, -0.44169092, 10.04853
778362739974835, 6.094519, -1.1784651, 7.926225, -0.08754349, 0.22672069, 10.064687
778362749614210, 6.1507506, -0.93559366, 7.7347994, -0.099683285, -0.047889233, 9.925822
778362759253585, 6.186643, -0.7513463, 8.019546, 0.13793325, -0.13975048, 10.154488
778362768892960, 6.0514483, -1.4129617, 7.670193, -0.34026814, 0.37839735, 9.858469
778362778532335, 6.212964, -0.36490545, 8.118847, 0.39556313, -0.4449234, 10.212508
778362788171710, 6.04427, -1.6271194, 7.765906, -0.39855766, 0.59011173, 9.949017
778362797811085, 6.2608204, -0.21774685, 8.09133, 0.43437815, -0.59952855, 10.206213
778362807450460, 6.0454664, -1.5409778, 7.8257265, -0.31560278, 0.52230394, 9.989588
778362817089835, 6.216553, -0.4103691, 7.9034934, 0.24898195, -0.47286248, 10.049557
778362826729210, 6.1028943, -1.2071791, 7.9393854, -0.10083389, 0.25214553, 10.082793
778362836368689, 6.155536, -0.8673982, 7.7814593, -0.03529787, -0.096368074, 9.959095
778362846008064, 6.1627145, -0.7609176, 8.002795, 0.1406231, -0.12907267, 10.127504
778362855647439, 6.0933228, -1.3196417, 7.6199436, -0.330904, 0.2703644, 9.836206
778362865286814, 6.2117677, -0.37328035, 8.0614195, 0.35575485, -0.45396852, 10.167558
778362874926189, 6.023931, -1.625923, 7.716853, -0.40673304, 0.58388567, 9.898224
778362884565564, 6.2404814, -0.2440679, 8.072187, 0.42039156, -0.57828593, 10.180975
778362894204939, 6.040681, -1.579263, 7.806584, -0.3483739, 0.56001234, 9.974553
778362903844314, 6.2057858, -0.40079778, 7.9346, 0.2807951, -0.4653635, 10.066523
778362913483689, 6.067002, -1.2646067, 7.899904, -0.13949776, 0.31308055, 10.034877
778362923123064, 6.1710896, -0.8135597, 7.7886376, -0.0077400208, -0.14570904, 9.969244
778362932762439, 6.1507506, -0.80877405, 8.063812, 0.15601444, -0.0607903, 10.172654
778362942401814, 6.1100726, -1.2801601, 7.737192, -0.26446438, 0.25204325, 9.934913
778362952041189, 6.227321, -0.39361933, 8.109276, 0.36634827, -0.4335351, 10.216294
778362961680564, 6.06102, -1.5960127, 7.704889, -0.42047167, 0.527604, 9.909257
778362971319939, 6.276374, -0.24885355, 8.043473, 0.3713007, -0.5903015, 10.181648
778362980959418, 6.0634127, -1.6199409, 7.7503524, -0.40395212, 0.57141125, 9.948239
778362990598793, 6.253642, -0.36251262, 7.9238324, 0.25177097, -0.5227978, 10.08414
778363000238168, 6.0693946, -1.3208381, 7.879565, -0.1642623, 0.3555156, 10.025784
778363009877543, 6.1435723, -0.762114, 7.786245, 0.03560686, -0.17375779, 9.945776
778363019516918, 6.135197, -0.8554341, 8.001599, 0.11237955, -0.04168129, 10.118481
778363029156293, 6.1028943, -1.2119647, 7.696514, -0.2304511, 0.19664931, 9.892357
778363038795668, 6.215357, -0.4331009, 8.112865, 0.3409338, -0.4040668, 10.215542
778363048435043, 6.0526447, -1.5672989, 7.7156568, -0.37191677, 0.5226501, 9.910137
778363058074418, 6.257231, -0.22372891, 8.098508, 0.41566515, -0.59764075, 10.210724
778363067713793, 6.0287166, -1.6211374, 7.746763, -0.38426447, 0.59188616, 9.924105
778363077353168, 6.2321067, -0.3182454, 7.944171, 0.2974925, -0.5425527, 10.083027
778363086992543, 6.09093, -1.3471591, 7.893922, -0.19143629, 0.37376368, 10.05246
778363096631918, 6.1878395, -0.6939186, 7.8460655, 0.07787323, -0.2366848, 10.013468
778363106271293, 6.128019, -0.89730847, 8.013563, 0.0978961, 0.008244038, 10.127455
778363115910668, 6.0981083, -1.2119647, 7.6678, -0.253613, 0.18986809, 9.86664
778363125550043, 6.216553, -0.48454657, 8.062616, 0.29530382, -0.36345816, 10.18169
778363135189418, 6.056234, -1.5840486, 7.7096744, -0.41389942, 0.5315598, 9.908197
778363144828793, 6.265606, -0.26679972, 8.106883, 0.40206003, -0.5497582, 10.226762
778363154468168, 6.04427, -1.6450655, 7.7671022, -0.40232563, 0.60867417, 9.9516325
778363164107543, 6.2524457, -0.317049, 7.945368, 0.29635763, -0.5586517, 10.095671
778363173746918, 6.07418, -1.3770695, 7.877172, -0.20691776, 0.40287018, 10.031784
778363183386293, 6.2033925, -0.6269195, 7.8400836, 0.09815693, -0.30279684, 10.012028
778363193025668, 6.1292152, -0.9343972, 8.020741, 0.08003664, 0.043141603, 10.137277
778363202665043, 6.09093, -1.1138589, 7.713264, -0.16116524, 0.13272262, 9.88893
778363212304418, 6.1842504, -0.49651068, 8.068598, 0.3012476, -0.33901978, 10.167992
778363221943793, 6.0514483, -1.4991034, 7.6977105, -0.3516822, 0.47741723, 9.887895
778363231583168, 6.2608204, -0.25603202, 8.076973, 0.36846066, -0.5793333, 10.199488
778363241222543, 6.0514483, -1.6534405, 7.749156, -0.39220428, 0.61752594, 9.943246
778363250862023, 6.270392, -0.29790643, 7.9776707, 0.2879901, -0.5822723, 10.130539
778363260501398, 6.081359, -1.4380864, 7.8628154, -0.24083996, 0.44687736, 10.030811
778363270140773, 6.1878395, -0.6269195, 7.85444, 0.09792757, -0.28532398, 10.014172
778363279780148, 6.1232333, -1.012164, 7.987242, 0.021339417, 0.099867225, 10.114548
778363289419523, 6.148358, -1.0755738, 7.7156568, -0.18048763, 0.07973492, 9.922278
778363299058898, 6.186643, -0.56350976, 8.066205, 0.25445938, -0.28793216, 10.173894
778363308698273, 6.0514483, -1.5050855, 7.6977105, -0.35056496, 0.4859271, 9.88843
778363318337648, 6.227321, -0.2656033, 8.139186, 0.4293728, -0.53268886, 10.228797
778363327977023, 6.0370917, -1.6378871, 7.7647095, -0.36877823, 0.6121466, 9.945307
778363337616398, 6.216553, -0.2644069, 8.005188, 0.35824776, -0.5658376, 10.116816
778363347255773, 6.0490556, -1.43689, 7.8592257, -0.23641872, 0.46167278, 10.007704
778363356895148, 6.212964, -0.526421, 7.8520474, 0.14986229, -0.38789272, 10.017972
778363366534523, 6.1208405, -1.0348958, 7.9800634, 0.006848812, 0.11666465, 10.109571
778363376173898, 6.1232333, -1.032503, 7.739585, -0.1293664, 0.05600238, 9.921761
778363385813273, 6.1806607, -0.5946164, 8.066205, 0.247859, -0.25413895, 10.17309
778363395452648, 6.067002, -1.4691931, 7.6893353, -0.3625865, 0.43629372, 9.887928
778363405092023, 6.222535, -0.30987054, 8.110473, 0.39877224, -0.49309635, 10.207526
778363414731398, 6.0191455, -1.6582261, 7.7407813, -0.39757824, 0.6257899, 9.9171505
778363424370773, 6.256035, -0.2632105, 8.032705, 0.36542416, -0.5789294, 10.161837
778363434010148, 6.0957155, -1.5062819, 7.8484583, -0.30358362, 0.48929107, 10.034609
778363443649523, 6.222535, -0.5240282, 7.893922, 0.1599493, -0.3746214, 10.056969
778363453288898, 6.1040907, -1.0911272, 7.9501534, -0.029376984, 0.16471362, 10.081042
778363462928273, 6.148358, -0.9607183, 7.728817, -0.11091709, -0.024059534, 9.922047
778363472567648, 6.1675005, -0.61854464, 8.054241, 0.24250698, -0.23122954, 10.157716
778363482207023, 6.0622163, -1.4045869, 7.7012997, -0.31296682, 0.38155103, 9.888874
778363491846398, 6.245267, -0.29312077, 8.126026, 0.4092617, -0.5185313, 10.231579
778363501485773, 6.02752, -1.6163517, 7.7407813, -0.38738155, 0.587118, 9.91809
778363511125148, 6.239285, -0.23808585, 8.017152, 0.3883667, -0.5968921, 10.136714
778363520764523, 6.0514483, -1.5397813, 7.813762, -0.315166, 0.52243817, 9.9836645
778363530403898, 6.202196, -0.49052864, 7.8987074, 0.20593214, -0.3877325, 10.045133
778363540043273, 6.0921264, -1.1557333, 7.9860454, -0.04403019, 0.24048126, 10.107762
778363549682648, 6.141179, -0.92243314, 7.763513, -0.06899881, -0.038587093, 9.941371
778363559322023, 6.1627145, -0.6987042, 8.054241, 0.19842863, -0.15959907, 10.162342
778363568961398, 6.0861444, -1.4057833, 7.6977105, -0.33360624, 0.37067044, 9.90068
778363578600773, 6.242874, -0.34097722, 8.165507, 0.40556192, -0.47030687, 10.265456
778363588240148, 6.046663, -1.6390835, 7.753942, -0.40161848, 0.6079892, 9.941901
778363597879523, 6.2548385, -0.2416751, 8.042277, 0.37176466, -0.58797145, 10.167385
778363607518898, 6.0191455, -1.558924, 7.789834, -0.31306028, 0.5648209, 9.946096
778363617158273, 6.215357, -0.41754755, 7.9166536, 0.24111795, -0.46715283, 10.059923
778363626797543, 6.088537, -1.1724831, 7.9573317, -0.05610752, 0.24668717, 10.084647
778363636436918, 6.1447687, -0.83389866, 7.7826557, -0.010941029, -0.11194396, 9.95041
778363646076293, 6.1507506, -0.70947194, 8.020741, 0.18408251, -0.15926075, 10.129566
778363655715773, 6.0753765, -1.3328022, 7.661818, -0.30832577, 0.30439055, 9.859123
778363665355043, 6.2404814, -0.36251262, 8.110473, 0.37166166, -0.46321845, 10.222627
778363674994418, 6.029913, -1.6342978, 7.752745, -0.39787292, 0.59176266, 9.931131
778363684633793, 6.259624, -0.24047868, 8.080562, 0.4042821, -0.5718436, 10.20028
778363694273168, 6.0658054, -1.6103697, 7.820941, -0.37270832, 0.57237995, 10.004392
778363703912543, 6.2261243, -0.424726, 7.9597244, 0.25994635, -0.44492745, 10.101322
778363713551918, 6.068198, -1.253839, 7.969296, -0.10223341, 0.32715428, 10.088971
778363723191293, 6.1627145, -0.8147561, 7.798209, -0.01435709, -0.12970805, 9.971856
778363732830668, 6.155536, -0.77647096, 8.032705, 0.14424372, -0.096529484, 10.148289
778363742470043, 6.0981083, -1.308874, 7.6713896, -0.30798912, 0.2812618, 9.878073
778363752109418, 6.2464633, -0.37686956, 8.099705, 0.3344798, -0.45707512, 10.219823
778363761748793, 6.0729837, -1.5936198, 7.7312098, -0.40554, 0.54207206, 9.936501
778363771388168, 6.257231, -0.23090738, 8.068598, 0.40462732, -0.59509706, 10.187771
778363781027543, 6.0394845, -1.599602, 7.7814593, -0.37228203, 0.5791538, 9.9554615
778363790666918, 6.216553, -0.36011982, 7.9680996, 0.29260254, -0.48880458, 10.096598
778363800306293, 6.0622163, -1.2921243, 7.978867, -0.10678005, 0.35530293, 10.096769
778363809945668, 6.125626, -0.75493556, 7.8496547, 0.07073784, -0.14965701, 9.984133
778363819585043, 6.1160545, -0.8315059, 8.047063, 0.14384985, -0.028063774, 10.140575
778363829224418, 6.078966, -1.2107682, 7.7108707, -0.23035145, 0.21112919, 9.888361
778363838863793, 6.1914287, -0.39840496, 8.106883, 0.3621254, -0.4093256, 10.19389
778363848503168, 6.0514483, -1.570888, 7.7419777, -0.3851142, 0.5323405, 9.929463
778363858142543, 6.245267, -0.20219351, 8.118847, 0.43897676, -0.60438347, 10.217728
778363867781918, 6.033502, -1.6115661, 7.789834, -0.378479, 0.5811422, 9.959962
778363877421293, 6.2416778, -0.32542387, 7.962117, 0.29334688, -0.53657126, 10.103751
778363887060668, 6.09093, -1.3471591, 7.9310107, -0.20031118, 0.3830197, 10.08109
778363896700043, 6.1639113, -0.7286145, 7.865208, 0.059551716, -0.18322873, 10.017438
778363906339418, 6.113662, -0.9056834, 8.051848, 0.09614086, 0.034900665, 10.149824
778363915978793, 6.088537, -1.2179468, 7.685746, -0.25972176, 0.20878673, 9.874884
778363925618168, 6.1998034, -0.47138608, 8.087741, 0.2929659, -0.3594246, 10.190992
778363935257543, 6.0215383, -1.5661024, 7.7216387, -0.38784504, 0.54597044, 9.893776
778363944896918, 6.2201424, -0.23330021, 8.141579, 0.43370485, -0.5670943, 10.223514
778363954536293, 6.0191455, -1.6199409, 7.795816, -0.36043978, 0.6079377, 9.956384
778363964175668, 6.2117677, -0.2955136, 7.9968133, 0.31768274, -0.55134296, 10.110268
778363973815043, 6.029913, -1.3339987, 7.9346, -0.14514971, 0.40822363, 10.045376
778363983454418, 6.1363935, -0.61854464, 7.88794, 0.13805819, -0.26401138, 10.008434
778363993093793, 6.0801625, -0.91884387, 8.056634, 0.1047883, 0.06268382, 10.134451
778364002733168, 6.0957155, -1.1318051, 7.746763, -0.19275808, 0.15160346, 9.919221
778364012372543, 6.2105713, -0.46660042, 8.086544, 0.27967596, -0.36750317, 10.196463
778364022011918, 6.081359, -1.4859428, 7.690532, -0.41076756, 0.4414605, 9.898063
778364031651293, 6.2644095, -0.2428715, 8.10808, 0.37734413, -0.5707767, 10.226172
778364041290668, 6.038288, -1.6438692, 7.7647095, -0.43029356, 0.6147425, 9.944389
778364050930043, 6.235696, -0.30987054, 7.993224, 0.3059411, -0.53887916, 10.123614
778364060569418, 6.0251274, -1.4249259, 7.8927255, -0.22794724, 0.4617865, 10.018108
778364070208793, 6.1399827, -0.64606214, 7.88794, 0.12009382, -0.24087119, 10.013188
778364079848168, 6.0634127, -1.006182, 8.049456, 0.054992676, 0.14252543, 10.126589
778364089487543, 6.0897336, -1.0815558, 7.732406, -0.17793465, 0.10562587, 9.899591
778364099126918, 6.1639113, -0.5180461, 8.067402, 0.2622471, -0.31091142, 10.157742
778364108766189, 6.053841, -1.4584254, 7.7096744, -0.37329245, 0.42748868, 9.894087
778364118405564, 6.2404814, -0.19501504, 8.1679, 0.44690752, -0.59344316, 10.253992
778364128044939, 6.0430737, -1.591227, 7.826923, -0.3714471, 0.5911902, 9.991196
778364137684314, 6.2309103, -0.23569304, 8.062616, 0.3669839, -0.58425474, 10.169049
778364147323689, 6.0358953, -1.4117653, 7.905886, -0.2238431, 0.46729398, 10.032928
778364156963064, 6.1591253, -0.5192425, 7.911868, 0.1706109, -0.3513081, 10.032427
778364166602439, 6.0598235, -1.012164, 8.036295, 0.038737774, 0.1495055, 10.114549
778364176241814, 6.046663, -1.0480564, 7.780263, -0.11683941, 0.11494374, 9.9078865
778364185881189, 6.145965, -0.58624154, 8.098508, 0.24331093, -0.23854017, 10.177735
778364195520564, 6.033502, -1.4500505, 7.7012997, -0.36366463, 0.4366058, 9.873851
778364205159939, 6.2213387, -0.2632105, 8.129615, 0.39260483, -0.5237973, 10.219416
778364214799314, 6.029913, -1.6342978, 7.7850485, -0.42853642, 0.6000838, 9.954597
778364224438689, 6.2416778, -0.2321038, 8.032705, 0.34374714, -0.5848627, 10.152661
778364234078064, 6.0358953, -1.4703895, 7.8496547, -0.31181717, 0.48856258, 9.99376
778364243717439, 6.175875, -0.48933223, 7.921439, 0.18304634, -0.37132573, 10.047821
778364253356814, 6.0897336, -1.0396814, 8.04467, 0.0039458275, 0.1526246, 10.1419525
778364262996189, 6.111269, -0.951147, 7.783852, -0.1057291, 0.0014922619, 9.941301
778364272635564, 6.1531434, -0.5886344, 8.097312, 0.2401762, -0.23237467, 10.181476
778364282274939, 6.0634127, -1.4201403, 7.7240314, -0.37008142, 0.39921153, 9.906872
778364291914314, 6.229714, -0.28713873, 8.160722, 0.380507, -0.50585294, 10.2512665
778364301553689, 6.000003, -1.6307086, 7.793423, -0.39911366, 0.61875415, 9.942562
778364311193064, 6.215357, -0.24646074, 8.059027, 0.36322975, -0.5683472, 10.15797
778364320832439, 6.0023956, -1.5218352, 7.8460655, -0.3173666, 0.5367763, 9.975801
778364330471814, 6.1447687, -0.49651068, 7.9298143, 0.19497824, -0.35149574, 10.036188
778364340111189, 6.0323057, -1.1162517, 8.02792, -0.01556778, 0.24379694, 10.100622
778364349750564, 6.0981083, -0.90448695, 7.84128, -0.041834354, -0.018777609, 9.974397
778364359389939, 6.1328044, -0.6269195, 8.114061, 0.23741293, -0.1923132, 10.185724
778364369029314, 6.038288, -1.3483555, 7.7276206, -0.30981588, 0.3520267, 9.888133
778364378668689, 6.2117677, -0.27158538, 8.152347, 0.399714, -0.5128658, 10.232193
778364388308064, 6.033502, -1.5936198, 7.7826557, -0.39999485, 0.570022, 9.951261
778364397947439, 6.235696, -0.20937198, 8.086544, 0.38563013, -0.6071732, 10.1883545
778364407586814, 6.0215383, -1.5134603, 7.8424764, -0.31148434, 0.5234916, 9.98413
778364417226189, 6.202196, -0.424726, 7.9226356, 0.19978571, -0.45694327, 10.058185
778364426865564, 6.0598235, -1.1904292, 7.98126, -0.083538055, 0.27029276, 10.08757
778364436504939, 6.101698, -0.8757731, 7.8293157, -0.026129246, -0.05344796, 9.964555
778364446144314, 6.122037, -0.6999006, 8.092526, 0.20065308, -0.14065957, 10.1684885
778364455783689, 6.029913, -1.329213, 7.716853, -0.28798056, 0.3320899, 9.873362
778364465423064, 6.1734824, -0.3278167, 8.127222, 0.40134096, -0.46263766, 10.192938
778364475062439, 6.0023956, -1.5984055, 7.7742805, -0.381958, 0.5779016, 9.926893
778364484701814, 6.236892, -0.20817557, 8.128419, 0.41336918, -0.589972, 10.22225
778364494341189, 6.02752, -1.5457634, 7.847262, -0.3299222, 0.5537281, 9.994222
778364503980564, 6.2033925, -0.40797627, 7.941778, 0.2180891, -0.45983386, 10.0728035
778364513619939, 6.1040907, -1.2191432, 7.952546, -0.14057732, 0.27090502, 10.094359
778364523259314, 6.172286, -0.7968099, 7.8221374, -0.03182268, -0.15130639, 9.994698
778364532898689, 6.1387863, -0.7537391, 8.073383, 0.1532216, -0.11195874, 10.168399
778364542538064, 6.0933228, -1.302892, 7.719246, -0.30074406, 0.283772, 9.911706
778364552177439, 6.216553, -0.37088752, 8.169097, 0.3614607, -0.45108795, 10.255881
778364561816814, 6.01436, -1.6091732, 7.783852, -0.37152958, 0.6028881, 9.942274
778364571456189, 6.186643, -0.24047868, 8.109276, 0.4211812, -0.56298566, 10.17833
778364581095564, 6.000003, -1.6031911, 7.7910304, -0.35696745, 0.59058404, 9.939528
778364590734939, 6.2213387, -0.39840496, 7.9011, 0.19896173, -0.48928785, 10.050482
778364600374314, 6.0729837, -1.2610176, 7.9154572, -0.1568408, 0.3088864, 10.050161
778364610013689, 6.172286, -0.71665037, 7.938189, 0.08730173, -0.19243383, 10.078734
778364619653168, 6.1028943, -0.74177504, 8.143971, 0.22667456, -0.07838106, 10.201092
778364629292439, 6.0346985, -1.2191432, 7.635497, -0.27088928, 0.21178126, 9.802371
778364638931918, 6.198607, -0.424726, 8.032705, 0.27222395, -0.41646123, 10.142975
778364648571293, 6.058627, -1.6223338, 7.813762, -0.4107113, 0.58497477, 9.994144
778364658210668, 6.2285175, -0.25124636, 8.254042, 0.47075415, -0.5060916, 10.320322
778364667850043, 5.973682, -1.6115661, 7.834101, -0.34516096, 0.61877525, 9.957567
778364677489418, 6.1806607, -0.32422748, 7.962117, 0.30615473, -0.51090074, 10.067087
778364687128793, 6.0658054, -1.2789637, 7.9310107, -0.17938805, 0.3314302, 10.0592575
778364696768168, 6.1495543, -0.6759724, 7.8759756, 0.0819211, -0.21906781, 10.012505
778364706407543, 6.0981083, -0.82313097, 8.073383, 0.14080381, -0.019750595, 10.1500635
778364716046918, 6.0837517, -1.1988041, 7.743174, -0.24506664, 0.20106101, 9.914909
778364725686293, 6.195018, -0.4319045, 8.122437, 0.3289876, -0.36664987, 10.212547
778364735325668, 6.0227346, -1.5577276, 7.732406, -0.4204688, 0.51556027, 9.901886
778364744965043, 6.242874, -0.22971097, 8.112865, 0.40412283, -0.5584166, 10.216148
778364754604418, 6.029913, -1.6211374, 7.8149586, -0.42134953, 0.59662664, 9.976374
778364764243793, 6.206982, -0.32662028, 8.001599, 0.30773878, -0.49460053, 10.115314
778364773883168, 6.0358953, -1.3639089, 7.944171, -0.20292234, 0.41171587, 10.059396
778364783522543, 6.1603217, -0.6723832, 7.8783684, 0.07453108, -0.22457051, 10.020699
778364793161918, 6.0921264, -0.9212367, 8.051848, 0.073703766, 0.05900383, 10.138344
778364802801293, 6.070591, -1.1389836, 7.7647095, -0.19056988, 0.169101, 9.918425
778364812440668, 6.186643, -0.44626144, 8.151151, 0.33759022, -0.35473657, 10.231089
778364822080043, 6.0550375, -1.4835501, 7.7874413, -0.35556746, 0.47381008, 9.957796
778364831719418, 6.2404814, -0.19381863, 8.147561, 0.43535852, -0.5991008, 10.237942
778364841358793, 6.000003, -1.599602, 7.7814593, -0.37756157, 0.6042081, 9.929866
778364850998168, 6.216553, -0.2727818, 7.98126, 0.3050189, -0.5724361, 10.099492
778364860637543, 6.0454664, -1.3998013, 7.884351, -0.23897028, 0.44302046, 10.020815
778364870276918, 6.161518, -0.6305088, 7.8687973, 0.084798336, -0.27303886, 10.0099
778364879916293, 6.096912, -0.9726824, 8.036295, 0.039734364, 0.09462333, 10.133604
778364889555668, 6.1196437, -1.1018949, 7.7611203, -0.19507647, 0.12315905, 9.942131
778364899195148, 6.1854467, -0.53240305, 8.129615, 0.26652288, -0.2999184, 10.221197
778364908834523, 6.038288, -1.5290136, 7.751549, -0.36762714, 0.51710844, 9.923847
778364918473898, 6.233303, -0.23330021, 8.160722, 0.41723967, -0.56692004, 10.2474575
778364928113273, 6.02752, -1.6199409, 7.7994056, -0.38968754, 0.61443734, 9.962758
778364937752648, 6.2057858, -0.2536392, 8.018349, 0.33757782, -0.5655687, 10.121078
778364947392023, 6.033502, -1.4045869, 7.8963146, -0.22037935, 0.4543357, 10.023613
778364957031398, 6.1974106, -0.5192425, 7.9334035, 0.16619015, -0.35830927, 10.072756
778364966670773, 6.1005015, -0.9631111, 8.04108, 0.053018093, 0.08058977, 10.138706
778364976310148, 6.096912, -1.0145568, 7.7443705, -0.1410265, 0.04896903, 9.907303
778364985949523, 6.195018, -0.54675996, 8.05783, 0.22569561, -0.30379868, 10.171656
778364995588898, 6.0598235, -1.4596218, 7.702496, -0.38426256, 0.43271148, 9.891688
778365005228273, 6.2033925, -0.28235307, 8.135597, 0.4051218, -0.51012635, 10.213982
778365014867648, 6.0083776, -1.6642082, 7.813762, -0.40569305, 0.65882003, 9.966267
778365024507023, 6.216553, -0.27996024, 8.070991, 0.34741926, -0.5315311, 10.171606
778365034146398, 6.026324, -1.5050855, 7.908279, -0.26285505, 0.5372901, 10.038176
778365043785773, 6.155536, -0.53599226, 7.9393854, 0.18565941, -0.3194499, 10.0536175
778365053425252, 6.0753765, -1.0636097, 8.031509, 0.0034427643, 0.18047118, 10.124922
778365063064627, 6.1244297, -0.9619147, 7.7886376, -0.105563164, 0.004604101, 9.954176
778365072704002, 6.172286, -0.5814559, 8.087741, 0.24475479, -0.25318384, 10.184436
778365082343377, 6.07418, -1.3998013, 7.713264, -0.35196638, 0.36719477, 9.904081
778365091982752, 6.2237315, -0.2620141, 8.130812, 0.4070592, -0.5287509, 10.220975
778365101622127, 6.0227346, -1.6151553, 7.7671022, -0.4016037, 0.58489275, 9.935117
778365111261502, 6.2321067, -0.22372891, 8.04108, 0.37527943, -0.5873432, 10.151964
778365120900877, 6.0454664, -1.4871392, 7.8592257, -0.28294563, 0.49770367, 10.009941
778365130540252, 6.1914287, -0.47138608, 7.9393854, 0.20255089, -0.3952484, 10.069388
778365140179627, 6.06102, -1.125823, 8.018349, -0.016697407, 0.22788191, 10.111635
778365149819002, 6.1196437, -0.9738788, 7.786245, -0.10714245, 0.017545938, 9.950494
778365159458377, 6.166304, -0.69272214, 8.087741, 0.1777463, -0.16838932, 10.190918
778365169097856, 6.0526447, -1.4057833, 7.7503524, -0.3085389, 0.40270913, 9.920752
778365178737231, 6.1938214, -0.3062813, 8.178668, 0.41060305, -0.48005795, 10.244452
778365188376606, 6.013163, -1.6211374, 7.7910304, -0.37191343, 0.6100614, 9.948662
778365198015981, 6.2512493, -0.2213361, 8.069795, 0.36745834, -0.59839034, 10.186049
778365207655356, 6.0514483, -1.5194423, 7.8424764, -0.3180375, 0.5283835, 10.002642
778365217294731, 6.2464633, -0.424726, 7.944171, 0.19852924, -0.46947932, 10.101917
778365226934106, 6.111269, -1.1629118, 7.9980097, -0.08201265, 0.23577404, 10.129454
778365236573481, 6.142376, -0.9020941, 7.780263, -0.081448555, -0.06158352, 9.953121
778365246212856, 6.141179, -0.7262217, 8.045866, 0.16129065, -0.13582349, 10.14559
778365255852231, 6.081359, -1.3663018, 7.7204423, -0.32547474, 0.33822954, 9.911338
778365265491606, 6.2033925, -0.37567315, 8.153543, 0.37403536, -0.43700528, 10.235848
778365275131085, 6.01436, -1.6342978, 7.771888, -0.3968544, 0.61498, 9.935291
778365284770460, 6.2321067, -0.22253251, 8.072187, 0.39293385, -0.60358834, 10.174976
778365294409835, 6.0119667, -1.5349957, 7.8149586, -0.31434155, 0.5465101, 9.958717
778365304049210, 6.196214, -0.39361933, 7.954939, 0.25586176, -0.4733007, 10.076685
778365313688585, 6.094519, -1.18684, 8.008778, -0.0716424, 0.2566141, 10.130216
778365323327960, 6.1567326, -0.8063812, 7.847262, -6.0606E-4, -0.12708163, 10.005947
778365332967335, 6.148358, -0.73340017, 8.0614195, 0.16185331, -0.13174725, 10.16283
778365342606710, 6.06102, -1.3112668, 7.708478, -0.28953838, 0.3011191, 9.884408
778365352246189, 6.2057858, -0.37208393, 8.155936, 0.36442518, -0.43401766, 10.239548
778365361885564, 6.0227346, -1.5972091, 7.8113694, -0.35894632, 0.5851754, 9.968482
778365371524939, 6.2177496, -0.22851457, 8.12124, 0.42356682, -0.5750661, 10.205737
778365381164314, 6.0023956, -1.5924234, 7.8173513, -0.3473425, 0.59812725, 9.959776
778365390803689, 6.2344995, -0.37328035, 7.9513497, 0.23568821, -0.5103283, 10.095361
778365400443064, 6.0801625, -1.3483555, 7.9477606, -0.18759441, 0.39109623, 10.087873
778365410082439, 6.181857, -0.73100734, 7.9106717, 0.06444979, -0.19025111, 10.064199
778365419721814, 6.1447687, -0.9726824, 7.893922, -0.054978848, 0.027428389, 10.050599
778365429361293, 6.135197, -0.91405827, 7.928618, 0.0022640228, -0.00809598, 10.0667305
778365439000668, 6.1100726, -0.9487542, 7.9022965, -0.01520443, 0.026456833, 10.033868
778365448640043, 6.1196437, -0.92482597, 7.9106717, -0.003976822, 0.00401783, 10.044106
778365458279418, 6.1005015, -0.92482597, 7.9429746, 0.02687931, 0.021833897, 10.057888
778365467918793, 6.1196437, -0.9068798, 7.9561353, 0.031247616, 0.0012989044, 10.078273
778365477558168, 6.1363935, -0.9068798, 7.9501534, 0.016299248, -0.007275343, 10.083768
778365487197543, 6.142376, -0.89491564, 7.9393854, 0.011650085, -0.022326231, 10.077841
778365496836918, 6.1471615, -0.89013004, 7.938189, 0.010181904, -0.028862119, 10.079377
778365506476398, 6.1387863, -0.9068798, 7.9393854, 0.007866859, -0.00955832, 10.076747
778365516115773, 6.1531434, -0.9236295, 7.9501534, -0.0045576096, 0.00228405, 10.095504
778365525755148, 6.1447687, -0.94755775, 7.946564, -0.012909412, 0.02579081, 10.089754
778365535394523, 6.1196437, -0.9559326, 7.9346, -0.007675171, 0.041375995, 10.065782
778365545033898, 6.1040907, -0.95832545, 7.9106717, -0.012351036, 0.044389486, 10.037674
778365554673273, 6.0957155, -0.93320084, 7.911868, 0.006849766, 0.02567625, 10.031229
778365564312752, 6.1064835, -0.9128618, 7.9393854, 0.025986195, 0.009653211, 10.05761
778365573952127, 6.1184473, -0.9020941, 7.9597244, 0.034971237, -9.191036E-5, 10.079939
778365583591502, 6.148358, -0.90329057, 7.9573317, 0.0130229, -0.013547659, 10.096387
778365593230877, 6.1603217, -0.8913264, 7.940582, 0.0014615059, -0.033199906, 10.089389
778365602870252, 6.157929, -0.9056834, 7.9190464, -0.016480446, -0.024838448, 10.072277
778365612509627, 6.1567326, -0.91166544, 7.926225, -0.0146484375, -0.017349005, 10.077749
778365622149002, 6.1627145, -0.9200403, 7.9298143, -0.020185947, -0.011786103, 10.084986
778365631788481, 6.1447687, -0.92602235, 7.925029, -0.012981892, -4.8160553E-4, 10.070828
778365641427856, 6.1304116, -0.92243314, 7.9154572, -0.0060510635, -2.040863E-4, 10.054217
778365651067231, 6.10768, -0.90448695, 7.925029, 0.024109364, -0.0044356585, 10.046259
778365660706606, 6.099305, -0.9128618, 7.9369926, 0.032642365, 0.00856936, 10.051347
778365670345981, 6.111269, -0.9284152, 7.928618, 0.012331009, 0.014713645, 10.053466
778365679985356, 6.117251, -0.93679005, 7.9393854, 0.009782314, 0.021906495, 10.06636
778365689624835, 6.1304116, -0.93559366, 7.9238324, -0.008155346, 0.012210727, 10.062017
778365699264210, 6.141179, -0.9415757, 7.920243, -0.020427704, 0.012678981, 10.066296
778365708903585, 6.148358, -0.94396853, 7.9298143, -0.020877838, 0.013932705, 10.078427
778365718542960, 6.15434, -0.9236295, 7.9334035, -0.011820793, -0.004497409, 10.08304
778365728182335, 6.125626, -0.91525465, 7.9393854, 0.014750481, 0.001899004, 10.069489
778365737821710, 6.105287, -0.9176475, 7.958528, 0.03901148, 0.017076492, 10.072387
778365747461189, 6.10768, -0.8985049, 7.969296, 0.054070473, -1.4460087E-4, 10.080566
778365757100564, 6.113662, -0.89730847, 7.9704924, 0.05172634, -0.004188895, 10.085043
778365766739939, 6.125626, -0.90089774, 7.948957, 0.02970314, -0.01108706, 10.075706
778365776379314, 6.1387863, -0.90329057, 7.9154572, 5.021095E-4, -0.022691011, 10.057564
778365786018689, 6.1603217, -0.8913264, 7.8891363, -0.023085117, -0.048529506, 10.0488615
778365795658168, 6.1806607, -0.8997013, 7.885547, -0.042590618, -0.04923284, 10.059208
778365805297543, 6.1806607, -0.90807617, 7.880761, -0.04942894, -0.043127418, 10.056207
778365814936918, 6.151947, -0.91525465, 7.899904, -0.025218964, -0.015754223, 10.054439
778365824576293, 6.113662, -0.9296116, 7.928618, 0.009297371, 0.020293117, 10.055024
778365834215668, 6.108876, -0.9403793, 7.9334035, 0.007613182, 0.034201503, 10.056856
778365843855148, 6.1064835, -0.95832545, 7.9561353, 0.0100803375, 0.05704105, 10.074933
778365853494523, 6.1292152, -0.94396853, 7.9573317, -0.0020809174, 0.037830114, 10.088411
778365863133898, 6.1507506, -0.930808, 7.944171, -0.018703938, 0.015935779, 10.089964
778365872773273, 6.1507506, -0.90448695, 7.926225, -0.015981674, -0.011189938, 10.073456
778365882412648, 6.1531434, -0.9128618, 7.9334035, -0.01799202, -0.001161933, 10.081322
778365892052127, 6.175875, -0.8925229, 7.952546, -0.012079239, -0.022520542, 10.108431
778365901691502, 6.1698933, -0.8817552, 7.938189, -0.010540009, -0.0321126, 10.092511
778365911330877, 6.161518, -0.89013004, 7.941778, -0.0062003136, -0.020370126, 10.090986
778365920970252, 6.122037, -0.9200403, 7.932207, 5.803108E-4, 0.019576669, 10.062075
778365930609627, 6.1040907, -0.93559366, 7.948957, 0.013766766, 0.04517007, 10.065731
778365940249106, 6.081359, -0.9236295, 7.9429746, 0.03281927, 0.04151082, 10.046097
778365949888481, 6.0717874, -0.91405827, 7.9680996, 0.05978632, 0.04086232, 10.059198
778365959527856, 6.1064835, -0.89730847, 7.9537425, 0.03911209, 0.004712343, 10.067511
778365969167231, 6.1028943, -0.8865408, 7.9310107, 0.03545904, -0.011389732, 10.0464325
778365978806606, 6.105287, -0.863809, 7.9011, 0.030220509, -0.041035175, 10.022249
778365988446085, 6.114858, -0.8769695, 7.90469, 0.020628452, -0.033950567, 10.032104
778365998085460, 6.1304116, -0.9020941, 7.928618, 0.011948109, -0.0134522915, 10.062723
778366007724835, 6.111269, -0.90448695, 7.9334035, 0.025876045, -0.0017796755, 10.055045
778366017364210, 6.113662, -0.9020941, 7.938189, 0.026014328, -0.003952861, 10.060059
778366027003689, 6.108876, -0.91525465, 7.938189, 0.022567272, 0.009511471, 10.058345
778366036643064, 6.1268225, -0.9164511, 7.9334035, 0.0059251785, 0.0013724566, 10.065621
778366046282439, 6.1208405, -0.93320084, 7.9298143, -0.002020359, 0.017764568, 10.060677
778366055921814, 6.131608, -0.9200403, 7.958528, 0.013672352, 0.008418083, 10.088658
778366065561189, 6.151947, -0.9272188, 7.9513497, -0.007473469, 0.003554821, 10.096043
778366075200668, 6.157929, -0.9236295, 7.9226356, -0.026214123, -0.009203196, 10.076734
778366084840043, 6.1698933, -0.9272188, 7.9094753, -0.041817665, -0.016132236, 10.073982
778366094479418, 6.15434, -0.92602235, 7.9011, -0.035714626, -0.012333274, 10.057802
778366104118793, 6.155536, -0.93559366, 7.8963146, -0.042069435, -0.0069309473, 10.055641
778366113758273, 6.142376, -0.93679005, 7.90469, -0.029222488, 0.0019011497, 10.054334
778366123397648, 6.142376, -0.94396853, 7.9070826, -0.028790474, 0.0071424246, 10.056885
778366133037023, 6.131608, -0.9391829, 7.938189, -6.246567E-4, 0.014757752, 10.07439
778366142676398, 6.1328044, -0.9212367, 7.9513497, 0.0153717995, 0.0013930798, 10.083835
778366152315773, 6.1124654, -0.92602235, 7.9274216, 0.012716293, 0.008839846, 10.053036
778366161955252, 6.1495543, -0.91884387, 7.920243, -0.012040615, -0.015883803, 10.069318
778366171594627, 6.1328044, -0.9296116, 7.9357963, 0.0028276443, 0.0049860477, 10.072353
778366181234002, 6.13759, -0.9020941, 7.920243, 0.0047564507, -0.024798393, 10.060488
778366190873377, 6.128019, -0.9020941, 7.946564, 0.02578926, -0.013806701, 10.075385
778366200512856, 6.1507506, -0.8997013, 7.9501534, 0.013027668, -0.025081515, 10.091845
778366210152231, 6.1387863, -0.90448695, 7.952546, 0.019826889, -0.015185714, 10.086881
778366219791606, 6.13759, -0.9092726, 7.9274216, 0.0019521713, -0.016171932, 10.066804
778366229430981, 6.1232333, -0.91166544, 7.905886, -0.001985073, -0.012939334, 10.041314
778366239070460, 6.1328044, -0.91525465, 7.9166536, -0.0043735504, -0.011186361, 10.055956
778366248709835, 6.1160545, -0.9487542, 7.926225, -0.0043563843, 0.027708173, 10.056366
778366258349210, 6.105287, -0.9607183, 7.944171, 0.0064311028, 0.04748845, 10.065043
778366267988585, 6.0981083, -0.9499506, 7.9310107, 0.009088993, 0.03818488, 10.049315
778366277628064, 6.1232333, -0.9272188, 7.914261, -0.0061073303, 0.0031700134, 10.049338
778366287267439, 6.1268225, -0.9056834, 7.914261, 0.001095295, -0.016469717, 10.049552
778366296906814, 6.1447687, -0.9176475, 7.9357963, -0.0048537254, -0.008417845, 10.078543
778366306546189, 6.1495543, -0.9164511, 7.9369926, -0.007033825, -0.011458278, 10.082291
778366316185668, 6.1567326, -0.9212367, 7.911868, -0.02808237, -0.01635015, 10.067306
778366325825043, 6.148358, -0.9068798, 7.9154572, -0.012179375, -0.024398208, 10.063721
778366335464418, 6.1399827, -0.9164511, 7.9238324, -0.0048508644, -0.010407805, 10.066095
778366345103793, 6.131608, -0.9176475, 7.928618, 0.004088402, -0.0048931837, 10.064871
778366354743273, 6.117251, -0.91166544, 7.9154572, 0.009041786, -0.0069321394, 10.045209
778366364382648, 6.135197, -0.90329057, 7.9011, -0.005926132, -0.025586486, 10.044065
778366374022023, 6.131608, -0.9092726, 7.8927255, -0.010665417, -0.019964218, 10.035834
