timestamp_acc,device_acc_x,device_acc_y,device_acc_z,earth_acc_x,earth_acc_y,earth_acc_z
516456365273178, 5.2103715, -0.06699903, 8.58784, 0.025736868, -0.012963772, 10.04503
516456374911720, 5.2079782, -0.07298109, 8.513663, 0.035812467, 0.021399021, 9.980434
516456384550261, 5.2019963, -0.06819545, 8.510074, 0.030324489, 0.01854992, 9.974242
516456394188803, 5.2103715, -0.04426722, 8.543573, 0.005748987, 0.009579182, 10.007121
516456403827345, 5.221139, -0.025124637, 8.53161, -0.013425574, 0.030183792, 10.00241
516456413465886, 5.2199426, -0.040677983, 8.523234, 0.0022760332, 0.032691002, 9.994695
516456423104428, 5.1996036, 0.014356935, 8.596215, -0.055853724, -0.017323494, 10.046271
516456432742970, 5.2486563, 0.020338992, 8.68475, -0.06287451, -0.018761158, 10.147384
516456442381407, 5.2630134, -0.04546363, 8.724232, 0.0031951964, -0.02747202, 10.188859
516456452019949, 5.21755, -0.07058827, 8.688339, 0.02926889, -0.046700954, 10.134693
516456461658491, 5.221139, -0.050249275, 8.657232, 0.011333257, -0.028355598, 10.109875
516456471297032, 5.231907, -0.06699903, 8.568698, 0.031747043, 0.022441864, 10.039841
516456480935574, 5.221139, -0.08015956, 8.499306, 0.04657483, 0.04846573, 9.974989
516456490574116, 5.2139606, -0.08015956, 8.469396, 0.04427758, 0.048972607, 9.945761
516456500212657, 5.2283173, -0.06699903, 8.453842, 0.032166928, 0.06992817, 9.939886
516456509851199, 5.258228, -0.022731815, 8.488539, -0.01505515, 0.078022, 9.984913
516456519489741, 5.2331033, 0.0071784677, 8.560323, -0.051668003, 0.021331787, 10.033017
516456529128282, 5.2019963, 0.0, 8.606983, -0.049698457, -0.02863121, 10.056722
516456538766720, 5.2438707, -0.043070808, 8.6548395, -0.0089228, -0.011253834, 10.119588
516456548405261, 5.237889, -0.021535404, 8.616554, -0.030277774, 0.0077171326, 10.08365
516456558043803, 5.231907, -0.0023928226, 8.709874, -0.051797077, -0.045069218, 10.16022
516456567682345, 5.1924253, -0.04426722, 8.672786, -0.009794384, -0.05989456, 10.108253
516456577320886, 5.2235317, -0.051445685, 8.641679, 0.0018381327, -0.017130852, 10.097835
516456586959428, 5.2331033, -0.023928227, 8.58784, -0.024312407, 0.01981926, 10.056638
516456596597970, 5.241478, -0.01794617, 8.482556, -0.026679218, 0.081133366, 9.970952
516456606236511, 5.2139606, -0.022731815, 8.445468, -0.02016607, 0.07290459, 9.925025
516456615875053, 5.1828537, -0.061016977, 8.512466, 0.015894368, 0.01031208, 9.966315
516456625513595, 5.2019963, -0.04426722, 8.569894, -0.0018277168, -0.00425148, 10.025258
516456635152136, 5.2055855, -0.02871387, 8.567501, -0.019927666, 0.0068535805, 10.024996
516456644790574, 5.2199426, -0.015553347, 8.605786, -0.034638584, 0.004462242, 10.065107
516456654429116, 5.218746, 0.0023928226, 8.690732, -0.055355906, -0.03599882, 10.13705
516456664067657, 5.2235317, -0.011964113, 8.758927, -0.04180211, -0.06496906, 10.197954
516456673706199, 5.2163534, -0.040677983, 8.717052, -0.012170434, -0.050923824, 10.158557
516456683344741, 5.2079782, -0.086141616, 8.608179, 0.04083371, -0.0042085648, 10.061289
516456692983282, 5.2079782, -0.09212367, 8.590233, 0.048163533, 3.876686E-4, 10.04596
516456702621824, 5.2031927, -0.083748795, 8.538788, 0.04101345, 0.0199337, 9.999453
516456712260366, 5.2019963, -0.046660043, 8.534002, 0.0030456632, 0.020628452, 9.994584
516456721898907, 5.221139, -0.02871387, 8.534002, -0.015191719, 0.03686714, 10.004435
516456731537449, 5.227121, -0.05383851, 8.555537, 0.009401932, 0.029859543, 10.026062
516456741175991, 5.2139606, -0.033499517, 8.565108, -0.012235656, 0.014638901, 10.027324
516456750814532, 5.224728, -0.0047856453, 8.602198, -0.04322037, 0.008550167, 10.064476
516456760453074, 5.227121, -0.013160525, 8.612965, -0.03485802, 0.0064783096, 10.074963
516456770091511, 5.1924253, -0.049052864, 8.609376, 7.690489E-5, -0.02141285, 10.054084
516456779730053, 5.2426744, -0.011964113, 8.624929, -0.03587261, 0.015838146, 10.093247
516456789368595, 5.21755, -0.05623133, 8.60459, 0.008684307, 0.0025324821, 10.063046
516456799007136, 5.2031927, -0.07178468, 8.636893, 0.02263236, -0.027231216, 10.083305
516456808645678, 5.2031927, -0.07058827, 8.616554, 0.021788642, -0.016613483, 10.065906
516456818284220, 5.1996036, -0.07776674, 8.562716, 0.030264586, 0.007874966, 10.018037
516456827922761, 5.2223353, -0.07058827, 8.518449, 0.024857894, 0.05072689, 9.991925
516456837561303, 5.197211, -0.062213387, 8.508878, 0.0131699, 0.03382063, 9.970685
516456847199845, 5.1625147, -0.040677983, 8.556734, -0.0127696395, -0.019411564, 9.993516
516456856838386, 5.2019963, -0.022731815, 8.575876, -0.031556964, 0.007557869, 10.030248
516456866476928, 5.1996036, -0.04546363, 8.53161, -0.009301543, 0.03037548, 9.9912615
516456876115470, 5.2079782, -0.03708875, 8.556734, -0.01975128, 0.027638435, 10.017035
516456885754011, 5.2402816, -0.01794617, 8.641679, -0.039957017, 0.012565136, 10.106321
516456895392553, 5.241478, -0.031106694, 8.699107, -0.03042975, -0.013796806, 10.156152
516456905031095, 5.2055855, -0.09571291, 8.72782, 0.031722456, -0.06305504, 10.162537
516456914669532, 5.224728, -0.08973085, 8.693125, 0.028364182, -0.027726173, 10.142716
516456924308074, 5.206782, -0.09092726, 8.611769, 0.031430304, -0.0011749268, 10.063816
516456933946616, 5.2079782, -0.0526421, 8.59143, -0.0058524013, 0.011753559, 10.046804
516456943585157, 5.1900325, -0.07178468, 8.553144, 0.013505518, 0.011279106, 10.004877
516456953223699, 5.194818, -0.03708875, 8.550752, -0.021800622, 0.017207623, 10.005104
516456962862241, 5.2031927, -0.032303106, 8.529217, -0.02572994, 0.03566742, 9.99099
516456972500782, 5.2079782, -0.047856454, 8.530413, -0.010090828, 0.037971973, 9.994585
516456982139324, 5.204389, -0.031106694, 8.55793, -0.028220356, 0.021796227, 10.016165
516456991777866, 5.209175, -0.046660043, 8.577073, -0.013130963, 0.015042782, 10.035113
516457001416407, 5.2031927, -0.076570325, 8.563912, 0.016950786, 0.015266895, 10.020935
516457011054949, 5.191229, -0.08853444, 8.565108, 0.028148502, 0.004951, 10.015836
516457020693491, 5.235496, -0.046660043, 8.620144, -0.014611959, 0.018931866, 10.085579
516457030332032, 5.2498527, -0.040677983, 8.650054, -0.020352513, 0.016581059, 10.118564
516457039970574, 5.191229, -0.0849452, 8.620144, 0.021642834, -0.021223545, 10.062903
516457049609116, 5.168497, -0.08853444, 8.597412, 0.025963664, -0.029232979, 10.031709
516457059247657, 5.1816573, -0.07058827, 8.572288, 0.009367526, -0.0051960945, 10.016913
516457068886199, 5.1720862, -0.07058827, 8.584251, 0.008130848, -0.01982975, 10.022195
516457078524636, 5.194818, -0.06460621, 8.57468, 0.0026155412, 0.005868435, 10.025738
516457088163178, 5.1936216, -0.0741775, 8.553144, 0.012121528, 0.016364098, 10.006751
516457097801720, 5.188836, -0.08015956, 8.534002, 0.017518014, 0.022259235, 9.987935
516457107440261, 5.2163534, -0.05383851, 8.590233, -0.009453148, 0.018096447, 10.050121
516457117078803, 5.2283173, 0.04546363, 8.669196, -0.11214927, -0.0069561005, 10.123226
516457126717345, 5.272585, 0.020338992, 8.678768, -0.08598, 0.02532196, 10.154485
516457136355886, 5.2342997, -0.02632105, 8.700303, -0.03701952, -0.019975185, 10.153428
516457145994428, 5.215157, -0.07298109, 8.623733, 0.011221051, 8.211136E-4, 10.078286
516457155632970, 5.2103715, -0.07776674, 8.59143, 0.020979881, 0.011938572, 10.048189
516457165271511, 5.157729, -0.0634098, 8.532805, 0.006453216, -0.002128601, 9.970705
516457174910053, 5.180461, -0.08973085, 8.487342, 0.03559105, 0.03852129, 9.943714
516457184548595, 5.178068, -0.08733802, 8.475378, 0.03338173, 0.042561054, 9.932226
516457194187136, 5.168497, -0.09451649, 8.510074, 0.03931044, 0.016060352, 9.957
516457203825678, 5.180461, -0.061016977, 8.52802, 0.001827091, 0.020360947, 9.978357
516457213464220, 5.2019963, -0.05383851, 8.586644, -0.008249819, 0.010834694, 10.0396185
516457223102761, 5.2163534, -0.020338992, 8.665607, -0.04353085, -0.016093254, 10.114413
516457232741199, 5.2259245, -0.015553347, 8.713464, -0.05080764, -0.029806137, 10.160291
516457242379741, 5.1960144, -0.08015956, 8.673982, 0.01376161, -0.036067963, 10.111453
516457252018282, 5.2031927, -0.11844472, 8.644072, 0.054768443, -0.015274525, 10.089796
516457261656824, 5.188836, -0.11844472, 8.592627, 0.05615583, -0.0033946037, 10.038332
516457271295366, 5.194818, -0.078963146, 8.5423765, 0.018460333, 0.029681206, 9.998166
516457280933907, 5.206782, -0.049052864, 8.516056, -0.012830898, 0.05501747, 9.981633
516457290572449, 5.1756754, -0.05742774, 8.52443, -0.005748719, 0.023727417, 9.9727745
516457300210991, 5.1720862, -0.043070808, 8.565108, -0.022917002, 0.0011782646, 10.005642
516457309849532, 5.1756754, -0.033499517, 8.596215, -0.036167443, -0.0077910423, 10.034057
516457319488074, 5.1876397, -0.014356935, 8.628518, -0.05598095, -0.011380196, 10.067764
516457329126616, 5.2031927, -0.0035892338, 8.656036, -0.0669772, -0.011737347, 10.099286
516457338765157, 5.18405, 0.0071784677, 8.679964, -0.078133255, -0.03912878, 10.109825
516457348403699, 5.2283173, -0.014356935, 8.65125, -0.050940514, 0.01204443, 10.108257
516457358042241, 5.2055855, -0.10887343, 8.603394, 0.051048607, 0.009563446, 10.056127
516457367680782, 5.2223353, -0.11844472, 8.573483, 0.062337607, 0.03878212, 10.039227
516457377319324, 5.2103715, -0.10767702, 8.510074, 0.05422905, 0.059011936, 9.978703
516457386957761, 5.2103715, -0.12562318, 8.4909315, 0.071279794, 0.06443596, 9.962452
516457396596303, 5.227121, 0.050249275, 8.507681, -0.104002014, 0.0794754, 9.984429
516457406234845, 5.063213, -0.6412765, 8.472985, 0.5774756, -0.08165407, 9.874144
516457415873386, 5.3036914, 0.45224348, 8.585447, -0.51869166, 0.13685894, 10.08741
516457425511928, 5.0416775, -0.465404, 8.669196, 0.3789043, -0.19165611, 10.030443
516457435150470, 5.2689953, 0.14476576, 8.630911, -0.21522196, 0.071920395, 10.110609
516457444789011, 5.0859447, 0.03589234, 8.72782, -0.12274596, -0.14066267, 10.099907
516457454427553, 5.24746, -0.3182454, 8.555537, 0.25592077, 0.057958603, 10.038202
516457464066095, 5.2031927, 0.5024927, 8.786445, -0.57617986, -0.030682087, 10.207565
516457473704636, 5.191229, -0.6149554, 8.566305, 0.5535592, -0.02179718, 10.020065
516457483343178, 5.3108697, 0.6855437, 8.702696, -0.7506721, 0.11506033, 10.18997
516457492981720, 5.0883374, -0.7692925, 8.49452, 0.7066976, -0.09176874, 9.906162
516457502620261, 5.2929235, 0.5024927, 8.553144, -0.5512092, 0.15347242, 10.054673
516457512258699, 4.9842496, -0.5479564, 8.519645, 0.47426784, -0.1767435, 9.87275
516457521897241, 5.255835, 0.11365908, 8.493324, -0.1656502, 0.12429237, 9.98651
516457531535782, 5.096712, -0.11365908, 8.605786, 0.038672894, -0.08175182, 10.002038
516457541174324, 5.2773705, -0.3385844, 8.478967, 0.27993718, 0.12147617, 9.988245
516457550812866, 5.1529436, 0.3912265, 8.720642, -0.46655744, -0.053071022, 10.1259575
516457560451407, 5.1816573, -0.6891329, 8.598608, 0.61225736, -0.04339409, 10.044092
516457570089949, 5.288138, 0.63888365, 8.786445, -0.7161511, 0.04658413, 10.249836
516457579728491, 5.056034, -0.79441714, 8.530413, 0.7248746, -0.117358685, 9.920852
516457589367032, 5.3156557, 0.5838487, 8.583055, -0.6512711, 0.16595697, 10.090304
516457599005574, 5.0679984, -0.47138608, 8.52443, 0.39197668, -0.081180096, 9.920308
516457608644116, 5.326423, 0.22372891, 8.519645, -0.28359044, 0.18794394, 10.044374
516457618282657, 5.078766, -0.058624156, 8.672786, -0.02076742, -0.12543678, 10.049792
516457627921199, 5.2689953, -0.27158538, 8.544769, 0.20874837, 0.09019852, 10.039793
516457637559636, 5.1625147, 0.3493521, 8.760123, -0.43098074, -0.06382322, 10.164819
516457647198178, 5.1457653, -0.70348984, 8.560323, 0.627266, -0.05324602, 9.992829
516457656836720, 5.229514, 0.59342, 8.723035, -0.6601429, 0.031615257, 10.166344
516457666475261, 5.0452666, -0.81834537, 8.506484, 0.7370173, -0.1168623, 9.895849
516457676113803, 5.2809596, 0.5419743, 8.573483, -0.6101238, 0.14548683, 10.0644655
516457685752345, 5.0129633, -0.58265233, 8.523234, 0.5075348, -0.1396122, 9.891295
516457695390886, 5.328816, 0.24885355, 8.539984, -0.31263453, 0.18763828, 10.062632
516457705029428, 5.078766, -0.10767702, 8.648857, 0.027176738, -0.110132694, 10.029722
516457714667970, 5.3012986, -0.20458634, 8.520842, 0.14202482, 0.14214516, 10.035437
516457724306511, 5.1852465, 0.4031906, 8.72782, -0.4792536, -0.017244339, 10.148605
516457733945053, 5.1996036, -0.61854464, 8.547162, 0.55581367, 0.011222839, 10.008167
516457743583595, 5.2259245, 0.57188463, 8.725428, -0.64504576, 0.02987194, 10.166291
516457753222032, 5.040481, -0.8315059, 8.492127, 0.76465005, -0.12747192, 9.879937
516457762860574, 5.2869415, 0.58624154, 8.5938225, -0.64734447, 0.15255833, 10.084983
516457772499116, 5.032106, -0.5802595, 8.536395, 0.50042397, -0.13389254, 9.9126425
516457782137657, 5.2977095, 0.29671, 8.559127, -0.34493408, 0.15220833, 10.063313
516457791776199, 5.0548377, -0.15074782, 8.601001, 0.07916084, -0.11377382, 9.976578
516457801414741, 5.2630134, -0.19142582, 8.478967, 0.14074793, 0.123716354, 9.979666
516457811053282, 5.1409793, 0.2835495, 8.681161, -0.35191575, -0.040044308, 10.086981
516457820691824, 5.1673007, -0.6436693, 8.529217, 0.5781491, -0.021152973, 9.97638
516457830330366, 5.2534423, 0.60059845, 8.781659, -0.6733758, 0.030108929, 10.228518
516457839968907, 5.1050873, -0.81954175, 8.589037, 0.7526828, -0.113930225, 9.996281
516457849607449, 5.308477, 0.5802595, 8.705089, -0.6334226, 0.118947506, 10.192145
516457859245886, 5.023731, -0.6580262, 8.586644, 0.58646995, -0.16562319, 9.95138
516457868884428, 5.3276196, 0.33260235, 8.560323, -0.39167, 0.1803317, 10.079056
516457878522970, 5.0536413, -0.19501504, 8.59143, 0.1227926, -0.11309242, 9.968056
516457888161511, 5.255835, -0.13280165, 8.449057, 0.07749167, 0.14097786, 9.94998
516457897800053, 5.1003013, 0.276371, 8.597412, -0.34518608, -0.04070902, 9.9942045
516457907438595, 5.168497, -0.5766702, 8.462217, 0.5126188, 0.02966547, 9.919243
516457917077136, 5.2199426, 0.6113662, 8.738588, -0.68617094, 0.012969017, 10.17416
516457926715678, 5.096712, -0.7537391, 8.559127, 0.68691766, -0.09285736, 9.966082
516457936354220, 5.3144593, 0.64965135, 8.688339, -0.70703006, 0.11930132, 10.1803055
516457945992761, 5.046463, -0.63888365, 8.543573, 0.5586097, -0.11691952, 9.9268265
516457955631199, 5.3407803, 0.40438703, 8.579466, -0.4651858, 0.18858147, 10.10162
516457965269741, 5.0679984, -0.2548356, 8.677571, 0.1735579, -0.13964987, 10.049885
516457974908282, 5.237889, -0.13519448, 8.605786, 0.072409034, 0.052295685, 10.074986
516457984546824, 5.081159, 0.17108682, 8.745767, -0.24796145, -0.13283205, 10.112207
516457994185366, 5.150551, -0.6089734, 8.525627, 0.54249483, -0.012024879, 9.964482
516458003823907, 5.1852465, 0.5455636, 8.7780695, -0.6207763, -0.042496204, 10.190768
516458013462449, 5.1050873, -0.78843504, 8.592627, 0.7136415, -0.092161655, 9.999951
516458023100991, 5.2929235, 0.6472585, 8.642876, -0.70068645, 0.12890291, 10.130435
516458032739428, 5.0189457, -0.7082755, 8.4705925, 0.6465349, -0.096646786, 9.849623
516458042377970, 5.3012986, 0.38165522, 8.502895, -0.43084604, 0.18580008, 10.016411
516458052016511, 5.0392847, -0.31585258, 8.548359, 0.24187985, -0.098323345, 9.924739
516458061655053, 5.2773705, -0.061016977, 8.484949, 0.0060600936, 0.15403843, 9.991243
516458071293595, 5.1266227, 0.20817557, 8.673982, -0.2793268, -0.054447174, 10.073855
516458080932136, 5.227121, -0.4833502, 8.513663, 0.42773432, 0.063323975, 9.992594
516458090570678, 5.1876397, 0.58504516, 8.758927, -0.65126777, -0.009777069, 10.175877
516458100209220, 5.076373, -0.7573284, 8.568698, 0.6945935, -0.10102844, 9.963585
516458109847761, 5.271388, 0.6759724, 8.721839, -0.7433518, 0.0829401, 10.186045
516458119486199, 5.0596237, -0.6999006, 8.609376, 0.6345086, -0.13437605, 9.989512
516458129124741, 5.332405, 0.41994038, 8.644072, -0.48113194, 0.1546917, 10.152609
516458138763282, 5.032106, -0.36011982, 8.670393, 0.2902959, -0.1655178, 10.025759
516458148401824, 5.258228, -0.0011964113, 8.573483, -0.05612114, 0.10262585, 10.056833
516458158040366, 5.1003013, 0.12323037, 8.6345005, -0.19033444, -0.056755066, 10.027134
516458167678907, 5.191229, -0.5204389, 8.400003, 0.4725549, 0.10359144, 9.876525
516458177317449, 5.188836, 0.49052864, 8.601001, -0.5431088, 0.062232018, 10.042062
516458186955991, 5.1218367, -0.7465607, 8.416754, 0.6880473, 0.009819984, 9.856918
516458196594532, 5.2869415, 0.70229346, 8.663215, -0.7586727, 0.13903809, 10.144031
516458206232970, 5.0572305, -0.6855437, 8.58784, 0.62749493, -0.11865139, 9.969391
516458215871511, 5.2953167, 0.47736812, 8.711071, -0.5225074, 0.10997248, 10.191463
516458225510053, 5.0129633, -0.39601216, 8.755338, 0.32776508, -0.22023392, 10.088936
516458235148595, 5.2534423, 0.0, 8.636893, -0.04934317, 0.07363033, 10.108746
516458244787136, 4.9986067, 0.046660043, 8.707481, -0.116265565, -0.17356443, 10.03817
516458254425678, 5.1625147, -0.465404, 8.495717, 0.4150426, 0.041621685, 9.943409
516458264064220, 5.1756754, 0.5180461, 8.687142, -0.58093965, 0.018229961, 10.108641
516458273702657, 5.089534, -0.72741807, 8.507681, 0.66467226, -0.037955284, 9.9181595
516458283341199, 5.2534423, 0.68075806, 8.689535, -0.74154186, 0.09946585, 10.1494
516458292979741, 5.048856, -0.7322037, 8.556734, 0.66283095, -0.10005045, 9.939588
516458302618282, 5.316852, 0.51206404, 8.59143, -0.55454314, 0.18737125, 10.099564
516458312256824, 5.0177493, -0.41635114, 8.597412, 0.344407, -0.13115406, 9.956447
516458321895366, 5.2749777, 0.09212367, 8.52802, -0.13742653, 0.15711069, 10.025839
516458331533907, 5.048856, 0.062213387, 8.626125, -0.12894619, -0.08389568, 9.994057
516458341172449, 5.2008, -0.38883367, 8.480164, 0.33752176, 0.093827724, 9.94937
516458350810886, 5.1493545, 0.48215377, 8.750552, -0.54536116, -0.023478031, 10.150002
516458360449428, 5.1182475, -0.71665037, 8.636893, 0.65561175, -0.0758996, 10.043426
516458370087970, 5.2438707, 0.65922266, 8.822337, -0.7178559, 0.022808552, 10.259169
516458379726511, 5.0249276, -0.762114, 8.626125, 0.69922173, -0.15202522, 9.986427
516458389365053, 5.2905307, 0.485743, 8.644072, -0.5427288, 0.15095568, 10.130564
516458399003595, 4.9842496, -0.50009996, 8.602198, 0.43455374, -0.16102171, 9.943636
516458408642136, 5.2534423, 0.12323037, 8.554341, -0.17035118, 0.13715982, 10.03707
516458418280678, 5.015356, -0.019142581, 8.666803, -0.05305749, -0.13150978, 10.012369
516458427919220, 5.1720862, -0.38404804, 8.506484, 0.32731566, 0.060990334, 9.957277
516458437557657, 5.1421757, 0.45224348, 8.706285, -0.5238935, -0.0026664734, 10.107988
516458447196199, 5.133801, -0.6628119, 8.512466, 0.59610605, -8.969307E-4, 9.944948
516458456834741, 5.2402816, 0.6999006, 8.705089, -0.7666291, 0.101974964, 10.155335
516458466473282, 5.0368915, -0.77647096, 8.518449, 0.70168984, -0.086111546, 9.9013815
516458476111824, 5.288138, 0.5491528, 8.618947, -0.59783465, 0.1704855, 10.107708
516458485750366, 5.0009995, -0.50129634, 8.615358, 0.43030077, -0.14882135, 9.963855
516458495388907, 5.2773705, 0.2009971, 8.623733, -0.26072302, 0.1408062, 10.108015
516458505027345, 5.011767, -0.086141616, 8.766106, 0.010357022, -0.1815691, 10.0963745
516458514665886, 5.1756754, -0.35294133, 8.592627, 0.29052988, 0.028697014, 10.032955
516458524304428, 5.109873, 0.37447673, 8.831908, -0.45237917, -0.09798527, 10.19997
516458533942970, 5.1182475, -0.6975078, 8.608179, 0.6261859, -0.04811287, 10.019446
516458543581511, 5.178068, 0.64606214, 8.768498, -0.70806146, 0.0097231865, 10.17914
516458553220053, 5.0129633, -0.7513463, 8.553144, 0.6749226, -0.12185955, 9.918682
516458562858595, 5.2546387, 0.57906306, 8.599805, -0.6369495, 0.15853691, 10.073347
516458572497032, 4.975875, -0.5515456, 8.518449, 0.4795957, -0.11338425, 9.868365
516458582135574, 5.271388, 0.20697916, 8.463413, -0.25775346, 0.21851921, 9.967224
516458591774116, 5.0536413, -0.124426775, 8.568698, 0.05995387, -0.045485497, 9.948452
516458601412657, 5.2486563, -0.2727818, 8.508878, 0.22073895, 0.14249706, 9.997739
516458611051199, 5.1254263, 0.34456646, 8.805588, -0.42125145, -0.07177687, 10.185505
516458620689741, 5.1326046, -0.67118675, 8.662018, 0.60478026, -0.06587553, 10.072468
516458630328282, 5.2103715, 0.6233303, 8.908479, -0.69150794, -0.024898052, 10.315945
516458639966824, 5.0105705, -0.83748794, 8.681161, 0.76557136, -0.19506693, 10.027245
516458649605261, 5.2534423, 0.5946164, 8.756535, -0.6474464, 0.09879303, 10.2078495
516458659243803, 4.961518, -0.5838487, 8.583055, 0.50246227, -0.16873789, 9.916927
516458668882345, 5.2283173, 0.28115666, 8.530413, -0.3235479, 0.16299582, 10.002551
516458678520886, 5.005785, -0.08853444, 8.60459, 0.022640198, -0.09908819, 9.954617
516458688159428, 5.2199426, -0.17587246, 8.443074, 0.13245127, 0.15915489, 9.925794
516458697797970, 5.1146584, 0.37806597, 8.647661, -0.4378807, 0.008480072, 10.044546
516458707436511, 5.157729, -0.613759, 8.512466, 0.56259096, 0.041671753, 9.956039
516458717075053, 5.2342997, 0.6161518, 8.739784, -0.6789035, 0.08294582, 10.183004
516458726713491, 5.0656056, -0.8350951, 8.550752, 0.76665413, -0.06986952, 9.943865
516458736352032, 5.241478, 0.5814559, 8.71466, -0.63299423, 0.08676624, 10.166035
516458745990574, 4.9639106, -0.66041905, 8.675179, 0.58268577, -0.19848537, 9.997818
516458755629116, 5.2426744, 0.26081768, 8.713464, -0.3146903, 0.07419157, 10.167281
516458765267657, 5.0069814, -0.21535404, 8.788837, 0.13784918, -0.1901803, 10.114582
516458774906199, 5.2103715, -0.1794617, 8.641679, 0.11833401, 0.06364012, 10.091618
516458784544741, 5.1026945, 0.28115666, 8.750552, -0.35116076, -0.061204433, 10.127273
516458794183282, 5.1361938, -0.59581286, 8.525627, 0.53405464, 0.028995514, 9.956695
516458803821720, 5.156533, 0.63529444, 8.694321, -0.7012477, 0.031930447, 10.1040535
516458813460261, 5.040481, -0.73459655, 8.46461, 0.6810848, -0.032264233, 9.855495
516458823098803, 5.2666025, 0.65922266, 8.525627, -0.6998342, 0.21823597, 10.016016
516458832737345, 5.005785, -0.64247286, 8.457432, 0.5762035, -0.05240488, 9.831789
516458842375886, 5.2773705, 0.3074777, 8.571091, -0.35148787, 0.17865849, 10.062469
516458852014428, 4.985446, -0.28594232, 8.717052, 0.20879892, -0.18192053, 10.042248
516458861652970, 5.2163534, -0.16510476, 8.617751, 0.10709369, 0.07565689, 10.074029
516458871291511, 5.0679984, 0.21655045, 8.815159, -0.29132542, -0.12647581, 10.165512
516458880929949, 5.127819, -0.56350976, 8.691928, 0.49569583, -0.053346157, 10.095203
516458890568491, 5.1349974, 0.5886344, 8.9108715, -0.67052066, -0.087222576, 10.279159
516458900207032, 5.0189457, -0.77766734, 8.685946, 0.71053076, -0.14930439, 10.035593
516458909845574, 5.2438707, 0.6687939, 8.696713, -0.7342596, 0.12206793, 10.150087
516458919484116, 4.9974103, -0.6149554, 8.544769, 0.5399755, -0.0947299, 9.902769
516458929122657, 5.312066, 0.44626144, 8.580662, -0.49351916, 0.21351671, 10.087409
516458938761199, 5.0536413, -0.26799613, 8.580662, 0.20107731, -0.046411037, 9.959735
516458948399741, 5.2773705, -0.069391854, 8.449057, 0.025684416, 0.21942186, 9.959579
516458958038178, 5.1014977, 0.17228323, 8.602198, -0.23128037, 0.002972126, 9.999965
516458967676720, 5.1385865, -0.5587241, 8.46461, 0.50337464, 0.0650053, 9.905012
516458977315261, 5.123033, 0.51445687, 8.770891, -0.57458216, -0.055345535, 10.154087
516458986953803, 5.0189457, -0.8171489, 8.612965, 0.7448696, -0.12913418, 9.973424
516458996592345, 5.2127643, 0.6472585, 8.829515, -0.7223649, 0.024818897, 10.2484045
516459006230886, 4.9579287, -0.71306115, 8.748159, 0.635414, -0.24370146, 10.057668
516459015869428, 5.211568, 0.4127619, 8.803194, -0.48656455, 0.029883862, 10.226895
516459025507970, 4.9722853, -0.357727, 8.79482, 0.26616612, -0.23105907, 10.103277
516459035146511, 5.237889, -0.046660043, 8.596215, -0.00873667, 0.11977768, 10.065693
516459044785053, 5.0392847, 0.1268196, 8.62134, -0.19750197, -0.052467346, 9.9848
516459054423491, 5.176872, -0.465404, 8.38804, 0.41740412, 0.13034678, 9.858225
516459064062032, 5.188836, 0.5814559, 8.592627, -0.6354027, 0.122107506, 10.033778
516459073700574, 5.099105, -0.7106683, 8.446664, 0.65547705, 0.013955593, 9.870268
516459083339116, 5.2630134, 0.6867401, 8.63809, -0.73651683, 0.1617384, 10.110337
516459092977657, 5.0416775, -0.715454, 8.556734, 0.6503084, -0.090144634, 9.935644
516459102616199, 5.326423, 0.47976094, 8.694321, -0.5422343, 0.17811394, 10.191488
516459112254741, 4.983053, -0.38404804, 8.779266, 0.30313867, -0.22434855, 10.095129
516459121893282, 5.2103715, -0.0047856453, 8.737391, -0.063878566, 0.0260849, 10.17277
516459131531824, 5.0189457, 0.058624156, 8.835498, -0.14339897, -0.18448067, 10.15897
516459141170261, 5.144569, -0.4977071, 8.610572, 0.43464395, -0.0040516853, 10.033311
516459150808803, 5.1146584, 0.4953143, 8.804391, -0.5651725, -0.05957222, 10.17838
516459160447345, 5.069195, -0.7680961, 8.548359, 0.69706935, -0.051600933, 9.943468
516459170085886, 5.2199426, 0.66999036, 8.663215, -0.7223096, 0.11612511, 10.110033
516459179724428, 5.0344987, -0.7082755, 8.499306, 0.6489768, -0.067619324, 9.882321
516459189362970, 5.291727, 0.526421, 8.580662, -0.5800569, 0.2087574, 10.076071
516459199001511, 5.0045886, -0.37567315, 8.59143, 0.31085372, -0.11132383, 9.944379
516459208640053, 5.259424, 0.086141616, 8.541181, -0.13575289, 0.16099691, 10.028778
516459218278595, 5.06082, 0.062213387, 8.679964, -0.1317094, -0.07964945, 10.046584
516459227917136, 5.2008, -0.44626144, 8.507681, 0.39186168, 0.09702778, 9.973221
516459237555678, 5.15414, 0.44745782, 8.7469635, -0.5196489, -0.0011434555, 10.149124
516459247194220, 5.093123, -0.7609176, 8.618947, 0.6958802, -0.07452154, 10.015754
516459256832657, 5.2307105, 0.63170516, 8.837891, -0.70651925, 0.039585114, 10.264842
516459266471199, 5.011767, -0.7477571, 8.68475, 0.67640567, -0.17048359, 10.030716
516459276109741, 5.2462635, 0.5347959, 8.736196, -0.59225124, 0.093605995, 10.1868
516459285748282, 4.9698925, -0.42711884, 8.706285, 0.3518715, -0.20186186, 10.025824
516459295386824, 5.259424, 0.15074782, 8.620144, -0.20607808, 0.13554764, 10.096055
516459305025366, 5.0333023, 0.031106694, 8.641679, -0.097366035, -0.083593845, 9.999863
516459314663907, 5.2055855, -0.3696911, 8.398808, 0.3217668, 0.16093445, 9.881565
516459324302449, 5.1385865, 0.4438686, 8.606983, -0.5041095, 0.05490923, 10.021233
516459333940991, 5.1014977, -0.715454, 8.478967, 0.6550223, 0.0032105446, 9.899544
516459343579532, 5.218746, 0.6580262, 8.745767, -0.7115632, 0.061692715, 10.180698
516459353218074, 5.003392, -0.77407813, 8.647661, 0.7088158, -0.16667557, 9.994247
516459362856616, 5.3180485, 0.5694918, 8.792427, -0.6193136, 0.12357044, 10.2719965
516459372495053, 4.9902315, -0.5288138, 8.752945, 0.44817355, -0.21053839, 10.077248
516459382133595, 5.241478, 0.15553348, 8.685946, -0.20663, 0.08307457, 10.143637
516459391772136, 4.9986067, -0.043070808, 8.736196, -0.028808713, -0.16644192, 10.063822
516459401410678, 5.1589255, -0.3278167, 8.514859, 0.27472293, 0.0674119, 9.957148
516459411049220, 5.0979085, 0.39720857, 8.665607, -0.45601052, -0.020520687, 10.051411
516459420687761, 5.1062837, -0.6879365, 8.4909315, 0.6280575, 0.004971981, 9.912055
516459430326303, 5.2259245, 0.6664011, 8.719446, -0.73133934, 0.08258724, 10.160779
516459439964845, 5.0392847, -0.7716853, 8.586644, 0.6987288, -0.10594416, 9.960969
516459449603386, 5.2701917, 0.5838487, 8.723035, -0.6460856, 0.12164593, 10.186998
516459459241928, 4.9974103, -0.5599205, 8.660822, 0.48013473, -0.16795397, 10.001937
516459468880470, 5.2749777, 0.19621146, 8.596215, -0.2440284, 0.15635967, 10.083393
516459478519011, 5.0045886, -0.06580263, 8.681161, -0.010652214, -0.13323593, 10.019727
516459488157553, 5.2366924, -0.23688944, 8.530413, 0.18793133, 0.123357296, 10.00982
516459497796095, 5.1457653, 0.39481574, 8.763713, -0.45943046, -0.025189877, 10.160006
516459507434636, 5.111069, -0.6759724, 8.568698, 0.6101818, -0.03406191, 9.981437
516459517073178, 5.2055855, 0.63888365, 8.751749, -0.69589406, 0.04704714, 10.179044
516459526711720, 5.052445, -0.7692925, 8.57468, 0.69633245, -0.094343185, 9.957428
516459536350261, 5.2486563, 0.57427746, 8.668, -0.6262937, 0.109870434, 10.129565
516459545988803, 4.9567323, -0.613759, 8.595019, 0.5369919, -0.17111874, 9.924848
516459555627241, 5.2630134, 0.24765715, 8.598608, -0.297233, 0.13989782, 10.079126
516459565265782, 5.0069814, -0.13758731, 8.659625, 0.063608676, -0.13147402, 10.002829
516459574904324, 5.188836, -0.22372891, 8.555537, 0.16573757, 0.07361984, 10.006918
516459584542866, 5.1122656, 0.33379877, 8.799605, -0.4047542, -0.07733822, 10.173983
516459594181407, 5.1553364, -0.6520442, 8.656036, 0.5913483, -0.03424406, 10.078629
516459603819949, 5.2486563, 0.6125626, 8.857033, -0.68314373, 0.022983551, 10.290939
516459613458491, 5.0715876, -0.79441714, 8.650054, 0.73101395, -0.11933184, 10.031296
516459623097032, 5.2737813, 0.6089734, 8.715857, -0.671327, 0.11918259, 10.182577
516459632735574, 4.9842496, -0.61734825, 8.556734, 0.54221106, -0.13317251, 9.906051
516459642374116, 5.259424, 0.31944183, 8.541181, -0.36505997, 0.17072201, 10.027609
516459652012657, 5.0009995, -0.14237295, 8.592627, 0.07450333, -0.11219311, 9.9421015
516459661651199, 5.209175, -0.18305093, 8.437093, 0.13273871, 0.14387226, 9.915405
516459671289741, 5.087141, 0.30388847, 8.662018, -0.36970156, -0.044834614, 10.043067
516459680928282, 5.1696935, -0.59581286, 8.520842, 0.53935945, 0.039491177, 9.9696045
516459690566824, 5.237889, 0.6412765, 8.866604, -0.70511293, 0.0062556267, 10.293987
516459700205366, 5.099105, -0.76689965, 8.738588, 0.70041573, -0.1407032, 10.121341
516459709843907, 5.302495, 0.58983076, 8.825927, -0.6452906, 0.081662655, 10.292631
516459719482449, 5.0309095, -0.68075806, 8.6345005, 0.60581356, -0.13577509, 9.997131
516459729120991, 5.296513, 0.2955136, 8.584251, -0.34089586, 0.17458057, 10.083803
516459738759532, 4.9902315, -0.2548356, 8.575876, 0.18528843, -0.11744928, 9.922947
516459748398074, 5.2462635, -0.16510476, 8.46461, 0.11725664, 0.15820646, 9.957981
516459758036616, 5.072784, 0.22612174, 8.660822, -0.29817876, -0.0657382, 10.034985
516459767675157, 5.1122656, -0.587438, 8.514859, 0.525632, -0.009117603, 9.935129
516459777313699, 5.17089, 0.6221339, 8.805588, -0.69997454, -0.033987045, 10.206489
516459786952241, 5.0392847, -0.73340017, 8.644072, 0.65415394, -0.14016199, 10.010229
516459796590782, 5.2773705, 0.6855437, 8.773284, -0.7559516, 0.07761812, 10.232967
516459806229324, 5.020142, -0.6436693, 8.627322, 0.565974, -0.1388979, 9.985349
516459815867866, 5.302495, 0.39481574, 8.624929, -0.44735548, 0.1496563, 10.121226
516459825506407, 5.046463, -0.25603202, 8.672786, 0.18259054, -0.12544775, 10.034963
516459835144949, 5.312066, -0.062213387, 8.535198, 0.013067782, 0.179739, 10.051817
516459844783491, 5.1385865, 0.1794617, 8.626125, -0.2400804, -0.0017261505, 10.039407
516459854422032, 5.2019963, -0.55393845, 8.459825, 0.5006383, 0.08689594, 9.933683
516459864060574, 5.191229, 0.567099, 8.729017, -0.63623196, 0.011531353, 10.151911
516459873699116, 5.072784, -0.7932207, 8.565108, 0.73095256, -0.09433699, 9.958927
516459883337657, 5.2331033, 0.6161518, 8.71466, -0.68573534, 0.06979656, 10.160473
516459892976199, 4.9974103, -0.7262217, 8.586644, 0.6532849, -0.17556334, 9.938529
516459902614741, 5.276174, 0.41994038, 8.678768, -0.4762658, 0.1027832, 10.153718
516459912253282, 5.0105705, -0.2955136, 8.738588, 0.21443835, -0.20771694, 10.07308
516459921891824, 5.2606206, -0.025124637, 8.602198, -0.035984457, 0.099303246, 10.082728
516459931530366, 5.0751767, 0.13878371, 8.687142, -0.21455893, -0.090932846, 10.059264
516459941168907, 5.2103715, -0.5132605, 8.474181, 0.45785972, 0.080281734, 9.95023
516459950807449, 5.2031927, 0.5407779, 8.72782, -0.61302376, 0.0302701, 10.156959
516459960445991, 5.1266227, -0.7800602, 8.581859, 0.7168633, -0.060590744, 10.001076
516459970084532, 5.319245, 0.6628119, 8.744571, -0.71941984, 0.11109066, 10.2309
516459979723074, 5.0213385, -0.70588267, 8.567501, 0.6256692, -0.14360714, 9.934894
516459989361616, 5.3108697, 0.42951167, 8.595019, -0.48882508, 0.16834831, 10.099352
516459999000157, 5.023731, -0.3589234, 8.618947, 0.28958726, -0.14788055, 9.977335
516460008638803, 5.272585, 0.034695927, 8.57468, -0.089678094, 0.1109395, 10.065096
516460018277345, 5.087141, 0.13040884, 8.681161, -0.20341891, -0.09507847, 10.060226
516460027915886, 5.215157, -0.43908295, 8.560323, 0.37737432, 0.037810326, 10.026262
516460037554428, 5.186443, 0.506082, 8.8187475, -0.5812218, -0.05572939, 10.2266655
516460047192970, 5.087141, -0.77766734, 8.636893, 0.7118267, -0.13856411, 10.027652
516460056831511, 5.2845488, 0.64247286, 8.745767, -0.697688, 0.07696295, 10.214449
516460066470053, 5.063213, -0.77407813, 8.572288, 0.71244764, -0.12529802, 9.959725
516460076108595, 5.316852, 0.46061835, 8.6345005, -0.5092731, 0.13675356, 10.136942
516460085747136, 5.0452666, -0.40797627, 8.584251, 0.33298442, -0.13276386, 9.959018
516460095385678, 5.3144593, 0.076570325, 8.452646, -0.11639777, 0.19862223, 9.982163
516460105024220, 5.1349974, 0.07537391, 8.530413, -0.13430662, 5.2928925E-4, 9.956093
516460114662761, 5.2689953, -0.4019942, 8.40479, 0.35547686, 0.14480495, 9.920538
516460124301303, 5.2331033, 0.49651068, 8.669196, -0.552019, 0.050981045, 10.123218
516460133939845, 5.178068, -0.7369894, 8.537591, 0.67274773, -0.028093815, 9.989627
516460143578386, 5.296513, 0.66999036, 8.755338, -0.72337735, 0.06859207, 10.228876
516460153216928, 5.069195, -0.7286145, 8.644072, 0.66305476, -0.17339706, 10.023865
516460162855574, 5.3300123, 0.552742, 8.7673025, -0.61249715, 0.091825485, 10.2565365
516460172494116, 5.0009995, -0.4546363, 8.725428, 0.38815442, -0.24252462, 10.056854
516460182132657, 5.282156, 0.078963146, 8.612965, -0.13008003, 0.09329891, 10.10272
516460191771199, 5.0620165, 0.008374879, 8.618947, -0.07064566, -0.10540295, 9.994709
516460201409741, 5.221139, -0.36370903, 8.410771, 0.31854016, 0.11115217, 9.900496
516460211048282, 5.144569, 0.4534399, 8.597412, -0.5145279, 0.0061302185, 10.016131
516460220686824, 5.160122, -0.71665037, 8.467003, 0.6662813, 0.008939266, 9.919003
516460230325366, 5.2929235, 0.68195444, 8.706285, -0.73103374, 0.09454775, 10.185097
516460239963907, 5.0979085, -0.72382885, 8.586644, 0.6518779, -0.11243868, 9.99027
516460249602449, 5.345566, 0.5766702, 8.706285, -0.63159025, 0.14528799, 10.212102
516460259240991, 5.050052, -0.46899325, 8.763713, 0.39145297, -0.21572113, 10.115626
516460268879532, 5.3072805, 0.17347965, 8.733803, -0.22675687, 0.0643301, 10.218662
516460278518178, 5.058427, -0.040677983, 8.763713, -0.026026487, -0.17675543, 10.117315
516460288156720, 5.2307105, -0.3589234, 8.514859, 0.31912193, 0.0733819, 9.994237
516460297795261, 5.1673007, 0.40917268, 8.676374, -0.45796305, -0.0025954247, 10.096443
516460307433803, 5.1326046, -0.695115, 8.433503, 0.65508103, -0.0032773018, 9.875305
516460317072345, 5.2534423, 0.64606214, 8.611769, -0.68136513, 0.12012386, 10.084639
516460326710886, 5.066802, -0.7645068, 8.437093, 0.71901214, -0.055303574, 9.84487
516460336349428, 5.319245, 0.6113662, 8.578269, -0.64629877, 0.1749034, 10.089922
516460345987970, 5.020142, -0.50009996, 8.629715, 0.4303115, -0.17802572, 9.985341
516460355626511, 5.3144593, 0.21296121, 8.685946, -0.25488585, 0.10000038, 10.181332
516460365265053, 5.083552, -0.05742774, 8.817552, -0.011045158, -0.18157578, 10.176538
516460374903699, 5.2749777, -0.29072794, 8.671589, 0.24037598, 0.04727602, 10.151176
516460384542241, 5.1361938, -0.03708875, 8.768498, -0.01965946, -0.10572815, 10.161538
516460394180782, 5.1996036, -0.101694964, 8.653643, 0.051663876, 0.0031232834, 10.095993
516460403819324, 5.1673007, -0.06819545, 8.571091, 0.019806176, 0.017018318, 10.008427
516460413457866, 5.163711, -0.025124637, 8.52802, -0.021986693, 0.036496162, 9.969446
516460423096407, 5.150551, -0.0035892338, 8.547162, -0.044837832, 0.0169096, 9.9789715
516460432734949, 5.160122, 0.0059820567, 8.580662, -0.05599551, 0.007907391, 10.012565
516460442373491, 5.1816573, 0.02871387, 8.609376, -0.07848957, 0.013896465, 10.048154
516460452012136, 5.1900325, 0.0035892338, 8.68475, -0.054671735, -0.015094757, 10.11722
516460461650678, 5.2019963, -0.033499517, 8.685946, -0.016872585, -0.008592606, 10.124585
516460471289220, 5.191229, -0.083748795, 8.6345005, 0.036783785, 0.0073919296, 10.0751705
516460480927761, 5.2139606, -0.09092726, 8.636893, 0.048956037, 0.02543354, 10.08893
516460490566303, 5.2079782, -0.076570325, 8.62134, 0.034906656, 0.029296875, 10.072453
516460500204845, 5.18405, -0.09451649, 8.598608, 0.05359763, 0.017893314, 10.040728
516460509843491, 5.178068, -0.07537391, 8.584251, 0.03567761, 0.020429611, 10.025256
516460519482032, 5.1673007, -0.062213387, 8.590233, 0.021228284, 0.00859499, 10.024793
516460529120574, 5.168497, -0.039481573, 8.624929, -0.0037338734, -0.006807804, 10.055062
516460538759116, 5.1649075, -0.0023928226, 8.645268, -0.04320088, -0.017797947, 10.070489
516460548397657, 5.1457653, -0.0035892338, 8.646464, -0.044126213, -0.03421545, 10.061667
516460558036199, 5.157729, -0.0023928226, 8.688339, -0.045318022, -0.043629646, 10.103735
516460567674741, 5.1385865, -0.020338992, 8.681161, -0.027586281, -0.057610035, 10.087813
516460577313386, 5.1361938, -0.0634098, 8.623733, 0.018426329, -0.031118393, 10.037528
516460586951928, 5.1589255, -0.051445685, 8.589037, 0.009785771, 0.007937431, 10.019409
516460596590470, 5.1924253, -0.033499517, 8.610572, -0.007623732, 0.025804996, 10.055031
516460606229011, 5.197211, -0.04426722, 8.642876, 0.0023181736, 0.012669086, 10.085241
516460615867553, 5.1852465, -0.051445685, 8.646464, 0.0073884726, -0.0010056496, 10.082198
516460625506095, 5.2031927, -0.040677983, 8.635697, -0.0028145015, 0.021093369, 10.082148
516460635144741, 5.204389, -0.046660043, 8.603394, 0.004192412, 0.03841734, 10.055085
516460644783282, 5.1720862, -0.02632105, 8.599805, -0.017444551, 0.013842106, 10.035305
516460654421824, 5.1792645, -0.047856454, 8.611769, 0.004854977, 0.011063576, 10.049353
516460664060366, 5.1589255, -0.0634098, 8.58784, 0.020261556, 0.005133152, 10.018437
516460673698907, 5.1625147, -0.059820566, 8.628518, 0.015878454, -0.011796474, 10.055152
516460683337449, 5.174479, -0.032303106, 8.642876, -0.01157105, -0.0075445175, 10.0735
516460692976095, 5.168497, -0.039481573, 8.673982, -0.0058053136, -0.028000355, 10.097132
516460702614636, 5.1816573, -0.016749758, 8.711071, -0.028877765, -0.032710552, 10.135616
516460712253178, 5.2008, -0.032303106, 8.679964, -0.010167837, -9.6178055E-4, 10.118847
516460721891720, 5.1696935, -0.0526421, 8.645268, 0.010561168, -0.011145592, 10.073179
516460731530261, 5.1613183, -0.0634098, 8.612965, 0.021918505, -0.0024442673, 10.04121
516460741168907, 5.1589255, -0.06819545, 8.609376, 0.026699513, -0.0029482841, 10.036922
516460750807449, 5.157729, -0.038285162, 8.620144, -0.0041300952, -0.00794363, 10.045418
516460760445991, 5.1828537, -0.038285162, 8.645268, -0.00483571, 0.0011606216, 10.0798855
516460770084532, 5.1661043, -0.03708875, 8.657232, -0.006983146, -0.018283844, 10.081533
516460779723074, 5.194818, -0.031106694, 8.650054, -0.010355517, 0.011733055, 10.090109
516460789361720, 5.18405, -0.043070808, 8.6141615, 0.0034561604, 0.020252705, 10.053836
516460799000261, 5.1816573, -0.049052864, 8.617751, 0.009299949, 0.016198158, 10.05571
516460808638803, 5.1732826, -0.023928227, 8.62134, -0.014329374, 0.0060544014, 10.054386
516460818277345, 5.113462, -0.08135597, 8.580662, 0.04268092, -0.02555561, 9.988964
516460827915886, 5.1816573, -0.023928227, 8.663215, -0.015848696, -0.006632328, 10.09461
516460837554532, 5.176872, -0.011964113, 8.648857, -0.02764161, -0.0014123917, 10.079786
516460847193074, 5.1732826, -0.03589234, 8.633304, -0.002982363, 0.0040593147, 10.064693
516460856831616, 5.197211, -0.008374879, 8.6345005, -0.029795125, 0.024970531, 10.077905
516460866470157, 5.1960144, -0.031106694, 8.624929, -0.0050532967, 0.0271039, 10.06917
516460876108699, 5.1553364, -0.041874398, 8.605786, 0.0053991675, 9.918213E-4, 10.031888
516460885747345, 5.157729, -0.04546363, 8.605786, 0.009190768, 0.0035233498, 10.033131
516460895385886, 5.157729, -0.05383851, 8.611769, 0.017379582, -7.247925E-5, 10.038294
516460905024428, 5.15414, -0.0741775, 8.65125, 0.035072953, -0.022589684, 10.070404
516460914662970, 5.1589255, -0.06819545, 8.690732, 0.026702493, -0.037109375, 10.106725
516460924301616, 5.1792645, -0.046660043, 8.709874, 0.0049788654, -0.026641369, 10.133516
516460933940157, 5.139783, -0.038285162, 8.685946, -0.0045458972, -0.047076702, 10.092683
516460943578699, 5.144569, -0.023928227, 8.657232, -0.017573982, -0.027395248, 10.070442
516460953217241, 5.160122, -0.02871387, 8.616554, -0.010764092, 0.006512165, 10.043531
516460962855782, 5.15414, -0.02871387, 8.598608, -0.0101438165, 0.008871555, 10.025062
516460972494428, 5.163711, -0.023928227, 8.596215, -0.014476553, 0.018503666, 10.027903
516460982132970, 5.1625147, -0.010767702, 8.550752, -0.028248355, 0.043291092, 9.988211
516460991771511, 5.1996036, -0.040677983, 8.589037, 5.3060055E-4, 0.053728104, 10.04023
516461001410053, 5.206782, -0.06580263, 8.635697, 0.022305042, 0.033472538, 10.084075
516461011048699, 5.186443, -0.043070808, 8.683554, -0.0048164725, -0.007622242, 10.114597
516461020687241, 5.174479, -0.05503492, 8.691928, 0.0057896078, -0.022485733, 10.115698
516461030325782, 5.163711, -0.059820566, 8.678768, 0.010063589, -0.025428772, 10.0989
516461039964324, 5.1326046, -0.0526421, 8.671589, 0.0012997389, -0.047631264, 10.0767355
516461049602970, 5.131408, -0.06580263, 8.677571, 0.014593422, -0.05230999, 10.081318
516461059241511, 5.1649075, -0.058624156, 8.660822, 0.0101899505, -0.014615536, 10.084107
516461068880053, 5.1673007, -0.10049855, 8.609376, 0.054837883, 0.010855675, 10.041381
516461078518595, 5.174479, -0.069391854, 8.583055, 0.024491012, 0.032681465, 10.022335
516461088157241, 5.156533, -0.023928227, 8.597412, -0.02269873, 0.013827801, 10.0252285
516461097795782, 5.151747, -0.019142581, 8.620144, -0.03121531, -0.002811432, 10.04225
516461107434324, 5.1553364, -0.019142581, 8.632108, -0.031504035, -0.005861759, 10.0543585
516461117072866, 5.17089, -0.022731815, 8.647661, -0.0282301, 1.7738342E-4, 10.0757065
516461126711511, 5.1852465, -0.03589234, 8.663215, -0.014888108, 0.0035300255, 10.096491
516461136350053, 5.151747, -0.061016977, 8.652447, 0.008654714, -0.021176815, 10.070179
516461145988595, 5.1589255, -0.06819545, 8.689535, 0.0148662925, -0.034332275, 10.10573
516461155627136, 5.1792645, -0.07537391, 8.708678, 0.0221892, -0.027190685, 10.132637
516461165265782, 5.1409793, -0.08973085, 8.669196, 0.036014915, -0.040841103, 10.079172
516461174904324, 5.151747, -0.058624156, 8.640483, 0.00632149, -0.016088009, 10.059899
516461184542866, 5.150551, -0.016749758, 8.543573, -0.032917634, 0.032375813, 9.97592
516461194181511, 5.130212, -0.034695927, 8.484949, -0.013604581, 0.04415369, 9.915268
516461203820053, 5.188836, 0.019142581, 8.52802, -0.06635322, 0.073578835, 9.982068
516461213458595, 5.209175, 0.022731815, 8.569894, -0.07089582, 0.068915844, 10.028425
516461223097136, 5.209175, -0.0035892338, 8.548359, -0.044224054, 0.07799482, 10.010091
516461232735782, 5.204389, -0.0634098, 8.60459, 0.013920039, 0.04294634, 10.056173
516461242374324, 5.2103715, -0.07776674, 8.678768, 0.025717646, 0.0089325905, 10.122959
516461252012866, 5.198407, -0.09332009, 8.724232, 0.03819433, -0.024612904, 10.155899
516461261651407, 5.1266227, -0.10289137, 8.717052, 0.042855173, -0.08125973, 10.112933
516461271290053, 5.113462, -0.08015956, 8.707481, 0.019090235, -0.085157394, 10.097849
516461280928595, 5.1290154, -0.06460621, 8.696713, 0.0033390224, -0.06531, 10.09651
516461290567136, 5.1409793, -0.029910283, 8.662018, -0.030261323, -0.036124706, 10.07268
516461300205782, 5.127819, -0.02632105, 8.627322, -0.033422142, -0.030759811, 10.036127
516461309844324, 5.1361938, -0.015553347, 8.595019, -0.042703986, -0.0065865517, 10.012652
516461319482866, 5.1673007, -0.031106694, 8.586644, -0.024723575, 0.02225542, 10.0215435
516461329121407, 5.17089, -0.03708875, 8.560323, -0.0167664, 0.03828907, 10.000842
516461338760053, 5.1816573, -0.014356935, 8.622537, -0.040971667, 0.016921043, 10.059621
516461348398595, 5.215157, -0.051445685, 8.629715, -0.0020614564, 0.03930998, 10.0832
516461358037136, 5.1960144, -0.11006984, 8.62134, 0.056901664, 0.024178028, 10.066498