timestamp_acc,device_acc_x,device_acc_y,device_acc_z,earth_acc_x,earth_acc_y,earth_acc_z
516866809999372, 7.219146, -0.104087785, 7.007381, -0.016240485, -0.058405876, 10.061145
516866819639164, 7.2287173, -0.12083755, 6.9858456, 0.009360803, -0.031198502, 10.053354
516866829278955, 7.253842, -0.12323037, 6.9990063, 0.011396412, -0.023285866, 10.080616
516866838918747, 7.2849483, -0.06819545, 6.943971, -0.03569693, 0.040646553, 10.06434
516866848558539, 7.2502527, -0.043070808, 6.873383, -0.05958496, 0.067919254, 9.990158
516866858198226, 7.160522, -0.09092726, 6.8685975, -0.007172294, 0.010077953, 9.922642
516866867838018, 7.1389866, -0.11365908, 6.869794, 0.018798545, -0.006146431, 9.908165
516866877477810, 7.213164, -0.09212367, 6.879365, -0.00265643, 0.040492058, 9.968061
516866887117601, 7.2418776, -0.061016977, 6.910472, -0.03428974, 0.03863716, 10.010018
516866896757393, 7.2562346, -0.07178468, 7.0002027, -0.02813062, -0.019329548, 10.082647
516866906397185, 7.2969127, -0.104087785, 7.0325055, 0.004024312, -0.015063763, 10.134676
516866916036976, 7.2861447, -0.1052842, 7.0133634, 0.002463067, -0.0062146187, 10.113664
516866925676768, 7.2658057, -0.14117654, 7.0061846, 0.037196632, -0.013076305, 10.0944
516866935316560, 7.304091, -0.12801601, 6.9966135, 0.021171262, 0.021460533, 10.115229
516866944956351, 7.29452, -0.09332009, 7.038488, -0.014669176, -0.015129566, 10.136993
516866954596039, 7.301698, -0.19740787, 7.045666, 0.08928796, -0.013277531, 10.148254
516866964235830, 7.26102, -0.1160519, 7.045666, 0.008430347, -0.03942299, 10.118087
516866973875622, 7.237092, -0.029910283, 6.977471, -0.07989289, 0.0062646866, 10.052614
516866983515414, 7.2909307, -0.008374879, 6.98106, -0.09847442, 0.044355392, 10.093626
516866993155205, 7.2346992, -0.010767702, 6.9762745, -0.09497975, 0.009112358, 10.0498905
516867002794997, 7.1545396, -0.0741775, 6.9678993, -0.017546188, -0.047629356, 9.987091
516867012434789, 7.1270223, -0.11365908, 6.906883, 0.022163179, -0.022676945, 9.925291
516867022074580, 7.219146, -0.18664017, 6.7645097, 0.100206725, 0.14253044, 9.893389
516867031714372, 7.2179494, -0.1052842, 6.843473, 0.021080654, 0.08417988, 9.9466305
516867041354164, 7.1342006, 0.0047856453, 6.906883, -0.09130025, -0.027171612, 9.92939
516867050993851, 7.2263246, -0.07298109, 6.9344, -0.014174163, 0.01656866, 10.015514
516867060633643, 7.3232336, -0.08973085, 6.8853474, 0.0016014576, 0.1205039, 10.051434
516867070273435, 7.2873416, -0.15672988, 6.897311, 0.067803055, 0.08664513, 10.034475
516867079913226, 7.2646093, -0.1471586, 6.8985076, 0.059076943, 0.069416046, 10.0188465
516867089553018, 7.219146, -0.061016977, 6.9355965, -0.030697554, 0.012171745, 10.011053
516867099192810, 7.1413794, -0.058624156, 6.9894347, -0.039757162, -0.08583689, 9.992296
516867108832601, 7.133004, -0.1052842, 7.0600233, 0.0045381635, -0.1435256, 10.035645
516867118472393, 7.172486, -0.09571291, 7.0540414, -0.005246997, -0.11382294, 10.059833
516867128112185, 7.2358956, -0.06460621, 7.071987, -0.038472295, -0.08065891, 10.117676
516867137751872, 7.2550383, -0.041874398, 7.056434, -0.061665803, -0.054073334, 10.120468
516867147391664, 7.251449, -0.10767702, 7.015756, 0.006700054, -0.028553009, 10.090346
516867157031455, 7.2729845, -0.11964113, 6.9535427, 0.019577302, 0.03127432, 10.062854
516867166671247, 7.308877, -0.13399807, 6.914061, 0.034213, 0.08256531, 10.061507
516867176311039, 7.2993054, -0.1052842, 6.8853474, 0.0071147727, 0.092172146, 10.034462
516867185950830, 7.2658057, -0.09332009, 6.867401, -0.0034942813, 0.07715893, 9.997793
516867195590622, 7.251449, -0.08973085, 6.8853474, -0.0034844577, 0.045866013, 9.999873
516867205230414, 7.2382884, -0.09212367, 6.954739, 7.2857365E-5, -0.01703167, 10.038397
516867214870205, 7.274181, -0.17108682, 7.079166, 0.07899521, -0.0809021, 10.151096
516867224509997, 7.3495545, -0.22492532, 7.133004, 0.1270669, -0.06383753, 10.243341
516867234149685, 7.2753773, -0.11485548, 7.0815587, 0.018354066, -0.07948589, 10.153135
516867243789476, 7.2011995, -0.0023928226, 7.0528445, -0.09872587, -0.10544014, 10.078643
516867253429268, 7.2346992, -0.03708875, 7.0372915, -0.06701212, -0.06564665, 10.092418
516867263069060, 7.298109, -0.049052864, 6.9559355, -0.055647075, 0.041722775, 10.081914
516867272708851, 7.331609, -0.019142581, 6.9296145, -0.081995316, 0.08773279, 10.087517
516867282348643, 7.3232336, 0.0526421, 6.897311, -0.15325469, 0.10547876, 10.058371
516867291988435, 7.3399835, 0.04546363, 6.8865438, -0.13403237, 0.124155045, 10.063228
516867301628226, 7.3172517, -0.051445685, 6.9020967, -0.029344872, 0.095983505, 10.058514
516867311268018, 7.2466636, -0.1268196, 6.923632, 0.05104351, 0.031031132, 10.02314
516867320907705, 7.1916285, -0.15433706, 6.9523463, 0.079491556, -0.026369095, 10.003572
516867330547497, 7.1222367, -0.1160519, 6.957132, 0.03925696, -0.077056885, 9.956602
516867340187289, 7.0576305, -0.09810573, 6.9188466, 0.023717076, -0.08790922, 9.883417
516867349827080, 7.07438, -0.11485548, 6.9619174, 0.040852666, -0.10734272, 9.925479
516867359466872, 7.143772, -0.19740787, 6.983453, 0.124038026, -0.07647133, 9.990988
516867369106664, 7.227521, -0.15433706, 6.9535427, 0.08197458, 0.0051226616, 10.030249
516867378746455, 7.2957163, -0.11844472, 6.9344, 0.043787085, 0.06845808, 10.0658245
516867388386247, 7.322037, -0.11844472, 6.9702926, 0.03832148, 0.066581726, 10.109665
516867398025935, 7.2490563, -0.09451649, 6.9822564, 0.014287107, 0.0075068474, 10.065258
516867407665726, 7.186843, -0.078963146, 6.9583282, -0.004498206, -0.0079603195, 10.003759
516867417305518, 7.2095747, -0.09571291, 6.95115, 0.010390952, 0.016065598, 10.015251
516867426945310, 7.1784678, -0.06580263, 6.936793, -0.021272454, 0.0034322739, 9.982653
516867436585101, 7.160522, -0.025124637, 6.971489, -0.062144697, -0.033877373, 9.993516
516867446224893, 7.2263246, 0.0047856453, 6.995417, -0.09409016, -0.009806156, 10.057172
516867455864685, 7.3268228, -0.008374879, 7.01097, -0.08377255, 0.043750763, 10.140374
516867465504476, 7.342376, 0.0071784677, 7.0169525, -0.09969363, 0.05002737, 10.155577
516867475144268, 7.322037, -0.0023928226, 7.0061846, -0.09050375, 0.04493475, 10.133541
516867484783955, 7.301698, -0.0011964113, 6.9702926, -0.09159114, 0.060400486, 10.0939455
516867494423747, 7.2490563, -0.008374879, 6.9391856, -0.08413616, 0.045703888, 10.03454
516867504063539, 7.192825, -0.061016977, 6.943971, -0.030089602, 0.003762722, 9.997913
516867513703330, 7.1246295, -0.08135597, 6.8985076, -0.008867305, -0.014346123, 9.917463
516867523343122, 7.1270223, -0.11365908, 6.8925257, 0.023392787, -0.008268356, 9.915324
516867532982914, 7.155736, -0.2117648, 6.963114, 0.117987104, -0.046099186, 9.985907
516867542622705, 7.176075, -0.29072794, 7.0229344, 0.19176608, -0.073376656, 10.04291
516867552262393, 7.1425757, -0.19740787, 7.02772, 0.09879405, -0.10059309, 10.021195
516867561902185, 7.143772, -0.12921242, 7.004988, 0.023034703, -0.080061436, 10.005653
516867571541976, 7.2646093, -0.08255238, 6.983453, -0.035117373, 0.023292542, 10.077112
516867581181768, 7.3495545, -0.0634098, 6.957132, -0.05647819, 0.094827175, 10.119757
516867590821560, 7.372287, -0.05503492, 6.9738817, -0.06506729, 0.098689556, 10.147646
516867600461351, 7.361519, -0.040677983, 6.96431, -0.08102588, 0.07854414, 10.133236
516867610101143, 7.3495545, -0.104087785, 6.975078, -0.017334484, 0.062595844, 10.132833
516867619740830, 7.350751, -0.106480606, 6.9523463, -0.0145734325, 0.07391262, 10.118019
516867629380622, 7.3064837, -0.13280165, 6.9822564, 0.011561565, 0.021597862, 10.107109
516867639020414, 7.2873416, -0.17826529, 7.058827, 0.055352286, -0.04702425, 10.146867
516867648660205, 7.268199, -0.21655045, 7.0731835, 0.09160951, -0.06920147, 10.143489
516867658299997, 7.1425757, -0.18664017, 7.1042905, 0.05722315, -0.17804193, 10.074085
516867667939789, 7.1677003, -0.12801601, 7.07438, -0.007515885, -0.13394594, 10.070808
516867677579580, 7.210771, -0.11246266, 7.0408807, -0.023664728, -0.07961464, 10.078441
516867687219268, 7.183254, -0.20697916, 7.003792, 0.07202591, -0.07403803, 10.0341625
516867696859060, 7.1916285, -0.24885355, 6.960721, 0.11740484, -0.04100132, 10.010875
516867706498851, 7.204789, -0.2656033, 6.903293, 0.13758366, 8.7976456E-4, 9.980785
516867716138643, 7.2765737, -0.21535404, 6.8614187, 0.088613495, 0.08133316, 10.002975
516867725778435, 7.3028946, -0.16749759, 6.835098, 0.04082641, 0.11600828, 10.003187
516867735418226, 7.3064837, -0.11365908, 6.859026, -0.0145698935, 0.098528385, 10.021674
516867745058018, 7.281359, -0.09092726, 6.8518476, -0.041553594, 0.08309984, 9.9982815
516867754697705, 7.2705917, -0.06460621, 6.8506513, -0.07099867, 0.075731754, 9.989311
516867764337497, 7.2442703, -0.0741775, 6.8458657, -0.070228234, 0.06114292, 9.967053
516867773977289, 7.1856465, -0.1471586, 6.9009004, 0.0021550134, -0.019714832, 9.963797
516867783617080, 7.1820574, -0.17347965, 6.910472, 0.022639126, -0.029714108, 9.968212
516867793256872, 7.179664, -0.148355, 6.9044895, -0.01713933, -0.022837162, 9.961966
516867802896664, 7.1772714, -0.22612174, 6.9320073, 0.053015485, -0.042468548, 9.980603
516867812536351, 7.3100734, -0.18664017, 6.926025, 0.0046102256, 0.059551716, 10.071657
516867822176143, 7.3363943, -0.069391854, 6.9296145, -0.11964143, 0.08519602, 10.09086
516867831815935, 7.222735, -0.10887343, 6.946364, -0.08291902, 0.007525921, 10.021217
516867841455726, 7.312466, -0.19621146, 6.751349, 0.010073781, 0.20784855, 9.95229
516867851095518, 7.281359, -0.031106694, 6.896115, -0.16360334, 0.098772526, 10.026915
516867860735310, 7.1545396, -0.44985065, 6.7609205, 0.26157343, 0.09888458, 9.8499565
516867870374997, 7.2969127, 0.22731815, 7.0348988, -0.42618817, 0.0012426376, 10.129402
516867880014789, 7.288538, -0.88414794, 6.9116683, 0.69677246, 0.06790209, 10.059105
516867889654580, 7.4536424, 0.49052864, 7.239485, -0.6845637, -0.049146175, 10.37962
516867899294372, 7.2323065, -0.87936234, 7.01097, 0.6812682, -0.04887247, 10.08795
516867908934164, 7.4189467, 0.48454657, 7.2586274, -0.68017733, -0.08645058, 10.367888
516867918573955, 7.1820574, -0.58265233, 7.0396843, 0.39264312, -0.089594364, 10.065603
516867928213643, 7.2825556, 0.16151553, 7.1186476, -0.3369361, -0.07146788, 10.179304
516867937853435, 7.152147, -0.15074782, 7.0265236, -0.02232942, -0.089211464, 10.026939
516867947493226, 7.1772714, -0.357727, 6.867401, 0.20585711, 0.049086094, 9.937686
516867957133018, 7.204789, 0.31465617, 6.9296145, -0.4636952, 0.022876263, 9.990597
516867966772810, 7.1042905, -0.78364944, 6.7022963, 0.63694954, 0.11846876, 9.7768135
516867976412497, 7.2825556, 0.5515456, 6.966703, -0.6878279, 0.03884363, 10.069764
516867986052289, 7.1186476, -0.9391829, 6.687939, 0.81580347, 0.13071728, 9.777685
516867995692080, 7.3064837, 0.424726, 6.9499536, -0.5609695, 0.068424225, 10.077083
516868005331872, 7.0779696, -0.6664011, 6.7932234, 0.53312665, 0.0058579445, 9.8186245
516868014971664, 7.2957163, 0.29312077, 6.9044895, -0.42516345, 0.090382576, 10.039743
516868024611351, 7.251449, -0.12801601, 6.9655066, 0.001991436, 0.008105278, 10.055751
516868034251143, 7.1784678, -0.32662028, 6.8709903, 0.20234123, 0.022065163, 9.940129
516868043890935, 7.263413, 0.31226337, 7.048059, -0.43698564, -0.03270006, 10.116214
516868053530726, 7.298109, -0.6257231, 6.940382, 0.50150824, 0.054634094, 10.078112
516868063170518, 7.460821, 0.62811595, 7.213164, -0.745408, -0.012491703, 10.36978
516868072810205, 7.18445, -0.83389866, 6.960721, 0.7160859, -0.040690422, 10.012438
516868082449997, 7.3172517, 0.56470615, 7.159325, -0.66718394, -0.08120108, 10.230606
516868092089789, 7.109076, -0.62931234, 6.843473, 0.5400262, 3.8146973E-6, 9.873018
516868101729580, 7.2849483, 0.24765715, 6.9523463, -0.3381383, 0.046658993, 10.067295
516868111369372, 7.1617184, -0.20817557, 6.8458657, 0.12291901, 0.034800053, 9.908737
516868121009060, 7.216753, -0.18424734, 6.8506513, 0.10080238, 0.06995773, 9.951474
516868130648851, 7.2849483, 0.2644069, 6.9248285, -0.34688455, 0.07262945, 10.048285
516868140288643, 7.2418776, -0.68195444, 6.798009, 0.6146045, 0.10783148, 9.936469
516868149928435, 7.342376, 0.5599205, 7.0875406, -0.6315294, -0.009852886, 10.200898
516868159568226, 7.0899334, -0.8709874, 6.815955, 0.7972718, -0.009733677, 9.841103
516868169207914, 7.2550383, 0.52163535, 7.094719, -0.5835409, -0.07579517, 10.143789
516868178847705, 7.025327, -0.7369894, 6.8339014, 0.66917104, -0.07015228, 9.805503
516868188487497, 7.18445, 0.2943172, 7.0025954, -0.3623299, -0.061514378, 10.030167
516868198127289, 7.064809, -0.30269206, 6.9152575, 0.24018523, -0.08581638, 9.887309
516868207766976, 7.1545396, -0.17467605, 6.862615, 0.10694942, 0.021217823, 9.914715
516868217406768, 7.1425757, 0.21894327, 6.9391856, -0.293712, -0.0378685, 9.95635
516868227046560, 7.0731835, -0.6029913, 6.7405815, 0.53169614, 0.046567917, 9.774666
516868236686351, 7.2179494, 0.5288138, 6.9990063, -0.61862093, -0.016173363, 10.048959
516868246326039, 7.0432734, -0.82672024, 6.715457, 0.74048436, 0.04942751, 9.73847
516868255965830, 7.2083783, 0.6197411, 6.957132, -0.70421356, -0.0037169456, 10.01252
516868265605622, 7.068398, -0.695115, 6.710671, 0.6009879, 0.054737568, 9.75266
516868275245414, 7.365108, 0.39601216, 6.9451675, -0.49168342, 0.12505913, 10.118282
516868284885205, 7.298109, -0.28953153, 6.9332037, 0.1765699, 0.060981274, 10.068794
516868294524893, 7.4141607, -0.039481573, 7.062416, -0.073953256, 0.051397324, 10.239185
516868304164685, 7.3746796, 0.22851457, 7.2023964, -0.35341215, -0.06943941, 10.304509
516868313804476, 7.335198, -0.50368917, 7.097112, 0.3863987, -0.03899336, 10.211611
516868323444268, 7.4105716, 0.5946164, 7.3770723, -0.7240732, -0.17696333, 10.446804
516868333083955, 7.2083783, -0.75972116, 7.048059, 0.63532054, -0.10557222, 10.08951
516868342723747, 7.4392858, 0.65682983, 7.198807, -0.768006, -0.037662983, 10.344368
516868352363539, 7.2562346, -0.73100734, 6.836294, 0.6292151, 0.08270502, 9.975946
516868362003330, 7.4979095, 0.44147578, 7.048059, -0.546959, 0.10256815, 10.284893
516868371643018, 7.332805, -0.33020952, 6.9822564, 0.21797031, 0.025367737, 10.128317
516868381282810, 7.416554, -0.014356935, 7.02772, -0.0891316, 0.05566883, 10.216814
516868390922601, 7.30768, 0.10767702, 7.0372915, -0.2111104, -0.024241924, 10.143574
516868400562289, 7.2083783, -0.5599205, 6.8339014, 0.46442962, 0.04535103, 9.93774
516868410202080, 7.2586274, 0.46779683, 7.0432734, -0.5571141, -0.054522514, 10.109445
516868419841872, 7.062416, -0.8662018, 6.7226353, 0.79379255, 0.026546478, 9.756591
516868429481664, 7.2466636, 0.56829536, 6.9320073, -0.65036327, 0.006945133, 10.0233135
516868439121351, 7.082755, -0.80877405, 6.6161547, 0.74568427, 0.11163473, 9.696626
516868448761143, 7.3100734, 0.38644084, 6.808777, -0.4540397, 0.13058233, 9.986128
516868458400935, 7.133004, -0.49651068, 6.71426, 0.42353478, 0.07806778, 9.799086
516868468040726, 7.216753, -0.011964113, 6.792027, -0.052633595, 0.08265543, 9.909778
516868477680414, 7.0875406, 0.10289137, 6.768099, -0.17509688, 0.015655994, 9.798984
516868487320205, 7.036095, -0.3924229, 6.680761, 0.32004297, 0.048526287, 9.705071
516868496959997, 7.045666, 0.49172506, 7.0025954, -0.5808265, -0.15172625, 9.927697
516868506599789, 6.8458657, -0.8279166, 6.8039913, 0.7406682, -0.18788528, 9.657211
516868516239476, 7.123433, 0.5910272, 7.0695944, -0.6927737, -0.12889814, 10.028721
516868525879268, 7.045666, -0.79920274, 6.7238317, 0.7058368, 0.008593082, 9.746373
516868535519060, 7.365108, 0.48095736, 7.0325055, -0.5883814, 0.06572008, 10.177511
516868545158747, 7.257431, -0.49292147, 6.928418, 0.39014834, 0.022431374, 10.038105
516868554798539, 7.4141607, 0.021535404, 7.111469, -0.12723677, 0.015311718, 10.272625
516868564438330, 7.3196445, -0.06819545, 7.152147, -0.049990058, -0.09008455, 10.233497
516868574078122, 7.32443, -0.4989035, 7.0504518, 0.3777934, -0.022695065, 10.171618
516868583717810, 7.3974113, 0.38883367, 7.3112698, -0.53431153, -0.14770365, 10.393279
516868593357601, 7.300502, -0.7860422, 7.190432, 0.6424629, -0.13621426, 10.256032
516868602997393, 7.501499, 0.6161518, 7.5122666, -0.7651011, -0.20616245, 10.604641
516868612637080, 7.3064837, -0.81236327, 7.2263246, 0.65396273, -0.13980865, 10.286747
516868622276872, 7.501499, 0.57547385, 7.3842506, -0.7309582, -0.11440325, 10.515863
516868631916664, 7.298109, -0.42831525, 7.1617184, 0.26335827, -0.09968376, 10.230189
516868641556351, 7.393822, 0.18903299, 7.135397, -0.34053203, -0.009614468, 10.271426
516868651196143, 7.298109, -0.02632105, 6.971489, -0.11118212, 0.03311968, 10.09214
516868660835935, 7.2705917, -0.40438703, 6.7836523, 0.2697128, 0.14919472, 9.947258
516868670475726, 7.2909307, 0.317049, 6.8889365, -0.44286343, 0.08446312, 10.025587
516868680115414, 7.155736, -0.84347, 6.68435, 0.7364838, 0.13590431, 9.79978
516868689755205, 7.3160553, 0.5515456, 6.9320073, -0.66668314, 0.050752163, 10.07147
516868699394997, 7.123433, -0.8422736, 6.6125655, 0.73143184, 0.15206718, 9.727312
516868709034685, 7.304091, 0.567099, 6.8111696, -0.66539615, 0.13268757, 9.980131
516868718674476, 7.0528445, -0.57427746, 6.5694947, 0.47128874, 0.13321257, 9.643175
516868728314268, 7.164111, 0.1363909, 6.7202425, -0.22771578, 0.104973316, 9.820482
516868737953955, 7.0085773, -0.17826529, 6.7058854, 0.08070806, 0.0028824806, 9.701253
516868747593747, 7.0504518, -0.38644084, 6.6939216, 0.28779465, 0.042754173, 9.725336
516868757233539, 7.1342006, 0.2727818, 6.9152575, -0.38322043, -0.05879402, 9.931852
516868766873226, 7.088737, -0.7812566, 6.855437, 0.6732599, -0.053653717, 9.869215
516868776513018, 7.2957163, 0.60777694, 7.2179494, -0.7367378, -0.16438103, 10.253091
516868786152810, 7.146165, -0.8207382, 6.9499536, 0.6961101, -0.07081795, 9.9776535
516868795792601, 7.361519, 0.5910272, 7.196414, -0.7266198, -0.09692049, 10.285537
516868805432289, 7.2011995, -0.56350976, 6.9990063, 0.4317714, -0.06772518, 10.048378
516868815072080, 7.4045897, 0.26799613, 7.131808, -0.39198676, -0.023861885, 10.276586
516868824711872, 7.2969127, -0.11964113, 7.042077, -0.0017341673, -0.02809, 10.141464
516868834351560, 7.3459654, -0.22612174, 6.926025, 0.10728663, 0.09109974, 10.09774
516868843991351, 7.4380894, 0.3074777, 7.051648, -0.42757994, 0.05763769, 10.244965
516868853631143, 7.3136625, -0.72023964, 6.9152575, 0.60228163, 0.074804306, 10.072777
516868863270830, 7.3986077, 0.5515456, 7.203593, -0.66009617, -0.08599043, 10.319508
516868872910622, 7.213164, -0.86261255, 6.9116683, 0.76405203, -0.0015125275, 9.99806
516868882550414, 7.3639116, 0.5587241, 7.1246295, -0.65878034, -0.061228275, 10.240213
516868892190101, 7.1138616, -0.67118675, 6.8422766, 0.5640951, -0.019526482, 9.8770275
516868901829893, 7.274181, 0.24646074, 7.0025954, -0.3425294, -0.024383545, 10.094199
516868911469685, 7.152147, -0.30149564, 6.862615, 0.20576474, -0.010046005, 9.914493
516868921109372, 7.204789, -0.2955136, 6.8518476, 0.1998126, 0.032649994, 9.945005
516868930749164, 7.170093, 0.14596218, 6.9128647, -0.24548107, -0.032389164, 9.957808
516868940388955, 7.133004, -0.7178468, 6.725028, 0.61516285, 0.07108402, 9.810076
516868950028643, 7.3028946, 0.5455636, 6.9583282, -0.65001047, 0.022616386, 10.080935
516868959668435, 7.105487, -0.8530413, 6.674779, 0.7464234, 0.06934357, 9.757374
516868969308226, 7.29452, 0.60777694, 6.9475603, -0.7199642, 0.03000164, 10.066219
516868978947914, 7.1162543, -0.6831509, 6.7381887, 0.5575621, 0.044690132, 9.808063
516868988587705, 7.322037, 0.33499518, 6.991828, -0.45718524, 0.01424551, 10.119333
516868998227497, 7.192825, -0.22372891, 6.914061, 0.09038465, -0.025413513, 9.97909
516869007867185, 7.281359, -0.11246266, 6.966703, -0.016590878, -0.001578331, 10.0779705
516869017506976, 7.338787, 0.19860429, 7.07438, -0.33045498, -0.036833763, 10.189875
516869027146768, 7.2957163, -0.55393845, 6.9248285, 0.42560053, 0.019331932, 10.065092
516869036786455, 7.351948, 0.6053841, 7.1545396, -0.73291075, -0.07944107, 10.249956
516869046426247, 7.1365933, -0.82672024, 6.847062, 0.7217408, -0.029726505, 9.898226
516869056066039, 7.372287, 0.567099, 7.1425757, -0.68421215, -0.056440353, 10.257548
516869065705726, 7.1569324, -0.75254273, 6.8506513, 0.6403012, -0.015347958, 9.9151
516869075345518, 7.3543406, 0.30508488, 7.0097737, -0.41252214, 0.019531727, 10.156071
516869084985310, 7.23111, -0.3696911, 6.930811, 0.2715528, -0.010725021, 10.019377
516869094624997, 7.298109, -0.11485548, 6.942775, 0.01550572, 0.022066116, 10.07358
516869104264789, 7.2550383, 0.104087785, 6.957132, -0.20556018, -0.022138596, 10.050142
516869113904580, 7.2119675, -0.6652047, 6.8195443, 0.5627678, 0.05932474, 9.931814
516869123544268, 7.2765737, 0.41156548, 7.079166, -0.5099847, -0.10519314, 10.146988
516869133184060, 7.1138616, -0.8961121, 6.8171515, 0.78701365, -0.013431072, 9.862253
516869142823851, 7.314859, 0.56350976, 7.085148, -0.6859255, -0.07849264, 10.175823
516869152463539, 7.1270223, -0.83030945, 6.8398833, 0.7116024, -0.03379059, 9.887383
516869162103330, 7.396215, 0.3589234, 7.1042905, -0.488106, -0.040395737, 10.250068
516869171743122, 7.243074, -0.36729828, 6.916454, 0.24098659, -0.013658047, 10.018787
516869181382810, 7.3639116, 0.02751746, 6.9320073, -0.15476021, 0.062165737, 10.112016
516869191022601, 7.2861447, 0.16271193, 6.9355965, -0.2889138, 0.008174896, 10.056509
516869200662393, 7.240681, -0.47138608, 6.789634, 0.35332775, 0.07936478, 9.930642
516869210302080, 7.351948, 0.57188463, 7.004988, -0.6928208, 0.0019950867, 10.147317
516869219941872, 7.109076, -0.7812566, 6.786045, 0.6702678, -0.0020356178, 9.836184
516869229581664, 7.3579297, 0.7070791, 6.9930243, -0.8217241, 0.009306431, 10.142296
516869239221351, 7.2023964, -0.73100734, 6.765706, 0.62082356, 0.06779766, 9.889067
516869248861143, 7.3435726, 0.38165522, 6.9990063, -0.49436894, -0.011796474, 10.139787
516869258500830, 7.146165, -0.51445687, 6.7645097, 0.40087947, 0.021884441, 9.84529
516869268140622, 7.347162, -0.06699903, 6.8051877, -0.048422445, 0.13387012, 10.013771
516869277780414, 7.281359, -0.101694964, 6.940382, -0.027083177, -0.017967224, 10.059642
516869287420101, 7.2179494, -0.6257231, 6.8685975, 0.49477193, -0.0060153008, 9.971114
516869297059893, 7.2849483, 0.33499518, 7.1784678, -0.48543036, -0.17637634, 10.2199
516869306699685, 7.1449685, -0.85064846, 6.920043, 0.705049, -0.09825611, 9.957632
516869316339372, 7.373483, 0.60059845, 7.192825, -0.7599638, -0.12375307, 10.2894535
516869325979164, 7.216753, -0.802792, 6.884151, 0.64767766, -0.009111404, 9.984885
516869335618955, 7.5062847, 0.46899325, 7.1270223, -0.6171003, 0.016545773, 10.343
516869345258643, 7.353144, -0.49651068, 6.975078, 0.35405713, 0.012577534, 10.141078
516869354898435, 7.4356966, 0.041874398, 7.036095, -0.18574156, 0.023749828, 10.235375
516869364538226, 7.3292155, -0.058624156, 6.9858456, -0.08334562, -0.010842323, 10.125008
516869374177914, 7.283752, -0.485743, 6.856633, 0.34678614, 0.041367054, 10.009017
516869383817705, 7.331609, 0.4319045, 7.0085773, -0.57203996, -0.01669836, 10.135664
516869393457497, 7.194021, -0.72023964, 6.8111696, 0.5769308, 0.018604755, 9.916225
516869403097185, 7.3770723, 0.6891329, 7.0803623, -0.8279604, -0.021550655, 10.214775
516869412736976, 7.152147, -0.762114, 6.8015985, 0.61904514, 0.0028691292, 9.879906
516869422376768, 7.3842506, 0.53599226, 6.987042, -0.67439747, 0.044216156, 10.157579
516869432016455, 7.160522, -0.57547385, 6.778867, 0.44057855, 0.032412052, 9.867225
516869441656247, 7.3459654, 0.13040884, 6.798009, -0.25506198, 0.14336157, 10.005376
516869451295935, 7.194021, -0.16869399, 6.8913293, 0.043890167, -0.030528069, 9.963432
516869460935726, 7.143772, -0.4989035, 6.765706, 0.3807938, 0.02188921, 9.844373
516869470575518, 7.2323065, 0.30029923, 6.936793, -0.4196427, -0.038210392, 10.016884
516869480215205, 7.058827, -0.82911307, 6.780063, 0.7051925, -0.038446903, 9.797191
516869489854997, 7.2119675, 0.552742, 7.0875406, -0.67424405, -0.16357136, 10.102963
516869499494789, 7.0983086, -0.8757731, 6.792027, 0.74113953, -0.026725292, 9.835375
516869509134476, 7.4153576, 0.5455636, 7.092326, -0.67775404, -0.010900974, 10.253136
516869518774268, 7.243074, -0.5587241, 6.9128647, 0.41410235, -0.014001846, 10.019496
516869528414060, 7.402197, 0.11365908, 6.98106, -0.25013918, 0.05213499, 10.172283
516869538053747, 7.2933235, -0.1794617, 6.908079, 0.03775549, 0.022006035, 10.04711
516869547693539, 7.322037, -0.37088752, 6.832705, 0.2304244, 0.09420061, 10.018667
516869557333330, 7.318448, 0.2117648, 7.01097, -0.36123794, -0.028723717, 10.130495
516869566973018, 7.2059855, -0.8602197, 6.8398833, 0.719386, -0.002334118, 9.946491
516869576612810, 7.3435726, 0.5347959, 7.196414, -0.6948138, -0.14544773, 10.271246
516869586252601, 7.155736, -0.89013004, 6.9056864, 0.7455055, -0.074000835, 9.95611
516869595892289, 7.4416785, 0.5515456, 7.179664, -0.71571326, -0.05349064, 10.330307
516869605532080, 7.186843, -0.5694918, 6.906883, 0.41174823, -0.04859829, 9.975378
516869615171872, 7.402197, 0.29072794, 7.01097, -0.44708246, 0.03405142, 10.189686
516869624811560, 7.2658057, -0.11724831, 6.876972, -0.029335663, 0.032476425, 10.004825
516869634451351, 7.301698, -0.24526432, 6.808777, 0.10079036, 0.10375404, 9.985664
516869644091143, 7.3268228, 0.2739782, 6.906883, -0.4210384, 0.04724455, 10.063943
516869653730830, 7.2382884, -0.70348984, 6.6927247, 0.5673087, 0.13368893, 9.866133
516869663370622, 7.350751, 0.5383851, 6.9523463, -0.688318, 0.038244247, 10.108574
516869673010414, 7.123433, -0.90329057, 6.7058854, 0.7710463, 0.04356718, 9.794475
516869682650101, 7.3028946, 0.49651068, 6.9451675, -0.632999, -5.6123734E-4, 10.070424
516869692289893, 7.088737, -0.7692925, 6.7609205, 0.62619376, -0.0068535805, 9.806114
516869701929685, 7.271788, 0.16630118, 6.95115, -0.29994506, -0.027479649, 10.056557
516869711569372, 7.135397, -0.34097722, 6.9475603, 0.20847973, -0.12156105, 9.961953
516869721209164, 7.2693954, -0.23688944, 6.914061, 0.10337439, -0.005522251, 10.034628
516869730848955, 7.3746796, 0.18544376, 7.119844, -0.32372668, -0.07770443, 10.24703
516869740488643, 7.240681, -0.7393822, 6.966703, 0.6125711, -0.06790972, 10.056304
516869750128435, 7.3435726, 0.5886344, 7.1688967, -0.7187188, -0.1286068, 10.253513
516869759768226, 7.1976104, -0.8003992, 6.963114, 0.67919475, -0.09004974, 10.023062
516869769407914, 7.4356966, 0.6089734, 7.170093, -0.74311167, -0.054516792, 10.320634
516869779047705, 7.301698, -0.715454, 6.8925257, 0.5866438, 0.029913425, 10.049305
516869788687497, 7.448857, 0.33499518, 7.042077, -0.45250404, 0.037549496, 10.24609
516869798327185, 7.3064837, -0.23688944, 6.9296145, 0.123887956, 0.006524563, 10.07199
516869807966976, 7.3974113, -0.14596218, 6.8039913, 0.034249134, 0.15791368, 10.050432
516869817606768, 7.379465, 0.18783657, 6.836294, -0.29967988, 0.122582436, 10.055937
516869827246455, 7.2646093, -0.654437, 6.6891356, 0.5512375, 0.14611435, 9.880392
516869836886247, 7.3052874, 0.52163535, 6.96431, -0.6346202, -0.033596992, 10.086479
516869846526039, 7.0959153, -0.8877372, 6.73101, 0.7887518, 5.1116943E-4, 9.788998
516869856165726, 7.3363943, 0.58504516, 7.0337024, -0.7009038, -0.05175495, 10.155983
516869865805518, 7.0815587, -0.73340017, 6.795616, 0.62093735, -0.05676174, 9.822319
516869875445310, 7.237092, 0.3792624, 6.9990063, -0.48943016, -0.092923164, 10.062666
516869885084997, 7.099505, -0.3792624, 6.876972, 0.2803757, -0.088223934, 9.887019
516869894724789, 7.24786, -0.13998012, 6.8949184, 0.038531303, -0.0030088425, 10.004473
516869904364580, 7.2705917, 0.12921242, 6.957132, -0.23365632, -0.03587103, 10.061014
516869914004268, 7.240681, -0.552742, 6.8135624, 0.45354837, 0.046116352, 9.947351
516869923644060, 7.3806615, 0.5288138, 7.1066833, -0.6287463, -0.0884099, 10.239903
516869933283851, 7.223932, -0.8171489, 6.836294, 0.7107098, 0.014042854, 9.954021
516869942923539, 7.457232, 0.6412765, 7.0815587, -0.7389433, -0.019517422, 10.277334
516869952563330, 7.259824, -0.721436, 6.789634, 0.6138394, 0.08463144, 9.946894
516869962203122, 7.450053, 0.43070808, 6.9906316, -0.52531296, 0.058707237, 10.211676
516869971842810, 7.292127, -0.37567315, 6.9044895, 0.28541294, 0.011275768, 10.04523
516869981482601, 7.351948, 0.0011964113, 6.9966135, -0.09248671, -0.013426304, 10.148645
516869991122393, 7.304091, 0.08853444, 7.0325055, -0.18196076, -0.070678234, 10.137831
516870000762080, 7.2646093, -0.5479564, 6.836294, 0.4659325, 0.036118507, 9.979546
516870010401872, 7.344769, 0.47018966, 7.04447, -0.5550871, -0.04556322, 10.172565
516870020041664, 7.204789, -0.8135597, 6.826723, 0.73440874, -0.0065174103, 9.931547
516870029681351, 7.4045897, 0.634098, 7.1306114, -0.7183529, -0.043973446, 10.274127
516870039321143, 7.1952176, -0.78723866, 6.8422766, 0.6958902, -0.027667046, 9.935926
516870048960935, 7.3746796, 0.38883367, 7.062416, -0.4830332, -0.02276516, 10.206907
516870058600622, 7.2023964, -0.50009996, 6.8949184, 0.40750098, -0.050368786, 9.974764
516870068240414, 7.216753, 0.021535404, 7.0002027, -0.10975818, -0.09580946, 10.05304
516870077880205, 7.1389866, 0.05742774, 6.9702926, -0.15297364, -0.12415075, 9.9757
516870087519997, 7.274181, -0.36610186, 6.8709903, 0.2756465, 0.027568817, 10.009071
516870097159685, 7.381858, 0.56111693, 7.0504518, -0.6521931, -0.0036234856, 10.20246
516870106799476, 7.2215385, -0.7393822, 6.820741, 0.65844816, 0.028460026, 9.939087
516870116439268, 7.460821, 0.66041905, 7.115058, -0.7445421, -0.01492691, 10.303858
516870126078955, 7.237092, -0.77407813, 6.7872415, 0.683402, 0.064529896, 9.92825
516870135718747, 7.4548388, 0.56111693, 6.9786673, -0.639797, 0.079404354, 10.206645
516870145358539, 7.24786, -0.39840496, 6.7669024, 0.3148844, 0.09055853, 9.918357
516870154998226, 7.3543406, 0.124426775, 6.882954, -0.19727185, 0.07956028, 10.071327
516870164638018, 7.2179494, -0.031106694, 6.862615, -0.03446587, -0.003829956, 9.959621
516870174277810, 7.216753, -0.44626144, 6.814759, 0.3812747, 0.025241852, 9.928526
516870183917497, 7.271788, 0.3900301, 7.003792, -0.45316923, -0.06685591, 10.09328
516870193557289, 7.1473613, -0.7848458, 6.7764735, 0.71832025, -0.010181904, 9.8542
516870203197080, 7.3172517, 0.58624154, 7.1007013, -0.6491152, -0.091608524, 10.191961
516870212836872, 7.1270223, -0.849452, 6.7728844, 0.7773689, -0.031187534, 9.83782
516870222476560, 7.399804, 0.55393845, 7.056434, -0.6337268, -0.009319782, 10.220348
516870232116351, 7.240681, -0.41754755, 6.8602223, 0.34008947, -0.0075125694, 9.977413
516870241756143, 7.3902326, 0.19980069, 6.96431, -0.26804656, 0.039675236, 10.153013
516870251395830, 7.2526455, -0.09212367, 6.9128647, 0.018443614, -0.026530266, 10.019781
516870261035622, 7.220342, -0.35294133, 6.786045, 0.28619212, 0.037416935, 9.910852
516870270675414, 7.2789664, 0.44506502, 6.9475603, -0.5128389, -0.015096664, 10.059166
516870280315101, 7.2059855, -0.67836523, 6.765706, 0.6094681, 0.044484615, 9.888771
516870289954893, 7.3770723, 0.67477596, 7.103094, -0.7421178, -0.07191038, 10.235945
516870299594685, 7.1820574, -0.79800636, 6.8219376, 0.73296005, -0.017658234, 9.910603
516870309234476, 7.402197, 0.6017949, 7.0372915, -0.65119725, -0.013846874, 10.210481
516870318874164, 7.2323065, -0.4989035, 6.8111696, 0.44388342, 0.029459476, 9.937268
516870328513955, 7.3806615, 0.317049, 6.9906316, -0.35960066, 0.005997658, 10.164362
516870338153747, 7.2382884, -0.02632105, 6.890133, -0.005234086, -0.020084858, 9.993348
516870347793435, 7.314859, -0.23330021, 6.8255267, 0.19991858, 0.08365488, 10.005121
516870357433226, 7.37109, 0.4031906, 7.0133634, -0.43145382, -0.0256958, 10.173298
516870367073018, 7.292127, -0.634098, 6.8578296, 0.6158385, 0.04081154, 10.011299
516870376712810, 7.4333034, 0.7405786, 7.1688967, -0.76967466, -0.076833725, 10.3245945
516870386352497, 7.2095747, -0.7680961, 6.856633, 0.75346947, -0.011274338, 9.950554
516870395992289, 7.3842506, 0.57188463, 7.1102724, -0.5876068, -0.060859203, 10.249936
516870405632080, 7.140183, -0.6412765, 6.873383, 0.61809987, -0.081101894, 9.9120245
516870415271768, 7.2789664, 0.19740787, 7.0025954, -0.22055079, -0.056072235, 10.099846
516870424911560, 7.1820574, -0.22612174, 6.869794, 0.18910907, -0.03903103, 9.939308
516870434551351, 7.2466636, -0.3062813, 6.8458657, 0.26722932, 0.019785404, 9.970057
516870444191143, 7.2753773, 0.23808585, 6.995417, -0.2892003, -0.06154728, 10.091394
516870453830830, 7.216753, -0.72502524, 6.8482585, 0.6597054, -0.006369114, 9.953421
516870463470622, 7.385447, 0.587438, 7.140183, -0.6559225, -0.08584881, 10.268131
516870473110414, 7.123433, -0.8219346, 6.838687, 0.7385127, -0.063687325, 9.881146
516870482750205, 7.318448, 0.63888365, 7.0731835, -0.71839696, -0.07956648, 10.172284
516870492389893, 7.1162543, -0.5479564, 6.8171515, 0.4634366, -0.026125908, 9.858976
516870502029685, 7.3112698, 0.42831525, 7.025327, -0.52593327, -0.043359756, 10.134834
516870511669476, 7.2382884, -0.0849452, 6.9212394, -0.0052372664, -0.024725437, 10.015139
516870521309268, 7.38784, -0.086141616, 6.873383, -0.004808385, 0.10993576, 10.090534
516870530948955, 7.432107, 0.34217364, 6.9559355, -0.43490595, 0.07975292, 10.1756
516870540588747, 7.365108, -0.573081, 6.8506513, 0.488286, 0.09565449, 10.062658
516870550228539, 7.479964, 0.6233303, 7.149754, -0.71134603, -0.03742218, 10.341662
516870559868330, 7.268199, -0.78364944, 6.8303123, 0.68979925, 0.03970909, 9.980811
516870569508018, 7.4141607, 0.58504516, 7.048059, -0.66969526, 0.0012154579, 10.224417
516870579147810, 7.1449685, -0.78364944, 6.74776, 0.69982594, 0.030059814, 9.833936
516870588787601, 7.2957163, 0.22971097, 6.966703, -0.32809564, -0.0318532, 10.084966
516870598427393, 7.207182, -0.3182454, 6.903293, 0.22068888, -0.047139645, 9.982448
516870608067080, 7.361519, -0.1268196, 6.916454, 0.032180753, 0.048630714, 10.101583
516870617706872, 7.372287, 0.2440679, 6.946364, -0.34217173, 0.033465385, 10.1264
516870627346664, 7.3028946, -0.6089734, 6.843473, 0.52108747, 0.0488348, 10.013107
516870636986455, 7.4105716, 0.50129634, 7.1282187, -0.59310734, -0.07167435, 10.277279
516870646626143, 7.2526455, -0.90329057, 6.879365, 0.8213132, -0.024418354, 10.0033655
516870656265935, 7.442875, 0.5491528, 7.1018977, -0.63426554, -0.017044544, 10.282622
516870665905726, 7.26102, -0.7429714, 6.8339014, 0.6506055, 0.0059576035, 9.977639
516870675545518, 7.4249287, 0.4331009, 7.0396843, -0.52487624, 0.019503117, 10.227337
516870685185205, 7.2729845, -0.2536392, 6.8805614, 0.16384564, 0.010850906, 10.013781
516870694824997, 7.338787, -0.015553347, 6.849455, -0.06250341, 0.08723736, 10.038006
516870704464789, 7.3028946, 0.22372891, 6.890133, -0.30142617, 0.03743744, 10.038128
516870714104580, 7.200003, -0.4941179, 6.775277, 0.42242163, 0.03204775, 9.88985
516870723744268, 7.2849483, 0.5312066, 6.9930243, -0.59389347, -0.06516743, 10.09446
516870733384060, 7.160522, -0.8243274, 6.6735826, 0.7599862, 0.086992264, 9.793066
516870743023851, 7.350751, 0.6376872, 6.9415784, -0.6994378, 0.014852047, 10.106249
516870752663643, 7.115058, -0.7190432, 6.650851, 0.6586257, 0.08307886, 9.74342
516870762303435, 7.3567333, 0.4749753, 6.9009004, -0.5224366, 0.050026894, 10.08435
516870771943122, 7.194021, -0.3493521, 6.7034926, 0.30588675, 0.08628082, 9.834216
516870781582914, 7.3196445, -0.008374879, 6.8422766, -0.035510868, 0.06929159, 10.019378
516870791222705, 7.253842, 0.14356937, 6.869794, -0.18890134, 0.0039987564, 9.989855
516870800862497, 7.2442703, -0.44027936, 6.792027, 0.40086865, 0.05262518, 9.931841
516870810502185, 7.3304124, 0.56829536, 7.1007013, -0.61861145, -0.08603573, 10.202341
516870820141976, 7.164111, -0.73340017, 6.9738817, 0.6835214, -0.12689447, 10.000704
516870829781768, 7.1880393, 0.46301118, 7.2586274, -0.512282, -0.28636074, 10.209091
516870839421560, 7.109076, -0.22372891, 7.0636125, 0.17872158, -0.20633936, 10.020435
516870849061351, 7.216753, -0.02871387, 7.0600233, -0.0034602582, -0.11620188, 10.095184
516870858701039, 7.2323065, -0.059820566, 7.018149, 0.027791664, -0.074802876, 10.077593
516870868340830, 7.268199, -0.0071784677, 6.9499536, -0.0194549, 0.0060601234, 10.056253
516870877980622, 7.200003, -0.07537391, 6.9344, 0.049854696, -0.028113842, 9.996416
516870887620414, 7.2179494, -0.06699903, 6.8949184, 0.043688983, 0.013533592, 9.9820385
516870897260101, 7.304091, -0.015553347, 6.9044895, -0.009721868, 0.064349174, 10.050758
516870906899893, 7.3340015, 0.0011964113, 6.8925257, -0.027090846, 0.09196329, 10.06406
516870916539685, 7.375876, 0.011964113, 6.9499536, -0.03797906, 0.07938337, 10.133992
516870926179476, 7.355537, 0.014356935, 6.946364, -0.042413056, 0.06723642, 10.116806
516870935819268, 7.2693954, -0.023928227, 6.9344, -0.004587516, 0.01583147, 10.046408
516870945459060, 7.2729845, -0.06819545, 7.0205417, 0.037676394, -0.044774532, 10.108686
516870955098747, 7.240681, -0.06819545, 7.097112, 0.035672493, -0.123541355, 10.138272
516870964738539, 7.245467, -0.05503492, 7.1892357, 0.01905813, -0.18728542, 10.205366
516870974378330, 7.298109, -0.03589234, 7.243074, -0.0019444302, -0.1887126, 10.280573
516870984018122, 7.3136625, -0.0035892338, 7.1892357, -0.03358477, -0.13659573, 10.254512
516870993657914, 7.3112698, -0.023928227, 7.140183, -0.0122314915, -0.10082245, 10.218962
516871003297601, 7.3196445, -0.011964113, 7.0636125, -0.018010363, -0.039424896, 10.172024
516871012937393, 7.373483, -0.0023928226, 6.9535427, -0.027934402, 0.07745123, 10.134754
516871022577185, 7.355537, -0.05742774, 6.96431, 0.034161307, 0.05388832, 10.1294
516871032216976, 7.3363943, -0.1052842, 6.836294, 0.08239029, 0.13305569, 10.027173
516871041856768, 7.298109, 0.07776674, 6.79442, -0.09855908, 0.1405158, 9.970112
516871051496455, 7.2466636, 0.062213387, 6.7405815, -0.08362529, 0.14355564, 9.89575
516871061136247, 7.2059855, 0.01794617, 6.74776, -0.03291366, 0.11443329, 9.871405
516871070776039, 7.1473613, -0.019142581, 6.769295, 0.009017963, 0.058753967, 9.844032
516871080415830, 7.1270223, -0.0023928226, 6.7932234, -0.001678139, 0.021983147, 9.845905
516871090055622, 7.183254, 0.031106694, 6.8039913, -0.034497604, 0.050631523, 9.893969
516871099695414, 7.237092, 0.009571291, 6.823134, -0.0131096095, 0.07272005, 9.946119
516871109335101, 7.223932, -0.008374879, 6.812366, 0.005040776, 0.07161188, 9.929171
516871118974893, 7.219146, -0.041874398, 6.8518476, 0.036490478, 0.03818369, 9.953032
516871128614685, 7.253842, -0.061016977, 6.9535427, 0.055885322, -0.01134491, 10.048405
516871138254476, 7.2670026, -0.03589234, 7.038488, 0.028304, -0.064939976, 10.116616
516871147894268, 7.2646093, -0.0059820567, 7.0779696, -0.0071185734, -0.09392834, 10.1421585
516871157533955, 7.2705917, 0.025124637, 7.062416, -0.039671768, -0.07524395, 10.135712
516871167173747, 7.308877, 0.020338992, 7.051648, -0.03590214, -0.037971497, 10.155939
516871176813539, 7.3052874, 0.01794617, 7.0540414, -0.033964857, -0.041769505, 10.155005
516871186453330, 7.3028946, -0.011964113, 7.0540414, -0.0043016598, -0.044067383, 10.153323
516871196093122, 7.3435726, -0.020338992, 7.051648, 0.0039243586, -0.016575336, 10.181057
516871205732914, 7.3495545, -0.0059820567, 7.09113, -0.010615734, -0.042918682, 10.2126465
516871215372705, 7.342376, 0.019142581, 7.0576305, -0.03574939, -0.023294926, 10.184261
516871225012393, 7.2825556, 0.015553347, 6.975078, -0.031120643, -0.0043497086, 10.083977
516871234652185, 7.251449, -0.0047856453, 6.9619174, -0.0093326755, -0.015820503, 10.052437
516871244291976, 7.223932, -0.023928227, 6.948757, 0.011824824, -0.028089046, 10.023476
516871253931768, 7.2287173, -0.051445685, 6.893722, 0.04033202, 0.014365673, 9.988922
516871263571560, 7.2179494, -0.04546363, 6.8315086, 0.034457788, 0.051621914, 9.938135
516871273211247, 7.222735, -0.049052864, 6.859026, 0.035603896, 0.034249783, 9.960627
516871282851039, 7.237092, -0.0035892338, 6.897311, -0.016803168, 0.017062664, 9.997393
516871292490830, 7.2442703, 0.058624156, 6.9451675, -0.08110461, -0.010326862, 10.035515
516871302130622, 7.271788, 0.06460621, 6.8913293, -0.08553107, 0.048085213, 10.018177
516871311770414, 7.2358956, 0.050249275, 6.869794, -0.071348414, 0.038362026, 9.977386
516871321410205, 7.219146, 0.015553347, 6.8458657, -0.03389064, 0.04293585, 9.948829
516871331049997, 7.223932, -0.010767702, 6.8781686, 9.1905147E-4, 0.018985748, 9.974676
516871340689685, 7.2562346, -0.03589234, 6.876972, 0.029162306, 0.040640354, 9.997223
516871350329476, 7.2646093, -0.07537391, 6.8781686, 0.068743, 0.0457139, 10.004129
516871359969268, 7.2658057, -0.07776674, 6.903293, 0.07320688, 0.025148392, 10.0223465
516871369609060, 7.2909307, -0.05503492, 6.928418, 0.0503778, 0.024425983, 10.057859
516871379248851, 7.331609, -0.021535404, 6.9702926, 0.015323255, 0.021969795, 10.116185
516871388888643, 7.338787, -0.02632105, 7.0731835, 0.018285103, -0.047504902, 10.192438
516871398528435, 7.322037, -0.032303106, 7.1246295, 0.020259969, -0.095085144, 10.215877
516871408168226, 7.2933235, -0.022731815, 7.1377897, 0.008728036, -0.12196684, 10.204224
516871417807914, 7.2658057, 0.0059820567, 7.099505, -0.019736283, -0.113354206, 10.15784
516871427447705, 7.2586274, 0.03589234, 7.0492554, -0.05114965, -0.07886934, 10.11791
516871437087497, 7.2873416, 0.014356935, 7.0025954, -0.029842734, -0.02526331, 10.106453
516871446727289, 7.283752, -0.041874398, 6.9894347, 0.026137337, -0.021129131, 10.094845
516871456367080, 7.308877, -0.032303106, 6.942775, 0.014699447, 0.028411865, 10.080765
516871466006872, 7.3435726, -0.02632105, 6.8949184, 0.008551652, 0.08697939, 10.072786
516871475646664, 7.3639116, 0.019142581, 6.8925257, -0.039097905, 0.101771355, 10.085762
516871485286351, 7.3770723, 0.0011964113, 6.88774, -0.020825068, 0.11493683, 10.092003
516871494926143, 7.3495545, 0.016749758, 6.8985076, -0.03685541, 0.087919235, 10.079512
516871504565935, 7.2059855, 0.032303106, 6.8745794, -0.04950601, 0.0065755844, 9.959148
516871514205726, 7.135397, -0.0023928226, 6.859026, -0.010468103, -0.029846191, 9.897432
516871523845518, 7.092326, -0.040677983, 6.8685975, 0.03234448, -0.06547499, 9.872945
516871533485310, 7.088737, -0.05383851, 6.862615, 0.04881583, -0.0653038, 9.866201
516871543125101, 7.1018977, -0.046660043, 6.9020967, 0.04149181, -0.084834576, 9.902987
516871552764893, 7.1545396, -0.014356935, 6.9320073, 0.007627854, -0.0728178, 9.961678
516871562404685, 7.301698, -0.025124637, 6.9595246, 0.015545554, 0.0065379143, 10.087127
516871572044372, 7.3926253, -0.021535404, 7.018149, 0.008106548, 0.025206566, 10.193385
516871581684164, 7.4153576, 0.0059820567, 7.0145597, -0.02728252, 0.04323864, 10.207301
516871591323955, 7.422536, -0.014356935, 7.007381, -0.0069329217, 0.053266525, 10.207582
516871600963747, 7.4237323, -0.039481573, 7.0169525, 0.015261157, 0.049925327, 10.215098
516871610603539, 7.353144, -0.050249275, 6.96431, 0.026233606, 0.03926468, 10.127716
516871620243330, 7.3100734, -0.032303106, 6.937989, 0.010171682, 0.029989243, 10.078339
516871629883122, 7.29452, -0.010767702, 6.943971, -0.009650139, 0.014425755, 10.071175
516871639522914, 7.2586274, -0.0035892338, 6.9224358, -0.014855578, 0.0043640137, 10.030333
516871649162601, 7.240681, 0.020338992, 6.9092755, -0.037203662, 7.095337E-4, 10.008225
516871658802393, 7.274181, 0.08733802, 6.9762745, -0.10474443, -0.023327827, 10.078603
516871668442185, 7.233503, 0.043070808, 6.867401, -0.05642363, 0.027114391, 9.974102
516871678081976, 7.257431, -0.04546363, 6.937989, 0.032864526, -0.009766102, 10.040264
516871687721768, 7.2693954, -0.014356935, 6.98106, 5.809963E-4, -0.030352116, 10.078621
516871697361560, 7.24786, -0.009571291, 6.984649, -0.0053745657, -0.0442791, 10.065531
516871707001351, 7.2179494, -0.039481573, 6.984649, 0.024087422, -0.065615654, 10.043943
516871716641143, 7.1688967, -0.038285162, 6.9475603, 0.022269249, -0.06912565, 9.98288
516871726280935, 7.1712894, -0.025124637, 6.9056864, 0.00862072, -0.032695293, 9.955671
516871735920622, 7.207182, -0.033499517, 6.8781686, 0.017802905, 0.00936985, 9.962599
516871745560414, 7.2849483, -0.059820566, 6.9152575, 0.045094766, 0.03082943, 10.044494
516871755200205, 7.29452, -0.06699903, 6.8925257, 0.052184638, 0.05405426, 10.035727
516871764839997, 7.2969127, -0.101694964, 6.890133, 0.087749325, 0.051124573, 10.03588
516871774479789, 7.2705917, -0.10289137, 6.9092755, 0.08912119, 0.019580364, 10.030046
516871784119580, 7.274181, -0.041874398, 6.9320073, 0.025233645, 0.007946968, 10.048258
516871793759372, 7.2586274, 0.047856454, 6.95115, -0.06406088, -0.018190384, 10.050076
516871803399164, 7.1952176, 0.0634098, 6.928418, -0.0810879, -0.04181099, 9.988485
