timestamp_acc,device_acc_x,device_acc_y,device_acc_z,earth_acc_x,earth_acc_y,earth_acc_z
516618225180975, -1.3591232, 4.302295, 8.874979, -0.0045276433, -0.10018659, 9.955509
516618234820037, -1.3268201, 4.354937, 8.927621, 0.04399173, -0.08577204, 10.02093
516618244459100, -1.3974084, 4.3441696, 8.909675, -0.026253581, -0.062139988, 10.010111
516618254098162, -1.4476577, 4.3334017, 8.876176, -0.07689789, -0.03840208, 9.982645
516618263737225, -1.430908, 4.365705, 8.849854, -0.048335314, -0.00459671, 9.971182
516618273376287, -1.396212, 4.4135613, 8.806784, 0.002615273, 0.043135643, 9.949198
516618283015350, -1.3746766, 4.442275, 8.743374, 0.036599115, 0.08897257, 9.902571
516618292654412, -1.3615161, 4.456632, 8.705089, 0.053814888, 0.11476374, 9.873085
516618302293475, -1.3519448, 4.4195433, 8.69791, 0.051322713, 0.083884716, 9.849066
516618311932537, -1.3316058, 4.4147577, 8.685946, 0.068695456, 0.07948542, 9.8335085
516618321571600, -1.3268201, 4.412365, 8.729017, 0.07040861, 0.0566988, 9.870004
516618331210662, -1.314856, 4.398008, 8.810373, 0.07425508, 0.0035452843, 9.934208
516618340849725, -1.3734802, 4.336991, 8.817552, -0.0017637163, -0.032115936, 9.921903
516618350488787, -1.4285151, 4.3058844, 8.85464, -0.06573501, -0.054517746, 9.948803
516618360127850, -1.4500505, 4.2975097, 8.873783, -0.088407576, -0.06474304, 9.965103
516618369766912, -1.3914263, 4.331009, 8.883354, -0.021776333, -0.05645466, 9.980181
516618379405975, -1.3411771, 4.3704906, 8.896515, 0.039330393, -0.040940285, 10.002235
516618389045037, -1.3531412, 4.3908296, 8.935996, 0.033662856, -0.036073685, 10.047884
516618398684100, -1.4057833, 4.3561335, 8.914461, -0.026267052, -0.03678751, 10.0208645
516618408323162, -1.430908, 4.3262234, 8.864211, -0.058637396, -0.031466484, 9.96662
516618417962225, -1.4273187, 4.3238306, 8.886943, -0.051581852, -0.04224968, 9.9852915
516618427601287, -1.4249259, 4.336991, 8.880961, -0.045387276, -0.028624535, 9.9854145
516618437240350, -1.3926228, 4.3645086, 8.842676, -0.0049106926, 0.0024228096, 9.958977
516618446879412, -1.3591232, 4.3932223, 8.816355, 0.036640257, 0.028457642, 9.943519
516618456518475, -1.3591232, 4.3944187, 8.772088, 0.03509228, 0.045921803, 9.904763
516618466157537, -1.3316058, 4.401597, 8.754142, 0.06364761, 0.052009106, 9.888149
516618475796600, -1.3280165, 4.4243293, 8.76132, 0.072353736, 0.06348038, 9.904029
516618485435662, -1.3710874, 4.386044, 8.733803, 0.02030988, 0.056779385, 9.868787
516618495074725, -1.4033905, 4.351348, 8.690732, -0.020066798, 0.056881666, 9.819822
516618504713787, -1.3674982, 4.3334017, 8.694321, 0.0070766956, 0.029166698, 9.810135
516618514352850, -1.3746766, 4.336991, 8.745767, 0.002957508, 0.013373852, 9.858373
516618523991912, -1.3184453, 4.3669014, 8.776874, 0.06533183, 0.0065221786, 9.891277
516618533630975, -1.3399807, 4.3501515, 8.822337, 0.03759989, -0.017722607, 9.9272995
516618543270037, -1.3818551, 4.3465624, 8.863015, -0.0038436502, -0.026517391, 9.967672
516618552909100, -1.4500505, 4.325027, 8.873783, -0.07639524, -0.026497364, 9.977274
516618562548162, -1.4524434, 4.331009, 8.907282, -0.07727202, -0.034837246, 10.009981
516618572187225, -1.422533, 4.3525443, 8.91805, -0.039548047, -0.027090073, 10.024847
516618581826287, -1.4093726, 4.3609195, 8.878569, -0.022419468, -0.0050239563, 9.991618
516618591465350, -1.4081762, 4.3669014, 8.785249, -0.016637087, 0.04194069, 9.911175
516618601104412, -1.3866407, 4.377669, 8.751749, 0.008921832, 0.058773994, 9.883135
516618610743475, -1.3351951, 4.358526, 8.776874, 0.050283432, 0.01576519, 9.889906
516618620382537, -1.3208381, 4.3501515, 8.740981, 0.061288267, 0.01997757, 9.852361
516618630021600, -1.3746766, 4.3274198, 8.725428, 0.0019816607, 0.02600336, 9.836094
516618639660662, -1.3363914, 4.316652, 8.781659, 0.034105867, -0.018910885, 9.876004
516618649299725, -1.3567305, 4.331009, 8.800801, 0.02021198, -0.0061502457, 9.9021225
516618658938787, -1.4057833, 4.3322053, 8.816355, -0.025703743, 0.0035037994, 9.92329
516618668577850, -1.4213367, 4.319045, 8.843872, -0.044739217, -0.012211323, 9.944157
516618678216912, -1.3627125, 4.301099, 8.900104, 0.002196163, -0.069431305, 9.978148
516618687855975, -1.3435699, 4.368098, 8.902496, 0.044973686, -0.017586231, 10.006877
516618697495037, -1.3375878, 4.408776, 8.937193, 0.06387162, -8.8977814E-4, 10.054641
516618707134100, -1.3471591, 4.409972, 8.915657, 0.056294233, 0.012748718, 10.037348
516618716773162, -1.4177474, 4.3740797, 8.848659, -0.02053018, 0.036313534, 9.971942
516618726412225, -1.463211, 4.319045, 8.857033, -0.08064945, 2.117157E-4, 9.96171
516618736051287, -1.4141582, 4.3130627, 8.847462, -0.034934998, -0.016633987, 9.943764
516618745690350, -1.4093726, 4.3070807, 8.788837, -0.030426294, 0.003583908, 9.888376
516618755329412, -1.39023, 4.314259, 8.76132, -0.009535402, 0.015843868, 9.864378
516618764968475, -1.3866407, 4.308277, 8.717052, -0.007328555, 0.029784203, 9.8219185
516618774607537, -1.3986049, 4.290331, 8.706285, -0.024143815, 0.02392602, 9.806187
516618784246600, -1.3615161, 4.281956, 8.7780695, 0.006358415, -0.027516365, 9.861164
516618793885662, -1.3519448, 4.3094735, 8.879765, 0.023722395, -0.05094099, 9.962247
516618803524725, -1.3555341, 4.3298125, 8.91805, 0.026968226, -0.048713684, 10.005662
516618813163787, -1.3866407, 4.3405805, 8.937193, 8.301735E-4, -0.03856945, 10.031717
516618822802850, -1.3591232, 4.3704906, 8.965906, 0.03754492, -0.033487797, 10.066447
516618832441912, -1.3483555, 4.3932223, 8.928818, 0.0560956, -0.0012521744, 10.041868
516618842080975, -1.3698909, 4.4195433, 8.853444, 0.04649633, 0.059990883, 9.989328
516618851720037, -1.3974084, 4.412365, 8.774481, 0.020326152, 0.09909868, 9.919828
516618861359100, -1.4333007, 4.3669014, 8.755338, -0.030913562, 0.07684374, 9.888037
516618870998162, -1.4548361, 4.302295, 8.691928, -0.07234229, 0.05736804, 9.806497
516618880637225, -1.4823537, 4.2628136, 8.623733, -0.11124502, 0.06306505, 9.732491
516618890276287, -1.442872, 4.260421, 8.700303, -0.07583073, 0.012378454, 9.794
516618899915246, -1.3351951, 4.26401, 8.819944, 0.026552781, -0.07082367, 9.886872
516618909554308, -1.288535, 4.31067, 8.894122, 0.085956395, -0.075619936, 9.96667
516618919193371, -1.3100704, 4.347759, 8.908479, 0.07922529, -0.041445732, 9.998614
516618928832433, -1.3591232, 4.341777, 8.933603, 0.031162038, -0.040798664, 10.025212
516618938471496, -1.4057833, 4.341777, 9.020942, -0.014692336, -0.0660305, 10.1094055
516618948110558, -1.4787644, 4.3070807, 9.008977, -0.09462421, -0.06525612, 10.093866
516618957749621, -1.5206388, 4.3154554, 8.915657, -0.12856911, -0.0022554398, 10.020375
516618967388683, -1.477568, 4.308277, 8.812766, -0.08601344, 0.021111012, 9.919752
516618977027746, -1.3986049, 4.3322053, 8.743374, -0.001459688, 0.047077894, 9.857408
516618986666808, -1.3830515, 4.3202415, 8.671589, 0.01091145, 0.062167168, 9.786203
516618996305871, -1.3495519, 4.331009, 8.645268, 0.045468107, 0.069698095, 9.762821
516619005944933, -1.3627125, 4.2975097, 8.671589, 0.020874351, 0.034065723, 9.773457
516619015583996, -1.3328022, 4.2927237, 8.754142, 0.045437366, -0.015977144, 9.840555
516619025223058, -1.3507484, 4.304688, 8.781659, 0.03223589, -0.012649059, 9.872751
516619034862121, -1.3746766, 4.3298125, 8.768498, 0.018914893, 0.023712158, 9.875359
516619044501183, -1.4117653, 4.358526, 8.770891, -0.00717777, 0.059866905, 9.895185
516619054140246, -1.442872, 4.3441696, 8.82473, -0.042962328, 0.033305645, 9.941156
516619063779308, -1.422533, 4.3669014, 8.900104, -0.019426852, 0.010839939, 10.015226
516619073418371, -1.4440684, 4.3609195, 8.851051, -0.04111311, 0.035077572, 9.972016
516619083057433, -1.3806586, 4.342973, 8.868998, 0.010998577, -0.008902073, 9.971287
516619092696496, -1.3483555, 4.3262234, 8.908479, 0.034733117, -0.05127859, 9.99457
516619102335558, -1.3854443, 4.2951164, 8.885747, -0.010696247, -0.054077625, 9.965989
516619111974621, -1.4081762, 4.278367, 8.907282, -0.037586287, -0.06878185, 9.981028
516619121613683, -1.4057833, 4.269992, 8.8905325, -0.03781493, -0.06887531, 9.962151
516619131252746, -1.3483555, 4.3238306, 8.82473, 0.037063465, -0.011779308, 9.919069
516619140891808, -1.3268201, 4.415954, 8.779266, 0.08907974, 0.07657337, 9.915787
516619150530871, -1.3256238, 4.402794, 8.766106, 0.08191413, 0.06917763, 9.898231
516619160169933, -1.3399807, 4.362116, 8.809176, 0.051019445, 0.01736641, 9.920801
516619169808996, -1.3806586, 4.338187, 8.7780695, 0.005212754, 0.024813652, 9.888374
516619179448058, -1.3830515, 4.347759, 8.73141, 0.0065785944, 0.05374098, 9.851418
516619189087121, -1.3806586, 4.358526, 8.749356, 0.014341697, 0.053403854, 9.871736
516619198726183, -1.3770695, 4.362116, 8.79123, 0.01851222, 0.036147594, 9.910019
516619208365141, -1.3830515, 4.3609195, 8.812766, 0.01207085, 0.027346134, 9.929473
516619218004308, -1.3866407, 4.3441696, 8.843872, 0.0019772798, 5.41687E-4, 9.950308
516619227643266, -1.3950156, 4.3262234, 8.88814, -0.01278536, -0.032042503, 9.982991
516619237282329, -1.3890336, 4.3070807, 8.865408, -0.012996763, -0.03943491, 9.953596
516619246921391, -1.3746766, 4.281956, 8.813962, -0.0064382553, -0.04191017, 9.894897
516619256560454, -1.416551, 4.287938, 8.780462, -0.04229337, -0.007806301, 9.873586
516619266199516, -1.3651053, 4.193422, 8.787642, -0.030446857, -0.10612106, 9.831518
516619275838579, -1.4129617, 4.2975097, 8.751749, -0.034543008, 0.010993242, 9.851744
516619285477641, -1.3160524, 4.554738, 8.8187475, 0.14851683, 0.15908909, 10.010023
516619295116704, -1.5302101, 3.8560338, 8.633304, -0.29973277, -0.2588613, 9.570142
516619304755766, -1.3770695, 4.9375896, 8.860622, 0.23417416, 0.47704506, 10.222736
516619314394829, -1.4488541, 3.60718, 8.68475, -0.30989802, -0.5145433, 9.496053
516619324033891, -1.3351951, 5.0416775, 9.0341015, 0.29822925, 0.47609425, 10.416365
516619333672954, -1.402194, 3.6873398, 8.7577305, -0.24276745, -0.4928677, 9.589505
516619343312016, -1.375873, 4.8263235, 8.967103, 0.17243177, 0.338964, 10.268921
516619352951079, -1.3507484, 4.0761733, 8.897711, -0.053153247, -0.25321102, 9.876337
516619362590141, -1.4153546, 4.389633, 8.919247, -0.005862102, 0.015068054, 10.041157
516619372229204, -1.3411771, 4.5631127, 8.876176, 0.1268661, 0.15098906, 10.068186
516619381868266, -1.4991034, 3.900301, 8.690732, -0.25477284, -0.26379037, 9.636077
516619391507225, -1.3423735, 4.922036, 8.891729, 0.25750366, 0.4366331, 10.238862
516619401146287, -1.442872, 3.650251, 8.575876, -0.29141733, -0.4297924, 9.417124
516619410785350, -1.2957134, 5.0823555, 8.876176, 0.36304232, 0.54516506, 10.289156
516619420424412, -1.3663018, 3.6897326, 8.6141615, -0.22243837, -0.4480312, 9.456981
516619430063475, -1.3471591, 4.92084, 8.833105, 0.26719278, 0.45084143, 10.187178
516619439702537, -1.3399807, 4.074977, 8.725428, -0.059182405, -0.19217181, 9.720784
516619449341600, -1.4069797, 4.4721856, 8.799605, 0.030707031, 0.12033892, 9.96984
516619458980662, -1.3363914, 4.536792, 8.809176, 0.1210725, 0.14796162, 9.996674
516619468619725, -1.4213367, 4.007978, 8.694321, -0.15455407, -0.204283, 9.675211
516619478258787, -1.2693924, 4.9722853, 8.968299, 0.33708093, 0.4099784, 10.319093
516619487897850, -1.422533, 3.6610186, 8.7577305, -0.28139624, -0.5267689, 9.579554
516619497536912, -1.3531412, 5.0775695, 9.048459, 0.27882904, 0.49725294, 10.448077
516619507175975, -1.457229, 3.6335013, 8.689535, -0.30218232, -0.5198834, 9.511692
516619516814933, -1.3866407, 4.82752, 8.914461, 0.15302779, 0.35529757, 10.22476
516619526453996, -1.375873, 3.8871403, 8.766106, -0.1386331, -0.3635242, 9.679676
516619536093058, -1.4560326, 4.4398823, 8.840283, -0.030465096, 0.09637928, 9.998649
516619545732121, -1.3818551, 4.4171505, 8.865408, 0.030448072, 0.043341637, 10.00067
516619555371183, -1.4799608, 3.952943, 8.738588, -0.21548967, -0.2574308, 9.698776
516619565010246, -1.3375878, 4.892126, 8.970692, 0.23336747, 0.37674284, 10.29558
516619574649308, -1.5050855, 3.6861434, 8.732606, -0.3308004, -0.46547604, 9.5804615
516619584288371, -1.3639089, 5.1014977, 9.02812, 0.2841981, 0.5186877, 10.44235
516619593927433, -1.4608182, 3.6275191, 8.675179, -0.31922424, -0.4970932, 9.497503
516619603566496, -1.3591232, 4.938786, 8.839087, 0.24117532, 0.46204376, 10.202776
516619613205558, -1.3722838, 3.9756749, 8.702696, -0.10812104, -0.25657701, 9.661706
516619622844516, -1.3471591, 4.581059, 8.803194, 0.12692317, 0.18354654, 10.012362
516619632483579, -1.2921243, 4.4446683, 8.788837, 0.124103576, 0.057180405, 9.932254
516619642122641, -1.410569, 4.0737805, 8.657232, -0.11826867, -0.15006304, 9.669363
516619651761704, -1.2897314, 4.9172506, 8.813962, 0.28950143, 0.43469095, 10.161494
516619661400766, -1.4333007, 3.7328033, 8.632108, -0.2590716, -0.41091585, 9.500815
516619671039829, -1.2837493, 5.1014977, 8.987442, 0.35209724, 0.5099473, 10.395353
516619680678891, -1.4404793, 3.611966, 8.717052, -0.30388087, -0.5517061, 9.524262
516619690317954, -1.396212, 4.9459643, 8.921639, 0.20355946, 0.44663715, 10.284295
516619699957016, -1.4273187, 3.8584266, 8.709874, -0.20438111, -0.34534, 9.624218
516619709596079, -1.4404793, 4.5762734, 8.846265, 0.030171886, 0.19128752, 10.061618
516619719235037, -1.3639089, 4.389633, 8.846265, 0.037530214, 0.012258053, 9.969152
516619728874100, -1.4883357, 4.078566, 8.769695, -0.18638997, -0.1753931, 9.782223
516619738513162, -1.3579268, 4.79402, 8.922835, 0.17716135, 0.3058176, 10.213651
516619748152225, -1.4739788, 3.6993039, 8.645268, -0.30422062, -0.44549394, 9.503006
516619757791287, -1.3124632, 5.099105, 8.961121, 0.31735852, 0.5323858, 10.375017
516619767430350, -1.4141582, 3.6490545, 8.688339, -0.26750174, -0.51636314, 9.51128
516619777069412, -1.3579268, 5.0189457, 8.891729, 0.24579816, 0.5011635, 10.285185
516619786708475, -1.3818551, 3.8967116, 8.6548395, -0.15139505, -0.31385064, 9.585338
516619796347433, -1.4069797, 4.6564326, 8.836694, 0.08464408, 0.24699783, 10.083699
516619805986496, -1.3483555, 4.351348, 8.804391, 0.038150534, -0.010974407, 9.913024
516619815625558, -1.4117653, 4.1754756, 8.748159, -0.08233738, -0.11522913, 9.79479
516619825264621, -1.2370893, 4.8323054, 8.867801, 0.30511647, 0.3188901, 10.164874
516619834903683, -1.3591232, 3.769892, 8.65125, -0.17891365, -0.41964674, 9.523408
516619844542746, -1.2430713, 5.028517, 8.979067, 0.36101636, 0.42741156, 10.350935
516619854181808, -1.4404793, 3.534199, 8.695518, -0.33512107, -0.6088047, 9.470724
516619863820871, -1.3914263, 4.9734817, 8.941978, 0.20063804, 0.44683933, 10.314584
516619873459829, -1.4416757, 3.804588, 8.668, -0.2476399, -0.37554407, 9.564789
516619883098891, -1.4057833, 4.688736, 8.825927, 0.091799274, 0.27051163, 10.088402
516619892737954, -1.3686945, 4.2795634, 8.822337, -0.014882565, -0.07793951, 9.900269
516619902377016, -1.430908, 4.2245283, 8.768498, -0.09050162, -0.07884288, 9.836987
516619912016079, -1.2993027, 4.7653065, 8.928818, 0.21850233, 0.25809526, 10.19832
516619921655141, -1.5218352, 3.7244284, 8.723035, -0.34784457, -0.4439888, 9.589607
516619931294204, -1.410569, 4.9878387, 9.038888, 0.18790941, 0.42155647, 10.409454
516619940933162, -1.5122639, 3.5688949, 8.711071, -0.38995838, -0.56183124, 9.509941
516619950572225, -1.3770695, 5.035695, 8.903693, 0.24171776, 0.51183176, 10.305818
516619960211287, -1.3794622, 3.7914274, 8.648857, -0.19102448, -0.38739514, 9.533834
516619969850350, -1.3244274, 4.7629137, 8.859426, 0.20501491, 0.28492546, 10.139315
516619979489412, -1.2765709, 4.2592244, 8.819944, 0.07116929, -0.11860752, 9.876381
516619989128475, -1.3866407, 4.2963133, 8.781659, -0.021181762, -0.03990078, 9.874036
516619998767537, -1.2981063, 4.7605205, 8.872586, 0.21871422, 0.2762227, 10.146246
516620008406600, -1.4129617, 3.900301, 8.675179, -0.18774115, -0.31790853, 9.608913
516620018045558, -1.268196, 5.131408, 8.88814, 0.36179325, 0.5680742, 10.319163
516620027684621, -1.4285151, 3.6885362, 8.560323, -0.27126116, -0.4435897, 9.415665
516620037323683, -1.3507484, 5.1122656, 8.829515, 0.28024578, 0.59065247, 10.270966
516620046962746, -1.4333007, 3.7471602, 8.5938225, -0.24706426, -0.41331434, 9.471932
516620056601808, -1.43689, 4.7162533, 8.827123, 0.07139093, 0.2972498, 10.106056
516620066240871, -1.4141582, 4.082155, 8.725428, -0.123632595, -0.19496536, 9.733634
516620075879829, -1.4943178, 4.254439, 8.730213, -0.13961731, -0.024315834, 9.824956
516620085518891, -1.3459628, 4.627719, 8.848659, 0.12705624, 0.18144703, 10.073583
516620095157954, -1.4763715, 3.7974095, 8.664411, -0.28444624, -0.37776637, 9.562866
516620104797016, -1.3543376, 4.9806604, 8.921639, 0.24605057, 0.43708086, 10.294916
516620114436079, -1.4739788, 3.603591, 8.732606, -0.34606475, -0.57112074, 9.537869
516620124075141, -1.3136597, 5.103891, 9.046066, 0.32853362, 0.4683385, 10.453681
516620133714100, -1.3926228, 3.76391, 8.685946, -0.21036208, -0.43264198, 9.556185
516620143353162, -1.3351951, 4.880162, 8.8701935, 0.22852278, 0.37495756, 10.202266
516620152992225, -1.2993027, 4.1611185, 8.79482, 0.012376651, -0.18795133, 9.814097
516620162631287, -1.4069797, 4.3764725, 8.812766, -0.019580215, 0.0145459175, 9.939688
516620172270350, -1.282553, 4.6229334, 8.9108715, 0.18419361, 0.12969398, 10.117772
516620181909412, -1.3914263, 3.891926, 8.758927, -0.18129477, -0.3614092, 9.676697
516620191548371, -1.3040884, 5.002196, 8.985049, 0.30300844, 0.4086833, 10.3534975
516620201187433, -1.4931214, 3.6526437, 8.689535, -0.36154878, -0.499547, 9.523602
516620210826496, -1.3423735, 5.087141, 8.941978, 0.28775117, 0.51344395, 10.358259
516620220465558, -1.4524434, 3.6717863, 8.632108, -0.31409878, -0.47241354, 9.475393
516620230104621, -1.4751751, 4.8263235, 8.79482, 0.076214805, 0.41855717, 10.131012
516620239743683, -1.457229, 4.045067, 8.696713, -0.17695361, -0.18826675, 9.698048
516620249382641, -1.4536397, 4.368098, 8.762517, -0.06320514, 0.0404191, 9.89795
516620259021704, -1.3112668, 4.5690947, 8.754142, 0.14276831, 0.16701317, 9.959057
516620268660766, -1.3878372, 4.0151563, 8.57468, -0.11928983, -0.1862514, 9.566807
516620278299829, -1.2251252, 5.0512486, 8.885747, 0.3778801, 0.47824192, 10.2762375
516620287938891, -1.3890336, 3.7005002, 8.703893, -0.23951226, -0.51390505, 9.542505
516620297577954, -1.3280165, 5.0979085, 9.007781, 0.29577363, 0.49728107, 10.419099
516620307216912, -1.4237294, 3.6526437, 8.733803, -0.29824412, -0.5453789, 9.553101
516620316855975, -1.3639089, 4.90409, 9.017352, 0.19648726, 0.3483696, 10.347125
516620326495037, -1.3495519, 4.0390844, 8.878569, -0.08761716, -0.30961943, 9.841795
516620336134100, -1.3938192, 4.4949174, 8.840283, 0.029408082, 0.09524584, 10.014375
516620345773162, -1.3268201, 4.5248275, 8.817552, 0.100541696, 0.10646057, 9.998115
516620355412121, -1.4392828, 3.9194436, 8.72782, -0.21807659, -0.3171575, 9.667486
516620365051183, -1.282553, 4.90409, 8.959925, 0.2765796, 0.331748, 10.285366
516620374690246, -1.4883357, 3.6634114, 8.663215, -0.3461597, -0.47955418, 9.504589
516620384329308, -1.4117653, 5.0799623, 8.9826565, 0.2130799, 0.5214181, 10.400478
516620393968371, -1.5074782, 3.6275191, 8.640483, -0.3804709, -0.48704267, 9.471398
516620403607433, -1.4213367, 4.9136615, 8.807981, 0.15357642, 0.46303225, 10.17383
516620413246391, -1.416551, 3.993621, 8.5938225, -0.15739697, -0.2006967, 9.578327
516620422885454, -1.396212, 4.5332026, 8.715857, 0.04740414, 0.17321396, 9.921353
516620432524516, -1.2598212, 4.5020957, 8.804391, 0.16342807, 0.0632658, 9.967076
516620442163579, -1.3998013, 4.0414777, 8.695518, -0.1325607, -0.21846867, 9.687091
516620451802641, -1.2382857, 4.9196434, 8.945567, 0.32946473, 0.33175611, 10.273306
516620461441704, -1.3770695, 3.6981075, 8.755338, -0.25099167, -0.53321075, 9.585457
516620471080662, -1.2777673, 5.13739, 9.046066, 0.36895177, 0.48399258, 10.463575
516620480719725, -1.4452649, 3.7016966, 8.732606, -0.3016413, -0.4915352, 9.576908
516620490358787, -1.3698909, 5.020142, 8.974281, 0.24768886, 0.45029163, 10.361084
516620499997850, -1.3974084, 3.9613178, 8.703893, -0.16778725, -0.28547573, 9.658825
516620509636912, -1.4273187, 4.587041, 8.758927, 0.036364794, 0.21020937, 9.987567
516620519275871, -1.3782659, 4.4374895, 8.749356, 0.030428529, 0.08163643, 9.906289
516620528914933, -1.5098711, 4.0366917, 8.572288, -0.23034406, -0.12472868, 9.5911455
516620538553996, -1.3615161, 4.8394837, 8.676374, 0.2045025, 0.43229508, 10.016241
516620548193058, -1.463211, 3.6777685, 8.506484, -0.30287296, -0.40869093, 9.3684845
516620557832121, -1.2861422, 5.093123, 8.933603, 0.3504211, 0.49621153, 10.345739
516620567471079, -1.3830515, 3.6287155, 8.723035, -0.2586752, -0.5797217, 9.527265
516620577110141, -1.3459628, 4.979464, 9.083155, 0.24780509, 0.36874914, 10.436138
516620586749204, -1.3663018, 3.8416767, 9.008977, -0.15996672, -0.53346395, 9.873031
516620596388266, -1.3495519, 4.6169515, 9.189635, 0.11456522, 0.028690815, 10.37174
516620606027329, -1.2789637, 4.421936, 9.099904, 0.1152772, -0.11345005, 10.196636
516620615666391, -1.3232309, 4.202993, 8.933603, 0.00288786, -0.20497775, 9.959084
516620625305350, -1.1413764, 4.979464, 9.022138, 0.43910992, 0.3384738, 10.353231
516620634944412, -1.4069797, 3.871587, 8.68475, -0.19847037, -0.34654808, 9.603863
516620644583475, -1.3974084, 5.1290154, 8.822337, 0.23861703, 0.62973833, 10.278117
516620654222537, -1.5888343, 3.5856447, 8.372486, -0.45431033, -0.39986658, 9.225697
516620663861600, -1.4644074, 4.9459643, 8.599805, 0.12696972, 0.58651495, 10.010174
516620673500558, -1.4548361, 3.7938204, 8.37129, -0.25198197, -0.26999164, 9.297941
516620683139621, -1.430908, 4.6025944, 8.52443, 0.049398765, 0.33053088, 9.787011
516620692778683, -1.3208381, 4.2628136, 8.53161, 0.033347324, 0.009001732, 9.62826
516620702417746, -1.4153546, 4.1288157, 8.605786, -0.103182495, -0.10661745, 9.648207
516620712056808, -1.3328022, 4.718646, 8.895318, 0.1656751, 0.2306428, 10.153227
516620721695766, -1.5481563, 3.641876, 8.865408, -0.40500778, -0.57612514, 9.682951
516620731334829, -1.4057833, 4.968696, 9.285348, 0.18069658, 0.28258514, 10.61929
516620740973891, -1.544567, 3.5856447, 8.969496, -0.41851625, -0.6582155, 9.751205
516620750612954, -1.4763715, 5.0392847, 9.175279, 0.14738172, 0.42435026, 10.562103
516620760252016, -1.4715859, 3.8500516, 8.864211, -0.2507897, -0.4060576, 9.763959
516620769891079, -1.3794622, 4.7988057, 8.940782, 0.1671313, 0.30956125, 10.234514
516620779530037, -1.3040884, 4.3322053, 8.792427, 0.07411179, -0.041676044, 9.887782
516620789169100, -1.3328022, 4.261617, 8.744571, 0.021394283, -0.06920719, 9.81835
516620798808162, -1.2251252, 4.729414, 8.813962, 0.2878902, 0.2465334, 10.070282
516620808447225, -1.422533, 3.735196, 8.589037, -0.25322473, -0.40464163, 9.461448
516620818086287, -1.3004991, 4.968696, 8.943174, 0.28819346, 0.4204011, 10.300476
516620827725246, -1.4356936, 3.5533416, 8.699107, -0.31876868, -0.60040736, 9.481551
516620837364308, -1.3244274, 5.063213, 9.0029955, 0.29097182, 0.47185564, 10.398886
516620847003371, -1.3447664, 3.8847475, 8.705089, -0.1273686, -0.36171198, 9.619313
516620856642433, -1.302892, 4.901697, 8.849854, 0.25670993, 0.4101286, 10.188719
516620866281496, -1.2550355, 4.362116, 8.7984085, 0.12150657, -0.030629158, 9.899468
516620875920454, -1.3280165, 4.432704, 8.827123, 0.070853114, 0.029305935, 9.966179
516620885559516, -1.2646067, 4.7952166, 8.898908, 0.2481674, 0.27773476, 10.180628
516620895198579, -1.463211, 3.842873, 8.633304, -0.2663589, -0.3320098, 9.553083
516620904837641, -1.3746766, 4.989035, 8.872586, 0.21442163, 0.4735675, 10.258303
516620914476704, -1.4895321, 3.505485, 8.671589, -0.40099457, -0.6306031, 9.44167
516620924115766, -1.3447664, 4.9495535, 8.957532, 0.21825053, 0.39232922, 10.312242
516620933754725, -1.4440684, 3.6574295, 8.699107, -0.30251387, -0.51928306, 9.527613
516620943393787, -1.4045869, 4.7282176, 8.944371, 0.08987638, 0.2392435, 10.21104
516620953032850, -1.3950156, 4.112066, 8.848659, -0.09526451, -0.22482538, 9.853644
516620962671912, -1.4859428, 4.322634, 8.812766, -0.112352595, -0.008493423, 9.927001
516620972310975, -1.3818551, 4.7078786, 8.82832, 0.114191234, 0.2780347, 10.09567
516620981949933, -1.5218352, 3.9086757, 8.624929, -0.2779413, -0.2537694, 9.583397
516620991588996, -1.3615161, 5.058427, 8.868998, 0.25539362, 0.54058456, 10.283145
516621001228058, -1.5170496, 3.635894, 8.559127, -0.36747587, -0.45011735, 9.404369
516621010867121, -1.3890336, 5.0572305, 8.82114, 0.24350485, 0.55236244, 10.244662
516621020506183, -1.3926228, 3.6610186, 8.581859, -0.23818083, -0.48282957, 9.418117
516621030145246, -1.3184453, 4.7808595, 8.853444, 0.21149096, 0.2947955, 10.14134
516621039784204, -1.2897314, 4.0558343, 8.836694, -0.019187167, -0.30327964, 9.803471
516621049423266, -1.3232309, 4.331009, 8.973084, 0.036212534, -0.13129282, 10.050188
516621059062329, -1.2610176, 4.5822554, 9.068798, 0.181817, 0.014262676, 10.237045
516621068701391, -1.4153546, 3.9373896, 8.920443, -0.19791335, -0.3868482, 9.843362
516621078340454, -1.308874, 5.0596237, 9.102298, 0.30416483, 0.415524, 10.483301
516621087979516, -1.4859428, 3.7280176, 8.72782, -0.3205387, -0.44659114, 9.590558
516621097618475, -1.3316058, 5.1960144, 8.988638, 0.35110664, 0.57409286, 10.445787
516621107257537, -1.416551, 3.7627137, 8.62134, -0.2489073, -0.40390205, 9.500897
516621116896600, -1.39023, 4.922036, 8.724232, 0.1989438, 0.48937893, 10.099127
516621126535662, -1.3830515, 4.054638, 8.590233, -0.11114219, -0.16462088, 9.597166
516621136174725, -1.4548361, 4.3992043, 8.682357, -0.056271315, 0.09950638, 9.840722
516621145813787, -1.3304094, 4.508078, 8.742178, 0.09639397, 0.12351322, 9.92441
516621155452746, -1.4548361, 3.8775692, 8.580662, -0.23693745, -0.2844379, 9.520652
516621165091808, -1.3184453, 4.918447, 8.868998, 0.24528904, 0.40021372, 10.216077
516621174730871, -1.4440684, 3.6550367, 8.664411, -0.2915882, -0.5115123, 9.495788
516621184369933, -1.3040884, 5.1182475, 8.973084, 0.32901913, 0.5262728, 10.393659
516621194008996, -1.4213367, 3.6729827, 8.71466, -0.272601, -0.5261073, 9.544906
516621203648058, -1.3746766, 4.9435716, 9.035298, 0.20277052, 0.37784195, 10.381782
516621213287016, -1.3363914, 4.031906, 8.963513, -0.07156372, -0.35798383, 9.9122925
516621222926079, -1.3722838, 4.517649, 9.064013, 0.05366358, 0.0058116913, 10.219871
516621232565141, -1.2873386, 4.5655055, 9.000603, 0.15139031, 0.049375534, 10.172835
516621242204204, -1.4608182, 4.074977, 8.738588, -0.17889154, -0.18223047, 9.748699
516621251843266, -1.3220345, 4.9531426, 8.895318, 0.25515634, 0.42965937, 10.254676
516621261482329, -1.4237294, 3.656233, 8.618947, -0.28306514, -0.48515725, 9.453348
516621271121391, -1.2993027, 5.0859447, 8.837891, 0.32101625, 0.5505471, 10.259492
516621280760350, -1.396212, 3.6586258, 8.484949, -0.2446285, -0.43328595, 9.33176
516621290399412, -1.2849457, 4.9567323, 8.7266245, 0.30412441, 0.49563742, 10.101293
516621300038475, -1.2813566, 3.9852462, 8.609376, -0.03499663, -0.25270534, 9.569761
516621309677537, -1.3734802, 4.599005, 8.805588, 0.08612639, 0.18684006, 10.026631
516621319316600, -1.3746766, 4.4985065, 8.87139, 0.049317688, 0.07942295, 10.040873
516621328955662, -1.4871392, 4.040281, 8.841479, -0.22826797, -0.24150658, 9.828365
516621338594621, -1.3734802, 4.8454657, 9.107083, 0.17617539, 0.25842094, 10.402219
516621348233683, -1.5768701, 3.6047873, 8.880961, -0.4727209, -0.580585, 9.684625
516621357872746, -1.4584254, 5.0177493, 9.15135, 0.16459095, 0.41538382, 10.528646
516621367511808, -1.5337993, 3.5509489, 8.793623, -0.44604817, -0.5879803, 9.578357
516621377150871, -1.3938192, 4.8861437, 8.953942, 0.17335251, 0.36972523, 10.287052
516621386789933, -1.3854443, 3.8416767, 8.734999, -0.18339914, -0.38363957, 9.633139
516621396428996, -1.314856, 4.5738807, 8.883354, 0.13780615, 0.119582176, 10.076205
516621406067954, -1.2323036, 4.4315076, 8.845069, 0.16832975, -0.001987934, 9.968136
516621415707016, -1.402194, 4.113262, 8.677571, -0.09732619, -0.13776493, 9.703445
516621425346079, -1.3387842, 4.8454657, 8.868998, 0.20265272, 0.36433315, 10.186078
516621434985141, -1.550549, 3.6861434, 8.63809, -0.3842513, -0.4255979, 9.501561
516621444624204, -1.4045869, 5.0620165, 8.922835, 0.21325009, 0.5330243, 10.338486
516621454263266, -1.4703895, 3.6179478, 8.579466, -0.34165365, -0.48537874, 9.407791
516621463902329, -1.3698909, 5.022535, 8.839087, 0.24736765, 0.5283122, 10.241661
516621473541287, -1.3579268, 3.8931224, 8.7015, -0.14380226, -0.3533311, 9.62138
516621483180350, -1.3316058, 4.6755753, 8.88455, 0.1552729, 0.20471287, 10.124395
516621492819412, -1.274178, 4.406383, 8.82473, 0.11245996, -0.013369083, 9.944986
516621502458475, -1.3938192, 4.2317066, 8.785249, -0.061395884, -0.0991025, 9.849724
516621512097537, -1.3004991, 4.8789654, 9.037691, 0.25022054, 0.28699827, 10.345552
516621521736600, -1.4668003, 3.751946, 8.82114, -0.29922584, -0.48718357, 9.680613
516621531375662, -1.3399807, 5.099105, 9.055637, 0.28769025, 0.4794979, 10.463667
516621541014725, -1.4500505, 3.6346977, 8.703893, -0.3264209, -0.5408449, 9.522203
516621550653683, -1.3651053, 5.009374, 8.889337, 0.23799212, 0.48822403, 10.280205
516621560292746, -1.4045869, 3.8033917, 8.597412, -0.2221061, -0.36901283, 9.495716
516621569931808, -1.4069797, 4.666004, 8.740981, 0.07881644, 0.2760582, 10.0036745
516621579570871, -1.3651053, 4.304688, 8.713464, -0.008863285, -0.02378273, 9.814157
516621589209933, -1.4536397, 4.191029, 8.648857, -0.12945585, -0.0604527, 9.719059
516621598848996, -1.288535, 4.776074, 8.792427, 0.22254959, 0.3087449, 10.081326
516621608488058, -1.4237294, 3.7710886, 8.671589, -0.2436073, -0.42829394, 9.549962
516621618127121, -1.2981063, 5.1122656, 9.053245, 0.3209954, 0.4749632, 10.461977
516621627766183, -1.457229, 3.6729827, 8.742178, -0.3054265, -0.5312495, 9.574157
516621637405141, -1.3411771, 5.1086764, 8.987442, 0.27972096, 0.5185008, 10.407898
516621647044204, -1.4009976, 3.8644085, 8.717052, -0.19323331, -0.3827815, 9.628062
516621656683266, -1.4057833, 4.7569313, 8.847462, 0.099734515, 0.30913877, 10.137884
516621666322329, -1.329213, 4.2556353, 8.772088, 0.0046400875, -0.09717798, 9.83958
516621675961391, -1.3974084, 4.2520456, 8.7266245, -0.06166795, -0.06311011, 9.807081
516621685600454, -1.2837493, 4.692325, 8.812766, 0.19540353, 0.2269783, 10.061863
516621695239516, -1.4141582, 3.7423747, 8.683554, -0.25247484, -0.46038198, 9.546394
516621704878579, -1.2526426, 4.991428, 9.071191, 0.3237934, 0.35427523, 10.418236
516621714517641, -1.4440684, 3.5724843, 8.833105, -0.33370543, -0.6613188, 9.608488
516621724156600, -1.3663018, 5.0476594, 9.067601, 0.2322832, 0.44859266, 10.455231
516621733795662, -1.396212, 3.8069808, 8.742178, -0.20335089, -0.4273317, 9.625187
516621743434725, -1.3399807, 4.8849473, 8.863015, 0.19794124, 0.39321852, 10.198897
516621753073787, -1.2957134, 4.334598, 8.73141, 0.06595534, -0.0134902, 9.833647
516621762712850, -1.3890336, 4.432704, 8.666803, 0.009129375, 0.11850381, 9.8324795
516621772351912, -1.2777673, 4.7688956, 8.790034, 0.22349538, 0.30628872, 10.074524
516621781990975, -1.4440684, 3.8488553, 8.641679, -0.24360429, -0.34339857, 9.560354
516621791630037, -1.262214, 4.995017, 8.977871, 0.31761017, 0.39025545, 10.338875
516621801269100, -1.4141582, 3.5976088, 8.673982, -0.31515867, -0.5695956, 9.4740095
516621810908162, -1.3399807, 5.050052, 8.914461, 0.27129287, 0.50137854, 10.317036
516621820547225, -1.4488541, 3.6861434, 8.673982, -0.3152296, -0.481225, 9.51808
516621830186287, -1.430908, 4.729414, 8.906086, 0.06602728, 0.26495218, 10.18129
516621839825246, -1.4213367, 4.063013, 8.908479, -0.15397653, -0.27935743, 9.888758
516621849464308, -1.4883357, 4.2891345, 9.008977, -0.13587505, -0.11760998, 10.086684
516621859103371, -1.3351951, 4.6097727, 9.071191, 0.11375587, 0.075306416, 10.26161
516621868742433, -1.4548361, 3.8931224, 8.85464, -0.22680914, -0.39207745, 9.771
516621878381496, -1.2981063, 5.0512486, 9.069994, 0.2924257, 0.43392897, 10.449459
516621888020558, -1.4440684, 3.6837504, 8.737391, -0.28231198, -0.52249575, 9.573122
516621897659621, -1.3447664, 5.1326046, 8.983852, 0.28614652, 0.55329657, 10.415067
516621907298683, -1.4237294, 3.7256248, 8.59143, -0.25686553, -0.424886, 9.45904
516621916937746, -1.3698909, 4.861019, 8.717052, 0.17853332, 0.44301414, 10.063049
516621926576808, -1.3435699, 4.071388, 8.580662, -0.057282746, -0.15263867, 9.5907545
516621936215871, -1.3686945, 4.4147577, 8.636893, 0.034567863, 0.11084056, 9.795196
516621945854933, -1.2323036, 4.6229334, 8.763713, 0.2278359, 0.18449879, 9.98032
516621955493996, -1.375873, 3.9457645, 8.679964, -0.1435386, -0.29292345, 9.627953
516621965133058, -1.2263216, 5.022535, 9.048459, 0.36062872, 0.38303423, 10.408054
516621974772016, -1.442872, 3.676572, 8.861818, -0.30787766, -0.5745847, 9.680182
516621984411079, -1.3830515, 5.0979085, 9.131011, 0.22611962, 0.45393705, 10.536586
516621994050141, -1.4823537, 3.6849468, 8.88455, -0.3433468, -0.57067204, 9.709167
516622003689204, -1.39023, 4.9232326, 9.0951185, 0.16764095, 0.32797098, 10.428638
516622013328266, -1.4033905, 4.091727, 8.909675, -0.12669268, -0.2676227, 9.899817
516622022967329, -1.4285151, 4.499703, 8.831908, -0.0038639903, 0.113200665, 10.013879
516622032606391, -1.3268201, 4.5858445, 8.751749, 0.12662323, 0.18603945, 9.966589
516622042245454, -1.4835501, 3.9864426, 8.52443, -0.2268259, -0.15668774, 9.522739
516622051884516, -1.3555341, 4.9256253, 8.682357, 0.21996433, 0.5023513, 10.05892
516622061523579, -1.4979069, 3.6191442, 8.429914, -0.36070424, -0.41405368, 9.279217
516622071162641, -1.4117653, 5.0476594, 8.715857, 0.2149091, 0.5960541, 10.150698
516622080801704, -1.4955142, 3.595216, 8.520842, -0.38016966, -0.4775796, 9.348492
516622090440766, -1.3328022, 4.900501, 8.82832, 0.23779082, 0.39466047, 10.17439
516622100079829, -1.2777673, 4.0307097, 8.750552, -0.020187676, -0.2901659, 9.714262
516622109718891, -1.3220345, 4.601398, 8.9348, 0.13701528, 0.10422373, 10.13517
516622119357954, -1.2598212, 4.575077, 9.02453, 0.18241128, 0.03003025, 10.194434
516622128997016, -1.4117653, 4.091727, 8.874979, -0.13639095, -0.24750161, 9.870194
516622138636079, -1.3387842, 4.9340005, 9.052048, 0.23690459, 0.34019136, 10.387706
516622148275141, -1.5421742, 3.6382868, 8.836694, -0.41281015, -0.5587075, 9.655052
516622157914204, -1.3627125, 5.0536413, 9.1681, 0.26122946, 0.3955269, 10.546356
516622167553266, -1.4596218, 3.6406796, 8.853444, -0.3448093, -0.58857965, 9.659358
516622177192329, -1.39023, 4.974678, 9.029316, 0.21724954, 0.4054761, 10.392164
516622186831391, -1.4344971, 3.9278183, 8.822337, -0.20789835, -0.33893037, 9.7550535
516622196470454, -1.4871392, 4.4889355, 8.88455, -0.052100986, 0.10198736, 10.064007
516622206109412, -1.4356936, 4.3537407, 8.780462, -0.048620075, 0.024664402, 9.905041
516622215748475, -1.5433706, 3.970889, 8.623733, -0.2856918, -0.18711853, 9.6126
516622225387537, -1.3471591, 4.792824, 8.845069, 0.19319329, 0.31566858, 10.1431875
516622235026600, -1.5050855, 3.650251, 8.598608, -0.361575, -0.45303655, 9.444029
516622244665662, -1.3615161, 4.642076, 8.792427, 0.12521958, 0.22193575, 10.032171
516622254304725, -1.3866407, 4.3118663, 8.69791, -0.015956312, 0.0030207634, 9.806546
516622263943787, -1.4201403, 4.4004006, 8.787642, -0.022952124, 0.040780067, 9.929792
516622273582850, -1.4955142, 4.2867417, 8.898908, -0.13773881, -0.08091593, 9.988881
516622283221912, -1.4847465, 4.298706, 8.897711, -0.12293017, -0.07694197, 9.991576
516622292860975, -1.4715859, 4.331009, 8.827123, -0.09723145, -0.019169807, 9.941402
516622302500037, -1.4189439, 4.377669, 8.827123, -0.03094533, 0.0024995804, 9.954622
516622312139100, -1.3579268, 4.4111686, 8.785249, 0.036063135, 0.028511524, 9.923753
516622321778162, -1.3100704, 4.4195433, 8.732606, 0.08225149, 0.045259, 9.874121
516622331417225, -1.2921243, 4.4554358, 8.7577305, 0.10885238, 0.05843258, 9.909747
516622341056287, -1.2981063, 4.449454, 8.786445, 0.10086697, 0.041913033, 9.933399
516622350695350, -1.294517, 4.453043, 8.800801, 0.10345383, 0.040005684, 9.94722
516622360334412, -1.2669996, 4.4889355, 8.857033, 0.14063609, 0.035269737, 10.009089
516622369973475, -1.2789637, 4.490132, 8.835498, 0.12828046, 0.05153513, 9.992193
516622379612537, -1.3411771, 4.453043, 8.762517, 0.05348763, 0.06932974, 9.919798
516622389251600, -1.3770695, 4.4350967, 8.700303, 0.014431901, 0.093370914, 9.861681
516622398890662, -1.3639089, 4.4554358, 8.664411, 0.030320108, 0.11883402, 9.83708
516622408529725, -1.2861422, 4.4985065, 8.725428, 0.11708019, 0.10441828, 9.899455
516622418168787, -1.2263216, 4.526024, 8.758927, 0.18140893, 0.093132496, 9.933075
516622427807850, -1.247857, 4.510471, 8.732606, 0.15519749, 0.09961891, 9.905852
516622437446912, -1.3328022, 4.429115, 8.69791, 0.04946375, 0.07392502, 9.850846
516622447086079, -1.3304094, 4.3740797, 8.721839, 0.03335306, 0.016255379, 9.847419
516622456725141, -1.2969099, 4.3788652, 8.801998, 0.066280335, -0.024518967, 9.9159775
516622466364204, -1.329213, 4.382455, 8.781659, 0.03821592, 9.531975E-4, 9.903979
516622476003266, -1.3651053, 4.354937, 8.737391, -4.989207E-4, 0.017809391, 9.85752
516622485642329, -1.3674982, 4.3537407, 8.775677, -0.0038760453, -8.34465E-5, 9.891291
516622495281391, -1.4177474, 4.338187, 8.806784, -0.051166996, -0.0024051666, 9.919008
516622504920454, -1.3998013, 4.348955, 8.87139, -0.029158384, -0.023896217, 9.978627
516622514559516, -1.4057833, 4.3262234, 8.970692, -0.043408126, -0.08217192, 10.057689
516622524198579, -1.4057833, 4.3465624, 9.008977, -0.03726454, -0.082856655, 10.100607
516622533837641, -1.3734802, 4.316652, 9.02812, -0.017108798, -0.12252426, 10.100077
516622543476704, -1.4356936, 4.302295, 9.055637, -0.08026497, -0.124862194, 10.126872
516622553115766, -1.4536397, 4.278367, 8.983852, -0.10434976, -0.10236788, 10.055134
516622562754829, -1.4380864, 4.2975097, 8.985049, -0.08106752, -0.08836889, 10.062475
516622572393891, -1.410569, 4.3118663, 8.943174, -0.042261764, -0.06128168, 10.027796
516622582032954, -1.4141582, 4.3322053, 8.837891, -0.03354767, 0.005042553, 9.943592
516622591672016, -1.3591232, 4.3848476, 8.833105, 0.036538556, 0.033553123, 9.954666
516622601311079, -1.3411771, 4.415954, 8.76491, 0.068535656, 0.07989359, 9.905149
516622610950141, -1.2634103, 4.430311, 8.730213, 0.1472283, 0.081900835, 9.869758
516622620589204, -1.2191432, 4.4745784, 8.819944, 0.19774747, 0.05716896, 9.962791
516622630228266, -1.2251252, 4.516453, 8.874979, 0.20088366, 0.06676769, 10.030937
516622639867329, -1.294517, 4.4602213, 8.87139, 0.11566791, 0.04608631, 10.012761
516622649506391, -1.3639089, 4.408776, 8.842676, 0.025011599, 0.03313732, 9.974405
516622659145454, -1.4321043, 4.368098, 8.82114, -0.05247076, 0.030511856, 9.94686
516622668784516, -1.4464613, 4.3178487, 8.817552, -0.08568348, -0.007926941, 9.923603
516622678423579, -1.4189439, 4.3178487, 8.781659, -0.05892606, -3.466606E-4, 9.887938
516622688062746, -1.3591232, 4.3094735, 8.772088, -0.0035438687, -0.023021698, 9.86751
516622697701808, -1.375873, 4.2951164, 8.787642, -0.024511874, -0.03608203, 9.877338
516622707340871, -1.4847465, 4.2161536, 8.780462, -0.15358001, -0.06006193, 9.851384
516622716979933, -1.5469599, 4.1240296, 8.816355, -0.2432329, -0.12837839, 9.851558
516622726618996, -1.5984055, 4.048656, 8.900104, -0.32291055, -0.2090764, 9.900018
516622736258058, -1.6139588, 4.074977, 8.976674, -0.32718837, -0.21236348, 9.981927
516622745897121, -1.5756737, 4.1431723, 8.968299, -0.25774345, -0.16022825, 9.999344
516622755536183, -1.4955142, 4.237689, 8.9108715, -0.14596152, -0.08464265, 9.978462
516622765175246, -1.3866407, 4.359723, 8.886943, 0.0019539595, -0.009335995, 9.995382
516622774814308, -1.2705889, 4.4614177, 8.878569, 0.14380361, 0.039640427, 10.016256
516622784453371, -1.1928221, 4.5224347, 8.914461, 0.23676282, 0.049915314, 10.064013
516622794092433, -1.2358929, 4.5116673, 8.9013, 0.18934163, 0.05896139, 10.053676
516622803731496, -1.3375878, 4.473382, 8.816355, 0.077740386, 0.09655762, 9.975623
516622813370558, -1.4117653, 4.4147577, 8.772088, -0.0150871575, 0.08773613, 9.920927
516622823009725, -1.375873, 4.3788652, 8.744571, 0.004009679, 0.054924488, 9.875828
516622832648787, -1.3579268, 4.398008, 8.688339, 0.028705373, 0.08562708, 9.831862
516622842287850, -1.3220345, 4.4243293, 8.666803, 0.07315132, 0.10455251, 9.819351
516622851926912, -1.2909278, 4.4243293, 8.656036, 0.10211526, 0.09999013, 9.805495
516622861565975, -1.2610176, 4.4051867, 8.678768, 0.123101234, 0.062444687, 9.813146
516622871205037, -1.2729816, 4.408776, 8.720642, 0.11032799, 0.05016899, 9.853561
516622880844100, -1.3674982, 4.3848476, 8.732606, 0.012790576, 0.056017876, 9.866714
516622890483162, -1.39023, 4.334598, 8.782856, -0.029506266, -9.613037E-4, 9.89238
516622900122225, -1.3914263, 4.31067, 8.865408, -0.041825503, -0.058241367, 9.955314
516622909761287, -1.4093726, 4.3262234, 8.941978, -0.055329487, -0.0734396, 10.0326
516622919400350, -1.4261223, 4.358526, 9.025727, -0.0609677, -0.077943325, 10.123465
516622929039412, -1.4009976, 4.347759, 9.077172, -0.039265066, -0.11430454, 10.161016
516622938678579, -1.3603196, 4.368098, 9.079565, 0.007780522, -0.1098752, 10.16647
516622948317641, -1.3531412, 4.4279184, 9.040084, 0.036359653, -0.04399824, 10.156639
516622957956704, -1.3866407, 4.409972, 8.944371, 0.0021590143, -0.00458622, 10.068386
516622967595766, -1.422533, 4.377669, 8.79482, -0.03914626, 0.04550934, 9.926371
516622977234829, -1.3878372, 4.3633122, 8.702696, -0.008664802, 0.061570644, 9.833497
516622986873891, -1.3854443, 4.347759, 8.671589, -0.011194751, 0.05830145, 9.798744
516622996512954, -1.3567305, 4.338187, 8.585447, 0.013542995, 0.077522516, 9.7141285
516623006152016, -1.3459628, 4.345366, 8.571091, 0.02586414, 0.08391905, 9.703077
516623015791079, -1.3495519, 4.331009, 8.572288, 0.017055571, 0.07085347, 9.698338
516623025430141, -1.3328022, 4.3633122, 8.562716, 0.04419084, 0.095863104, 9.701743
516623035069308, -1.3543376, 4.4231324, 8.602198, 0.043990403, 0.13487267, 9.766066
516623044708371, -1.3316058, 4.4374895, 8.703893, 0.067763954, 0.093571186, 9.859457
516623054347433, -1.3591232, 4.4171505, 8.811569, 0.029472083, 0.0385499, 9.949866
516623063986496, -1.4081762, 4.4111686, 8.874979, -0.020496994, 0.020314217, 10.010284
516623073625558, -1.3926228, 4.3944187, 8.930014, -0.012299612, -0.01856041, 10.049625
516623083264621, -1.402194, 4.362116, 9.000603, -0.031660497, -0.07142544, 10.099453
516623092903683, -1.4057833, 4.3441696, 9.050852, -0.041359678, -0.108631134, 10.136688
516623102542746, -1.4344971, 4.3238306, 9.048459, -0.07170987, -0.10857582, 10.129706
516623112181808, -1.4177474, 4.304688, 9.004191, -0.06054111, -0.10710144, 10.079715
516623121820975, -1.3674982, 4.2927237, 8.944371, -0.015173987, -0.10408211, 10.014402
516623131460037, -1.3256238, 4.304688, 8.853444, 0.02992773, -0.06514692, 9.933074
516623141099100, -1.4057833, 4.2771707, 8.660822, -0.05026041, 0.025368452, 9.760998
516623150738162, -1.3280165, 4.347759, 8.750552, 0.053749606, 0.02072525, 9.8608055
516623160377225, -1.3304094, 4.3800616, 8.943174, 0.05822304, -0.040107727, 10.046408
516623170016287, -1.3483555, 4.392026, 8.754142, 0.051200584, 0.06362724, 9.886166
516623179655350, -1.3974084, 4.3908296, 8.71466, 0.007679373, 0.09537816, 9.857396
516623189294412, -1.3770695, 4.4350967, 8.782856, 0.03797503, 0.09124279, 9.934546
516623198933579, -1.3878372, 4.426722, 8.76132, 0.02250272, 0.09388018, 9.913293
516623208572641, -1.3986049, 4.382455, 8.785249, -0.0069519877, 0.045663357, 9.916675
516623218211704, -1.39023, 4.3262234, 8.768498, -0.016806483, 0.005238533, 9.875991